###################################################################
## OUTPUT of StarlightChains_v04.for    [Cid@UFSC - 01/Apr/2007] ##
###################################################################

## Some input info
1961V.txt                                [arq_obs]
Base.CB07.vall.4m                        [arq_base]
Masks.EmLines.NEW.gm                     [arq_masks]
StCv04.C11.config                        [arq_config]
   66                                    [N_base]
    0                                    [N_YAV_components = # of components with extra extinction!]
    0                                    [i_FitPowerLaw (1/0 = Yes/No)]
-9.99                                    [alpha_PowerLaw]
CCM                                      [red_law_option]
 1.458241                                [q_norm = A(l_norm)/A(V)]

## (Re)Sampling Parameters
 3741.00                                 [l_ini (A)]
 7218.00                                 [l_fin (A)]
    1.00                                 [dl    (A)]     (OBS: dl_cushion =    50.00 A)

## Normalization info
 4020.00                                 [l_norm (A) - for base]
 4010.00                                 [llow_norm (A) - window for f_obs]
 4060.00                                 [lupp_norm (A) - window for f_obs]
4.405379E-17                             [fobs_norm (in input units)]

## S/N
 3691.00                                 [llow_SN (A) - window for S/N]
 7268.00                                 [lupp_SN (A) - window for S/N]
   2.474                                 [S/N in S/N window]
   4.652                                 [S/N in norm. window]
  10.000                                 [S/N_err in S/N window]
  18.805                                 [S/N_err in norm. window]
  1.0000                                 [fscale_chi2]

## etc...
    -2007203                             [idum_orig]
  2402                                   [NOl_eff]
  1906                                   [Nl_eff]
   496    NSIGMA                         [Ntot_cliped & clip_method]
   731850                                [Nglobal_steps]
   7                                     [N_chains]
  12                                     [NEX0s_base = N_base in EX0s-fits]
 0   0   1       35   2.0   5.414E+01    [Clip-Bug, RC-Crash & Burn-In warning-flags, n_censored_weights, wei_nsig_threshold & wei_limit]
    13     13.207     12.672      0.536  [idt_all, wdt_TotTime, wdt_UsrTime & wdt_SysTime (sec)]

## Synthesis Results - Best model ##

 2.13154E+00                             [chi2/Nl_eff]
    12.02243                             [adev (%)]

    76.87560                             [sum-of-x (%)]
 1.60511E-16                             [Flux_tot (units of input spectrum!)]
 8.17509E-15                             [Mini_tot (???)]
 7.81785E-15                             [Mcor_tot (???)]

 -19.79                                  [v0_min  (km/s)]
  29.38                                  [vd_min  (km/s)]
 1.1585                                  [AV_min  (mag)]
 0.0000                                  [YAV_min (mag)]

# j     x_j(%)      Mini_j(%)     Mcor_j(%)     age_j(yr)     Z_j      (L/M)_j    YAV?  Mstars   component_j        a/Fe...       SSP_chi2r SSP_adev(%)   SSP_AV   SSP_x(%)
  1      4.9772     1.1620E+01    1.2151E+01    1.000000E+06  0.00400  1.094E-02    0   1.0000   age020_m42            0.0000     2.3085E+00    12.2972   1.5899    73.2149
  2      0.0000     0.0000E+00    0.0000E+00    3.160000E+06  0.00400  4.007E-02    0   0.9999   age045_m42            0.0000     2.4340E+00    12.5837   0.8870    77.4483
  3      0.0000     0.0000E+00    0.0000E+00    5.010000E+06  0.00400  2.539E-02    0   0.9488   age055_m42            0.0000     2.3721E+00    12.4624   1.1953    75.9505
  4      0.0000     0.0000E+00    0.0000E+00    6.610000E+06  0.00400  2.620E-02    0   0.9220   age061_m42            0.0000     2.4632E+00    12.6372   0.8147    77.5789
  5      0.0000     0.0000E+00    0.0000E+00    1.000000E+07  0.00400  1.322E-02    0   0.8862   age070_m42            0.0000     2.4005E+00    12.5927   0.5284    79.4190
  6      0.0000     0.0000E+00    0.0000E+00    1.445000E+07  0.00400  7.883E-03    0   0.8571   age078_m42            0.0000     2.3511E+00    12.4976   0.8497    77.6105
  7      0.0000     0.0000E+00    0.0000E+00    2.512000E+07  0.00400  5.251E-03    0   0.8174   age090_m42            0.0000     2.4292E+00    12.6850   0.3991    79.8268
  8      0.0000     0.0000E+00    0.0000E+00    4.000000E+07  0.00400  3.649E-03    0   0.7851   age104_m42            0.0000     2.4650E+00    12.7382   0.1744    80.3770
  9      0.0000     0.0000E+00    0.0000E+00    5.500000E+07  0.00400  3.098E-03    0   0.7629   age110_m42            0.0000     2.5320E+00    12.8154   0.3356    80.1035
 10      0.0000     0.0000E+00    0.0000E+00    1.015200E+08  0.00400  2.228E-03    0   0.7207   age116_m42            0.0000     2.6108E+00    12.9203   0.3613    80.0553
 11      0.0000     0.0000E+00    0.0000E+00    2.861200E+08  0.00400  1.093E-03    0   0.6648   age125_m42            0.0000     2.6098E+00    12.8909  -0.1997    82.2857
 12      0.0000     0.0000E+00    0.0000E+00    5.088000E+08  0.00400  6.597E-04    0   0.6365   age130_m42            0.0000     2.7295E+00    13.0479  -0.2035    82.7137
 13      0.0000     0.0000E+00    0.0000E+00    1.434000E+09  0.00400  2.132E-04    0   0.5798   age139_m42            0.0000     2.9505E+00    13.4213  -1.0000    78.8983
 14      0.0000     0.0000E+00    0.0000E+00    4.250000E+09  0.00400  5.895E-05    0   0.5377   age158_m42            0.0000     4.1547E+00    15.8891  -1.0000    63.3403
 15      0.0000     0.0000E+00    0.0000E+00    7.500000E+09  0.00400  3.510E-05    0   0.5212   age171_m42            0.0000     5.0789E+00    17.6069  -1.0000    57.9193
 16      0.0000     0.0000E+00    0.0000E+00    1.300000E+10  0.00400  2.005E-05    0   0.5034   age193_m42            0.0000     6.0120E+00    19.1784  -1.0000    53.4443
 17      0.0000     0.0000E+00    0.0000E+00    1.800000E+10  0.00400  1.525E-05    0   0.4967   age213_m42            0.0000     6.1244E+00    19.4240  -1.0000    52.6352
 18      0.0071     1.4642E-02    1.5311E-02    1.000000E+06  0.00800  1.238E-02    0   1.0000   age020_m52            0.0000     2.3109E+00    12.3040   1.5863    73.3581
 19      0.0000     0.0000E+00    0.0000E+00    3.160000E+06  0.00800  3.074E-02    0   0.9966   age045_m52            0.0000     2.3304E+00    12.3543   1.5100    73.9953
 20      0.0000     0.0000E+00    0.0000E+00    5.010000E+06  0.00800  2.668E-02    0   0.9443   age055_m52            0.0000     2.3604E+00    12.4388   1.2748    75.3621
 21      0.0000     0.0000E+00    0.0000E+00    6.610000E+06  0.00800  2.136E-02    0   0.9177   age061_m52            0.0000     2.3707E+00    12.5045   0.0204    80.5992
 22      0.0000     0.0000E+00    0.0000E+00    1.000000E+07  0.00800  1.215E-02    0   0.8827   age070_m52            0.0000     2.3389E+00    12.4860   0.7038    79.4216
 23      0.0000     0.0000E+00    0.0000E+00    1.445000E+07  0.00800  8.717E-03    0   0.8552   age078_m52            0.0000     2.3580E+00    12.5075   0.8175    78.6074
 24      0.0000     0.0000E+00    0.0000E+00    2.512000E+07  0.00800  5.592E-03    0   0.8162   age090_m52            0.0000     2.4200E+00    12.6732   0.4654    80.7010
 25      0.0000     0.0000E+00    0.0000E+00    4.000000E+07  0.00800  3.896E-03    0   0.7841   age104_m52            0.0000     2.4619E+00    12.7242   0.3845    81.0945
 26      0.0000     0.0000E+00    0.0000E+00    1.015200E+08  0.00800  2.148E-03    0   0.7226   age116_m52            0.0000     2.5600E+00    12.8203   0.3297    80.7000
 27      0.0000     0.0000E+00    0.0000E+00    2.861200E+08  0.00800  9.925E-04    0   0.6683   age125_m52            0.0000     2.7710E+00    13.1312  -0.1378    83.4127
 28      0.0000     0.0000E+00    0.0000E+00    9.047900E+08  0.00800  3.141E-04    0   0.6138   age135_m52            0.0000     2.9057E+00    13.4004  -0.9292    86.6016
 29      0.0000     0.0000E+00    0.0000E+00    1.434000E+09  0.00800  1.719E-04    0   0.5853   age139_m52            0.0000     3.7732E+00    15.0529  -1.0000    69.3952
 30      0.0000     0.0000E+00    0.0000E+00    2.500000E+09  0.00800  7.872E-05    0   0.5600   age150_m52            0.0000     5.0305E+00    17.4086  -1.0000    60.0850
 31      0.0000     0.0000E+00    0.0000E+00    4.250000E+09  0.00800  4.336E-05    0   0.5426   age158_m52            0.0000     5.1070E+00    17.5437  -1.0000    59.1221
 32      0.0000     0.0000E+00    0.0000E+00    6.250000E+09  0.00800  3.159E-05    0   0.5319   age166_m52            0.0000     6.3157E+00    19.5112  -1.0000    53.9034
 33      0.0000     0.0000E+00    0.0000E+00    1.300000E+10  0.00800  1.361E-05    0   0.5073   age193_m52            0.0000     9.4888E+00    24.1961  -1.0000    42.7314
 34      0.0000     0.0000E+00    0.0000E+00    1.800000E+10  0.00800  9.886E-06    0   0.4990   age213_m52            0.0000     1.0287E+01    25.0986  -1.0000    40.3436
 35      0.0295     4.8844E-02    5.1076E-02    1.000000E+06  0.02000  1.544E-02    0   1.0000   age020_m62            0.0000     2.3105E+00    12.3017   1.5817    73.5556
 36      0.0000     0.0000E+00    0.0000E+00    3.160000E+06  0.02000  3.762E-02    0   0.9858   age045_m62            0.0000     2.3308E+00    12.3535   1.5188    74.2597
 37      0.0000     0.0000E+00    0.0000E+00    5.010000E+06  0.02000  3.296E-02    0   0.9342   age055_m62            0.0000     2.4335E+00    12.5825   1.1605    76.6985
 38      0.0000     0.0000E+00    0.0000E+00    8.710000E+06  0.02000  1.154E-02    0   0.8861   age067_m62            0.0000     2.4556E+00    12.9455   0.1410    82.2552
 39      0.0000     0.0000E+00    0.0000E+00    1.445000E+07  0.02000  7.663E-03    0   0.8472   age078_m62            0.0000     2.3098E+00    12.4848   0.3489    81.3622
 40      0.0000     0.0000E+00    0.0000E+00    2.512000E+07  0.02000  4.532E-03    0   0.8099   age090_m62            0.0000     2.3436E+00    12.5657   0.3444    81.0397
 41      0.0000     0.0000E+00    0.0000E+00    5.500000E+07  0.02000  2.733E-03    0   0.7595   age110_m62            0.0000     2.4476E+00    12.6716   0.3635    80.6487
 42      0.0000     0.0000E+00    0.0000E+00    1.609000E+08  0.02000  1.369E-03    0   0.6985   age120_m62            0.0000     2.6941E+00    13.0130   0.2182    82.2533
 43      0.0000     0.0000E+00    0.0000E+00    2.861200E+08  0.02000  9.013E-04    0   0.6714   age125_m62            0.0000     2.8987E+00    13.3352  -0.0221    84.1859
 44      0.0000     0.0000E+00    0.0000E+00    5.088000E+08  0.02000  5.028E-04    0   0.6449   age130_m62            0.0000     3.0495E+00    13.5828  -0.3908    86.0717
 45      0.0000     0.0000E+00    0.0000E+00    9.047900E+08  0.02000  2.428E-04    0   0.6179   age135_m62            0.0000     2.9468E+00    13.4857  -0.9888    86.0519
 46      0.0000     0.0000E+00    0.0000E+00    1.434000E+09  0.02000  1.263E-04    0   0.5908   age139_m62            0.0000     3.6373E+00    14.7084  -1.0000    71.6148
 47      0.0000     0.0000E+00    0.0000E+00    2.500000E+09  0.02000  5.985E-05    0   0.5673   age150_m62            0.0000     5.2534E+00    17.6476  -1.0000    60.3123
 48      0.0000     0.0000E+00    0.0000E+00    4.250000E+09  0.02000  3.271E-05    0   0.5468   age158_m62            0.0000     7.1476E+00    20.6233  -1.0000    51.9540
 49      0.0000     0.0000E+00    0.0000E+00    1.000000E+10  0.02000  1.360E-05    0   0.5167   age181_m62            0.0000     9.5675E+00    23.9228  -1.0000    43.7681
 50      0.0000     0.0000E+00    0.0000E+00    1.800000E+10  0.02000  7.124E-06    0   0.5013   age213_m62            0.0000     1.1088E+01    25.7512  -1.0000    39.1689
 51     52.3132     5.1547E+01    5.3891E+01    1.000000E+06  0.05000  2.592E-02    0   0.9998   age020_m72            0.0000     2.3018E+00    12.2828   1.5713    73.6578
 52      0.0000     0.0000E+00    0.0000E+00    3.160000E+06  0.05000  4.845E-02    0   0.9577   age045_m72            0.0000     2.3787E+00    12.4688   1.4095    74.9827
 53      0.0000     0.0000E+00    0.0000E+00    5.010000E+06  0.05000  3.072E-02    0   0.9147   age055_m72            0.0000     2.2054E+00    12.1719   0.9372    78.3073
 54     17.2304     3.0245E+01    2.8076E+01    6.610000E+06  0.05000  1.455E-02    0   0.8877   age061_m72            0.0000     2.5460E+00    13.1759   0.1999    83.0643
 55      2.3182     6.5249E+00    5.8160E+00    1.000000E+07  0.05000  9.074E-03    0   0.8524   age070_m72            0.0000     2.1954E+00    12.1721   1.1300    77.9697
 56      0.0000     0.0000E+00    0.0000E+00    2.512000E+07  0.05000  4.250E-03    0   0.7902   age090_m72            0.0000     2.2927E+00    12.3776   0.8350    79.0906
 57      0.0000     0.0000E+00    0.0000E+00    4.000000E+07  0.05000  3.087E-03    0   0.7618   age104_m72            0.0000     2.3502E+00    12.4941   0.6106    80.2789
 58      0.0000     0.0000E+00    0.0000E+00    1.015200E+08  0.05000  1.700E-03    0   0.7096   age116_m72            0.0000     2.6169E+00    12.9011   0.3610    81.9611
 59      0.0000     0.0000E+00    0.0000E+00    2.861200E+08  0.05000  7.384E-04    0   0.6633   age125_m72            0.0000     2.9662E+00    13.4320  -0.1490    85.1451
 60      0.0000     0.0000E+00    0.0000E+00    5.088000E+08  0.05000  3.819E-04    0   0.6372   age130_m72            0.0000     3.0327E+00    13.5984  -0.6458    86.6444
 61      0.0000     0.0000E+00    0.0000E+00    9.047900E+08  0.05000  1.676E-04    0   0.6110   age135_m72            0.0000     3.5876E+00    14.6092  -1.0000    74.6631
 62      0.0000     0.0000E+00    0.0000E+00    1.434000E+09  0.05000  8.837E-05    0   0.5874   age139_m72            0.0000     5.3370E+00    17.7715  -1.0000    61.1494
 63      0.0000     0.0000E+00    0.0000E+00    2.500000E+09  0.05000  4.233E-05    0   0.5598   age150_m72            0.0000     7.2057E+00    20.6257  -1.0000    52.4038
 64      0.0000     0.0000E+00    0.0000E+00    6.250000E+09  0.05000  1.435E-05    0   0.5249   age166_m72            0.0000     1.0254E+01    24.8347  -1.0000    41.5608
 65      0.0000     0.0000E+00    0.0000E+00    1.300000E+10  0.05000  6.513E-06    0   0.5036   age193_m72            0.0000     1.2293E+01    27.1976  -1.0000    36.4974
 66      0.0000     0.0000E+00    0.0000E+00    1.800000E+10  0.05000  4.527E-06    0   0.4945   age213_m72            0.0000     1.3452E+01    28.4671  -1.0000    33.5865


## Synthesis Results - Average & Chains ##

# j      x_j: min, <> & last-chain-values for 1 ...  7 chains
  1      4.9772      5.1832     10.1011      9.7390      4.0822      5.1757      5.4531      6.2391      7.8133
  2      0.0000      2.3050      1.3339      2.0136      2.9388      1.0442      0.4982      2.4379      0.0000
  3      0.0000      1.3472      1.0054      1.4756      1.9500      0.0000      2.1130      0.0000      0.0000
  4      0.0000      0.6023      0.0000      0.4007      0.0000      0.5535      0.0000      0.1313      0.0000
  5      0.0000      0.2126      0.0000      0.0486      0.0000      0.0000      0.0000      0.0000      0.0000
  6      0.0000      0.2466      0.0000      0.0000      0.0000      0.1832      0.0000      0.0000      0.0000
  7      0.0000      0.0937      0.1234      0.0000      0.0000      0.0000      0.5479      0.0000      0.0000
  8      0.0000      0.1200      0.0000      0.0000      0.0036      0.0000      0.0000      0.3212      0.0000
  9      0.0000      0.1871      0.0000      0.0000      0.0000      0.0000      0.0000      0.0000      0.0902
 10      0.0000      0.1429      0.0000      0.0807      0.0000      0.0000      0.0000      0.0000      0.0146
 11      0.0000      0.1614      0.2387      0.0803      0.0000      0.0000      0.0598      0.0000      0.2789
 12      0.0000      0.1242      0.0000      0.0000      0.0000      0.0000      0.0000      0.0000      0.0000
 13      0.0000      0.0210      0.0000      0.0000      0.0000      0.0000      0.0000      0.0000      0.0000
 14      0.0000      0.0196      0.0000      0.0000      0.0000      0.0000      0.0000      0.0000      0.0000
 15      0.0000      0.0056      0.0000      0.0000      0.0000      0.0000      0.0000      0.0000      0.0000
 16      0.0000      0.0021      0.0000      0.0000      0.0000      0.0000      0.0000      0.0000      0.0000
 17      0.0000      0.0028      0.0000      0.0000      0.0000      0.0000      0.0000      0.0000      0.0000
 18      0.0071      5.2472      4.8255      2.0498      6.5158      3.5503      3.0246      6.3354      2.9863
 19      0.0000      2.3030      0.0000      1.8593      1.9841      3.0383      0.8778      1.4131      1.6045
 20      0.0000      0.9501      2.4252      0.0000      0.0000      0.1181      0.8549      0.5916      0.0000
 21      0.0000      0.4915      1.2799      0.0177      0.0000      0.4903      0.0000      0.2332      0.0000
 22      0.0000      0.2145      0.0000      0.0000      0.0000      0.0000      0.0000      0.0000      0.0000
 23      0.0000      0.2259      0.0000      0.0000      0.0000      0.0000      0.0000      0.0000      0.0000
 24      0.0000      0.1420      0.0000      0.0000      0.0000      0.0328      0.0000      0.0000      0.0000
 25      0.0000      0.1707      0.0000      0.0000      0.0000      0.0000      0.9470      0.0000      0.0000
 26      0.0000      0.1966      0.0000      0.0000      0.0000      0.0000      0.0000      0.0000      0.2335
 27      0.0000      0.1287      0.0000      0.0000      0.0000      0.7662      0.0000      0.0000      0.0000
 28      0.0000      0.1365      0.0000      0.0000      0.0000      1.1090      0.0000      0.0000      0.0000
 29      0.0000      0.0111      0.0000      0.0000      0.0000      0.0000      0.0000      0.0000      0.0000
 30      0.0000      0.0045      0.0000      0.0000      0.0000      0.0000      0.0555      0.0000      0.0000
 31      0.0000      0.0160      0.0000      0.0000      0.0000      0.0000      0.0000      0.0000      0.0000
 32      0.0000      0.0127      0.0000      0.0000      0.0000      0.0000      0.0000      0.0000      0.0000
 33      0.0000      0.0443      0.0000      0.0413      0.0000      0.0000      0.0000      0.0000      0.1450
 34      0.0000      0.0010      0.0000      0.0245      0.0000      0.0000      0.0000      0.0000      0.0000
 35      0.0295      4.7044      3.9103      4.3610      5.1001      4.0450      4.9012      5.7359      4.6026
 36      0.0000      2.1299      1.7952      0.0000      9.0382      3.5078      4.1071      0.8663      4.3917
 37      0.0000      0.4790      0.0000      0.0000      0.0000      0.2191      2.1133      0.7224      0.0000
 38      0.0000      0.0898      0.0000      0.0000      0.0000      0.0000      0.0000      0.0000      0.0000
 39      0.0000      0.3474      0.0000      0.0000      0.0000      0.3209      0.0000      0.0000      0.0000
 40      0.0000      0.3069      0.0000      0.0000      0.0000      0.0000      0.0000      0.0000      1.3439
 41      0.0000      0.1622      0.0000      0.0000      0.0000      0.0000      0.0657      0.0000      0.0000
 42      0.0000      0.1901      0.0000      0.0000      0.0000      0.0000      0.0000      0.0000      0.0000
 43      0.0000      0.0911      0.0314      0.0000      0.0000      0.1134      0.0000      0.0000      0.0000
 44      0.0000      0.4585      0.0000      0.0623      0.7880      0.8145      1.0148      0.6846      1.2223
 45      0.0000      0.1781      0.0000      0.0000      0.0000      0.0000      0.0000      0.0000      0.3727
 46      0.0000      0.0328      0.0763      0.0000      0.0000      0.0000      0.0000      0.5495      0.0000
 47      0.0000      0.0087      0.2732      0.0000      0.0000      0.0000      0.0000      0.0000      0.0000
 48      0.0000      0.0075      0.0000      0.0000      0.0000      0.0000      0.0000      0.0000      0.0000
 49      0.0000      0.0094      0.0000      0.0000      0.0000      0.0000      0.0000      0.0000      0.0000
 50      0.0000      0.0016      0.0000      0.0000      0.0000      0.0000      0.0000      0.0000      0.0000
 51     52.3132     18.9216     19.3581     24.4499     13.4535     25.9928     20.4739     22.6788     28.5734
 52      0.0000      0.7795      0.0000      1.6581      0.6202      0.0000      0.5073      0.4847      0.0000
 53      0.0000      3.4688      2.8498      4.8053      5.4196      3.5354      1.9128      0.2564      0.4916
 54     17.2304     18.2180     18.0721     21.0623     20.0881     20.8065     20.1520     20.9938     19.0813
 55      2.3182      5.5784     10.5069      1.9553      5.9451      3.3850      8.4137      6.6292      3.2328
 56      0.0000      0.5672      0.5263      1.6487      0.0000      0.0000      0.0000      0.2312      0.0000
 57      0.0000      0.3538      0.0000      0.0000      0.3627      0.0000      0.6048      0.0000      0.0000
 58      0.0000      0.1317      0.0000      0.0000      0.0000      0.0000      0.0000      0.0000      0.0000
 59      0.0000      0.1114      0.0000      0.0000      0.1285      0.0000      0.0000      0.8658      1.0230
 60      0.0000      0.1869      0.0000      0.3387      0.2080      0.0000      0.0000      0.0000      0.8086
 61      0.0000      0.0494      0.0000      0.3296      0.0000      0.0000      0.0822      0.0000      0.0000
 62      0.0000      0.0269      0.0000      0.0000      0.0000      0.0000      0.0000      0.0000      0.0000
 63      0.0000      0.0366      0.0000      0.2752      0.0000      0.0000      0.0000      0.1567      0.0000
 64      0.0000      0.0006      0.0000      0.0000      0.0000      0.0000      0.0000      0.0000      0.0000
 65      0.0000      0.0013      0.0000      0.0000      0.0000      0.0000      0.0000      0.0000      0.0000
 66      0.0000      0.0009      0.0000      0.0589      0.0000      0.0000      0.0000      0.0000      0.0000

# j      m_j: min, <> & last-chain-values for 1 ...  7 chains
  1  1.2151E+01  4.1338E+00  1.1573E+01  4.6387E+00  6.5267E+00  6.0214E+00  7.4063E+00  5.2585E+00  4.8549E+00
  2  0.0000E+00  5.0185E-01  4.1723E-01  2.6182E-01  1.2827E+00  3.3164E-01  1.8471E-01  5.6094E-01  0.0000E+00
  3  0.0000E+00  4.3924E-01  4.7093E-01  2.8733E-01  1.2745E+00  0.0000E+00  1.1732E+00  0.0000E+00  0.0000E+00
  4  0.0000E+00  1.8494E-01  0.0000E+00  7.3478E-02  0.0000E+00  2.4789E-01  0.0000E+00  4.2591E-02  0.0000E+00
  5  0.0000E+00  1.2435E-01  0.0000E+00  1.6968E-02  0.0000E+00  0.0000E+00  0.0000E+00  0.0000E+00  0.0000E+00
  6  0.0000E+00  2.3397E-01  0.0000E+00  0.0000E+00  0.0000E+00  2.5351E-01  0.0000E+00  0.0000E+00  0.0000E+00
  7  0.0000E+00  1.2730E-01  2.4078E-01  0.0000E+00  0.0000E+00  0.0000E+00  1.2673E+00  0.0000E+00  0.0000E+00
  8  0.0000E+00  2.2533E-01  0.0000E+00  0.0000E+00  1.3553E-02  0.0000E+00  0.0000E+00  6.3728E-01  0.0000E+00
  9  0.0000E+00  4.0209E-01  0.0000E+00  0.0000E+00  0.0000E+00  0.0000E+00  0.0000E+00  0.0000E+00  1.5095E-01
 10  0.0000E+00  4.0330E-01  0.0000E+00  1.3610E-01  0.0000E+00  0.0000E+00  0.0000E+00  0.0000E+00  3.2103E-02
 11  0.0000E+00  8.5669E-01  1.8197E+00  2.5435E-01  0.0000E+00  0.0000E+00  5.4012E-01  0.0000E+00  1.1531E+00
 12  0.0000E+00  1.0451E+00  0.0000E+00  0.0000E+00  0.0000E+00  0.0000E+00  0.0000E+00  0.0000E+00  0.0000E+00
 13  0.0000E+00  4.9871E-01  0.0000E+00  0.0000E+00  0.0000E+00  0.0000E+00  0.0000E+00  0.0000E+00  0.0000E+00
 14  0.0000E+00  1.5628E+00  0.0000E+00  0.0000E+00  0.0000E+00  0.0000E+00  0.0000E+00  0.0000E+00  0.0000E+00
 15  0.0000E+00  7.2170E-01  0.0000E+00  0.0000E+00  0.0000E+00  0.0000E+00  0.0000E+00  0.0000E+00  0.0000E+00
 16  0.0000E+00  4.6259E-01  0.0000E+00  0.0000E+00  0.0000E+00  0.0000E+00  0.0000E+00  0.0000E+00  0.0000E+00
 17  0.0000E+00  8.0245E-01  0.0000E+00  0.0000E+00  0.0000E+00  0.0000E+00  0.0000E+00  0.0000E+00  0.0000E+00
 18  1.5311E-02  3.6980E+00  4.8858E+00  8.6275E-01  9.2057E+00  3.6499E+00  3.6301E+00  4.7186E+00  1.6397E+00
 19  0.0000E+00  6.5144E-01  0.0000E+00  3.1410E-01  1.1251E+00  1.2537E+00  4.2285E-01  4.2242E-01  3.5361E-01
 20  0.0000E+00  2.9341E-01  1.0759E+00  0.0000E+00  0.0000E+00  5.3201E-02  4.4959E-01  1.9306E-01  0.0000E+00
 21  0.0000E+00  1.8423E-01  6.8924E-01  3.9668E-03  0.0000E+00  2.6809E-01  0.0000E+00  9.2368E-02  0.0000E+00
 22  0.0000E+00  1.3597E-01  0.0000E+00  0.0000E+00  0.0000E+00  0.0000E+00  0.0000E+00  0.0000E+00  0.0000E+00
 23  0.0000E+00  1.9338E-01  0.0000E+00  0.0000E+00  0.0000E+00  0.0000E+00  0.0000E+00  0.0000E+00  0.0000E+00
 24  0.0000E+00  1.8088E-01  0.0000E+00  0.0000E+00  0.0000E+00  6.1020E-02  0.0000E+00  0.0000E+00  0.0000E+00
 25  0.0000E+00  2.9974E-01  0.0000E+00  0.0000E+00  0.0000E+00  0.0000E+00  2.8318E+00  0.0000E+00  0.0000E+00
 26  0.0000E+00  5.7707E-01  0.0000E+00  0.0000E+00  0.0000E+00  0.0000E+00  0.0000E+00  0.0000E+00  5.3407E-01
 27  0.0000E+00  7.5624E-01  0.0000E+00  0.0000E+00  0.0000E+00  6.5664E+00  0.0000E+00  0.0000E+00  0.0000E+00
 28  0.0000E+00  2.3279E+00  0.0000E+00  0.0000E+00  0.0000E+00  2.7582E+01  0.0000E+00  0.0000E+00  0.0000E+00
 29  0.0000E+00  3.3111E-01  0.0000E+00  0.0000E+00  0.0000E+00  0.0000E+00  0.0000E+00  0.0000E+00  0.0000E+00
 30  0.0000E+00  2.7754E-01  0.0000E+00  0.0000E+00  0.0000E+00  0.0000E+00  5.8659E+00  0.0000E+00  0.0000E+00
 31  0.0000E+00  1.7446E+00  0.0000E+00  0.0000E+00  0.0000E+00  0.0000E+00  0.0000E+00  0.0000E+00  0.0000E+00
 32  0.0000E+00  1.8681E+00  0.0000E+00  0.0000E+00  0.0000E+00  0.0000E+00  0.0000E+00  0.0000E+00  0.0000E+00
 33  0.0000E+00  1.4393E+01  0.0000E+00  8.0303E+00  0.0000E+00  0.0000E+00  0.0000E+00  0.0000E+00  3.6748E+01
 34  0.0000E+00  4.2551E-01  0.0000E+00  6.4383E+00  0.0000E+00  0.0000E+00  0.0000E+00  0.0000E+00  0.0000E+00
 35  5.1076E-02  2.6584E+00  3.1745E+00  1.4718E+00  5.7775E+00  3.3344E+00  4.7166E+00  3.4254E+00  2.0264E+00
 36  0.0000E+00  4.8697E-01  5.8963E-01  0.0000E+00  4.1425E+00  1.1699E+00  1.5991E+00  2.0931E-01  7.8228E-01
 37  0.0000E+00  1.1846E-01  0.0000E+00  0.0000E+00  0.0000E+00  7.9055E-02  8.9000E-01  1.8879E-01  0.0000E+00
 38  0.0000E+00  6.0168E-02  0.0000E+00  0.0000E+00  0.0000E+00  0.0000E+00  0.0000E+00  0.0000E+00  0.0000E+00
 39  0.0000E+00  3.3513E-01  0.0000E+00  0.0000E+00  0.0000E+00  4.5152E-01  0.0000E+00  0.0000E+00  0.0000E+00
 40  0.0000E+00  4.7853E-01  0.0000E+00  0.0000E+00  0.0000E+00  0.0000E+00  0.0000E+00  0.0000E+00  1.6326E+00
 41  0.0000E+00  3.9328E-01  0.0000E+00  0.0000E+00  0.0000E+00  0.0000E+00  2.7127E-01  0.0000E+00  0.0000E+00
 42  0.0000E+00  8.4649E-01  0.0000E+00  0.0000E+00  0.0000E+00  0.0000E+00  0.0000E+00  0.0000E+00  0.0000E+00
 43  0.0000E+00  5.9236E-01  2.9332E-01  0.0000E+00  0.0000E+00  1.0751E+00  0.0000E+00  0.0000E+00  0.0000E+00
 44  0.0000E+00  5.1306E+00  0.0000E+00  4.1612E-01  1.7678E+01  1.3297E+01  1.9340E+01  8.0961E+00  1.0657E+01
 45  0.0000E+00  3.9544E+00  0.0000E+00  0.0000E+00  0.0000E+00  0.0000E+00  0.0000E+00  0.0000E+00  6.4475E+00
 46  0.0000E+00  1.3392E+00  4.4709E+00  0.0000E+00  0.0000E+00  0.0000E+00  0.0000E+00  2.3699E+01  0.0000E+00
 47  0.0000E+00  7.1659E-01  3.2457E+01  0.0000E+00  0.0000E+00  0.0000E+00  0.0000E+00  0.0000E+00  0.0000E+00
 48  0.0000E+00  1.0875E+00  0.0000E+00  0.0000E+00  0.0000E+00  0.0000E+00  0.0000E+00  0.0000E+00  0.0000E+00
 49  0.0000E+00  3.1172E+00  0.0000E+00  0.0000E+00  0.0000E+00  0.0000E+00  0.0000E+00  0.0000E+00  0.0000E+00
 50  0.0000E+00  9.5324E-01  0.0000E+00  0.0000E+00  0.0000E+00  0.0000E+00  0.0000E+00  0.0000E+00  0.0000E+00
 51  5.3891E+01  6.3680E+00  9.3594E+00  4.9142E+00  9.0767E+00  1.2761E+01  1.1734E+01  8.0659E+00  7.4921E+00
 52  0.0000E+00  1.3443E-01  0.0000E+00  1.7078E-01  2.1441E-01  0.0000E+00  1.4901E-01  8.8335E-02  0.0000E+00
 53  0.0000E+00  9.0118E-01  1.0636E+00  7.4554E-01  2.8225E+00  1.3398E+00  8.4624E-01  7.0396E-02  9.9498E-02
 54  2.8076E+01  9.6977E+00  1.3820E+01  6.6958E+00  2.1437E+01  1.6157E+01  1.8268E+01  1.1810E+01  7.9136E+00
 55  5.8160E+00  4.5721E+00  1.2372E+01  9.5711E-01  9.7682E+00  4.0471E+00  1.1744E+01  5.7420E+00  2.0644E+00
 56  0.0000E+00  9.2009E-01  1.2265E+00  1.5973E+00  0.0000E+00  0.0000E+00  0.0000E+00  3.9638E-01  0.0000E+00
 57  0.0000E+00  7.6171E-01  0.0000E+00  0.0000E+00  1.5657E+00  0.0000E+00  2.2178E+00  0.0000E+00  0.0000E+00
 58  0.0000E+00  4.7965E-01  0.0000E+00  0.0000E+00  0.0000E+00  0.0000E+00  0.0000E+00  0.0000E+00  0.0000E+00
 59  0.0000E+00  8.7324E-01  0.0000E+00  0.0000E+00  2.0194E+00  0.0000E+00  0.0000E+00  7.1712E+00  6.2465E+00
 60  0.0000E+00  2.7202E+00  0.0000E+00  2.9450E+00  6.0702E+00  0.0000E+00  0.0000E+00  0.0000E+00  9.1716E+00
 61  0.0000E+00  1.5711E+00  0.0000E+00  6.2610E+00  0.0000E+00  0.0000E+00  4.4522E+00  0.0000E+00  0.0000E+00
 62  0.0000E+00  1.5625E+00  0.0000E+00  0.0000E+00  0.0000E+00  0.0000E+00  0.0000E+00  0.0000E+00  0.0000E+00
 63  0.0000E+00  4.2213E+00  0.0000E+00  1.8965E+01  0.0000E+00  0.0000E+00  0.0000E+00  1.9112E+01  0.0000E+00
 64  0.0000E+00  1.8242E-01  0.0000E+00  0.0000E+00  0.0000E+00  0.0000E+00  0.0000E+00  0.0000E+00  0.0000E+00
 65  0.0000E+00  8.8023E-01  0.0000E+00  0.0000E+00  0.0000E+00  0.0000E+00  0.0000E+00  0.0000E+00  0.0000E+00
 66  0.0000E+00  8.2160E-01  0.0000E+00  3.3543E+01  0.0000E+00  0.0000E+00  0.0000E+00  0.0000E+00  0.0000E+00

# AV, chi2 & Mass for <> & i_chain = 1 ...  7 solutions
AV       1.1585      0.9066      0.9720      0.9123      0.9622      0.9165      0.9493      0.9241      0.9433
chi2 2.1315E+00  2.1665E+00  2.1556E+00  2.1607E+00  2.1568E+00  2.1598E+00  2.1597E+00  2.1590E+00  2.1570E+00
Mass 7.8178E-15  1.7062E-14  1.2967E-14  2.8791E-14  9.1710E-15  1.1853E-14  1.0611E-14  1.6528E-14  2.3007E-14
 -19.79                                  [v0_min (km/s) before EX0s...]
  29.38                                  [vd_min (km/s) before EX0s...]


## Synthetic spectrum (Best Model) ##l_obs f_obs f_syn wei
 3478    [Nl_obs]
 3741.00    0.95481   0.83531    0.000
 3742.00    0.90621   0.83775    0.000
 3743.00    0.91603   0.83458    0.000
 3744.00    0.96190   0.82478    0.000
 3745.00    1.01514   0.80883    9.851
 3746.00    1.05123   0.78860    9.513
 3747.00    1.05138   0.76154   -1.000
 3748.00    1.00567   0.72260   -1.000
 3749.00    0.91965   0.68136   -1.000
 3750.00    0.81560   0.66568   12.261
 3751.00    0.72618   0.68978   13.771
 3752.00    0.67380   0.73048   14.841
 3753.00    0.66353   0.75624   15.071
 3754.00    0.68601   0.76470   14.577
 3755.00    0.73259   0.77755   13.650
 3756.00    0.80351   0.79394   12.445
 3757.00    0.90631   0.80185   11.034
 3758.00    1.04037   0.80401    9.612
 3759.00    1.18410   0.79646   -1.000
 3760.00    1.29571   0.79713   -1.000
 3761.00    1.33744   0.81489   -1.000
 3762.00    1.30601   0.82513   -1.000
 3763.00    1.23550   0.82717   -1.000
 3764.00    1.17322   0.82584   -1.000
 3765.00    1.13331   0.81465   -1.000
 3766.00    1.08757   0.79431   -1.000
 3767.00    0.98497   0.76675   10.153
 3768.00    0.80970   0.72728   12.350
 3769.00    0.60013   0.67594   16.663
 3770.00    0.43526   0.63616   -1.000
 3771.00    0.36971   0.63914   -1.000
 3772.00    0.40091   0.67854   -1.000
 3773.00    0.47437   0.71948   -1.000
 3774.00    0.53376   0.75452   -1.000
 3775.00    0.55959   0.78901   -1.000
 3776.00    0.56975   0.81268   -1.000
 3777.00    0.59329   0.82407   -1.000
 3778.00    0.63952   0.83209   15.637
 3779.00    0.69491   0.84002   14.390
 3780.00    0.73561   0.84701   13.594
 3781.00    0.75001   0.85147   13.333
 3782.00    0.74294   0.85309   13.460
 3783.00    0.73202   0.85280   13.661
 3784.00    0.73721   0.85096   13.565
 3785.00    0.77767   0.84961   12.859
 3786.00    0.86791   0.84954   11.522
 3787.00    1.00087   0.84837    9.991
 3788.00    1.13994   0.84508    8.772
 3789.00    1.22433   0.83610   -1.000
 3790.00    1.21031   0.81654   -1.000
 3791.00    1.10113   0.79613   -1.000
 3792.00    0.94608   0.78865   10.570
 3793.00    0.80589   0.78114   12.409
 3794.00    0.71418   0.75648   14.002
 3795.00    0.67395   0.71410   14.838
 3796.00    0.67004   0.65801   14.925
 3797.00    0.69032   0.60811   14.486
 3798.00    0.72943   0.60023   13.709
 3799.00    0.78743   0.64266   12.700
 3800.00    0.86654   0.70117   11.540
 3801.00    0.97009   0.74724   10.308
 3802.00    1.09916   0.77765   -1.000
 3803.00    1.23861   0.79817   -1.000
 3804.00    1.35090   0.81086   -1.000
 3805.00    1.38193   0.81468   -1.000
 3806.00    1.30207   0.81628   -1.000
 3807.00    1.13428   0.82535    8.816
 3808.00    0.95158   0.83737   10.509
 3809.00    0.82955   0.84294   12.055
 3810.00    0.79659   0.84355   12.553
 3811.00    0.83029   0.84343   12.044
 3812.00    0.88213   0.84340   11.336
 3813.00    0.91710   0.84286   10.904
 3814.00    0.92016   0.84252   10.868
 3815.00    0.89308   0.84156   11.197
 3816.00    0.84662   0.83730   11.812
 3817.00    0.79846   0.82444   12.524
 3818.00    0.76952   0.79478   12.995
 3819.00    0.76975   0.76305   12.991
 3820.00    0.79223   0.76607   12.623
 3821.00    0.81593   0.79917   12.256
 3822.00    0.82437   0.82517   12.130
 3823.00    0.81754   0.83448   12.232
 3824.00    0.81115   0.83487   12.328
 3825.00    0.82176   0.83199   12.169
 3826.00    0.85211   0.82778   11.736
 3827.00    0.89025   0.82133   11.233
 3828.00    0.91778   0.81173   10.896
 3829.00    0.92234   0.79809   10.842
 3830.00    0.89947   0.77955   11.118
 3831.00    0.85196   0.75369   11.738
 3832.00    0.78821   0.71656   12.687
 3833.00    0.72183   0.66414   13.854
 3834.00    0.67055   0.60288   14.913
 3835.00    0.65199   0.56675   15.338
 3836.00    0.68206   0.58722   14.662
 3837.00    0.77311   0.64437   12.935
 3838.00    0.92331   0.69974   10.831
 3839.00    1.11012   0.74205   -1.000
 3840.00    1.29190   0.77169   -1.000
 3841.00    1.42603   0.79042   -1.000
 3842.00    1.48594   0.80236   -1.000
 3843.00    1.46247   0.81115   -1.000
 3844.00    1.36507   0.81853   -1.000
 3845.00    1.22339   0.82398   -1.000
 3846.00    1.08700   0.82753    9.200
 3847.00    1.00746   0.82932    0.000
 3848.00    0.99920   0.83036    0.000
 3849.00    1.03053   0.83044    0.000
 3850.00    1.03879   0.82840    0.000
 3851.00    0.98226   0.82859    0.000
 3852.00    0.85932   0.83208    0.000
 3853.00    0.70323   0.83315    0.000
 3854.00    0.55172   0.83010    0.000
 3855.00    0.42966   0.82470    0.000
 3856.00    0.34912   0.82060    0.000
 3857.00    0.31645   0.82144    0.000
 3858.00    0.33857   0.82454    0.000
 3859.00    0.42294   0.82588    0.000
 3860.00    0.57001   0.82538    0.000
 3861.00    0.76317   0.82479    0.000
 3862.00    0.96784   0.82344    0.000
 3863.00    1.14458   0.82060    0.000
 3864.00    1.27595   0.81868    0.000
 3865.00    1.37223   0.81942    0.000
 3866.00    1.46117   0.81765    0.000
 3867.00    1.55500   0.81285    0.000
 3868.00    1.63896   0.81617    0.000
 3869.00    1.67763   0.82417    0.000
 3870.00    1.64786   0.82244    0.000
 3871.00    1.55652   0.81178    0.000
 3872.00    1.43761   0.80562    0.000
 3873.00    1.32214   0.80913    0.000
 3874.00    1.21333   0.81067    0.000
 3875.00    1.08671   0.80313    0.000
 3876.00    0.91757   0.79717    0.000
 3877.00    0.71551   0.80050    0.000
 3878.00    0.52779   0.80434    0.000
 3879.00    0.41428   0.80240    0.000
 3880.00    0.39915   0.79668    0.000
 3881.00    0.46118   0.78645   -1.000
 3882.00    0.54859   0.77181   -1.000
 3883.00    0.62348   0.75593   16.039
 3884.00    0.67631   0.73778   14.786
 3885.00    0.72137   0.71004   13.863
 3886.00    0.77438   0.66772   12.914
 3887.00    0.84121   0.60978   -1.000
 3888.00    0.91796   0.55016   -1.000
 3889.00    0.99512   0.53194   -1.000
 3890.00    1.06065   0.57491   -1.000
 3891.00    1.10077   0.64078   -1.000
 3892.00    1.10732   0.69304   -1.000
 3893.00    1.08654   0.72930   -1.000
 3894.00    1.05963   0.75434   -1.000
 3895.00    1.05260   0.77072   -1.000
 3896.00    1.07780   0.78183   -1.000
 3897.00    1.13049   0.78860   -1.000
 3898.00    1.19299   0.79096   -1.000
 3899.00    1.24644   0.79323   -1.000
 3900.00    1.27440   0.79907   -1.000
 3901.00    1.26416   0.80512   -1.000
 3902.00    1.21254   0.80808   -1.000
 3903.00    1.12857   0.80965   -1.000
 3904.00    1.03189   0.81162    9.691
 3905.00    0.94021   0.81271   10.636
 3906.00    0.86014   0.81282   11.626
 3907.00    0.78752   0.81337   12.698
 3908.00    0.71847   0.81481   13.918
 3909.00    0.66163   0.81576   15.114
 3910.00    0.63887   0.81349   15.653
 3911.00    0.67080   0.80775   14.908
 3912.00    0.75194   0.80530   13.299
 3913.00    0.84661   0.80910   11.812
 3914.00    0.90466   0.81293   11.054
 3915.00    0.90297   0.81366   11.075
 3916.00    0.85726   0.81217   11.665
 3917.00    0.81221   0.80633   12.312
 3918.00    0.79979   0.79342   12.503
 3919.00    0.82072   0.77922   12.184
 3920.00    0.84781   0.77358   11.795
 3921.00    0.85232   0.77657   11.733
 3922.00    0.82215   0.77789   12.163
 3923.00    0.76209   0.77292   13.122
 3924.00    0.68632   0.77094   14.570
 3925.00    0.61042   0.77392   16.382
 3926.00    0.55041   0.77659   -1.000
 3927.00    0.51775   0.78206   -1.000
 3928.00    0.51132   0.79017   -1.000
 3929.00    0.51629   0.79622   -1.000
 3930.00    0.51120   0.79923   -1.000
 3931.00    0.48562   0.79774   -1.000
 3932.00    0.44489   0.79136   -1.000
 3933.00    0.40618   0.78137   -1.000
 3934.00    0.38325   0.77581   -1.000
 3935.00    0.37993   0.78155   -1.000
 3936.00    0.39154   0.79209   -1.000
 3937.00    0.41422   0.79854   -1.000
 3938.00    0.45101   0.79997   -1.000
 3939.00    0.51107   0.80082   -1.000
 3940.00    0.59797   0.80211   -1.000
 3941.00    0.69821   0.80183   14.322
 3942.00    0.78092   0.80013   12.805
 3943.00    0.81352   0.79620   12.292
 3944.00    0.78533   0.79001   12.733
 3945.00    0.71098   0.78721   14.065
 3946.00    0.62207   0.78939   16.075
 3947.00    0.54768   0.78979   -1.000
 3948.00    0.50954   0.78932   -1.000
 3949.00    0.52031   0.79183   -1.000
 3950.00    0.57776   0.79408   -1.000
 3951.00    0.66247   0.79353   15.095
 3952.00    0.74106   0.79022   13.494
 3953.00    0.78573   0.78413   12.727
 3954.00    0.78610   0.77818   12.721
 3955.00    0.74892   0.77750   13.353
 3956.00    0.68983   0.77983   14.496
 3957.00    0.62571   0.78073   15.982
 3958.00    0.57379   0.77915   -1.000
 3959.00    0.54851   0.77369   -1.000
 3960.00    0.55687   0.76034    0.000
 3961.00    0.59782   0.74282    0.000
 3962.00    0.66369   0.73362    0.000
 3963.00    0.74312   0.72679    0.000
 3964.00    0.82185   0.70990    0.000
 3965.00    0.88565   0.69183    0.000
 3966.00    0.93029   0.67249    0.000
 3967.00    0.96527   0.63492    0.000
 3968.00    1.01030   0.57576    0.000
 3969.00    1.07581   0.51637    0.000
 3970.00    1.15177   0.49920    0.000
 3971.00    1.20935   0.54100    0.000
 3972.00    1.22101   0.60486    0.000
 3973.00    1.17798   0.65596    0.000
 3974.00    1.09109   0.69243    0.000
 3975.00    0.98222   0.71803    0.000
 3976.00    0.87287   0.73419    0.000
 3977.00    0.78254   0.74502    0.000
 3978.00    0.72571   0.75280    0.000
 3979.00    0.70558   0.75845    0.000
 3980.00    0.71279   0.76298    0.000
 3981.00    0.72866   0.76513   13.724
 3982.00    0.73573   0.76425   13.592
 3983.00    0.72137   0.76505   13.863
 3984.00    0.67883   0.76991   14.731
 3985.00    0.61193   0.77468   16.342
 3986.00    0.53766   0.77743   -1.000
 3987.00    0.48408   0.77919   -1.000
 3988.00    0.47172   0.78021   -1.000
 3989.00    0.49824   0.78039   -1.000
 3990.00    0.53868   0.78019   -1.000
 3991.00    0.56503   0.78024   -1.000
 3992.00    0.57099   0.78034   -1.000
 3993.00    0.57450   0.77783   -1.000
 3994.00    0.60178   0.77226   16.617
 3995.00    0.65656   0.77017   15.231
 3996.00    0.71394   0.77353   14.007
 3997.00    0.73453   0.77473   13.614
 3998.00    0.70681   0.77225   14.148
 3999.00    0.66097   0.77278   15.129
 4000.00    0.65807   0.77577   15.196
 4001.00    0.73766   0.77586   13.556
 4002.00    0.89113   0.77165   11.222
 4003.00    1.06587   0.76627   -1.000
 4004.00    1.20461   0.76438   -1.000
 4005.00    1.27601   0.76591   -1.000
 4006.00    1.27602   0.76678   -1.000
 4007.00    1.21995   0.76219   -1.000
 4008.00    1.13300   0.75120   -1.000
 4009.00    1.04880   0.74402   -1.000
 4010.00    0.99984   0.74998   10.002
 4011.00    1.00000   0.76161   10.000
 4012.00    1.04137   0.76897    9.603
 4013.00    1.10039   0.77196   -1.000
 4014.00    1.15539   0.77286   -1.000
 4015.00    1.19197   0.77275   -1.000
 4016.00    1.20305   0.77218   -1.000
 4017.00    1.18919   0.77150   -1.000
 4018.00    1.15864   0.77102   -1.000
 4019.00    1.12613   0.77015   -1.000
 4020.00    1.10389   0.76735   -1.000
 4021.00    1.09507   0.76177   -1.000
 4022.00    1.09383   0.75197   -1.000
 4023.00    1.09183   0.73334   -1.000
 4024.00    1.08549   0.69833   -1.000
 4025.00    1.07650   0.65459   -1.000
 4026.00    1.06692   0.64008   -1.000
 4027.00    1.05066   0.67398   -1.000
 4028.00    1.01219   0.71936   -1.000
 4029.00    0.93537   0.74526   10.691
 4030.00    0.82690   0.75580   12.093
 4031.00    0.72306   0.75920   13.830
 4032.00    0.67887   0.75928   14.730
 4033.00    0.72292   0.75830   13.833
 4034.00    0.83714   0.75744   11.945
 4035.00    0.96335   0.75840   10.380
 4036.00    1.05162   0.76275    9.509
 4037.00    1.09366   0.76634   -1.000
 4038.00    1.12143   0.76652   -1.000
 4039.00    1.17010   0.76485   -1.000
 4040.00    1.23909   0.76177   -1.000
 4041.00    1.28942   0.75878   -1.000
 4042.00    1.27061   0.75778   -1.000
 4043.00    1.16395   0.75703   -1.000
 4044.00    0.98937   0.75661   10.107
 4045.00    0.79394   0.75803   12.595
 4046.00    0.62298   0.76022   16.052
 4047.00    0.51231   0.76112   -1.000
 4048.00    0.48503   0.76116   -1.000
 4049.00    0.53925   0.76179   -1.000
 4050.00    0.64288   0.76280   15.555
 4051.00    0.73950   0.76255   13.523
 4052.00    0.78636   0.76036   12.717
 4053.00    0.77899   0.75689   12.837
 4054.00    0.74954   0.75330   13.341
 4055.00    0.73524   0.75078   13.601
 4056.00    0.74714   0.75089   13.384
 4057.00    0.76821   0.75343   13.017
 4058.00    0.77087   0.75457   12.972
 4059.00    0.74357   0.75195   13.449
 4060.00    0.69479   0.74802   14.393
 4061.00    0.64555   0.74733   15.491
 4062.00    0.61218   0.74916   16.335
 4063.00    0.60198   0.75118   16.612
 4064.00    0.61458   0.75314   16.271
 4065.00    0.64680   0.75350   15.461
 4066.00    0.69471   0.74650   14.395
 4067.00    0.75332   0.72658   13.275
 4068.00    0.81496   0.70096   12.271
 4069.00    0.86822   0.68571   11.518
 4070.00    0.89849   0.69058   11.130
 4071.00    0.89360   0.70854   11.191
 4072.00    0.84907   0.72383   11.778
 4073.00    0.76860   0.73109   13.011
 4074.00    0.66464   0.72871   15.046
 4075.00    0.55918   0.72085   17.883
 4076.00    0.48361   0.72185   -1.000
 4077.00    0.46732   0.73156   -1.000
 4078.00    0.51289   0.73728   -1.000
 4079.00    0.59028   0.73790   16.941
 4080.00    0.64817   0.73735   15.428
 4081.00    0.65263   0.73666   15.323
 4082.00    0.60153   0.73667   16.624
 4083.00    0.52074   0.73496   -1.000
 4084.00    0.44176   0.73126   -1.000
 4085.00    0.38887   0.72980   -1.000
 4086.00    0.37847   0.72783   -1.000
 4087.00    0.41768   0.71485   -1.000
 4088.00    0.50308   0.69237   -1.000
 4089.00    0.62096   0.68644   16.104
 4090.00    0.75309   0.70444   13.279
 4091.00    0.88450   0.71807   11.306
 4092.00    1.00456   0.71590    0.000
 4093.00    1.10768   0.70868    0.000
 4094.00    1.19476   0.69902    0.000
 4095.00    1.27352   0.68057    0.000
 4096.00    1.35454   0.65012    0.000
 4097.00    1.43865   0.61881    0.000
 4098.00    1.51240   0.59684    0.000
 4099.00    1.55145   0.56649    0.000
 4100.00    1.53766   0.51435    0.000
 4101.00    1.46844   0.46726    0.000
 4102.00    1.35602   0.46615    0.000
 4103.00    1.21896   0.51405    0.000
 4104.00    1.07516   0.57623    0.000
 4105.00    0.94116   0.62610    0.000
 4106.00    0.82914   0.65900    0.000
 4107.00    0.74317   0.67911    0.000
 4108.00    0.67886   0.69147    0.000
 4109.00    0.62802   0.69912    0.000
 4110.00    0.58754   0.70354    0.000
 4111.00    0.56114   0.70768    0.000
 4112.00    0.55648   0.71295    0.000
 4113.00    0.57625   0.71668   17.354
 4114.00    0.61526   0.71233   16.253
 4115.00    0.66163   0.69924   15.114
 4116.00    0.70281   0.69417   14.229
 4117.00    0.72858   0.70490   13.725
 4118.00    0.73151   0.71094   13.670
 4119.00    0.70918   0.70154   14.101
 4120.00    0.66595   0.68940   15.016
 4121.00    0.61289   0.69010   16.316
 4122.00    0.56468   0.70603   17.709
 4123.00    0.53585   0.72279   -1.000
 4124.00    0.54020   0.73085   -1.000
 4125.00    0.58563   0.73267   17.075
 4126.00    0.66474   0.73023   15.043
 4127.00    0.75311   0.72473   13.278
 4128.00    0.81844   0.72087   12.218
 4129.00    0.84623   0.72060   11.817
 4130.00    0.84765   0.71921   11.797
 4131.00    0.85254   0.71729   11.730
 4132.00    0.87758   0.71821   11.395
 4133.00    0.91104   0.72199   10.977
 4134.00    0.91670   0.72679   10.909
 4135.00    0.86633   0.72991   11.543
 4136.00    0.76337   0.72975   13.100
 4137.00    0.64257   0.72786   15.562
 4138.00    0.54607   0.72619   18.313
 4139.00    0.49663   0.72491   -1.000
 4140.00    0.49510   0.72309   -1.000
 4141.00    0.52824   0.71738   18.931
 4142.00    0.58204   0.70371   17.181
 4143.00    0.64417   0.68852   15.524
 4144.00    0.70457   0.68764   14.193
 4145.00    0.75712   0.70168   13.208
 4146.00    0.80006   0.71497   12.499
 4147.00    0.83491   0.72149   11.977
 4148.00    0.86163   0.72311   11.606
 4149.00    0.87646   0.72089   11.410
 4150.00    0.87289   0.71874   11.456
 4151.00    0.84863   0.71764   11.784
 4152.00    0.81035   0.71403   12.340
 4153.00    0.77338   0.71196   12.930
 4154.00    0.75394   0.71566   13.264
 4155.00    0.76102   0.71798   13.140
 4156.00    0.79564   0.71682   12.569
 4157.00    0.85196   0.71867   11.738
 4158.00    0.91907   0.72294   10.881
 4159.00    0.98128   0.72491   10.191
 4160.00    1.02207   0.72382   -1.000
 4161.00    1.03365   0.72024   -1.000
 4162.00    1.01952   0.71478   -1.000
 4163.00    0.99154   0.71195   -1.000
 4164.00    0.95817   0.71368   10.437
 4165.00    0.91952   0.71654   10.875
 4166.00    0.86884   0.71775   11.510
 4167.00    0.80238   0.71552   12.463
 4168.00    0.72595   0.71065   13.775
 4169.00    0.65432   0.70915   15.283
 4170.00    0.60184   0.71200   16.616
 4171.00    0.57317   0.71335   17.447
 4172.00    0.56268   0.71257   17.772
 4173.00    0.56146   0.71270   17.811
 4174.00    0.56778   0.71305   17.612
 4175.00    0.58859   0.71282   16.990
 4176.00    0.63440   0.71271   15.763
 4177.00    0.70720   0.71350   14.140
 4178.00    0.79749   0.71431   12.539
 4179.00    0.88715   0.71487   11.272
 4180.00    0.96041   0.71582   10.412
 4181.00    1.00808   0.71643   -1.000
 4182.00    1.02721   0.71591   -1.000
 4183.00    1.01817   0.71399   -1.000
 4184.00    0.98293   0.70963   -1.000
 4185.00    0.92501   0.70329   10.811
 4186.00    0.85045   0.69850   11.759
 4187.00    0.76857   0.69934   13.011
 4188.00    0.69186   0.70242   14.454
 4189.00    0.63137   0.70168   15.839
 4190.00    0.59018   0.70246   16.944
 4191.00    0.56263   0.70768   17.774
 4192.00    0.53925   0.71111   18.544
 4193.00    0.51773   0.71088   -1.000
 4194.00    0.50541   0.70810   -1.000
 4195.00    0.51528   0.70314   -1.000
 4196.00    0.55177   0.69778   18.123
 4197.00    0.60554   0.68939   16.514
 4198.00    0.65609   0.67252   15.242
 4199.00    0.68646   0.65411   14.567
 4200.00    0.69181   0.65212   14.455
 4201.00    0.67899   0.66873   14.728
 4202.00    0.65971   0.68721   15.158
 4203.00    0.64451   0.69796   15.516
 4204.00    0.64207   0.70287   15.575
 4205.00    0.65669   0.70511   15.228
 4206.00    0.68475   0.70673   14.604
 4207.00    0.71444   0.70777   13.997
 4208.00    0.73160   0.70831   13.669
 4209.00    0.73185   0.70795   13.664
 4210.00    0.72324   0.70565   13.827
 4211.00    0.72126   0.70015   13.865
 4212.00    0.73294   0.69564   13.644
 4213.00    0.75128   0.69781   13.311
 4214.00    0.75823   0.70232   13.189
 4215.00    0.74057   0.70326   13.503
 4216.00    0.69852   0.70302   14.316
 4217.00    0.64487   0.70375   15.507
 4218.00    0.59462   0.70439   16.818
 4219.00    0.55639   0.70473   17.973
 4220.00    0.53206   0.70393   18.795
 4221.00    0.52018   0.70143   19.224
 4222.00    0.52025   0.69910   19.221
 4223.00    0.53326   0.69879   18.752
 4224.00    0.55931   0.69861   17.879
 4225.00    0.59315   0.69716   16.859
 4226.00    0.62331   0.69512   16.043
 4227.00    0.63638   0.69395   15.714
 4228.00    0.62982   0.69512   15.878
 4229.00    0.61620   0.69737   16.229
 4230.00    0.61879   0.69847   16.161
 4231.00    0.65008   0.69835   15.383
 4232.00    0.70085   0.69766   14.268
 4233.00    0.74270   0.69685   13.464
 4234.00    0.75150   0.69666   13.307
 4235.00    0.72572   0.69569   13.779
 4236.00    0.68638   0.69299   14.569
 4237.00    0.66037   0.69195   15.143
 4238.00    0.66054   0.69386   15.139
 4239.00    0.68369   0.69524   14.626
 4240.00    0.71695   0.69371   13.948
 4241.00    0.74958   0.69083   13.341
 4242.00    0.77516   0.69112   12.900
 4243.00    0.79113   0.69496   12.640
 4244.00    0.79714   0.69735   12.545
 4245.00    0.79460   0.69594   12.585
 4246.00    0.78686   0.69332   12.709
 4247.00    0.77994   0.69256   12.822
 4248.00    0.78291   0.69341   12.773
 4249.00    0.80668   0.69359   12.396
 4250.00    0.85488   0.69281   11.698
 4251.00    0.91711   0.69181   10.904
 4252.00    0.96964   0.68858   -1.000
 4253.00    0.98860   0.68357   -1.000
 4254.00    0.96486   0.68341   -1.000
 4255.00    0.90538   0.68756   11.045
 4256.00    0.82820   0.68970   12.074
 4257.00    0.75359   0.68936   13.270
 4258.00    0.70243   0.68905   14.236
 4259.00    0.69188   0.68921   14.453
 4260.00    0.72370   0.68915   13.818
 4261.00    0.78105   0.68932   12.803
 4262.00    0.83328   0.69003   12.001
 4263.00    0.85653   0.69077   11.675
 4264.00    0.84300   0.68979   11.862
 4265.00    0.79992   0.68191   12.501
 4266.00    0.74100   0.66578   13.495
 4267.00    0.68039   0.65696   14.698
 4268.00    0.63203   0.66674   15.822
 4269.00    0.60613   0.68043   16.498
 4270.00    0.60538   0.68525   16.519
 4271.00    0.62471   0.68504   16.007
 4272.00    0.65550   0.68400   15.256
 4273.00    0.69232   0.68212   14.444
 4274.00    0.73398   0.67821   13.624
 4275.00    0.78078   0.67208   12.808
 4276.00    0.82750   0.66842   12.085
 4277.00    0.86163   0.67113   11.606
 4278.00    0.86670   0.67829   11.538
 4279.00    0.83557   0.68393   11.968
 4280.00    0.77608   0.68462   12.885
 4281.00    0.70911   0.68131   14.102
 4282.00    0.65509   0.67649   15.265
 4283.00    0.62525   0.67304   15.994
 4284.00    0.62143   0.67218   16.092
 4285.00    0.63928   0.67415   15.643
 4286.00    0.67133   0.67789   14.896
 4287.00    0.70739   0.67949   14.136
 4288.00    0.73677   0.67693   13.573
 4289.00    0.75165   0.67392   13.304
 4290.00    0.74766   0.67349   13.375
 4291.00    0.72507   0.67565   13.792
 4292.00    0.69168   0.67874   14.457
 4293.00    0.66351   0.67874   15.071
 4294.00    0.66011   0.67528   15.149
 4295.00    0.68748   0.67438   14.546
 4296.00    0.73121   0.67715   13.676
 4297.00    0.76036   0.67955   13.152
 4298.00    0.75152   0.67951   13.306
 4299.00    0.70353   0.67799   14.214
 4300.00    0.63649   0.67685   15.711
 4301.00    0.57547   0.67572   17.377
 4302.00    0.53522   0.67163   18.684
 4303.00    0.51911   0.66633   19.264
 4304.00    0.52398   0.66612   19.085
 4305.00    0.54701   0.66998   18.281
 4306.00    0.58665   0.67160   17.046
 4307.00    0.63991   0.67014   15.627
 4308.00    0.69653   0.66889   14.357
 4309.00    0.73764   0.66941   13.557
 4310.00    0.74178   0.67169   13.481
 4311.00    0.70579   0.67309   14.169
 4312.00    0.65257   0.67070   15.324
 4313.00    0.62513   0.66591   15.997
 4314.00    0.65256   0.66370   15.324
 4315.00    0.73040   0.66403   13.691
 4316.00    0.82256   0.66324   12.157
 4317.00    0.88686   0.66164   11.276
 4318.00    0.89767   0.66082   -1.000
 4319.00    0.84747   0.66053   11.800
 4320.00    0.74464   0.66240   13.429
 4321.00    0.61048   0.66636   16.381
 4322.00    0.47862   0.66878   -1.000
 4323.00    0.38543   0.66775   -1.000
 4324.00    0.35040   0.66234   -1.000
 4325.00    0.37180   0.65528   -1.000
 4326.00    0.43125   0.65191   -1.000
 4327.00    0.50833   0.65170   19.672
 4328.00    0.58569   0.65180   17.074
 4329.00    0.65012   0.65199   15.382
 4330.00    0.69757   0.65018    0.000
 4331.00    0.73587   0.64424    0.000
 4332.00    0.78364   0.63650    0.000
 4333.00    0.85985   0.62937    0.000
 4334.00    0.97517   0.62150    0.000
 4335.00    1.13131   0.60772    0.000
 4336.00    1.31929   0.58299    0.000
 4337.00    1.51728   0.54567    0.000
 4338.00    1.69068   0.49724    0.000
 4339.00    1.80537   0.44567    0.000
 4340.00    1.85327   0.41721    0.000
 4341.00    1.85749   0.43854    0.000
 4342.00    1.86047   0.49451    0.000
 4343.00    1.88845   0.54554   -2.000
 4344.00    1.93969   0.57641   -2.000
 4345.00    1.99013   0.59476   -2.000
 4346.00    2.02133   0.60834   -2.000
 4347.00    2.03484   0.61886   -2.000
 4348.00    2.04915   0.62593   -2.000
 4349.00    2.07219   0.63015   -2.000
 4350.00    2.07965   0.63270   -2.000
 4351.00    2.01652   0.63549   -2.000
 4352.00    1.83733   0.64056   -2.000
 4353.00    1.55429   0.64670   -2.000
 4354.00    1.24164   0.65202   -2.000
 4355.00    0.99671   0.65618   -2.000
 4356.00    0.86893   0.65819   -2.000
 4357.00    0.84633   0.65887   -2.000
 4358.00    0.87408   0.65932   -2.000
 4359.00    0.90689   0.65940   -1.000
 4360.00    0.92519   0.65879   -1.000
 4361.00    0.93125   0.65857   -1.000
 4362.00    0.93096   0.66021   -1.000
 4363.00    0.92502   0.66209   -1.000
 4364.00    0.90955   0.66162   -1.000
 4365.00    0.88273   0.65882   11.329
 4366.00    0.84966   0.65462   11.769
 4367.00    0.82212   0.65264   12.164
 4368.00    0.81097   0.65443   12.331
 4369.00    0.81766   0.65696   12.230
 4370.00    0.83354   0.65741   11.997
 4371.00    0.84478   0.65511   11.837
 4372.00    0.84088   0.65277   11.892
 4373.00    0.81626   0.65301   12.251
 4374.00    0.77006   0.65392   12.986
 4375.00    0.70574   0.65452   14.169
 4376.00    0.63100   0.65591   15.848
 4377.00    0.55698   0.65647   17.954
 4378.00    0.49502   0.65347   20.201
 4379.00    0.45516   0.65103   -1.000
 4380.00    0.44565   0.65361   -1.000
 4381.00    0.46963   0.65603   -1.000
 4382.00    0.52279   0.65367   19.128
 4383.00    0.59379   0.64971   16.841
 4384.00    0.66993   0.64730   14.927
 4385.00    0.74320   0.64519   13.455
 4386.00    0.81080   0.63682   12.334
 4387.00    0.87175   0.62243   -1.000
 4388.00    0.92166   0.61824   -1.000
 4389.00    0.95180   0.63073   -1.000
 4390.00    0.95284   0.64581   -1.000
 4391.00    0.92397   0.65482   -1.000
 4392.00    0.87538   0.65886   11.424
 4393.00    0.82476   0.65797   12.125
 4394.00    0.78342   0.65362   12.764
 4395.00    0.75040   0.64998   13.326
 4396.00    0.71449   0.65125   13.996
 4397.00    0.66820   0.65590   14.965
 4398.00    0.61689   0.65808   16.210
 4399.00    0.57796   0.65659   17.302
 4400.00    0.56767   0.65494   17.616
 4401.00    0.58799   0.65525   17.007
 4402.00    0.62573   0.65538   15.981
 4403.00    0.66173   0.65266   15.112
 4404.00    0.68486   0.64928   14.602
 4405.00    0.69407   0.64832   14.408
 4406.00    0.69528   0.64931   14.383
 4407.00    0.69381   0.65109   14.413
 4408.00    0.69257   0.65295   14.439
 4409.00    0.69253   0.65383   14.440
 4410.00    0.69467   0.65214   14.395
 4411.00    0.70068   0.64992   14.272
 4412.00    0.71262   0.65048   14.033
 4413.00    0.73019   0.64823   13.695
 4414.00    0.74914   0.64043   13.349
 4415.00    0.76179   0.63490   13.127
 4416.00    0.76314   0.63513   13.104
 4417.00    0.75667   0.63904   13.216
 4418.00    0.75430   0.64433   13.257
 4419.00    0.76707   0.64796   13.037
 4420.00    0.79172   0.64986   12.631
 4421.00    0.80899   0.65100   12.361
 4422.00    0.79439   0.65089   12.588
 4423.00    0.74180   0.65070   13.481
 4424.00    0.66901   0.65062   14.948
 4425.00    0.60972   0.64936   16.401
 4426.00    0.58569   0.64726   17.074
 4427.00    0.59635   0.64621   16.769
 4428.00    0.62179   0.64709   16.083
 4429.00    0.64092   0.64714   15.602
 4430.00    0.64184   0.64484   15.580
 4431.00    0.62212   0.64300   16.074
 4432.00    0.58729   0.64237   17.027
 4433.00    0.54942   0.64178   18.201
 4434.00    0.52652   0.64154   18.993
 4435.00    0.53356   0.64058   18.742
 4436.00    0.57042   0.63819   17.531
 4437.00    0.62050   0.63718   16.116
 4438.00    0.65938   0.64044   15.166
 4439.00    0.67281   0.64316   14.863
 4440.00    0.66059   0.64034   15.138
 4441.00    0.63365   0.63560   15.782
 4442.00    0.60405   0.63475   16.555
 4443.00    0.58156   0.63831   17.195
 4444.00    0.57306   0.64281   17.450
 4445.00    0.58000   0.64423   17.241
 4446.00    0.59701   0.64102   16.750
 4447.00    0.61278   0.63773   16.319
 4448.00    0.61850   0.63858   16.168
 4449.00    0.61481   0.64185   16.265
 4450.00    0.61173   0.64335   16.347
 4451.00    0.61922   0.64168   16.149
 4452.00    0.63517   0.63947   15.744
 4453.00    0.64421   0.63971   15.523
 4454.00    0.62785   0.64081   15.927
 4455.00    0.58412   0.64070   17.120
 4456.00    0.53160   0.64094   18.811
 4457.00    0.50083   0.64171   19.967
 4458.00    0.50828   0.64162   19.674
 4459.00    0.54775   0.64060   18.256
 4460.00    0.59462   0.63931   16.817
 4461.00    0.62669   0.63802    0.000
 4462.00    0.63487   0.63753    0.000
 4463.00    0.62294   0.63814    0.000
 4464.00    0.60240   0.63790    0.000
 4465.00    0.58838   0.63553    0.000
 4466.00    0.59879   0.63224    0.000
 4467.00    0.64485   0.62877    0.000
 4468.00    0.71986   0.62359    0.000
 4469.00    0.79839   0.60898    0.000
 4470.00    0.84848   0.57723    0.000
 4471.00    0.85420   0.55005    0.000
 4472.00    0.81990   0.56287    0.000
 4473.00    0.76507   0.60125    0.000
 4474.00    0.70949   0.62620    0.000
 4475.00    0.66867   0.63412    0.000
 4476.00    0.65299   0.63721    0.000
 4477.00    0.66431   0.63850    0.000
 4478.00    0.69430   0.63618    0.000
 4479.00    0.72587   0.62744    0.000
 4480.00    0.74411   0.61524    0.000
 4481.00    0.74436   0.61185    0.000
 4482.00    0.73219   0.62185   13.658
 4483.00    0.71613   0.63383   13.964
 4484.00    0.69949   0.63902   14.296
 4485.00    0.67967   0.64041   14.713
 4486.00    0.65276   0.64008   15.320
 4487.00    0.62152   0.63750   16.090
 4488.00    0.59668   0.63397   16.759
 4489.00    0.59250   0.63223   16.878
 4490.00    0.61459   0.63346   16.271
 4491.00    0.65647   0.63570   15.233
 4492.00    0.70269   0.63676   14.231
 4493.00    0.74216   0.63642   13.474
 4494.00    0.77413   0.63499   12.918
 4495.00    0.80689   0.63366   12.393
 4496.00    0.84726   0.63333   11.803
 4497.00    0.89326   0.63392   -1.000
 4498.00    0.93438   0.63519   -1.000
 4499.00    0.95966   0.63538   -1.000
 4500.00    0.96633   0.63383   -1.000
 4501.00    0.96041   0.63271   -1.000
 4502.00    0.95153   0.63386   -1.000
 4503.00    0.94460   0.63669   -1.000
 4504.00    0.93836   0.63797   -1.000
 4505.00    0.92781   0.63653   -1.000
 4506.00    0.91006   0.63423   -1.000
 4507.00    0.88592   0.63287   -1.000
 4508.00    0.85946   0.63237   -1.000
 4509.00    0.83609   0.63031   11.960
 4510.00    0.82174   0.62494   12.169
 4511.00    0.82237   0.62088   12.160
 4512.00    0.84127   0.62085   11.887
 4513.00    0.87710   0.61977   -1.000
 4514.00    0.92401   0.61530   -1.000
 4515.00    0.97306   0.61467   -1.000
 4516.00    1.01363   0.61963   -1.000
 4517.00    1.03384   0.62346   -1.000
 4518.00    1.02645   0.62538   -1.000
 4519.00    0.99779   0.62853   -1.000
 4520.00    0.96896   0.63126   -1.000
 4521.00    0.96558   0.63102   -1.000
 4522.00    0.99360   0.62730   -1.000
 4523.00    1.03330   0.62302   -1.000
 4524.00    1.04836   0.62204   -1.000
 4525.00    1.01984   0.62381   -1.000
 4526.00    0.95972   0.62469   -1.000
 4527.00    0.90549   0.62232   -1.000
 4528.00    0.88562   0.61718   -1.000
 4529.00    0.89834   0.61397   -1.000
 4530.00    0.91320   0.61607   -1.000
 4531.00    0.89719   0.62095   -1.000
 4532.00    0.83950   0.62344   11.912
 4533.00    0.75275   0.62086   13.285
 4534.00    0.65914   0.61676   15.171
 4535.00    0.57039   0.61641   17.532
 4536.00    0.48503   0.61935   20.617
 4537.00    0.39582   0.62052   -1.000
 4538.00    0.30622   0.61577   -1.000
 4539.00    0.23421   0.60229   -1.000
 4540.00    0.20576   0.58093   -1.000
 4541.00    0.23187   0.56561   -1.000
 4542.00    0.30001   0.57179   -1.000
 4543.00    0.37844   0.59171   -1.000
 4544.00    0.44138   0.60670   -1.000
 4545.00    0.48368   0.61424   20.675
 4546.00    0.51954   0.61885   19.248
 4547.00    0.56518   0.62078   17.694
 4548.00    0.62337   0.61995   16.042
 4549.00    0.68281   0.61908   14.645
 4550.00    0.72721   0.61914    0.000
 4551.00    0.74777   0.61576    0.000
 4552.00    0.74466   0.60954    0.000
 4553.00    0.72367   0.60855    0.000
 4554.00    0.68900   0.61288    0.000
 4555.00    0.64170   0.61717    0.000
 4556.00    0.58225   0.62027    0.000
 4557.00    0.51893   0.62231    0.000
 4558.00    0.47084   0.62311    0.000
 4559.00    0.46368   0.62362    0.000
 4560.00    0.50773   0.62395    0.000
 4561.00    0.58580   0.62371    0.000
 4562.00    0.65644   0.62270    0.000
 4563.00    0.68540   0.62100    0.000
 4564.00    0.67206   0.62011    0.000
 4565.00    0.64954   0.62033    0.000
 4566.00    0.65744   0.61880    0.000
 4567.00    0.70710   0.61430    0.000
 4568.00    0.77772   0.61055    0.000
 4569.00    0.83234   0.61133    0.000
 4570.00    0.84934   0.61488    0.000
 4571.00    0.82888   0.61747    0.000
 4572.00    0.78825   0.61873    0.000
 4573.00    0.74783   0.61859    0.000
 4574.00    0.72643   0.61639    0.000
 4575.00    0.73877   0.61581    0.000
 4576.00    0.78364   0.61833    0.000
 4577.00    0.83783   0.61991    0.000
 4578.00    0.85972   0.61871    0.000
 4579.00    0.82070   0.61667    0.000
 4580.00    0.72990   0.61627    0.000
 4581.00    0.63345   0.61744    0.000
 4582.00    0.58263   0.61793    0.000
 4583.00    0.59549   0.61693    0.000
 4584.00    0.65296   0.61572    0.000
 4585.00    0.71636   0.61500    0.000
 4586.00    0.75946   0.61405    0.000
 4587.00    0.77477   0.61314    0.000
 4588.00    0.76923   0.61345    0.000
 4589.00    0.75221   0.61226    0.000
 4590.00    0.73173   0.60748    0.000
 4591.00    0.71392   0.60469    0.000
 4592.00    0.70085   0.60756    0.000
 4593.00    0.68938   0.61116    0.000
 4594.00    0.67200   0.61055    0.000
 4595.00    0.64284   0.60684    0.000
 4596.00    0.60217   0.60533    0.000
 4597.00    0.55648   0.60837    0.000
 4598.00    0.51607   0.61225    0.000
 4599.00    0.49230   0.61284    0.000
 4600.00    0.49709   0.60958    0.000
 4601.00    0.53736   0.60522    0.000
 4602.00    0.60531   0.60509    0.000
 4603.00    0.67689   0.60863    0.000
 4604.00    0.72105   0.61112    0.000
 4605.00    0.72428   0.61047    0.000
 4606.00    0.69781   0.60836    0.000
 4607.00    0.67152   0.60770    0.000
 4608.00    0.66797   0.60745    0.000
 4609.00    0.69051   0.60456    0.000
 4610.00    0.72502   0.60230    0.000
 4611.00    0.75408   0.60519    0.000
 4612.00    0.76697   0.60860    0.000
 4613.00    0.76007   0.60904    0.000
 4614.00    0.73564   0.61000    0.000
 4615.00    0.70058   0.61218    0.000
 4616.00    0.66612   0.61281    0.000
 4617.00    0.64435   0.61037    0.000
 4618.00    0.64266   0.60511    0.000
 4619.00    0.66271   0.60190    0.000
 4620.00    0.70102   0.60350    0.000
 4621.00    0.75029   0.60657    0.000
 4622.00    0.79974   0.60893    0.000
 4623.00    0.83675   0.61093    0.000
 4624.00    0.85310   0.61125    0.000
 4625.00    0.84770   0.60988    0.000
 4626.00    0.82566   0.60844    0.000
 4627.00    0.79223   0.60754    0.000
 4628.00    0.74876   0.60548    0.000
 4629.00    0.69299   0.59963    0.000
 4630.00    0.62499   0.59187    0.000
 4631.00    0.55298   0.58995    0.000
 4632.00    0.49356   0.59520    0.000
 4633.00    0.46337   0.59980    0.000
 4634.00    0.46636   0.60120    0.000
 4635.00    0.49195   0.60264    0.000
 4636.00    0.52183   0.60352    0.000
 4637.00    0.54588   0.60052    0.000
 4638.00    0.56626   0.59509    0.000
 4639.00    0.59345   0.59143    0.000
 4640.00    0.63170   0.58943    0.000
 4641.00    0.67316   0.58751    0.000
 4642.00    0.70028   0.58920    0.000
 4643.00    0.70146   0.59505    0.000
 4644.00    0.68059   0.59857    0.000
 4645.00    0.65610   0.59180    0.000
 4646.00    0.64660   0.57476    0.000
 4647.00    0.65722   0.56197    0.000
 4648.00    0.67900   0.56110    0.000
 4649.00    0.69800   0.55998    0.000
 4650.00    0.70855   0.55594    0.000
 4651.00    0.71508   0.56251    0.000
 4652.00    0.72766   0.57706    0.000
 4653.00    0.75199   0.58352    0.000
 4654.00    0.78715   0.58288    0.000
 4655.00    0.82671   0.58746    0.000
 4656.00    0.86299   0.59533    0.000
 4657.00    0.88863   0.59938    0.000
 4658.00    0.89716   0.60094    0.000
 4659.00    0.88589   0.60160    0.000
 4660.00    0.85764   0.59977    0.000
 4661.00    0.82021   0.59567    0.000
 4662.00    0.78146   0.59293    0.000
 4663.00    0.74479   0.59204    0.000
 4664.00    0.70906   0.58961    0.000
 4665.00    0.67258   0.58633    0.000
 4666.00    0.63853   0.58547    0.000
 4667.00    0.61553   0.58677    0.000
 4668.00    0.61303   0.58885    0.000
 4669.00    0.63154   0.59277    0.000
 4670.00    0.66046   0.59789    0.000
 4671.00    0.68225   0.59930    0.000
 4672.00    0.68580   0.59406    0.000
 4673.00    0.67116   0.58715    0.000
 4674.00    0.64828   0.58515    0.000
 4675.00    0.62978   0.58661    0.000
 4676.00    0.62699   0.58825    0.000
 4677.00    0.64913   0.59022    0.000
 4678.00    0.69774   0.59230    0.000
 4679.00    0.76197   0.59286    0.000
 4680.00    0.81904   0.59188    0.000
 4681.00    0.84752   0.58944    0.000
 4682.00    0.84431   0.58511    0.000
 4683.00    0.82643   0.57377    0.000
 4684.00    0.81952   0.54806    0.000
 4685.00    0.83543   0.52201    0.000
 4686.00    0.86753   0.52458    0.000
 4687.00    0.89604   0.55282    0.000
 4688.00    0.90412   0.57715    0.000
 4689.00    0.88322   0.58695    0.000
 4690.00    0.83306   0.58923    0.000
 4691.00    0.76118   0.58953    0.000
 4692.00    0.68270   0.59089    0.000
 4693.00    0.61880   0.59238    0.000
 4694.00    0.58498   0.59292    0.000
 4695.00    0.58167   0.59308    0.000
 4696.00    0.59440   0.59270    0.000
 4697.00    0.60450   0.59001    0.000
 4698.00    0.60205   0.58455    0.000
 4699.00    0.58724   0.58174    0.000
 4700.00    0.56724   0.58413    0.000
 4701.00    0.55039   0.58704    0.000
 4702.00    0.54503   0.58720    0.000
 4703.00    0.55777   0.58603    0.000
 4704.00    0.58872   0.58385    0.000
 4705.00    0.62989   0.58251    0.000
 4706.00    0.66765   0.58436    0.000
 4707.00    0.69365   0.58727    0.000
 4708.00    0.71015   0.58737    0.000
 4709.00    0.72878   0.58608    0.000
 4710.00    0.75965   0.58600    0.000
 4711.00    0.80337   0.58146    0.000
 4712.00    0.85100   0.56771    0.000
 4713.00    0.89048   0.55946    0.000
 4714.00    0.91394   0.56774    0.000
 4715.00    0.91841   0.57947    0.000
 4716.00    0.90573   0.58353    0.000
 4717.00    0.88227   0.58601    0.000
 4718.00    0.85876   0.58904    0.000
 4719.00    0.84674   0.59092    0.000
 4720.00    0.84880   0.59117    0.000
 4721.00    0.85577   0.59046    0.000
 4722.00    0.85044   0.58945    0.000
 4723.00    0.82366   0.58925    0.000
 4724.00    0.78168   0.59004    0.000
 4725.00    0.74387   0.59025    0.000
 4726.00    0.72589   0.58842    0.000
 4727.00    0.72786   0.58549    0.000
 4728.00    0.73475   0.58382    0.000
 4729.00    0.72947   0.58368    0.000
 4730.00    0.70685   0.58412    0.000
 4731.00    0.67468   0.58487    0.000
 4732.00    0.64664   0.58558    0.000
 4733.00    0.63055   0.58613    0.000
 4734.00    0.62652   0.58632    0.000
 4735.00    0.62941   0.58618    0.000
 4736.00    0.63521   0.58576    0.000
 4737.00    0.64278   0.58547    0.000
 4738.00    0.65279   0.58565    0.000
 4739.00    0.66363   0.58528    0.000
 4740.00    0.66964   0.58400    0.000
 4741.00    0.66199   0.58278    0.000
 4742.00    0.63510   0.58298    0.000
 4743.00    0.59076   0.58425    0.000
 4744.00    0.53800   0.58490    0.000
 4745.00    0.48845   0.58488    0.000
 4746.00    0.45179   0.58531    0.000
 4747.00    0.43521   0.58560    0.000
 4748.00    0.44203   0.58531    0.000
 4749.00    0.46949   0.58496    0.000
 4750.00    0.50852   0.58418    0.000
 4751.00    0.54741   0.58311    0.000
 4752.00    0.58050   0.58261    0.000
 4753.00    0.61035   0.58289    0.000
 4754.00    0.64502   0.58337    0.000
 4755.00    0.68759   0.58355    0.000
 4756.00    0.73197   0.58309    0.000
 4757.00    0.76454   0.58207    0.000
 4758.00    0.77437   0.58082    0.000
 4759.00    0.75969   0.58003    0.000
 4760.00    0.72746   0.57913    0.000
 4761.00    0.68699   0.57747   14.556
 4762.00    0.64373   0.57574   15.535
 4763.00    0.59891   0.57447   16.697
 4764.00    0.55242   0.57357   18.102
 4765.00    0.50682   0.57292   19.731
 4766.00    0.46793   0.57280   21.370
 4767.00    0.44237   0.57345   22.606
 4768.00    0.43200   0.57418   23.148
 4769.00    0.43270   0.57457   23.111
 4770.00    0.43651   0.57439   22.909
 4771.00    0.43934   0.57368   22.761
 4772.00    0.44383   0.57311   22.531
 4773.00    0.45798   0.57332   21.835
 4774.00    0.48712   0.57403   20.529
 4775.00    0.52918   0.57472   18.897
 4776.00    0.57513   0.57484   17.387
 4777.00    0.61466   0.57432   16.269
 4778.00    0.64139   0.57292   15.591
 4779.00    0.65317   0.57129   15.310
 4780.00    0.65121   0.57053   15.356
 4781.00    0.63895   0.57053   15.651
 4782.00    0.62181   0.57025   16.082
 4783.00    0.60566   0.56984   16.511
 4784.00    0.59351   0.56945   16.849
 4785.00    0.58484   0.56825   17.099
 4786.00    0.57691   0.56733   17.334
 4787.00    0.56910   0.56776   17.572
 4788.00    0.56449   0.56865   17.715
 4789.00    0.56859   0.56941   17.587
 4790.00    0.58270   0.57009   17.161
 4791.00    0.60028   0.57020   16.659
 4792.00    0.60792   0.57049   16.449
 4793.00    0.59571   0.57162   16.787
 4794.00    0.56579   0.57286   17.674
 4795.00    0.53243   0.57340   18.782
 4796.00    0.51289   0.57301   19.497
 4797.00    0.51568   0.57187   19.392
 4798.00    0.53919   0.57031   18.546
 4799.00    0.57438   0.56921   17.410
 4800.00    0.61019   0.56935   16.388
 4801.00    0.63469   0.56957   15.756
 4802.00    0.63754   0.56863   15.685
 4803.00    0.61761   0.56768   16.192
 4804.00    0.58545   0.56727   17.081
 4805.00    0.56051   0.56652   17.841
 4806.00    0.55720   0.56576   17.947
 4807.00    0.57775   0.56538   17.308
 4808.00    0.61283   0.56490   16.318
 4809.00    0.64878   0.56440   15.413
 4810.00    0.67351   0.56446   14.848
 4811.00    0.67713   0.56438   14.768
 4812.00    0.65708   0.56282   15.219
 4813.00    0.62431   0.56139   16.018
 4814.00    0.60346   0.56155   16.571
 4815.00    0.61933   0.56262   16.146
 4816.00    0.67170   0.56409   14.888
 4817.00    0.73057   0.56528   13.688
 4818.00    0.75054   0.56407   13.324
 4819.00    0.71195   0.56147   14.046
 4820.00    0.63375   0.56152   15.779
 4821.00    0.56428   0.56376   17.722
 4822.00    0.53853   0.56409   18.569
 4823.00    0.55731   0.56258   17.943
 4824.00    0.59058   0.56224   16.933
 4825.00    0.60707   0.56319   16.473
 4826.00    0.59642   0.56331   16.767
 4827.00    0.56948   0.56110   17.560
 4828.00    0.54547   0.55794   18.333
 4829.00    0.53724   0.55758   18.614
 4830.00    0.54976   0.55955   18.190
 4831.00    0.58029   0.56033   17.233
 4832.00    0.61876   0.55984   16.161
 4833.00    0.64800   0.56046   15.432
 4834.00    0.64936   0.56134   15.400
 4835.00    0.61800   0.56113   16.181
 4836.00    0.56737   0.56070   17.625
 4837.00    0.52417   0.56034   19.078
 4838.00    0.50707   0.55957   19.721
 4839.00    0.51694   0.55851   19.345
 4840.00    0.53864   0.55778   18.565
 4841.00    0.55624   0.55713   17.978
 4842.00    0.56359   0.55564   17.743
 4843.00    0.56443   0.55383   17.717
 4844.00    0.56638   0.55329   17.656
 4845.00    0.57459   0.55355   17.404
 4846.00    0.59111   0.55267   16.917
 4847.00    0.61616   0.54987   16.230
 4848.00    0.65013   0.54641    0.000
 4849.00    0.69390   0.54390    0.000
 4850.00    0.74863   0.54140    0.000
 4851.00    0.81512   0.53791    0.000
 4852.00    0.89366   0.53400    0.000
 4853.00    0.98502   0.52893    0.000
 4854.00    1.09448   0.52078    0.000
 4855.00    1.23356   0.50975    0.000
 4856.00    1.41754   0.49570    0.000
 4857.00    1.64926   0.47455    0.000
 4858.00    1.90841   0.44295    0.000
 4859.00    2.15270   0.40301    0.000
 4860.00    2.33699   0.36465    0.000
 4861.00    2.43248   0.34928    0.000
 4862.00    2.42845   0.37179    0.000
 4863.00    2.32908   0.41703    0.000
 4864.00    2.14847   0.45703    0.000
 4865.00    1.90986   0.48171    0.000
 4866.00    1.64230   0.49483    0.000
 4867.00    1.37298   0.50479    0.000
 4868.00    1.12512   0.51632    0.000
 4869.00    0.91717   0.52631    0.000
 4870.00    0.75963   0.53047    0.000
 4871.00    0.65382   0.53219    0.000
 4872.00    0.59256   0.53502    0.000
 4873.00    0.56505   0.53849    0.000
 4874.00    0.55997   0.54110    0.000
 4875.00    0.56576   0.54318   17.675
 4876.00    0.57292   0.54553   17.454
 4877.00    0.57600   0.54750   17.361
 4878.00    0.57373   0.54890   17.430
 4879.00    0.56758   0.54955   17.619
 4880.00    0.55958   0.54893   17.871
 4881.00    0.55203   0.54811   18.115
 4882.00    0.54689   0.54845   18.285
 4883.00    0.54450   0.54890   18.366
 4884.00    0.54325   0.54854   18.408
 4885.00    0.54040   0.54812   18.505
 4886.00    0.53474   0.54876   18.701
 4887.00    0.52765   0.55010   18.952
 4888.00    0.52287   0.55072   19.125
 4889.00    0.52494   0.54925   19.050
 4890.00    0.53839   0.54656   18.574
 4891.00    0.56725   0.54607   17.629
 4892.00    0.61141   0.54896   16.356
 4893.00    0.66329   0.55204   15.076
 4894.00    0.70806   0.55391   14.123
 4895.00    0.73204   0.55524   13.660
 4896.00    0.73415   0.55585   13.621
 4897.00    0.72723   0.55555   13.751
 4898.00    0.72972   0.55371   13.704
 4899.00    0.74817   0.55099   -1.000
 4900.00    0.77337   0.54998   -1.000
 4901.00    0.78594   0.55109   -1.000
 4902.00    0.77465   0.55165   -1.000
 4903.00    0.74297   0.55090   -1.000
 4904.00    0.70649   0.55074   14.154
 4905.00    0.67862   0.55112   14.736
 4906.00    0.66270   0.55068   15.090
 4907.00    0.65272   0.55031   15.321
 4908.00    0.64165   0.55069   15.585
 4909.00    0.62861   0.55092   15.908
 4910.00    0.61899   0.55098   16.155
 4911.00    0.61949   0.55155   16.142
 4912.00    0.63176   0.55193   15.829
 4913.00    0.65160   0.55197   15.347
 4914.00    0.67217   0.55224   14.877
 4915.00    0.69022   0.55248   14.488
 4916.00    0.70739   0.55152   14.136
 4917.00    0.72789   0.54922   13.738
 4918.00    0.75157   0.54542   -1.000
 4919.00    0.77156   0.53926   -1.000
 4920.00    0.77617   0.52910   -1.000
 4921.00    0.75836   0.51891   -1.000
 4922.00    0.72061   0.51809   -1.000
 4923.00    0.67430   0.52503   14.830
 4924.00    0.63299   0.53161   15.798
 4925.00    0.60710   0.53742   16.472
 4926.00    0.60345   0.54527   16.571
 4927.00    0.62376   0.55117   16.032
 4928.00    0.66276   0.55348   15.088
 4929.00    0.70814   0.55409   14.121
 4930.00    0.74551   0.55399   -1.000
 4931.00    0.76749   0.55309   -1.000
 4932.00    0.77549   0.55083   -1.000
 4933.00    0.77673   0.54824   -1.000
 4934.00    0.77556   0.54785   -1.000
 4935.00    0.77083   0.54947   -1.000
 4936.00    0.75715   0.54978   -1.000
 4937.00    0.73114   0.54753   -1.000
 4938.00    0.69439   0.54518   14.401
 4939.00    0.65318   0.54426   15.310
 4940.00    0.61526   0.54405    0.000
 4941.00    0.58745   0.54316    0.000
 4942.00    0.57538   0.54223    0.000
 4943.00    0.58203   0.54410    0.000
 4944.00    0.60601   0.54744    0.000
 4945.00    0.64152   0.54970    0.000
 4946.00    0.68262   0.55036    0.000
 4947.00    0.73061   0.55052    0.000
 4948.00    0.79539   0.55032    0.000
 4949.00    0.89342   0.55045    0.000
 4950.00    1.04245   0.55105    0.000
 4951.00    1.25980   0.55125    0.000
 4952.00    1.55978   0.55002    0.000
 4953.00    1.94207   0.54679    0.000
 4954.00    2.38645   0.54195    0.000
 4955.00    2.85410   0.53690    0.000
 4956.00    3.29750   0.53325    0.000
 4957.00    3.66750   0.53168    0.000
 4958.00    3.91467   0.53243    0.000
 4959.00    4.00084   0.53460    0.000
 4960.00    3.91161   0.53624    0.000
 4961.00    3.65748   0.53653    0.000
 4962.00    3.26943   0.53614    0.000
 4963.00    2.79168   0.53542    0.000
 4964.00    2.28028   0.53453    0.000
 4965.00    1.79509   0.53365    0.000
 4966.00    1.37935   0.53336    0.000
 4967.00    1.05416   0.53365    0.000
 4968.00    0.82072   0.53431    0.000
 4969.00    0.66991   0.53530    0.000
 4970.00    0.58630   0.53601    0.000
 4971.00    0.54936   0.53650    0.000
 4972.00    0.54006   0.53704    0.000
 4973.00    0.54525   0.53740    0.000
 4974.00    0.55763   0.53755    0.000
 4975.00    0.57273   0.53754    0.000
 4976.00    0.58575   0.53704    0.000
 4977.00    0.59143   0.53599    0.000
 4978.00    0.58596   0.53476    0.000
 4979.00    0.56988   0.53382    0.000
 4980.00    0.54852   0.53257    0.000
 4981.00    0.52963   0.52999    0.000
 4982.00    0.51774   0.52736    0.000
 4983.00    0.51268   0.52746    0.000
 4984.00    0.51095   0.52996    0.000
 4985.00    0.51088   0.53199    0.000
 4986.00    0.51469   0.53280    0.000
 4987.00    0.52765   0.53337    0.000
 4988.00    0.55252   0.53358    0.000
 4989.00    0.58616   0.53292    0.000
 4990.00    0.61991   0.53146    0.000
 4991.00    0.64547   0.53069    0.000
 4992.00    0.66052   0.53123    0.000
 4993.00    0.66936   0.53101    0.000
 4994.00    0.68651   0.53056    0.000
 4995.00    0.74192   0.53137    0.000
 4996.00    0.88156   0.53262    0.000
 4997.00    1.16011   0.53238    0.000
 4998.00    1.62457   0.53033    0.000
 4999.00    2.31032   0.52622    0.000
 5000.00    3.23447   0.52081    0.000
 5001.00    4.37289   0.51778    0.000
 5002.00    5.65192   0.51917    0.000
 5003.00    6.95341   0.52187    0.000
 5004.00    8.14588   0.52182    0.000
 5005.00    9.10281   0.52058    0.000
 5006.00    9.70619   0.52009    0.000
 5007.00    9.87282   0.52113    0.000
 5008.00    9.57784   0.52271    0.000
 5009.00    8.85630   0.52326    0.000
 5010.00    7.79198   0.52292    0.000
 5011.00    6.50183   0.52276    0.000
 5012.00    5.13254   0.52195    0.000
 5013.00    3.83782   0.51744    0.000
 5014.00    2.72892   0.50614    0.000
 5015.00    1.86395   0.49531    0.000
 5016.00    1.25278   0.49812    0.000
 5017.00    0.87494   0.50995    0.000
 5018.00    0.68602   0.51831    0.000
 5019.00    0.62226   0.52156    0.000
 5020.00    0.62407   0.52353    0.000
 5021.00    0.64907   0.52354    0.000
 5022.00    0.67196   0.52268    0.000
 5023.00    0.67911   0.52291    0.000
 5024.00    0.66394   0.52329    0.000
 5025.00    0.62659   0.52246    0.000
 5026.00    0.57353   0.52148    0.000
 5027.00    0.51706   0.52173    0.000
 5028.00    0.47500   0.52332    0.000
 5029.00    0.46417   0.52495   21.544
 5030.00    0.48739   0.52531   20.518
 5031.00    0.53081   0.52478   18.839
 5032.00    0.57058   0.52472   17.526
 5033.00    0.59332   0.52554   16.854
 5034.00    0.60298   0.52515   16.584
 5035.00    0.61686   0.52292   16.211
 5036.00    0.64569   0.52153   15.487
 5037.00    0.68328   0.52199   14.635
 5038.00    0.70832   0.52138   -1.000
 5039.00    0.70247   0.51750   -1.000
 5040.00    0.66468   0.51271   15.045
 5041.00    0.61138   0.51256   16.356
 5042.00    0.56508   0.51732   17.696
 5043.00    0.54050   0.52153   18.501
 5044.00    0.54293   0.52253   18.418
 5045.00    0.56957   0.52244   17.557
 5046.00    0.61179   0.52038   16.346
 5047.00    0.65564   0.51656   15.252
 5048.00    0.68497   0.51519   -1.000
 5049.00    0.69038   0.51753   -1.000
 5050.00    0.67202   0.51972   14.880
 5051.00    0.63825   0.52048   15.668
 5052.00    0.59930   0.52178   16.686
 5053.00    0.56413   0.52272   17.727
 5054.00    0.54014   0.52068   18.514
 5055.00    0.53145   0.51614   18.816
 5056.00    0.53762   0.51492   18.600
 5057.00    0.55371   0.51860   18.060
 5058.00    0.57240   0.52260   17.470
 5059.00    0.58648   0.52379   17.051
 5060.00    0.58917   0.52428   16.973
 5061.00    0.57659   0.52432   17.343
 5062.00    0.55202   0.52314   18.115
 5063.00    0.52663   0.52051   18.989
 5064.00    0.51502   0.51786   19.417
 5065.00    0.52313   0.51717   19.116
 5066.00    0.54474   0.51831   18.357
 5067.00    0.56452   0.51899   17.714
 5068.00    0.57157   0.51889   17.496
 5069.00    0.56557   0.51937   17.681
 5070.00    0.55571   0.51984   17.995
 5071.00    0.55158   0.51897   18.130
 5072.00    0.55671   0.51761   17.963
 5073.00    0.56857   0.51728   17.588
 5074.00    0.58217   0.51790   17.177
 5075.00    0.59402   0.51808   16.834
 5076.00    0.60250   0.51800   16.598
 5077.00    0.60757   0.51795   16.459
 5078.00    0.61030   0.51682   16.385
 5079.00    0.61273   0.51445   16.320
 5080.00    0.61741   0.51324   16.197
 5081.00    0.62608   0.51338   15.973
 5082.00    0.63931   0.51375   15.642
 5083.00    0.65603   0.51410   15.243
 5084.00    0.67146   0.51500   14.893
 5085.00    0.67623   0.51555   14.788
 5086.00    0.65812   0.51546   15.195
 5087.00    0.61309   0.51561   16.311
 5088.00    0.55276   0.51634   18.091
 5089.00    0.50329   0.51665   19.869
 5090.00    0.48887   0.51583   20.455
 5091.00    0.51495   0.51551   19.419
 5092.00    0.56717   0.51640   17.631
 5093.00    0.62166   0.51717   16.086
 5094.00    0.66117   0.51650   15.125
 5095.00    0.67753   0.51518   14.759
 5096.00    0.67049   0.51442   14.914
 5097.00    0.64475   0.51394   15.510
 5098.00    0.60921   0.51274   16.415
 5099.00    0.57534   0.51118   17.381
 5100.00    0.55102   0.51099   18.148
 5101.00    0.53811   0.51203   18.584
 5102.00    0.53315   0.51252   18.756
 5103.00    0.53232   0.51215   18.786
 5104.00    0.53447   0.51181   18.710
 5105.00    0.54103   0.51196   18.483
 5106.00    0.55262   0.51159   18.095
 5107.00    0.56604   0.51078   17.667
 5108.00    0.57419   0.51058   17.416
 5109.00    0.57140   0.51041   17.501
 5110.00    0.56123   0.50995   17.818
 5111.00    0.55738   0.51002   17.941
 5112.00    0.57621   0.50979   17.355
 5113.00    0.61974   0.50916   16.136
 5114.00    0.67167   0.51008   14.888
 5115.00    0.70424   0.51227   -1.000
 5116.00    0.70255   0.51418   -1.000
 5117.00    0.67378   0.51507   14.842
 5118.00    0.64350   0.51474   15.540
 5119.00    0.63370   0.51341   15.780
 5120.00    0.64975   0.51131   15.390
 5121.00    0.68108   0.50862   -1.000
 5122.00    0.71206   0.50614   -1.000
 5123.00    0.73200   0.50502   -1.000
 5124.00    0.73581   0.50584   -1.000
 5125.00    0.72358   0.50632   -1.000
 5126.00    0.69994   0.50451   -1.000
 5127.00    0.67380   0.50274   -1.000
 5128.00    0.65501   0.50345   15.267
 5129.00    0.64709   0.50557   15.454
 5130.00    0.64561   0.50728   15.489
 5131.00    0.64063   0.50778   15.610
 5132.00    0.62468   0.50662   16.008
 5133.00    0.59559   0.50615   16.790
 5134.00    0.55626   0.50826   17.977
 5135.00    0.51316   0.51050   19.487
 5136.00    0.47541   0.51029   21.034
 5137.00    0.45413   0.50866   22.020
 5138.00    0.45635   0.50691   21.913
 5139.00    0.47992   0.50643   20.837
 5140.00    0.51357   0.50751   19.471
 5141.00    0.54410   0.50726   18.379
 5142.00    0.56564   0.50441   17.679
 5143.00    0.58072   0.50184   17.220
 5144.00    0.59606   0.50076   16.777
 5145.00    0.61419   0.50072   16.282
 5146.00    0.63174   0.50179   15.829
 5147.00    0.64202   0.50355   15.576
 5148.00    0.64308   0.50443   15.550
 5149.00    0.64040   0.50372   15.615
 5150.00    0.64480   0.50133   15.509
 5151.00    0.66189   0.49961   -1.000
 5152.00    0.68656   0.49959   -1.000
 5153.00    0.70414   0.50048   -1.000
 5154.00    0.70175   0.50119   -1.000
 5155.00    0.67738   0.50212   -1.000
 5156.00    0.63994   0.50445   15.626
 5157.00    0.60245   0.50770   16.599
 5158.00    0.57358   0.50959   17.434
 5159.00    0.55677   0.50877   17.961
 5160.00    0.55140   0.50824   18.136
 5161.00    0.55509   0.50845   18.015
 5162.00    0.56416   0.50804   17.726
 5163.00    0.57434   0.50702   17.411
 5164.00    0.58277   0.50490   17.160
 5165.00    0.58865   0.49996   16.988
 5166.00    0.59274   0.49326   16.871
 5167.00    0.59494   0.48766   16.808
 5168.00    0.59317   0.48515   16.859
 5169.00    0.58378   0.48575   17.130
 5170.00    0.56544   0.48709   17.685
 5171.00    0.54194   0.48667   18.452
 5172.00    0.52202   0.48520   19.156
 5173.00    0.51352   0.48542   19.473
 5174.00    0.51676   0.48732   19.351
 5175.00    0.52406   0.48878   19.082
 5176.00    0.52595   0.48969   19.013
 5177.00    0.52216   0.49058   19.151
 5178.00    0.52349   0.49076   19.103
 5179.00    0.54592   0.48997   18.318
 5180.00    0.59447   0.48938   16.822
 5181.00    0.65846   0.48861   -1.000
 5182.00    0.71543   0.48674   -1.000
 5183.00    0.74837   0.48524   -1.000
 5184.00    0.75357   0.48622   -1.000
 5185.00    0.73943   0.48927   -1.000
 5186.00    0.71620   0.49227   -1.000
 5187.00    0.68861   0.49391   -1.000
 5188.00    0.65586   0.49423   -1.000
 5189.00    0.61617   0.49354   16.229
 5190.00    0.57173   0.49181    0.000
 5191.00    0.52907   0.48914    0.000
 5192.00    0.49713   0.48711    0.000
 5193.00    0.48393   0.48692    0.000
 5194.00    0.49601   0.48849    0.000
 5195.00    0.53570   0.49084    0.000
 5196.00    0.59429   0.49292    0.000
 5197.00    0.65019   0.49390    0.000
 5198.00    0.67458   0.49392    0.000
 5199.00    0.65412   0.49239    0.000
 5200.00    0.60089   0.48973    0.000
 5201.00    0.54851   0.48849    0.000
 5202.00    0.52530   0.48843    0.000
 5203.00    0.53625   0.48686    0.000
 5204.00    0.56374   0.48308    0.000
 5205.00    0.58489   0.48038    0.000
 5206.00    0.58933   0.48001    0.000
 5207.00    0.58052   0.48068    0.000
 5208.00    0.56864   0.48138    0.000
 5209.00    0.55960   0.48247    0.000
 5210.00    0.55327   0.48399    0.000
 5211.00    0.54600   0.48533   18.315
 5212.00    0.53646   0.48711   18.641
 5213.00    0.52720   0.49009   18.968
 5214.00    0.52328   0.49225   19.110
 5215.00    0.52705   0.49206   18.974
 5216.00    0.53606   0.49130   18.655
 5217.00    0.54382   0.49189   18.389
 5218.00    0.54480   0.49304   18.355
 5219.00    0.53759   0.49381   18.601
 5220.00    0.52479   0.49442   19.055
 5221.00    0.51029   0.49479   19.597
 5222.00    0.49675   0.49378   20.131
 5223.00    0.48538   0.49133   20.602
 5224.00    0.47639   0.48824   20.991
 5225.00    0.46960   0.48508   21.295
 5226.00    0.46456   0.48316   21.526
 5227.00    0.46089   0.48440   21.697
 5228.00    0.45906   0.48864   21.784
 5229.00    0.46059   0.49288   21.711
 5230.00    0.46748   0.49511   21.391
 5231.00    0.48025   0.49529   20.823
 5232.00    0.49719   0.49342   20.113
 5233.00    0.51472   0.49083   19.428
 5234.00    0.52928   0.48998   18.894
 5235.00    0.53847   0.49148   18.571
 5236.00    0.54117   0.49355   18.479
 5237.00    0.53770   0.49456   18.598
 5238.00    0.53011   0.49414   18.864
 5239.00    0.52206   0.49271   19.155
 5240.00    0.51757   0.49123   19.321
 5241.00    0.51921   0.49049   19.260
 5242.00    0.52789   0.49048   18.943
 5243.00    0.54272   0.49068   18.426
 5244.00    0.56083   0.49113   17.831
 5245.00    0.57725   0.49000   17.324
 5246.00    0.58634   0.48626   17.055
 5247.00    0.58620   0.48335   17.059
 5248.00    0.58029   0.48321   17.233
 5249.00    0.57609   0.48369   17.358
 5250.00    0.57787   0.48325   17.305
 5251.00    0.58263   0.48344   17.164
 5252.00    0.58093   0.48460   17.214
 5253.00    0.56517   0.48538   17.694
 5254.00    0.53664   0.48523   18.635
 5255.00    0.50558   0.48587   19.779
 5256.00    0.48355   0.48819   20.681
 5257.00    0.47353   0.49075   21.118
 5258.00    0.46885   0.49161   21.329
 5259.00    0.45888   0.49022   21.792
 5260.00    0.44058   0.48789   22.698
 5261.00    0.42078   0.48595   23.766
 5262.00    0.41212   0.48360   24.265
 5263.00    0.42029   0.48024   23.793
 5264.00    0.43968   0.47763   22.744
 5265.00    0.45592   0.47709   21.934
 5266.00    0.45886   0.47890   21.793
 5267.00    0.44924   0.48075   22.260
 5268.00    0.43780   0.47903   22.841
 5269.00    0.43559   0.47490   22.958
 5270.00    0.44615   0.47355   22.414
 5271.00    0.46536   0.47581   21.489
 5272.00    0.48598   0.47902   20.577
 5273.00    0.50324   0.48183   19.871
 5274.00    0.51545   0.48353   19.401
 5275.00    0.52226   0.48355   19.148
 5276.00    0.52148   0.48414   19.176
 5277.00    0.50845   0.48678   19.668
 5278.00    0.47818   0.48889   20.913
 5279.00    0.43151   0.48884   23.175
 5280.00    0.37710   0.48721   26.518
 5281.00    0.32958   0.48497   -1.000
 5282.00    0.30071   0.48312   -1.000
 5283.00    0.29515   0.48262   -1.000
 5284.00    0.31073   0.48427   -1.000
 5285.00    0.34188   0.48751   -1.000
 5286.00    0.38216   0.48997   26.167
 5287.00    0.42455   0.49008   23.554
 5288.00    0.46258   0.48872   21.618
 5289.00    0.49176   0.48777   20.335
 5290.00    0.50968   0.48768   19.620
 5291.00    0.51644   0.48773   19.364
 5292.00    0.51518   0.48761   19.411
 5293.00    0.51223   0.48770   19.522
 5294.00    0.51487   0.48752   19.422
 5295.00    0.52542   0.48553   19.032
 5296.00    0.53943   0.48140   18.538
 5297.00    0.54762   0.47761   18.261
 5298.00    0.54410   0.47704   18.379
 5299.00    0.53020   0.47903   18.861
 5300.00    0.51369   0.48063   19.467
 5301.00    0.50246   0.48103   19.902
 5302.00    0.50006   0.48217   19.998
 5303.00    0.50560   0.48469   19.778
 5304.00    0.51574   0.48716   19.390
 5305.00    0.52678   0.48751   18.983
 5306.00    0.53498   0.48580   18.692
 5307.00    0.53724   0.48426   18.614
 5308.00    0.53229   0.48429   18.787
 5309.00    0.52095   0.48484   19.196
 5310.00    0.50570   0.48470   19.775
 5311.00    0.48988   0.48404   20.413
 5312.00    0.47736   0.48323   20.948
 5313.00    0.47185   0.48255   21.193
 5314.00    0.47367   0.48227   21.112
 5315.00    0.47850   0.48200   20.899
 5316.00    0.47820   0.48151   20.912
 5317.00    0.46689   0.48131   21.418
 5318.00    0.44502   0.48126   22.471
 5319.00    0.41919   0.47982   23.855
 5320.00    0.39817   0.47791   25.115
 5321.00    0.38871   0.47807   25.726
 5322.00    0.39516   0.47921   25.306
 5323.00    0.41859   0.47940   23.890
 5324.00    0.45550   0.47906   21.954
 5325.00    0.49764   0.47878   20.095
 5326.00    0.53528   0.47587   18.682
 5327.00    0.56489   0.47018   17.703
 5328.00    0.59115   0.46642   16.916
 5329.00    0.62386   0.46809   -1.000
 5330.00    0.66606   0.47244   -1.000
 5331.00    0.70922   0.47562   -1.000
 5332.00    0.73541   0.47683   -1.000
 5333.00    0.73118   0.47756   -1.000
 5334.00    0.69631   0.47875   -1.000
 5335.00    0.64331   0.47945   -1.000
 5336.00    0.58766   0.47910   17.017
 5337.00    0.53833   0.47849   18.576
 5338.00    0.49733   0.47745   20.107
 5339.00    0.46427   0.47531   21.539
 5340.00    0.44331   0.47286   22.558
 5341.00    0.44399   0.47215   22.523
 5342.00    0.47572   0.47346   21.021
 5343.00    0.53517   0.47492   18.686
 5344.00    0.60331   0.47435   16.575
 5345.00    0.65147   0.47224   -1.000
 5346.00    0.66298   0.47221   -1.000
 5347.00    0.64140   0.47375   -1.000
 5348.00    0.60743   0.47388   16.463
 5349.00    0.58008   0.47321   17.239
 5350.00    0.56558   0.47468   17.681
 5351.00    0.55787   0.47763   17.925
 5352.00    0.54828   0.47990   18.239
 5353.00    0.53427   0.48111   18.717
 5354.00    0.51984   0.48197   19.237
 5355.00    0.51040   0.48218   19.592
 5356.00    0.50576   0.48178   19.772
 5357.00    0.49926   0.48141   20.030
 5358.00    0.48257   0.48083   20.722
 5359.00    0.45600   0.47963   21.930
 5360.00    0.43076   0.47789   23.215
 5361.00    0.42401   0.47605   23.584
 5362.00    0.44245   0.47493   22.601
 5363.00    0.47642   0.47478   20.990
 5364.00    0.50354   0.47488   19.859
 5365.00    0.50892   0.47481   19.650
 5366.00    0.49629   0.47469   20.150
 5367.00    0.48635   0.47461   20.561
 5368.00    0.49738   0.47377   20.105
 5369.00    0.52874   0.47115   18.913
 5370.00    0.56065   0.46755   17.836
 5371.00    0.56983   0.46592   17.549
 5372.00    0.54978   0.46829   18.189
 5373.00    0.51317   0.47275   19.487
 5374.00    0.48284   0.47569   20.711
 5375.00    0.47377   0.47578   21.107
 5376.00    0.48935   0.47480   20.435
 5377.00    0.52341   0.47508   19.106
 5378.00    0.56676   0.47662   17.644
 5379.00    0.60942   0.47724   16.409
 5380.00    0.64145   0.47610   -1.000
 5381.00    0.65708   0.47452   -1.000
 5382.00    0.65680   0.47352   -1.000
 5383.00    0.64687   0.47299   -1.000
 5384.00    0.63389   0.47296   -1.000
 5385.00    0.62047   0.47332   16.117
 5386.00    0.60522   0.47350   16.523
 5387.00    0.58646   0.47326   17.052
 5388.00    0.56669   0.47222   17.646
 5389.00    0.55306   0.47026   18.081
 5390.00    0.55326   0.46847   18.075
 5391.00    0.56786   0.46819   17.610
 5392.00    0.58887   0.46899   16.982
 5393.00    0.60335   0.46933   16.574
 5394.00    0.60422   0.46849   16.550
 5395.00    0.59362   0.46637   16.846
 5396.00    0.58107   0.46344   17.210
 5397.00    0.57469   0.46270   17.401
 5398.00    0.57685   0.46566   17.335
 5399.00    0.58454   0.46855   17.107
 5400.00    0.59317   0.46855   16.859
 5401.00    0.59939   0.46757   16.684
 5402.00    0.60135   0.46749   16.629
 5403.00    0.59908   0.46648   16.692
 5404.00    0.59492   0.46279   16.809
 5405.00    0.59353   0.45860   16.848
 5406.00    0.59919   0.45710   16.689
 5407.00    0.61104   0.45680   -1.000
 5408.00    0.62229   0.45220   -1.000
 5409.00    0.62278   0.43948   -1.000
 5410.00    0.60606   0.42345   -1.000
 5411.00    0.57148   0.41679   17.498
 5412.00    0.52367   0.42573   19.096
 5413.00    0.47006   0.44250   21.274
 5414.00    0.41977   0.45560   23.823
 5415.00    0.38301   0.46262   26.109
 5416.00    0.36693   0.46676   27.253
 5417.00    0.37264   0.46900   26.836
 5418.00    0.39534   0.46939   25.295
 5419.00    0.42743   0.46858   23.396
 5420.00    0.46186   0.46789   21.652
 5421.00    0.49251   0.46831   20.304
 5422.00    0.51484   0.46888   19.424
 5423.00    0.52693   0.46809   18.978
 5424.00    0.52967   0.46689   18.880
 5425.00    0.52560   0.46715   19.026
 5426.00    0.51607   0.46858   19.377
 5427.00    0.50040   0.46855   19.984
 5428.00    0.47714   0.46488   20.958
 5429.00    0.44889   0.46043   22.277
 5430.00    0.42456   0.45962   23.554
 5431.00    0.41763   0.46067   23.945
 5432.00    0.43508   0.46013   22.984
 5433.00    0.46990   0.45875   21.281
 5434.00    0.50206   0.45837   19.918
 5435.00    0.51389   0.45918   19.459
 5436.00    0.50587   0.46054   19.768
 5437.00    0.49736   0.46248   20.106
 5438.00    0.51125   0.46485   19.560
 5439.00    0.54982   0.46719   18.188
 5440.00    0.59113   0.46879   16.917
 5441.00    0.60218   0.46955   16.606
 5442.00    0.57052   0.46992   17.528
 5443.00    0.51243   0.46995   19.515
 5444.00    0.46511   0.46816   -2.000
 5445.00    0.45690   0.46330   -2.000
 5446.00    0.49509   0.45709   -2.000
 5447.00    0.56724   0.45306   -2.000
 5448.00    0.65143   0.45219   -2.000
 5449.00    0.72275   0.45233   -2.000
 5450.00    0.75465   0.45194   -2.000
 5451.00    0.72962   0.45094   -2.000
 5452.00    0.64964   0.44926   -2.000
 5453.00    0.53656   0.44729   -2.000
 5454.00    0.42237   0.44584   -2.000
 5455.00    0.33493   0.44553   -2.000
 5456.00    0.29576   0.44686   -2.000
 5457.00    0.31602   0.44916   -2.000
 5458.00    0.38747   0.45119   -2.000
 5459.00    0.48050   0.45146   20.812
 5460.00    0.55243   0.45066   18.102
 5461.00    0.57748   0.45035   17.317
 5462.00    0.55817   0.45071   17.916
 5463.00    0.52121   0.45106   19.186
 5464.00    0.49195   0.45115   20.327
 5465.00    0.47925   0.45075   20.866
 5466.00    0.47598   0.45051   21.009
 5467.00    0.46996   0.45152   21.278
 5468.00    0.45394   0.45263   22.030
 5469.00    0.42631   0.45230   23.457
 5470.00    0.39031   0.45129   25.621
 5471.00    0.35276   0.45066   28.348
 5472.00    0.32384   0.44957   30.879
 5473.00    0.31339   0.44823   -1.000
 5474.00    0.32303   0.44807   30.957
 5475.00    0.34444   0.44840   29.033
 5476.00    0.36295   0.44774   27.552
 5477.00    0.36967   0.44768   27.051
 5478.00    0.36585   0.44943   27.333
 5479.00    0.36103   0.45100   27.698
 5480.00    0.36281   0.45053   27.563
 5481.00    0.37110   0.44901   26.947
 5482.00    0.37878   0.44892   26.401
 5483.00    0.37944   0.45049   26.355
 5484.00    0.37397   0.45223   26.740
 5485.00    0.37067   0.45278   26.978
 5486.00    0.37857   0.45185   26.415
 5487.00    0.39888   0.45059   25.070
 5488.00    0.42395   0.45024   23.588
 5489.00    0.44229   0.45041   22.609
 5490.00    0.44864   0.45039   22.289
 5491.00    0.44605   0.45077   22.419
 5492.00    0.44320   0.45132   22.563
 5493.00    0.44619   0.45109   22.412
 5494.00    0.45569   0.45041   21.945
 5495.00    0.46764   0.44961   21.384
 5496.00    0.47660   0.44818   20.982
 5497.00    0.47763   0.44683   20.937
 5498.00    0.46673   0.44706   21.426
 5499.00    0.44423   0.44790   22.511
 5500.00    0.41756   0.44732   23.949
 5501.00    0.40080   0.44583   24.950
 5502.00    0.40574   0.44536   24.646
 5503.00    0.43083   0.44592   23.211
 5504.00    0.46019   0.44597   21.730
 5505.00    0.47259   0.44463   21.160
 5506.00    0.45841   0.44243   21.814
 5507.00    0.42297   0.44141   23.642
 5508.00    0.38210   0.44256   26.171
 5509.00    0.34926   0.44408   28.632
 5510.00    0.33146   0.44477   30.169
 5511.00    0.32966   0.44395   30.334
 5512.00    0.34095   0.44248   29.330
 5513.00    0.35969   0.44157   27.802
 5514.00    0.37800   0.44134   26.455
 5515.00    0.38979   0.44193   25.655
 5516.00    0.39367   0.44363   25.402
 5517.00    0.39291   0.44605   25.451
 5518.00    0.39180   0.44835   25.523
 5519.00    0.39142   0.44946   25.548
 5520.00    0.38931   0.44931   25.686
 5521.00    0.38241   0.44889   26.150
 5522.00    0.37230   0.44865   26.860
 5523.00    0.36614   0.44831   27.312
 5524.00    0.37358   0.44761   26.768
 5525.00    0.39825   0.44650   25.110
 5526.00    0.43531   0.44514   22.972
 5527.00    0.47338   0.44378   21.125
 5528.00    0.50356   0.44334   19.858
 5529.00    0.52355   0.44455   19.101
 5530.00    0.53693   0.44625   18.624
 5531.00    0.54749   0.44680   18.265
 5532.00    0.55507   0.44623   18.016
 5533.00    0.55575   0.44525   17.994
 5534.00    0.54669   0.44419   18.292
 5535.00    0.53143   0.44367   18.817
 5536.00    0.52017   0.44413   19.225
 5537.00    0.52299   0.44484   19.121
 5538.00    0.53865   0.44522   18.565
 5539.00    0.55274   0.44604   18.092
 5540.00    0.54496   0.44723   18.350
 5541.00    0.50786   0.44769   19.691
 5542.00    0.45198   0.44693   22.125
 5543.00    0.40119   0.44577   24.926
 5544.00    0.37329   0.44505   26.789
 5545.00    0.37155   0.44459   26.914
 5546.00    0.38622   0.44440   25.892
 5547.00    0.40595   0.44506   24.634
 5548.00    0.42545   0.44618   23.505
 5549.00    0.44537   0.44672   22.453
 5550.00    0.46686   0.44642   21.420
 5551.00    0.48586   0.44570   20.582
 5552.00    0.49282   0.44477   20.291
 5553.00    0.47755   0.44378   20.940
 5554.00    0.43676   0.44294   22.896
 5555.00    0.37526   0.44220   26.648
 5556.00    0.30318   0.44148   -2.000
 5557.00    0.22936   0.44106   -2.000
 5558.00    0.15969   0.44130   -2.000
 5559.00    0.10021   0.44164   -2.000
 5560.00    0.06914   0.44148   -2.000
 5561.00    0.10179   0.44091   -2.000
 5562.00    0.24439   0.44041   -2.000
 5563.00    0.51478   0.44001   -2.000
 5564.00    0.87772   0.43938   -2.000
 5565.00    1.24768   0.43852   -2.000
 5566.00    1.53047   0.43813   -2.000
 5567.00    1.66354   0.43852   -2.000
 5568.00    1.61946   0.43897   -2.000
 5569.00    1.40629   0.43915   -2.000
 5570.00    1.06780   0.43948   -2.000
 5571.00    0.68307   0.43966   -2.000
 5572.00    0.34648   0.43892   -2.000
 5573.00    0.12223   0.43824   -2.000
 5574.00    0.03327   0.43869   -2.000
 5575.00    0.06542   0.43936   -2.000
 5576.00    0.18250   0.43949   -2.000
 5577.00    0.33213   0.43919   -2.000
 5578.00    0.45139   0.43862   -2.000
 5579.00    0.49859   0.43849   -2.000
 5580.00    0.47221   0.43884   21.177
 5581.00    0.40850   0.43847   24.480
 5582.00    0.35063   0.43758   28.520
 5583.00    0.32050   0.43715   31.201
 5584.00    0.31704   0.43678   31.542
 5585.00    0.32657   0.43597   30.621
 5586.00    0.33722   0.43447   29.654
 5587.00    0.34098   0.43254   29.328
 5588.00    0.33469   0.43133   29.879
 5589.00    0.32220   0.43072   31.037
 5590.00    0.31482   0.42599   31.764
 5591.00    0.32717   0.41654   30.565
 5592.00    0.36332   0.41190   27.524
 5593.00    0.41182   0.41823   24.282
 5594.00    0.44910   0.42908   22.267
 5595.00    0.45837   0.43468   21.816
 5596.00    0.44029   0.43543   22.712
 5597.00    0.41169   0.43289   24.290
 5598.00    0.39145   0.42912   25.546
 5599.00    0.38827   0.42734   25.755
 5600.00    0.40010   0.42778   24.994
 5601.00    0.41888   0.42868   23.873
 5602.00    0.43684   0.42910   22.892
 5603.00    0.44734   0.42917   22.354
 5604.00    0.44595   0.42906   22.424
 5605.00    0.43262   0.42927   23.115
 5606.00    0.41212   0.43037   24.265
 5607.00    0.39248   0.43176   25.479
 5608.00    0.37989   0.43250   26.323
 5609.00    0.37707   0.43224   26.520
 5610.00    0.38346   0.43191   26.078
 5611.00    0.39650   0.43234   25.221
 5612.00    0.41230   0.43310   24.254
 5613.00    0.42588   0.43262   23.481
 5614.00    0.43293   0.43005   23.098
 5615.00    0.43131   0.42706   23.185
 5616.00    0.42105   0.42608   23.750
 5617.00    0.40377   0.42690   24.767
 5618.00    0.38191   0.42752   26.184
 5619.00    0.35866   0.42729   27.882
 5620.00    0.33776   0.42727   29.607
 5621.00    0.32320   0.42810   30.941
 5622.00    0.31916   0.42856   31.333
 5623.00    0.32890   0.42742   30.404
 5624.00    0.35176   0.42560   28.429
 5625.00    0.38209   0.42515   26.172
 5626.00    0.41067   0.42625   24.350
 5627.00    0.43098   0.42709   23.203
 5628.00    0.44234   0.42664   22.607
 5629.00    0.44927   0.42559   22.258
 5630.00    0.45569   0.42513   21.945
 5631.00    0.46059   0.42571   21.711
 5632.00    0.45812   0.42679   21.828
 5633.00    0.44316   0.42757   22.565
 5634.00    0.41782   0.42746   23.934
 5635.00    0.39191   0.42635   25.516
 5636.00    0.37728   0.42500   26.505
 5637.00    0.37774   0.42407   26.473
 5638.00    0.38725   0.42275   25.823
 5639.00    0.39393   0.42072   25.385
 5640.00    0.39127   0.41968   25.558
 5641.00    0.38135   0.42068   26.223
 5642.00    0.37282   0.42247   26.823
 5643.00    0.37161   0.42315   26.910
 5644.00    0.37659   0.42290   26.554
 5645.00    0.38048   0.42239   26.283
 5646.00    0.37712   0.42198   26.517
 5647.00    0.36666   0.42202   27.273
 5648.00    0.35549   0.42275   28.130
 5649.00    0.35120   0.42419   28.474
 5650.00    0.35714   0.42584   28.001
 5651.00    0.37192   0.42719   26.887
 5652.00    0.39171   0.42809   25.529
 5653.00    0.41396   0.42825   24.157
 5654.00    0.43804   0.42770   22.829
 5655.00    0.46398   0.42707   21.553
 5656.00    0.48927   0.42615   20.438
 5657.00    0.50792   0.42385   19.688
 5658.00    0.51221   0.42122   19.523
 5659.00    0.49977   0.42083   20.009
 5660.00    0.47668   0.42173   20.978
 5661.00    0.45607   0.42108   21.926
 5662.00    0.44800   0.41961   22.322
 5663.00    0.45272   0.41948   22.089
 5664.00    0.46107   0.42031   21.688
 5665.00    0.46329   0.42025   21.585
 5666.00    0.45803   0.41958   21.833
 5667.00    0.45296   0.41911   22.077
 5668.00    0.45820   0.41927   21.825
 5669.00    0.47606   0.41985   21.006
 5670.00    0.49948   0.42008   20.021
 5671.00    0.51683   0.42048   19.349
 5672.00    0.52373   0.42169   19.094
 5673.00    0.52605   0.42287   19.010
 5674.00    0.53681   0.42253   18.629
 5675.00    0.56415   0.42153   -1.000
 5676.00    0.60634   0.42166   -1.000
 5677.00    0.65288   0.42208   -1.000
 5678.00    0.69159   0.42094   -1.000
 5679.00    0.71318   0.41941   -1.000
 5680.00    0.71163   0.41965   -1.000
 5681.00    0.68561   0.42101   -1.000
 5682.00    0.63999   0.42175   -1.000
 5683.00    0.58563   0.42236   -1.000
 5684.00    0.53456   0.42318   18.707
 5685.00    0.49282   0.42260   20.292
 5686.00    0.45940   0.42087   21.767
 5687.00    0.43010   0.41962   23.250
 5688.00    0.40612   0.41984   24.623
 5689.00    0.39615   0.42096   25.243
 5690.00    0.41252   0.42234   24.241
 5691.00    0.45725   0.42363   21.870
 5692.00    0.51674   0.42450   19.352
 5693.00    0.56475   0.42454   17.707
 5694.00    0.58081   0.42338   -1.000
 5695.00    0.56110   0.42140   -1.000
 5696.00    0.51785   0.41996   19.311
 5697.00    0.46854   0.41948   21.343
 5698.00    0.42608   0.41961   23.470
 5699.00    0.39803   0.41972   25.123
 5700.00    0.38803   0.41919   25.771
 5701.00    0.39774   0.41833   25.142
 5702.00    0.42704   0.41771   23.417
 5703.00    0.47250   0.41822   21.164
 5704.00    0.52384   0.41947   19.090
 5705.00    0.56329   0.41985   -1.000
 5706.00    0.57042   0.41867   -1.000
 5707.00    0.53850   0.41701   18.570
 5708.00    0.48047   0.41579   20.813
 5709.00    0.42502   0.41542   23.528
 5710.00    0.39515   0.41585   25.307
 5711.00    0.39608   0.41615   25.248
 5712.00    0.41619   0.41675   24.028
 5713.00    0.43966   0.41845   22.745
 5714.00    0.45738   0.41999   21.864
 5715.00    0.46751   0.42052   21.390
 5716.00    0.47243   0.42014   21.167
 5717.00    0.47458   0.41913   21.071
 5718.00    0.47595   0.41822   21.010
 5719.00    0.47774   0.41826   20.932
 5720.00    0.47960   0.41885   20.851
 5721.00    0.47957   0.41902   20.852
 5722.00    0.47529   0.41890   21.040
 5723.00    0.46800   0.41894   21.367
 5724.00    0.46384   0.41901   21.559
 5725.00    0.47224   0.41820   21.176
 5726.00    0.49763   0.41618   20.095
 5727.00    0.53503   0.41475   18.691
 5728.00    0.57091   0.41540   -1.000
 5729.00    0.59170   0.41691   -1.000
 5730.00    0.59074   0.41715   -1.000
 5731.00    0.56856   0.41664   -1.000
 5732.00    0.53084   0.41717   18.838
 5733.00    0.48588   0.41845   20.581
 5734.00    0.44418   0.41910   22.513
 5735.00    0.41577   0.41881   24.052
 5736.00    0.40501   0.41809   24.691
 5737.00    0.40963   0.41704   24.412
 5738.00    0.42238   0.41534   23.675
 5739.00    0.43587   0.41396   22.943
 5740.00    0.44409   0.41432    0.000
 5741.00    0.44285   0.41617    0.000
 5742.00    0.43134   0.41725    0.000
 5743.00    0.41297   0.41713    0.000
 5744.00    0.39474   0.41789    0.000
 5745.00    0.38232   0.41912    0.000
 5746.00    0.37626   0.41911    0.000
 5747.00    0.37224   0.41746    0.000
 5748.00    0.36721   0.41608    0.000
 5749.00    0.36662   0.41672    0.000
 5750.00    0.38490   0.41841    0.000
 5751.00    0.43668   0.41893    0.000
 5752.00    0.52120   0.41772    0.000
 5753.00    0.61955   0.41612    0.000
 5754.00    0.70214   0.41565    0.000
 5755.00    0.74942   0.41674    0.000
 5756.00    0.75805   0.41845    0.000
 5757.00    0.73804   0.41943    0.000
 5758.00    0.69966   0.41882    0.000
 5759.00    0.64742   0.41646    0.000
 5760.00    0.58092   0.41341    0.000
 5761.00    0.50260   0.41092    0.000
 5762.00    0.42333   0.40976    0.000
 5763.00    0.36180   0.41043    0.000
 5764.00    0.33370   0.41222    0.000
 5765.00    0.33977   0.41347    0.000
 5766.00    0.36503   0.41365    0.000
 5767.00    0.38926   0.41347    0.000
 5768.00    0.40468   0.41339    0.000
 5769.00    0.41887   0.41340    0.000
 5770.00    0.44701   0.41341    0.000
 5771.00    0.49191   0.41328    0.000
 5772.00    0.53839   0.41303    0.000
 5773.00    0.55908   0.41278    0.000
 5774.00    0.53859   0.41260    0.000
 5775.00    0.48405   0.41251    0.000
 5776.00    0.42232   0.41247    0.000
 5777.00    0.37933   0.41252    0.000
 5778.00    0.36622   0.41245    0.000
 5779.00    0.37913   0.41150    0.000
 5780.00    0.40637   0.40934    0.000
 5781.00    0.43573   0.40714    0.000
 5782.00    0.45534   0.40641    0.000
 5783.00    0.45689   0.40670    0.000
 5784.00    0.44075   0.40666    0.000
 5785.00    0.41662   0.40649    0.000
 5786.00    0.39891   0.40740    0.000
 5787.00    0.39538   0.40904    0.000
 5788.00    0.40416   0.41016    0.000
 5789.00    0.41603   0.41020    0.000
 5790.00    0.42327   0.40935    0.000
 5791.00    0.42331   0.40906    0.000
 5792.00    0.41827   0.41066    0.000
 5793.00    0.41168   0.41317    0.000
 5794.00    0.40639   0.41492    0.000
 5795.00    0.40449   0.41518    0.000
 5796.00    0.40759   0.41375    0.000
 5797.00    0.41713   0.41152    0.000
 5798.00    0.43436   0.40989    0.000
 5799.00    0.45945   0.40629    0.000
 5800.00    0.49026   0.39971    0.000
 5801.00    0.52212   0.39685    0.000
 5802.00    0.54928   0.40206    0.000
 5803.00    0.56797   0.40987    0.000
 5804.00    0.57723   0.41308    0.000
 5805.00    0.57804   0.41349    0.000
 5806.00    0.57023   0.41384    0.000
 5807.00    0.55135   0.41396    0.000
 5808.00    0.51759   0.41371    0.000
 5809.00    0.46954   0.41145    0.000
 5810.00    0.41557   0.40468    0.000
 5811.00    0.37103   0.39701    0.000
 5812.00    0.34847   0.39494    0.000
 5813.00    0.34867   0.39936    0.000
 5814.00    0.36040   0.40430    0.000
 5815.00    0.36928   0.40510    0.000
 5816.00    0.37006   0.40499    0.000
 5817.00    0.36822   0.40547    0.000
 5818.00    0.37413   0.40612    0.000
 5819.00    0.39054   0.40649    0.000
 5820.00    0.40969   0.40682    0.000
 5821.00    0.41735   0.40704    0.000
 5822.00    0.40620   0.40671    0.000
 5823.00    0.38080   0.40633    0.000
 5824.00    0.35540   0.40747    0.000
 5825.00    0.34195   0.41012    0.000
 5826.00    0.34336   0.41171    0.000
 5827.00    0.35396   0.41087    0.000
 5828.00    0.36620   0.40901    0.000
 5829.00    0.37651   0.40825    0.000
 5830.00    0.38556   0.40845    0.000
 5831.00    0.39552   0.40864    0.000
 5832.00    0.40652   0.40838    0.000
 5833.00    0.41623   0.40739    0.000
 5834.00    0.42121   0.40630    0.000
 5835.00    0.41973   0.40630    0.000
 5836.00    0.41235   0.40705    0.000
 5837.00    0.40177   0.40675    0.000
 5838.00    0.39237   0.40522    0.000
 5839.00    0.38999   0.40439    0.000
 5840.00    0.40091   0.40521    0.000
 5841.00    0.42630   0.40666    0.000
 5842.00    0.45929   0.40757    0.000
 5843.00    0.48607   0.40758    0.000
 5844.00    0.49549   0.40687    0.000
 5845.00    0.48703   0.40563    0.000
 5846.00    0.47072   0.40371    0.000
 5847.00    0.45857   0.40143    0.000
 5848.00    0.45402   0.39986    0.000
 5849.00    0.45081   0.39905    0.000
 5850.00    0.43890   0.39812    0.000
 5851.00    0.41550   0.39660    0.000
 5852.00    0.38728   0.39502    0.000
 5853.00    0.36676   0.39428    0.000
 5854.00    0.36150   0.39491    0.000
 5855.00    0.37072   0.39580    0.000
 5856.00    0.38684   0.39552    0.000
 5857.00    0.40322   0.39455    0.000
 5858.00    0.41800   0.39443    0.000
 5859.00    0.43359   0.39542    0.000
 5860.00    0.45162   0.39631    0.000
 5861.00    0.46916   0.39606    0.000
 5862.00    0.47875   0.39474    0.000
 5863.00    0.47317   0.39369    0.000
 5864.00    0.45090   0.39364    0.000
 5865.00    0.41663   0.39362    0.000
 5866.00    0.37905   0.39294    0.000
 5867.00    0.34680   0.39254    0.000
 5868.00    0.32768   0.39318    0.000
 5869.00    0.32738   0.39427    0.000
 5870.00    0.34602   0.39484    0.000
 5871.00    0.37705   0.39397    0.000
 5872.00    0.40928   0.39095    0.000
 5873.00    0.43569   0.37890   -2.000
 5874.00    0.45758   0.35410   -2.000
 5875.00    0.48355   0.33444   -2.000
 5876.00    0.52114   0.33748   -2.000
 5877.00    0.57084   0.35983   -2.000
 5878.00    0.62611   0.37971   -2.000
 5879.00    0.67792   0.38536   -2.000
 5880.00    0.71981   0.38643   -2.000
 5881.00    0.74847   0.38754   -2.000
 5882.00    0.76542   0.38872   -2.000
 5883.00    0.77986   0.38908   -2.000
 5884.00    0.80899   0.38873   -2.000
 5885.00    0.86986   0.38803   -2.000
 5886.00    0.95800   0.38685   -2.000
 5887.00    1.04149   0.38358   -2.000
 5888.00    1.07079   0.37646   -2.000
 5889.00    1.01953   0.36795   -2.000
 5890.00    0.90254   0.36399   -2.000
 5891.00    0.77013   0.36751   -2.000
 5892.00    0.66724   0.37426   -2.000
 5893.00    0.60563   0.37838    0.000
 5894.00    0.56467   0.37751    0.000
 5895.00    0.51686   0.37314    0.000
 5896.00    0.45437   0.37054    0.000
 5897.00    0.39095   0.37226    0.000
 5898.00    0.34873   0.37551    0.000
 5899.00    0.33739   0.37758    0.000
 5900.00    0.35090   0.37906    0.000
 5901.00    0.37354   0.38071   26.771
 5902.00    0.39461   0.38208   25.342
 5903.00    0.41233   0.38289   24.253
 5904.00    0.43202   0.38295   23.147
 5905.00    0.45912   0.38233   21.781
 5906.00    0.49625   0.38187   20.151
 5907.00    0.54298   0.38222   -1.000
 5908.00    0.59448   0.38284   -1.000
 5909.00    0.64077   0.38311   -1.000
 5910.00    0.66745   0.38324   -1.000
 5911.00    0.66395   0.38334   -1.000
 5912.00    0.63166   0.38279   -1.000
 5913.00    0.58419   0.38161   -1.000
 5914.00    0.53967   0.38081   -1.000
 5915.00    0.50919   0.38089   -1.000
 5916.00    0.49516   0.38138   20.195
 5917.00    0.49354   0.38181   20.262
 5918.00    0.49917   0.38173   20.033
 5919.00    0.50709   0.38150   -1.000
 5920.00    0.51265   0.38158   -1.000
 5921.00    0.51196   0.38146   -1.000
 5922.00    0.50213   0.38108   19.915
 5923.00    0.48121   0.38098   20.781
 5924.00    0.44831   0.38124   22.306
 5925.00    0.40363   0.38146   24.775
 5926.00    0.34875   0.38156   28.674
 5927.00    0.28912   0.38136   34.587
 5928.00    0.23650   0.38082   -1.000
 5929.00    0.20852   0.38039   -1.000
 5930.00    0.21946   0.38032   -1.000
 5931.00    0.26704   0.38085   -1.000
 5932.00    0.33094   0.38158   30.217
 5933.00    0.38332   0.38163   26.088
 5934.00    0.41156   0.38119   24.298
 5935.00    0.42345   0.38116   23.616
 5936.00    0.44015   0.38201   22.719
 5937.00    0.47259   0.38298   21.160
 5938.00    0.51270   0.38330   -1.000
 5939.00    0.53720   0.38252   -1.000
 5940.00    0.52863   0.38059   -1.000
 5941.00    0.48725   0.37910   20.523
 5942.00    0.42979   0.37966   23.267
 5943.00    0.37439   0.38125   26.710
 5944.00    0.32738   0.38258   30.545
 5945.00    0.28302   0.38364   35.333
 5946.00    0.23326   0.38423   -1.000
 5947.00    0.18083   0.38339   -1.000
 5948.00    0.14060   0.38132   -1.000
 5949.00    0.13090   0.37954   -1.000
 5950.00    0.15576   0.37889   -1.000
 5951.00    0.20116   0.37884   -1.000
 5952.00    0.24208   0.37868   -1.000
 5953.00    0.26453   0.37880   -1.000
 5954.00    0.27318   0.37900   36.606
 5955.00    0.28752   0.37793   34.781
 5956.00    0.32186   0.37602   31.069
 5957.00    0.37474   0.37536   26.685
 5958.00    0.43009   0.37648   23.251
 5959.00    0.47077   0.37845   21.242
 5960.00    0.48957   0.38002   20.426
 5961.00    0.48959   0.38067   20.425
 5962.00    0.47882   0.38073   20.885
 5963.00    0.46350   0.38049   21.575
 5964.00    0.44728   0.38015   22.357
 5965.00    0.43195   0.37984   23.151
 5966.00    0.41875   0.38006   23.881
 5967.00    0.40864   0.38091   24.472
 5968.00    0.40237   0.38169   24.853
 5969.00    0.40065   0.38205   24.959
 5970.00    0.40421   0.38209   24.740
 5971.00    0.41342   0.38167   24.189
 5972.00    0.42678   0.38094   23.431
 5973.00    0.44011   0.38033   22.722
 5974.00    0.44695   0.37982   22.374
 5975.00    0.44211   0.37905   22.619
 5976.00    0.42442   0.37784   23.561
 5977.00    0.39678   0.37609   25.203
 5978.00    0.36516   0.37461   27.385
 5979.00    0.33751   0.37479   29.629
 5980.00    0.32344   0.37647   30.917
 5981.00    0.33068   0.37808   30.240
 5982.00    0.35864   0.37824   27.883
 5983.00    0.39729   0.37724   25.170
 5984.00    0.43123   0.37656   23.190
 5985.00    0.45091   0.37761   22.177
 5986.00    0.45608   0.37936   21.926
 5987.00    0.45390   0.37979   22.032
 5988.00    0.45046   0.37929   22.199
 5989.00    0.44692   0.37933   22.375
 5990.00    0.43998   0.37990   22.729
 5991.00    0.42686   0.38050   23.427
 5992.00    0.40892   0.38145   24.455
 5993.00    0.39148   0.38284   25.544
 5994.00    0.38004   0.38366   26.313
 5995.00    0.37606   0.38326   26.592
 5996.00    0.37658   0.38221   26.555
 5997.00    0.37696   0.38117   26.528
 5998.00    0.37534   0.38009   26.642
 5999.00    0.37345   0.37909   26.777
 6000.00    0.37489   0.37842   26.674
 6001.00    0.38075   0.37790   26.264
 6002.00    0.38837   0.37749   25.749
 6003.00    0.39258   0.37782   25.472
 6004.00    0.39097   0.37863   25.577
 6005.00    0.38617   0.37850   25.896
 6006.00    0.38505   0.37726   25.970
 6007.00    0.39318   0.37606   25.434
 6008.00    0.41090   0.37598   24.337
 6009.00    0.43343   0.37725   23.072
 6010.00    0.45370   0.37879   22.041
 6011.00    0.46532   0.37916   21.490
 6012.00    0.46289   0.37839   21.603
 6013.00    0.44307   0.37781   22.570
 6014.00    0.40627   0.37811   24.614
 6015.00    0.35686   0.37843   28.022
 6016.00    0.30226   0.37794   33.084
 6017.00    0.25044   0.37735   -1.000
 6018.00    0.20934   0.37749   -1.000
 6019.00    0.18592   0.37804   -1.000
 6020.00    0.18265   0.37845   -1.000
 6021.00    0.19602   0.37867   -1.000
 6022.00    0.21752   0.37881   -1.000
 6023.00    0.24020   0.37891   -1.000
 6024.00    0.26280   0.37924   -1.000
 6025.00    0.28935   0.37990   34.560
 6026.00    0.32325   0.38041   30.936
 6027.00    0.36132   0.38061   27.676
 6028.00    0.39367   0.38097   25.402
 6029.00    0.40958   0.38113   24.415
 6030.00    0.40641   0.38042   24.606
 6031.00    0.39089   0.37937   25.583
 6032.00    0.37491   0.37939   26.673
 6033.00    0.36599   0.38055   27.323
 6034.00    0.36487   0.38133   27.407
 6035.00    0.36740   0.38082   27.218
 6036.00    0.37117   0.37968   26.942
 6037.00    0.37811   0.37911   26.448
 6038.00    0.39351   0.37926   25.412
 6039.00    0.41978   0.37944   23.822
 6040.00    0.45268   0.37970   22.091
 6041.00    0.48184   0.38035   20.754
 6042.00    0.49749   0.38118   20.101
 6043.00    0.49662   0.38217   20.136
 6044.00    0.48324   0.38299   20.694
 6045.00    0.46411   0.38339   21.547
 6046.00    0.44275   0.38341   22.586
 6047.00    0.41864   0.38301   23.887
 6048.00    0.38975   0.38238   25.657
 6049.00    0.35803   0.38216   27.931
 6050.00    0.33063   0.38251   30.245
 6051.00    0.31724   0.38253   31.522
 6052.00    0.32083   0.38186   31.170
 6053.00    0.33436   0.38107   29.908
 6054.00    0.34324   0.38049   29.134
 6055.00    0.33919   0.37988   29.482
 6056.00    0.32810   0.37897   30.479
 6057.00    0.32850   0.37800   30.441
 6058.00    0.35520   0.37791   28.154
 6059.00    0.40491   0.37898   24.697
 6060.00    0.45622   0.38010   21.919
 6061.00    0.48463   0.38018   20.634
 6062.00    0.48262   0.37904   20.720
 6063.00    0.46201   0.37714   21.645
 6064.00    0.44410   0.37523   22.518
 6065.00    0.43973   0.37464   22.741
 6066.00    0.44497   0.37650   22.473
 6067.00    0.44616   0.37948   22.414
 6068.00    0.43563   0.38134   22.955
 6069.00    0.41725   0.38196   23.966
 6070.00    0.40378   0.38216   24.766
 6071.00    0.40344   0.38211   24.787
 6072.00    0.41278   0.38161   24.226
 6073.00    0.41786   0.38106   23.932
 6074.00    0.40665   0.38106   24.591
 6075.00    0.37924   0.38123   26.368
 6076.00    0.34785   0.38109   28.748
 6077.00    0.32771   0.38030   30.515
 6078.00    0.32557   0.37900   30.715
 6079.00    0.33853   0.37785   29.540
 6080.00    0.35825   0.37682   27.914
 6081.00    0.37919   0.37572   26.372
 6082.00    0.40024   0.37545   24.985
 6083.00    0.42305   0.37658   23.638
 6084.00    0.44699   0.37769   22.372
 6085.00    0.46762   0.37779   21.385
 6086.00    0.47744   0.37787   20.945
 6087.00    0.46999   0.37834   21.277
 6088.00    0.44188   0.37822   22.630
 6089.00    0.39301   0.37694   25.444
 6090.00    0.32790   0.37553   30.497
 6091.00    0.25671   0.37534   -1.000
 6092.00    0.19487   0.37600   -1.000
 6093.00    0.15652   0.37693   -1.000
 6094.00    0.14685   0.37845   -1.000
 6095.00    0.16140   0.37968   -1.000
 6096.00    0.19043   0.37946   -1.000
 6097.00    0.22679   0.37877   -1.000
 6098.00    0.26733   0.37918   -1.000
 6099.00    0.31155   0.38018   32.098
 6100.00    0.35745   0.37981   27.976
 6101.00    0.40036   0.37673   24.978
 6102.00    0.43371   0.37261   23.057
 6103.00    0.45238   0.37124   22.105
 6104.00    0.45435   0.37339   22.010
 6105.00    0.44072   0.37605   22.690
 6106.00    0.41574   0.37712   24.054
 6107.00    0.38676   0.37696   25.856
 6108.00    0.36389   0.37675   27.481
 6109.00    0.35520   0.37681   28.153
 6110.00    0.36140   0.37629   27.670
 6111.00    0.37550   0.37564   26.631
 6112.00    0.38755   0.37638   25.803
 6113.00    0.39258   0.37809   25.472
 6114.00    0.39203   0.37898   25.508
 6115.00    0.39117   0.37820   25.564
 6116.00    0.39248   0.37670   25.479
 6117.00    0.39379   0.37601   25.394
 6118.00    0.38947   0.37548   25.676
 6119.00    0.37570   0.37336   26.617
 6120.00    0.35270   0.37002   28.353
 6121.00    0.32447   0.36751   30.820
 6122.00    0.29653   0.36784   33.723
 6123.00    0.27433   0.37133   36.452
 6124.00    0.26308   0.37477   -1.000
 6125.00    0.26651   0.37540   -1.000
 6126.00    0.28562   0.37422   35.011
 6127.00    0.31855   0.37306   31.392
 6128.00    0.36082   0.37305   27.715
 6129.00    0.40569   0.37476   24.650
 6130.00    0.44429   0.37718   22.508
 6131.00    0.46758   0.37826   21.387
 6132.00    0.47120   0.37748   21.222
 6133.00    0.45678   0.37547   21.892
 6134.00    0.43091   0.37227   23.207
 6135.00    0.40132   0.36828   24.918
 6136.00    0.37524   0.36500   26.649
 6137.00    0.35908   0.36457   27.849
 6138.00    0.35633   0.36820   28.064
 6139.00    0.36635   0.37307   27.296
 6140.00    0.38450   0.37481   26.008
 6141.00    0.40488   0.37352   24.699
 6142.00    0.42300   0.37295   23.641
 6143.00    0.43603   0.37488   22.934
 6144.00    0.44239   0.37745   22.605
 6145.00    0.44133   0.37842   22.659
 6146.00    0.43283   0.37771   23.104
 6147.00    0.41803   0.37562   23.922
 6148.00    0.40025   0.37145   24.984
 6149.00    0.38524   0.36641   25.958
 6150.00    0.37967   0.36407   26.339
 6151.00    0.38562   0.36566   25.932
 6152.00    0.39854   0.36847   25.092
 6153.00    0.40867   0.36953   24.470
 6154.00    0.41009   0.36834   24.385
 6155.00    0.40615   0.36664   24.621
 6156.00    0.40861   0.36523   24.473
 6157.00    0.42684   0.36296   23.428
 6158.00    0.45784   0.35950   21.842
 6159.00    0.48594   0.35567   -1.000
 6160.00    0.49292   0.35192   -1.000
 6161.00    0.47218   0.34815   -1.000
 6162.00    0.43067   0.34568   23.220
 6163.00    0.38342   0.34596   26.081
 6164.00    0.34177   0.34783   29.260
 6165.00    0.31060   0.34935   32.196
 6166.00    0.28951   0.35012   34.541
 6167.00    0.27669   0.35028   36.142
 6168.00    0.27034   0.34916   36.990
 6169.00    0.26894   0.34746   37.183
 6170.00    0.27217   0.34761   36.742
 6171.00    0.28154   0.34975   35.519
 6172.00    0.29996   0.35131   33.337
 6173.00    0.32805   0.35093   30.484
 6174.00    0.36076   0.34994   27.719
 6175.00    0.38760   0.34987   25.800
 6176.00    0.39874   0.35073   25.079
 6177.00    0.39317   0.35193   25.434
 6178.00    0.37963   0.35313   26.341
 6179.00    0.37149   0.35384   26.919
 6180.00    0.37614   0.35405   26.586
 6181.00    0.39276   0.35416   25.461
 6182.00    0.41425   0.35404   24.140
 6183.00    0.43330   0.35333   23.079
 6184.00    0.44456   0.35205   22.494
 6185.00    0.44466   0.35011   22.489
 6186.00    0.43222   0.34763   23.136
 6187.00    0.40788   0.34579   24.517
 6188.00    0.37433   0.34507   26.715
 6189.00    0.33622   0.34429   29.742
 6190.00    0.30019   0.34275   33.312
 6191.00    0.27454   0.34155   36.424
 6192.00    0.26508   0.34203   37.724
 6193.00    0.26991   0.34367   37.050
 6194.00    0.27890   0.34524   35.855
 6195.00    0.27887   0.34645   35.859
 6196.00    0.26328   0.34732   37.982
 6197.00    0.23425   0.34755   -1.000
 6198.00    0.20025   0.34683   -1.000
 6199.00    0.16935   0.34565   -1.000
 6200.00    0.14703   0.34537   -1.000
 6201.00    0.13611   0.34654   -1.000
 6202.00    0.13670   0.34804   -1.000
 6203.00    0.14617   0.34876   -1.000
 6204.00    0.15962   0.34863   -1.000
 6205.00    0.17381   0.34845   -1.000
 6206.00    0.19012   0.34885   -1.000
 6207.00    0.21440   0.34944   -1.000
 6208.00    0.25165   0.34955   39.738
 6209.00    0.29983   0.34883   33.352
 6210.00    0.34927   0.34746   28.632
 6211.00    0.38671   0.34602   25.859
 6212.00    0.40268   0.34448   24.834
 6213.00    0.39285   0.34229   25.455
 6214.00    0.35805   0.33989   27.929
 6215.00    0.30442   0.33829   32.850
 6216.00    0.24332   0.33822   41.098
 6217.00    0.18974   0.33940   -1.000
 6218.00    0.15482   0.34043   -1.000
 6219.00    0.14233   0.34066   -1.000
 6220.00    0.14913   0.34051   -1.000
 6221.00    0.16918   0.33993   -1.000
 6222.00    0.19657   0.33857   -1.000
 6223.00    0.22572   0.33693   -1.000
 6224.00    0.25242   0.33606   39.617
 6225.00    0.27504   0.33631   36.358
 6226.00    0.29452   0.33701   33.953
 6227.00    0.31237   0.33739   32.013
 6228.00    0.32720   0.33698   30.562
 6229.00    0.33416   0.33555   29.926
 6230.00    0.32771   0.33373   30.515
 6231.00    0.30882   0.33301   32.381
 6232.00    0.28706   0.33381   34.836
 6233.00    0.27716   0.33545   36.080
 6234.00    0.28505   0.33730   35.081
 6235.00    0.30156   0.33868   33.160
 6236.00    0.30520   0.33907   32.766
 6237.00    0.28173   0.33827   35.495
 6238.00    0.23761   0.33645   -1.000
 6239.00    0.19894   0.33472   -1.000
 6240.00    0.19103   0.33445   -1.000
 6241.00    0.21705   0.33515   -1.000
 6242.00    0.25666   0.33506   38.962
 6243.00    0.28204   0.33457   35.456
 6244.00    0.28363   0.33527   35.257
 6245.00    0.27407   0.33670   36.487
 6246.00    0.27801   0.33802   35.970
 6247.00    0.30709   0.33931   32.564
 6248.00    0.35323   0.34021   28.311
 6249.00    0.39363   0.34046   25.405
 6250.00    0.41010   0.34017   24.384
 6251.00    0.39715   0.33931   25.179
 6252.00    0.36090   0.33842   27.709
 6253.00    0.31100   0.33843   32.154
 6254.00    0.25547   0.33900   39.143
 6255.00    0.20058   0.33882   -1.000
 6256.00    0.15258   0.33723   -1.000
 6257.00    0.11947   0.33482   -1.000
 6258.00    0.11084   0.33358   -1.000
 6259.00    0.13268   0.33485   -1.000
 6260.00    0.17952   0.33722   -1.000
 6261.00    0.23340   0.33910   -1.000
 6262.00    0.27110   0.34090   36.887
 6263.00    0.28092   0.34233   35.598
 6264.00    0.26679   0.34227   37.483
 6265.00    0.24489   0.34121   40.835
 6266.00    0.23133   0.34052   -1.000
 6267.00    0.23731   0.34008   -1.000
 6268.00    0.26866   0.33936   37.222
 6269.00    0.32365   0.33920   30.898
 6270.00    0.39167   0.34021   25.531
 6271.00    0.45416   0.34140   22.019
 6272.00    0.49424   0.34177   -1.000
 6273.00    0.50577   0.34119   -1.000
 6274.00    0.49364   0.34031   -1.000
 6275.00    0.46748   0.33984   -1.000
 6276.00    0.43249   0.34000   23.122
 6277.00    0.38836   0.34060   25.749
 6278.00    0.33597   0.34107   29.765
 6279.00    0.29189   0.34073   34.259
 6280.00    0.29164   0.33987    0.000
 6281.00    0.37681   0.33971    0.000
 6282.00    0.55129   0.34065    0.000
 6283.00    0.76503   0.34181    0.000
 6284.00    0.92674   0.34224   -2.000
 6285.00    0.97451   0.34223   -2.000
 6286.00    0.91616   0.34301   -2.000
 6287.00    0.82403   0.34455   -2.000
 6288.00    0.77337   0.34571   -2.000
 6289.00    0.78850   0.34600   -2.000
 6290.00    0.84073   0.34550   -2.000
 6291.00    0.88198   0.34445   -2.000
 6292.00    0.88955   0.34321   -2.000
 6293.00    0.87169   0.34240   -2.000
 6294.00    0.85363   0.34183   -2.000
 6295.00    0.84912   0.34056   -2.000
 6296.00    0.85427   0.33919    0.000
 6297.00    0.85304   0.33949    0.000
 6298.00    0.83461   0.34131    0.000
 6299.00    0.79939   0.34290    0.000
 6300.00    0.75714   0.34326    0.000
 6301.00    0.71659   0.34289    0.000
 6302.00    0.67997   0.34275    0.000
 6303.00    0.64347   0.34281    0.000
 6304.00    0.60330   0.34233    0.000
 6305.00    0.56065   0.34170    0.000
 6306.00    0.52167   0.34244    0.000
 6307.00    0.49188   0.34453    0.000
 6308.00    0.46918   0.34585    0.000
 6309.00    0.44317   0.34539    0.000
 6310.00    0.39986   0.34397    0.000
 6311.00    0.33080   0.34274    0.000
 6312.00    0.23489   0.34272    0.000
 6313.00    0.11835   0.34366    0.000
 6314.00   -0.00557   0.34447   -2.000
 6315.00   -0.11656   0.34500   -2.000
 6316.00   -0.19035   0.34548   -2.000
 6317.00   -0.21306   0.34533   -2.000
 6318.00   -0.18848   0.34492   -2.000
 6319.00   -0.13644   0.34547   -2.000
 6320.00   -0.07846   0.34622   -2.000
 6321.00   -0.02668   0.34613   -2.000
 6322.00    0.01653   0.34595   -1.000
 6323.00    0.05419   0.34636   -1.000
 6324.00    0.08947   0.34657   -1.000
 6325.00    0.12505   0.34645   -1.000
 6326.00    0.16246   0.34681   -1.000
 6327.00    0.20067   0.34756   -1.000
 6328.00    0.23598   0.34816   -1.000
 6329.00    0.26351   0.34812   37.949
 6330.00    0.28181   0.34794   35.485
 6331.00    0.29412   0.34882   34.000
 6332.00    0.30698   0.35013   32.576
 6333.00    0.32373   0.35014   30.890
 6334.00    0.34143   0.34811   29.288
 6335.00    0.35174   0.34545   28.430
 6336.00    0.34825   0.34476   28.715
 6337.00    0.33180   0.34642   30.139
 6338.00    0.31037   0.34844   32.220
 6339.00    0.29376   0.34968   34.042
 6340.00    0.28769   0.35041   34.759
 6341.00    0.29320   0.35039   34.106
 6342.00    0.30716   0.34902   32.557
 6343.00    0.32316   0.34645   30.944
 6344.00    0.33180   0.34347   30.139
 6345.00    0.32404   0.34107   30.861
 6346.00    0.30024   0.34061   33.307
 6347.00    0.27274   0.34238   36.665
 6348.00    0.26152   0.34531   38.237
 6349.00    0.27617   0.34801   36.210
 6350.00    0.30781   0.34886   32.488
 6351.00    0.33204   0.34810   30.116
 6352.00    0.33008   0.34679   30.296
 6353.00    0.30324   0.34531   32.977
 6354.00    0.27228   0.34384   36.727
 6355.00    0.26008   0.34300   38.449
 6356.00    0.27351   0.34259   36.561
 6357.00    0.30213   0.34132   33.098
 6358.00    0.32880   0.33934   30.414
 6359.00    0.34671   0.33821   28.843
 6360.00    0.36204   0.33825   27.621
 6361.00    0.38743   0.33852   25.811
 6362.00    0.42603   0.33862   23.472
 6363.00    0.46718   0.33907   -1.000
 6364.00    0.49090   0.34015   -1.000
 6365.00    0.48524   0.34165   -1.000
 6366.00    0.45360   0.34348   22.046
 6367.00    0.41265   0.34551   24.233
 6368.00    0.37852   0.34693   26.419
 6369.00    0.35772   0.34656   27.955
 6370.00    0.34738   0.34513   28.787
 6371.00    0.34178   0.34500   29.258
 6372.00    0.33883   0.34680   29.513
 6373.00    0.34046   0.34900   29.372
 6374.00    0.34862   0.34980   28.685
 6375.00    0.35926   0.34958   27.835
 6376.00    0.36156   0.34926   27.658
 6377.00    0.34335   0.34796   29.125
 6378.00    0.30362   0.34545   32.936
 6379.00    0.25565   0.34364   39.116
 6380.00    0.22203   0.34370   -1.000
 6381.00    0.21653   0.34468   -1.000
 6382.00    0.23693   0.34553   -1.000
 6383.00    0.26730   0.34545   37.411
 6384.00    0.29218   0.34456   34.226
 6385.00    0.30510   0.34411   32.777
 6386.00    0.30847   0.34445   32.418
 6387.00    0.30825   0.34467   32.441
 6388.00    0.30886   0.34465   32.377
 6389.00    0.31287   0.34497   31.962
 6390.00    0.32097   0.34542   31.156
 6391.00    0.33209   0.34496   30.112
 6392.00    0.34347   0.34315   29.115
 6393.00    0.35174   0.34161   28.430
 6394.00    0.35549   0.34245   28.130
 6395.00    0.35580   0.34512   28.106
 6396.00    0.35537   0.34753   28.140
 6397.00    0.35549   0.34845   28.130
 6398.00    0.35489   0.34726   28.178
 6399.00    0.35043   0.34431   28.536
 6400.00    0.34084   0.34223   29.340
 6401.00    0.32879   0.34340   30.414
 6402.00    0.32059   0.34631   31.193
 6403.00    0.32146   0.34816   31.108
 6404.00    0.33159   0.34830   30.158
 6405.00    0.34598   0.34730   28.904
 6406.00    0.35847   0.34615   27.896
 6407.00    0.36699   0.34568   27.249
 6408.00    0.37414   0.34647   26.728
 6409.00    0.38376   0.34798   26.058
 6410.00    0.39383   0.34813   25.391
 6411.00    0.39500   0.34638   25.316
 6412.00    0.37424   0.34453   26.721
 6413.00    0.32666   0.34415   30.613
 6414.00    0.25965   0.34526   38.514
 6415.00    0.19081   0.34679   -1.000
 6416.00    0.13753   0.34757   -1.000
 6417.00    0.11133   0.34703   -1.000
 6418.00    0.11750   0.34534   -1.000
 6419.00    0.15431   0.34307   -1.000
 6420.00    0.21222   0.34103   -1.000
 6421.00    0.27445   0.34083   36.436
 6422.00    0.32423   0.34307   30.843
 6423.00    0.35415   0.34555   28.237
 6424.00    0.36714   0.34637   27.238
 6425.00    0.37198   0.34649   26.883
 6426.00    0.37478   0.34708   26.682
 6427.00    0.37721   0.34752   26.511
 6428.00    0.37793   0.34670   26.460
 6429.00    0.37698   0.34424   26.527
 6430.00    0.37713   0.34147   26.516
 6431.00    0.38291   0.34091   26.116
 6432.00    0.39564   0.34298   25.275
 6433.00    0.41097   0.34525   24.333
 6434.00    0.41973   0.34620   23.825
 6435.00    0.41567   0.34669   24.058
 6436.00    0.40138   0.34721   24.914
 6437.00    0.38816   0.34649   25.763
 6438.00    0.38795   0.34454   25.777
 6439.00    0.40383   0.34408   24.763
 6440.00    0.42913   0.34639   23.303
 6441.00    0.45172   0.34934   22.138
 6442.00    0.46184   0.35109   21.653
 6443.00    0.45365   0.35172   22.044
 6444.00    0.42601   0.35163   23.473
 6445.00    0.38493   0.35114   25.979
 6446.00    0.34419   0.35004   29.053
 6447.00    0.32222   0.34742   31.035
 6448.00    0.32772   0.34295   30.514
 6449.00    0.35285   0.33843   28.341
 6450.00    0.37559   0.33692   26.625
 6451.00    0.37865   0.33916   26.410
 6452.00    0.36330   0.34287   27.525
 6453.00    0.34888   0.34570   28.663
 6454.00    0.35615   0.34640   28.078
 6455.00    0.38881   0.34575   25.719
 6456.00    0.43202   0.34603   23.147
 6457.00    0.46389   0.34801   21.557
 6458.00    0.47515   0.35055   21.046
 6459.00    0.47250   0.35187   21.164
 6460.00    0.47199   0.35049   21.187
 6461.00    0.48165   0.34637   -1.000
 6462.00    0.49649   0.34212   -1.000
 6463.00    0.50205   0.34160   -1.000
 6464.00    0.48931   0.34448   -1.000
 6465.00    0.46139   0.34714   21.674
 6466.00    0.43187   0.34847   23.155
 6467.00    0.41205   0.34934   24.269
 6468.00    0.40224   0.34990   24.861
 6469.00    0.39209   0.34967   25.504
 6470.00    0.37082   0.34880   26.967
 6471.00    0.33781   0.34791   29.603
 6472.00    0.30334   0.34678   32.966
 6473.00    0.28184   0.34449   35.481
 6474.00    0.28088   0.34174   35.602
 6475.00    0.29950   0.34112   33.389
 6476.00    0.33011   0.34304   30.293
 6477.00    0.36348   0.34488   27.512
 6478.00    0.39002   0.34489   25.640
 6479.00    0.40101   0.34337   24.937
 6480.00    0.39330   0.34065   25.426
 6481.00    0.37128   0.33721   26.934
 6482.00    0.34575   0.33472   28.922
 6483.00    0.32631   0.33447   30.646
 6484.00    0.31638   0.33582   31.607
 6485.00    0.31341   0.33748   31.907
 6486.00    0.31291   0.33897   31.958
 6487.00    0.31259   0.33991   31.990
 6488.00    0.31259   0.33987   31.991
 6489.00    0.31413   0.33889   31.834
 6490.00    0.31744   0.33782   31.502
 6491.00    0.32147   0.33733   31.107
 6492.00    0.32442   0.33619   30.824
 6493.00    0.32507   0.33287   30.763
 6494.00    0.32312   0.32844   30.948
 6495.00    0.31910   0.32546   31.339
 6496.00    0.31412   0.32488   31.835
 6497.00    0.30981   0.32603   32.278
 6498.00    0.30807   0.32790   32.460
 6499.00    0.31011   0.32993   32.247
 6500.00    0.31581   0.33228   31.665
 6501.00    0.32382   0.33468   30.881
 6502.00    0.33294   0.33644   30.036
 6503.00    0.34333   0.33725   29.126
 6504.00    0.35658   0.33755   28.044
 6505.00    0.37369   0.33787   26.760
 6506.00    0.39235   0.33764   25.487
 6507.00    0.40660   0.33629   24.594
 6508.00    0.40991   0.33498   24.396
 6509.00    0.40196   0.33548   24.878
 6510.00    0.39017   0.33738   25.630
 6511.00    0.38640   0.33870   25.880
 6512.00    0.39560   0.33871   25.278
 6513.00    0.41157   0.33812   24.297
 6514.00    0.41937   0.33727   23.845
 6515.00    0.40888   0.33623   24.457
 6516.00    0.38261   0.33541   26.136
 6517.00    0.35465   0.33492   28.197
 6518.00    0.33848   0.33490   29.544
 6519.00    0.33621   0.33579   29.744
 6520.00    0.33831   0.33716   29.558
 6521.00    0.33228   0.33808   30.095
 6522.00    0.31415   0.33809   31.832
 6523.00    0.28996   0.33748   34.487
 6524.00    0.27085   0.33670   36.921
 6525.00    0.26305   0.33569   38.016
 6526.00    0.26573   0.33472   37.632
 6527.00    0.27309   0.33476   36.618
 6528.00    0.28104   0.33629    0.000
 6529.00    0.28953   0.33813    0.000
 6530.00    0.30171   0.33873    0.000
 6531.00    0.31922   0.33806    0.000
 6532.00    0.33968   0.33754    0.000
 6533.00    0.35717   0.33838    0.000
 6534.00    0.36704   0.34021    0.000
 6535.00    0.36991   0.34163    0.000
 6536.00    0.37164   0.34162    0.000
 6537.00    0.37932   0.34077    0.000
 6538.00    0.39614   0.34076    0.000
 6539.00    0.42082   0.34192    0.000
 6540.00    0.44999   0.34257    0.000
 6541.00    0.48275   0.34134    0.000
 6542.00    0.52156   0.33842    0.000
 6543.00    0.57045   0.33505    0.000
 6544.00    0.62949   0.33232    0.000
 6545.00    0.69293   0.33036    0.000
 6546.00    0.75065   0.32938    0.000
 6547.00    0.79476   0.32977    0.000
 6548.00    0.82311   0.33019    0.000
 6549.00    0.83958   0.32889    0.000
 6550.00    0.85655   0.32640    0.000
 6551.00    0.89666   0.32423    0.000
 6552.00    0.99256   0.32274    0.000
 6553.00    1.18085   0.32070    0.000
 6554.00    1.49495   0.31718    0.000
 6555.00    1.96380   0.31285    0.000
 6556.00    2.60101   0.30813    0.000
 6557.00    3.38498   0.30199    0.000
 6558.00    4.25552   0.29350    0.000
 6559.00    5.12248   0.28228    0.000
 6560.00    5.89095   0.26660    0.000
 6561.00    6.46854   0.24646    0.000
 6562.00    6.77161   0.23005    0.000
 6563.00    6.75056   0.23061    0.000
 6564.00    6.40204   0.24988    0.000
 6565.00    5.76767   0.27435    0.000
 6566.00    4.92169   0.29298    0.000
 6567.00    3.96149   0.30457    0.000
 6568.00    3.00467   0.31123    0.000
 6569.00    2.15947   0.31523    0.000
 6570.00    1.49136   0.31819    0.000
 6571.00    1.01994   0.31971    0.000
 6572.00    0.73034   0.31945    0.000
 6573.00    0.59274   0.31916    0.000
 6574.00    0.56596   0.32032    0.000
 6575.00    0.60499   0.32210    0.000
 6576.00    0.68082   0.32297    0.000
 6577.00    0.78605   0.32296    0.000
 6578.00    0.92910   0.32298    0.000
 6579.00    1.10953   0.32359    0.000
 6580.00    1.30701   0.32414    0.000
 6581.00    1.48403   0.32401    0.000
 6582.00    1.60647   0.32486    0.000
 6583.00    1.65785   0.32708    0.000
 6584.00    1.63939   0.32946    0.000
 6585.00    1.56226   0.33120    0.000
 6586.00    1.43946   0.33227    0.000
 6587.00    1.28509   0.33368    0.000
 6588.00    1.11445   0.33493    0.000
 6589.00    0.94444   0.33508    0.000
 6590.00    0.79338   0.33382    0.000
 6591.00    0.67750   0.33094    0.000
 6592.00    0.60172   0.32723    0.000
 6593.00    0.55731   0.32499    0.000
 6594.00    0.52584   0.32578    0.000
 6595.00    0.49493   0.32840    0.000
 6596.00    0.46492   0.33010    0.000
 6597.00    0.44690   0.32969    0.000
 6598.00    0.44893   0.32841    0.000
 6599.00    0.46720   0.32844    0.000
 6600.00    0.48673   0.33031    0.000
 6601.00    0.49351   0.33231    0.000
 6602.00    0.48660   0.33300    0.000
 6603.00    0.47870   0.33240    0.000
 6604.00    0.48523   0.33092    0.000
 6605.00    0.50786   0.32923    0.000
 6606.00    0.53217   0.32801    0.000
 6607.00    0.53652   0.32705    0.000
 6608.00    0.51287   0.32580    0.000
 6609.00    0.47198   0.32529   -1.000
 6610.00    0.43751   0.32692   22.856
 6611.00    0.42448   0.32939   23.558
 6612.00    0.43068   0.33033   23.219
 6613.00    0.43932   0.32980   22.762
 6614.00    0.43593   0.32967   22.940
 6615.00    0.41856   0.33053   23.891
 6616.00    0.39724   0.33106   25.174
 6617.00    0.38338   0.33057   26.084
 6618.00    0.37992   0.32973   26.322
 6619.00    0.38076   0.32944   26.263
 6620.00    0.37638   0.32963   26.569
 6621.00    0.36168   0.32934   27.648
 6622.00    0.33715   0.32796   29.661
 6623.00    0.30762   0.32573   32.508
 6624.00    0.27975   0.32346   35.747
 6625.00    0.26136   0.32242   38.261
 6626.00    0.25975   0.32309   38.499
 6627.00    0.27573   0.32427   36.267
 6628.00    0.30149   0.32483   33.169
 6629.00    0.32269   0.32487   30.990
 6630.00    0.33069   0.32501   30.240
 6631.00    0.32949   0.32535   30.350
 6632.00    0.33455   0.32526   29.891
 6633.00    0.35867   0.32455   27.881
 6634.00    0.39971   0.32385   25.018
 6635.00    0.44035   0.32368   22.709
 6636.00    0.45981   0.32401   -1.000
 6637.00    0.44970   0.32446   -1.000
 6638.00    0.41595   0.32462   24.041
 6639.00    0.37355   0.32450   26.770
 6640.00    0.33561   0.32465   29.797
 6641.00    0.31095   0.32501   32.160
 6642.00    0.30380   0.32459   32.916
 6643.00    0.31283   0.32350   31.966
 6644.00    0.33077   0.32330   30.233
 6645.00    0.34577   0.32425   28.921
 6646.00    0.34826   0.32486   28.714
 6647.00    0.33464   0.32445   29.883
 6648.00    0.30724   0.32353   32.547
 6649.00    0.27279   0.32197   36.659
 6650.00    0.24107   0.31918   41.481
 6651.00    0.22456   0.31614   -1.000
 6652.00    0.23287   0.31478   42.943
 6653.00    0.26580   0.31534   37.622
 6654.00    0.31270   0.31636   31.980
 6655.00    0.35746   0.31676   27.975
 6656.00    0.38838   0.31666   25.748
 6657.00    0.40005   0.31658   24.997
 6658.00    0.39245   0.31670   25.481
 6659.00    0.36768   0.31687   27.197
 6660.00    0.32903   0.31688   30.393
 6661.00    0.28108   0.31653   35.577
 6662.00    0.23090   0.31575   43.310
 6663.00    0.18843   0.31528   -1.000
 6664.00    0.16580   0.31579   -1.000
 6665.00    0.17047   0.31639   -1.000
 6666.00    0.20005   0.31626   -1.000
 6667.00    0.24243   0.31635   41.250
 6668.00    0.28276   0.31749   35.365
 6669.00    0.31191   0.31916   32.060
 6670.00    0.32730   0.32040   30.553
 6671.00    0.33160   0.32089   30.157
 6672.00    0.33035   0.32074   30.271
 6673.00    0.33144   0.32010   30.172
 6674.00    0.34282   0.31919   29.170
 6675.00    0.36621   0.31702   27.307
 6676.00    0.39510   0.31190   25.310
 6677.00    0.41673   0.30555   -1.000
 6678.00    0.42095   0.30227   -1.000
 6679.00    0.40445   0.30308   24.725
 6680.00    0.37061   0.30442   26.982
 6681.00    0.32766   0.30368   30.519
 6682.00    0.28721   0.30297   34.818
 6683.00    0.26363   0.30418   37.932
 6684.00    0.26690   0.30625   37.467
 6685.00    0.29452   0.30788   33.953
 6686.00    0.33106   0.30875   30.206
 6687.00    0.35764   0.30923   27.961
 6688.00    0.36832   0.30984   27.150
 6689.00    0.37285   0.31067   26.820
 6690.00    0.38963   0.31131   25.665
 6691.00    0.42688   0.31152   -1.000
 6692.00    0.47725   0.31143   -1.000
 6693.00    0.52153   0.31129   -1.000
 6694.00    0.54434   0.31105   -1.000
 6695.00    0.54126   0.31058   -1.000
 6696.00    0.51802   0.31032    0.000
 6697.00    0.48401   0.31073    0.000
 6698.00    0.44773   0.31163    0.000
 6699.00    0.41650   0.31265    0.000
 6700.00    0.39525   0.31356    0.000
 6701.00    0.38529   0.31408    0.000
 6702.00    0.38429   0.31404    0.000
 6703.00    0.38870   0.31354    0.000
 6704.00    0.39779   0.31306    0.000
 6705.00    0.41420   0.31297    0.000
 6706.00    0.44289   0.31312    0.000
 6707.00    0.48830   0.31329    0.000
 6708.00    0.55361   0.31343    0.000
 6709.00    0.64043   0.31328    0.000
 6710.00    0.74781   0.31287    0.000
 6711.00    0.87171   0.31253    0.000
 6712.00    1.00500   0.31182    0.000
 6713.00    1.13715   0.30980    0.000
 6714.00    1.25408   0.30667    0.000
 6715.00    1.33866   0.30374    0.000
 6716.00    1.37645   0.30170    0.000
 6717.00    1.36144   0.30053    0.000
 6718.00    1.29652   0.30052    0.000
 6719.00    1.19222   0.30136    0.000
 6720.00    1.06486   0.30209    0.000
 6721.00    0.93622   0.30231    0.000
 6722.00    0.82967   0.30254    0.000
 6723.00    0.76120   0.30315    0.000
 6724.00    0.73714   0.30359    0.000
 6725.00    0.75541   0.30351    0.000
 6726.00    0.80983   0.30345    0.000
 6727.00    0.89191   0.30381    0.000
 6728.00    0.99059   0.30418    0.000
 6729.00    1.09087   0.30412    0.000
 6730.00    1.17281   0.30403    0.000
 6731.00    1.21268   0.30432    0.000
 6732.00    1.19367   0.30501    0.000
 6733.00    1.11610   0.30570    0.000
 6734.00    0.99771   0.30605    0.000
 6735.00    0.86355   0.30624    0.000
 6736.00    0.73150   0.30645    0.000
 6737.00    0.61027   0.30634    0.000
 6738.00    0.50219   0.30575    0.000
 6739.00    0.40942   0.30524    0.000
 6740.00    0.33539   0.30531    0.000
 6741.00    0.28430   0.30516    0.000
 6742.00    0.25924   0.30370    0.000
 6743.00    0.26153   0.30233    0.000
 6744.00    0.29008   0.30264    0.000
 6745.00    0.33794   0.30356    0.000
 6746.00    0.39033   0.30363    0.000
 6747.00    0.42594   0.30250    0.000
 6748.00    0.42982   0.30128    0.000
 6749.00    0.40468   0.30120    0.000
 6750.00    0.37097   0.30179    0.000
 6751.00    0.35258   0.30175    0.000
 6752.00    0.35751   0.30082    0.000
 6753.00    0.37558   0.30050   26.626
 6754.00    0.38709   0.30168   25.834
 6755.00    0.38078   0.30342   26.262
 6756.00    0.35776   0.30486   27.952
 6757.00    0.32805   0.30587   30.483
 6758.00    0.29949   0.30636   33.390
 6759.00    0.27379   0.30643   36.525
 6760.00    0.24792   0.30627   40.335
 6761.00    0.22143   0.30593   -1.000
 6762.00    0.20038   0.30583   -1.000
 6763.00    0.19637   0.30630   -1.000
 6764.00    0.21687   0.30683   -1.000
 6765.00    0.25715   0.30656   38.888
 6766.00    0.30043   0.30581   33.286
 6767.00    0.32861   0.30580   30.431
 6768.00    0.33597   0.30661   29.765
 6769.00    0.33059   0.30713   30.249
 6770.00    0.32730   0.30708   30.553
 6771.00    0.33380   0.30730   29.958
 6772.00    0.34789   0.30821   28.745
 6773.00    0.36054   0.30922   27.736
 6774.00    0.36531   0.30995   27.374
 6775.00    0.36144   0.31058   27.667
 6776.00    0.35304   0.31099   28.326
 6777.00    0.34514   0.31085   28.973
 6778.00    0.34170   0.31015   29.265
 6779.00    0.34527   0.30910   28.963
 6780.00    0.35531   0.30733   28.145
 6781.00    0.36681   0.30431   27.262
 6782.00    0.37064   0.30070   26.981
 6783.00    0.35894   0.29794   27.860
 6784.00    0.33171   0.29674   30.146
 6785.00    0.29736   0.29709   33.629
 6786.00    0.26786   0.29855   37.333
 6787.00    0.24991   0.30017   40.014
 6788.00    0.24325   0.30107   41.110
 6789.00    0.24277   0.30101   41.191
 6790.00    0.24458   0.30066   40.887
 6791.00    0.24781   0.30080   40.353
 6792.00    0.25407   0.30112   39.360
 6793.00    0.26460   0.30121   37.793
 6794.00    0.27901   0.30152   35.842
 6795.00    0.29533   0.30236   33.860
 6796.00    0.31127   0.30331   32.126
 6797.00    0.32502   0.30387   30.767
 6798.00    0.33535   0.30402   29.819
 6799.00    0.34139   0.30429   29.292
 6800.00    0.34237   0.30499   29.208
 6801.00    0.33774   0.30569   29.609
 6802.00    0.32853   0.30612   30.439
 6803.00    0.31989   0.30611   31.261
 6804.00    0.32143   0.30578   31.111
 6805.00    0.34326   0.30554   29.133
 6806.00    0.38530   0.30542   25.954
 6807.00    0.43430   0.30555   -1.000
 6808.00    0.46883   0.30602   -1.000
 6809.00    0.48071   0.30637   -1.000
 6810.00    0.48460   0.30647   -1.000
 6811.00    0.51372   0.30651   -1.000
 6812.00    0.58846   0.30635   -1.000
 6813.00    0.69456   0.30563   -1.000
 6814.00    0.78499   0.30414   -1.000
 6815.00    0.81579   0.30282   -1.000
 6816.00    0.78410   0.30307   -1.000
 6817.00    0.73056   0.30444   -1.000
 6818.00    0.70888   0.30525   -1.000
 6819.00    0.73627   0.30511   -1.000
 6820.00    0.78567   0.30487   -1.000
 6821.00    0.80487   0.30527   -1.000
 6822.00    0.76439   0.30600   -1.000
 6823.00    0.67037   0.30647   -1.000
 6824.00    0.55680   0.30674   -1.000
 6825.00    0.45465   0.30710   -1.000
 6826.00    0.37887   0.30704   26.394
 6827.00    0.32949   0.30614   30.350
 6828.00    0.30113   0.30522   33.208
 6829.00    0.28917   0.30516   34.582
 6830.00    0.28997   0.30567   34.486
 6831.00    0.29963   0.30582   33.374
 6832.00    0.31273   0.30547   31.976
 6833.00    0.32233   0.30590   31.024
 6834.00    0.32252   0.30751   31.006
 6835.00    0.31222   0.30895   32.029
 6836.00    0.29575   0.30941   33.812
 6837.00    0.28021   0.30917   35.687
 6838.00    0.26932   0.30848   37.131
 6839.00    0.26187   0.30741   38.187
 6840.00    0.25385   0.30618   39.394
 6841.00    0.24618   0.30544   40.621
 6842.00    0.24779   0.30598   40.357
 6843.00    0.27347   0.30766   36.568
 6844.00    0.33062   0.30913   30.246
 6845.00    0.41115   0.30934   24.322
 6846.00    0.49242   0.30870   -1.000
 6847.00    0.55093   0.30820   -1.000
 6848.00    0.57508   0.30759   -1.000
 6849.00    0.56608   0.30614   -1.000
 6850.00    0.53387   0.30453   -1.000
 6851.00    0.49113   0.30374   -1.000
 6852.00    0.45234   0.30356   -1.000
 6853.00    0.42984   0.30342   -1.000
 6854.00    0.42513   0.30303   -1.000
 6855.00    0.42687   0.30270   -1.000
 6856.00    0.41648   0.30295   -1.000
 6857.00    0.38745   0.30360   25.810
 6858.00    0.35265   0.30400   28.357
 6859.00    0.33999   0.30368   29.412
 6860.00    0.36824   0.30262   27.156
 6861.00    0.43291   0.30180   -1.000
 6862.00    0.50775   0.30274   -1.000
 6863.00    0.56352   0.30521   -1.000
 6864.00    0.58455   0.30702   -1.000
 6865.00    0.56980   0.30704   -1.000
 6866.00    0.52774   0.30588   -1.000
 6867.00    0.46945   0.30424   -1.000
 6868.00    0.40768   0.30313   24.529
 6869.00    0.35492   0.30333   28.175
 6870.00    0.31945   0.30393   31.304
 6871.00    0.30445   0.30390   32.847
 6872.00    0.30889   0.30396   32.374
 6873.00    0.33028   0.30471   30.278
 6874.00    0.36556   0.30566   27.355
 6875.00    0.41098   0.30657   24.332
 6876.00    0.46101   0.30755   -1.000
 6877.00    0.50778   0.30854   -1.000
 6878.00    0.54147   0.30928   -1.000
 6879.00    0.55388   0.30938   -1.000
 6880.00    0.54137   0.30863   -1.000
 6881.00    0.50512   0.30717   -1.000
 6882.00    0.45146   0.30538   -1.000
 6883.00    0.39224   0.30406   25.495
 6884.00    0.34471   0.30410   29.010
 6885.00    0.32593   0.30493   30.681
 6886.00    0.34191   0.30542   29.247
 6887.00    0.38538   0.30528   25.948
 6888.00    0.43954   0.30449   -1.000
 6889.00    0.48932   0.30362   -1.000
 6890.00    0.52504   0.30337   -1.000
 6891.00    0.54242   0.30382   -1.000
 6892.00    0.54199   0.30497   -1.000
 6893.00    0.52886   0.30666   -1.000
 6894.00    0.51202   0.30820   -1.000
 6895.00    0.49953   0.30902   -1.000
 6896.00    0.49455   0.30936   -1.000
 6897.00    0.49545   0.30994   -1.000
 6898.00    0.49902   0.31037   -1.000
 6899.00    0.50461   0.30967   -1.000
 6900.00    0.51435   0.30863   -1.000
 6901.00    0.52861   0.30913   -1.000
 6902.00    0.53771   0.31078   -1.000
 6903.00    0.52048   0.31148   -1.000
 6904.00    0.45516   0.31113   -1.000
 6905.00    0.35034   0.31144   28.544
 6906.00    0.25451   0.31271   39.292
 6907.00    0.24132   0.31369   41.439
 6908.00    0.34276   0.31401   29.175
 6909.00    0.51691   0.31406   -1.000
 6910.00    0.65822   0.31374   -1.000
 6911.00    0.68173   0.31294   -1.000
 6912.00    0.58531   0.31212   -1.000
 6913.00    0.44807   0.31170   -1.000
 6914.00    0.36261   0.31199   27.577
 6915.00    0.35841   0.31279   27.901
 6916.00    0.39534   0.31328   25.295
 6917.00    0.40461   0.31289   24.715
 6918.00    0.35951   0.31162   27.816
 6919.00    0.28769   0.31038   34.760
 6920.00    0.24803   0.31029   40.317
 6921.00    0.26904   0.31098   37.169
 6922.00    0.33101   0.31111   30.211
 6923.00    0.37854   0.31005   26.417
 6924.00    0.37426   0.30855   26.719
 6925.00    0.32314   0.30792   30.946
 6926.00    0.26744   0.30880   37.392
 6927.00    0.24781   0.31057   40.353
 6928.00    0.27626   0.31198   36.197
 6929.00    0.33620   0.31246   29.744
 6930.00    0.40119   0.31228   24.926
 6931.00    0.45496   0.31179   -1.000
 6932.00    0.49307   0.31095   -1.000
 6933.00    0.51766   0.31048   -1.000
 6934.00    0.52874   0.31115   -1.000
 6935.00    0.52280   0.31218   -1.000
 6936.00    0.49600   0.31258   -1.000
 6937.00    0.45207   0.31249   -1.000
 6938.00    0.40444   0.31261   24.726
 6939.00    0.37261   0.31345   26.838
 6940.00    0.36774   0.31465   27.193
 6941.00    0.38650   0.31516   25.873
 6942.00    0.41301   0.31469   24.213
 6943.00    0.43218   0.31376   23.139
 6944.00    0.43845   0.31272   -1.000
 6945.00    0.43567   0.31254   -1.000
 6946.00    0.43062   0.31406   23.222
 6947.00    0.42668   0.31618   23.437
 6948.00    0.42323   0.31735   23.628
 6949.00    0.41751   0.31741   23.952
 6950.00    0.40722   0.31655   24.557
 6951.00    0.39104   0.31490   25.573
 6952.00    0.36891   0.31307   27.107
 6953.00    0.34290   0.31183   29.163
 6954.00    0.31737   0.31203   31.509
 6955.00    0.29795   0.31361   33.563
 6956.00    0.28757   0.31515   34.774
 6957.00    0.28494   0.31584   35.095
 6958.00    0.28534   0.31609   35.046
 6959.00    0.28577   0.31658   34.993
 6960.00    0.28813   0.31742   34.707
 6961.00    0.29863   0.31810   33.486
 6962.00    0.32070   0.31856   31.182
 6963.00    0.34816   0.31902   28.723
 6964.00    0.36523   0.31911   27.380
 6965.00    0.35639   0.31880   28.059
 6966.00    0.32060   0.31885   31.191
 6967.00    0.27311   0.31977   36.615
 6968.00    0.23694   0.32065   -1.000
 6969.00    0.22412   0.32035   -1.000
 6970.00    0.23123   0.31938   -1.000
 6971.00    0.24359   0.31879   41.053
 6972.00    0.24954   0.31897   40.073
 6973.00    0.24594   0.31947   40.660
 6974.00    0.23714   0.31942   -1.000
 6975.00    0.22910   0.31863   -1.000
 6976.00    0.22597   0.31708   -1.000
 6977.00    0.22992   0.31440   -1.000
 6978.00    0.24094   0.31171   41.504
 6979.00    0.25667   0.31172   38.960
 6980.00    0.27254   0.31456   36.691
 6981.00    0.28478   0.31782   35.115
 6982.00    0.29442   0.32004   33.965
 6983.00    0.30775   0.32113   32.494
 6984.00    0.33185   0.32184   30.134
 6985.00    0.36538   0.32255   27.369
 6986.00    0.39664   0.32246   25.212
 6987.00    0.40830   0.32081   24.492
 6988.00    0.39303   0.31796   25.443
 6989.00    0.35891   0.31533   27.862
 6990.00    0.32638   0.31447   30.639
 6991.00    0.31163   0.31566   32.090
 6992.00    0.31757   0.31747   31.489
 6993.00    0.33473   0.31821   29.875
 6994.00    0.35199   0.31781   28.410
 6995.00    0.36565   0.31738   27.349
 6996.00    0.37963   0.31752   26.341
 6997.00    0.39986   0.31791   25.009
 6998.00    0.42696   0.31762   23.421
 6999.00    0.45546   0.31665   -1.000
 7000.00    0.47681   0.31648   -1.000
 7001.00    0.48537   0.31772   -2.000
 7002.00    0.47958   0.31906   -2.000
 7003.00    0.46129   0.31894   -2.000
 7004.00    0.43368   0.31764   -2.000
 7005.00    0.40052   0.31693   -2.000
 7006.00    0.36554   0.31740   -2.000
 7007.00    0.32907   0.31818   -2.000
 7008.00    0.28642   0.31893   -2.000
 7009.00    0.22905   0.31956   -2.000
 7010.00    0.15487   0.31951   -2.000
 7011.00    0.07636   0.31952   -2.000
 7012.00    0.01995   0.32051   -2.000
 7013.00    0.00000   0.32092   -2.000
 7014.00    0.00000   0.31893   -2.000
 7015.00    0.00000   0.31558   -2.000
 7016.00    0.00000   0.31422   -2.000
 7017.00    0.00000   0.31652   -2.000
 7018.00    0.00000   0.32037   -2.000
 7019.00    0.00000   0.32290   -2.000
 7020.00    0.00000   0.32365   -2.000
 7021.00    0.00000   0.32316   -2.000
 7022.00    0.00000   0.32139   -2.000
 7023.00    0.00000   0.31916   -2.000
 7024.00    0.00000   0.31814   -2.000
 7025.00    0.00000   0.31858   -2.000
 7026.00    0.00000   0.31895   -2.000
 7027.00    0.00000   0.31862   -2.000
 7028.00    0.00000   0.31895   -2.000
 7029.00    0.00000   0.32048   -2.000
 7030.00    0.00000   0.32205   -2.000
 7031.00    0.00000   0.32261   -2.000
 7032.00    0.00000   0.32219   -2.000
 7033.00    0.00000   0.32173   -2.000
 7034.00    0.00000   0.32205   -2.000
 7035.00    0.00000   0.32266   -2.000
 7036.00    0.00000   0.32207   -2.000
 7037.00    0.00000   0.31949   -2.000
 7038.00    0.00000   0.31723   -2.000
 7039.00    0.00000   0.31859   -2.000
 7040.00    0.00000   0.32280   -2.000
 7041.00    0.00000   0.32652   -2.000
 7042.00    0.00000   0.32836   -2.000
 7043.00    0.00000   0.32853   -2.000
 7044.00    0.00000   0.32751   -2.000
 7045.00    0.00000   0.32672   -2.000
 7046.00    0.00000   0.32733   -2.000
 7047.00    0.00000   0.32887   -2.000
 7048.00    0.00000   0.33003   -2.000
 7049.00    0.00000   0.32964   -2.000
 7050.00    0.00000   0.32751   -2.000
 7051.00    0.00000   0.32376   -2.000
 7052.00    0.00000   0.31738   -2.000
 7053.00    0.00000   0.30761   -2.000
 7054.00    0.00000   0.29704   -2.000
 7055.00    0.00000   0.29112   -2.000
 7056.00    0.00000   0.29180   -2.000
 7057.00    0.00000   0.29488   -2.000
 7058.00    0.00000   0.29572   -2.000
 7059.00    0.00000   0.29376   -2.000
 7060.00    0.00000   0.29129   -2.000
 7061.00    0.00000   0.29018   -2.000
 7062.00    0.00000   0.29044   -2.000
 7063.00    0.00000   0.29117   -2.000
 7064.00    0.00000   0.29152   -2.000
 7065.00    0.00000   0.29113   -2.000
 7066.00    0.00000   0.29061   -2.000
 7067.00    0.00000   0.29058   -2.000
 7068.00    0.00000   0.29114   -2.000
 7069.00    0.00000   0.29266   -2.000
 7070.00    0.00000   0.29521   -2.000
 7071.00    0.00000   0.29779   -2.000
 7072.00    0.00000   0.29932   -2.000
 7073.00    0.00000   0.29979   -2.000
 7074.00    0.00000   0.29972   -2.000
 7075.00    0.00000   0.29960   -2.000
 7076.00    0.00000   0.29974   -2.000
 7077.00    0.00000   0.30019   -2.000
 7078.00    0.00000   0.30085   -2.000
 7079.00    0.00000   0.30184   -2.000
 7080.00    0.00000   0.30290   -2.000
 7081.00    0.00000   0.30313   -2.000
 7082.00    0.00000   0.30168   -2.000
 7083.00    0.00000   0.29885   -2.000
 7084.00    0.00000   0.29605   -2.000
 7085.00    0.00000   0.29401   -2.000
 7086.00    0.00000   0.29070   -2.000
 7087.00    0.00000   0.28443   -2.000
 7088.00    0.00000   0.27836   -2.000
 7089.00    0.00000   0.27646   -2.000
 7090.00    0.00000   0.27817   -2.000
 7091.00    0.00000   0.28060   -2.000
 7092.00    0.00000   0.28162   -2.000
 7093.00    0.00000   0.28095   -2.000
 7094.00    0.00000   0.27978   -2.000
 7095.00    0.00000   0.27915   -2.000
 7096.00    0.00000   0.27934   -2.000
 7097.00    0.00000   0.28019   -2.000
 7098.00    0.00000   0.28131   -2.000
 7099.00    0.00000   0.28223   -2.000
 7100.00    0.00000   0.28238   -2.000
 7101.00    0.00000   0.28169   -2.000
 7102.00    0.00000   0.28081   -2.000
 7103.00    0.00000   0.28079   -2.000
 7104.00    0.00000   0.28221   -2.000
 7105.00    0.00000   0.28431   -2.000
 7106.00    0.00000   0.28598   -2.000
 7107.00    0.00000   0.28709   -2.000
 7108.00    0.00000   0.28768   -2.000
 7109.00    0.00000   0.28723   -2.000
 7110.00    0.00000   0.28575   -2.000
 7111.00    0.00000   0.28464   -2.000
 7112.00    0.00000   0.28513   -2.000
 7113.00    0.00000   0.28649   -2.000
 7114.00    0.00000   0.28745   -2.000
 7115.00    0.00000   0.28819   -2.000
 7116.00    0.00000   0.28941   -2.000
 7117.00    0.00000   0.29057   -2.000
 7118.00    0.00000   0.29111   -2.000
 7119.00    0.00000   0.29148   -2.000
 7120.00    0.00000   0.29195   -2.000
 7121.00    0.00000   0.29215   -2.000
 7122.00    0.00000   0.29173   -2.000
 7123.00    0.00000   0.28986   -2.000
 7124.00    0.00000   0.28471   -2.000
 7125.00    0.00000   0.27671   -2.000
 7126.00    0.00000   0.27034   -2.000
 7127.00    0.00000   0.26881   -2.000
 7128.00    0.00000   0.27010   -2.000
 7129.00    0.00000   0.27090   -2.000
 7130.00    0.00000   0.27035   -2.000
 7131.00    0.00000   0.26951   -2.000
 7132.00    0.00000   0.26944   -2.000
 7133.00    0.00000   0.27025   -2.000
 7134.00    0.00000   0.27129   -2.000
 7135.00    0.00000   0.27202   -2.000
 7136.00    0.00000   0.27236   -2.000
 7137.00    0.00000   0.27234   -2.000
 7138.00    0.00000   0.27211   -2.000
 7139.00    0.00000   0.27241   -2.000
 7140.00    0.00000   0.27353   -2.000
 7141.00    0.00000   0.27484   -2.000
 7142.00    0.00000   0.27585   -2.000
 7143.00    0.00000   0.27651   -2.000
 7144.00    0.00000   0.27693   -2.000
 7145.00    0.00000   0.27718   -2.000
 7146.00    0.00000   0.27723   -2.000
 7147.00    0.00000   0.27690   -2.000
 7148.00    0.00000   0.27645   -2.000
 7149.00    0.00000   0.27644   -2.000
 7150.00    0.00000   0.27702   -2.000
 7151.00    0.00000   0.27813   -2.000
 7152.00    0.00000   0.27978   -2.000
 7153.00    0.00000   0.28148   -2.000
 7154.00    0.00000   0.28256   -2.000
 7155.00    0.00000   0.28325   -2.000
 7156.00    0.00000   0.28389   -2.000
 7157.00    0.00000   0.28349   -2.000
 7158.00    0.00000   0.28119   -2.000
 7159.00    0.00000   0.27853   -2.000
 7160.00    0.00000   0.27780   -2.000
 7161.00    0.00000   0.27906   -2.000
 7162.00    0.00000   0.28046   -2.000
 7163.00    0.00000   0.28052   -2.000
 7164.00    0.00000   0.27965   -2.000
 7165.00    0.00000   0.27937   -2.000
 7166.00    0.00000   0.28030   -2.000
 7167.00    0.00000   0.28135   -2.000
 7168.00    0.00000   0.28140   -2.000
 7169.00    0.00000   0.28118   -2.000
 7170.00    0.00000   0.28193   -2.000
 7171.00    0.00000   0.28318   -2.000
 7172.00    0.00000   0.28386   -2.000
 7173.00    0.00000   0.28381   -2.000
 7174.00    0.00000   0.28358   -2.000
 7175.00    0.00000   0.28363   -2.000
 7176.00    0.00000   0.28396   -2.000
 7177.00    0.00000   0.28437   -2.000
 7178.00    0.00000   0.28458   -2.000
 7179.00    0.00000   0.28433   -2.000
 7180.00    0.00000   0.28392   -2.000
 7181.00    0.00000   0.28415   -2.000
 7182.00    0.00000   0.28553   -2.000
 7183.00    0.00000   0.28769   -2.000
 7184.00    0.00000   0.28932   -2.000
 7185.00    0.00000   0.28900   -2.000
 7186.00    0.00000   0.28663   -2.000
 7187.00    0.00000   0.28364   -2.000
 7188.00    0.00000   0.28204   -2.000
 7189.00    0.00000   0.28301   -2.000
 7190.00    0.00000   0.28561   -2.000
 7191.00    0.00000   0.28753   -2.000
 7192.00    0.00000   0.28786   -2.000
 7193.00    0.00000   0.28785   -2.000
 7194.00    0.00000   0.28828   -2.000
 7195.00    0.00000   0.28804   -2.000
 7196.00    0.00000   0.28599   -2.000
 7197.00    0.00000   0.28310   -2.000
 7198.00    0.00000   0.28185   -2.000
 7199.00    0.00000   0.28272   -2.000
 7200.00    0.00000   0.28362   -2.000
 7201.00    0.00000   0.28335   -2.000
 7202.00    0.00000   0.28323   -2.000
 7203.00    0.00000   0.28436   -2.000
 7204.00    0.00000   0.28564   -2.000
 7205.00    0.00000   0.28535   -2.000
 7206.00    0.00000   0.28342   -2.000
 7207.00    0.00000   0.28134   -2.000
 7208.00    0.00000   0.28063   -2.000
 7209.00    0.00000   0.28163   -2.000
 7210.00    0.00000   0.28386   -2.000
 7211.00    0.00000   0.28606   -2.000
 7212.00    0.00000   0.28687   -2.000
 7213.00    0.00000   0.28643   -2.000
 7214.00    0.00000   0.28601   -2.000
 7215.00    0.00000   0.28620   -2.000
 7216.00    0.00000   0.28700   -2.000
 7217.00    0.00000   0.28852   -2.000
 7218.00    0.00000   0.29014   -2.000
