###################################################################
## OUTPUT of StarlightChains_v04.for    [Cid@UFSC - 01/Apr/2007] ##
###################################################################

## Some input info
1970J.txt                                [arq_obs]
Base.CB07.vall.4m                        [arq_base]
Masks.EmLines.NEW.gm                     [arq_masks]
StCv04.C11.config                        [arq_config]
   66                                    [N_base]
    0                                    [N_YAV_components = # of components with extra extinction!]
    0                                    [i_FitPowerLaw (1/0 = Yes/No)]
-9.99                                    [alpha_PowerLaw]
CCM                                      [red_law_option]
 1.458241                                [q_norm = A(l_norm)/A(V)]

## (Re)Sampling Parameters
 3741.00                                 [l_ini (A)]
 7218.00                                 [l_fin (A)]
    1.00                                 [dl    (A)]     (OBS: dl_cushion =    50.00 A)

## Normalization info
 4020.00                                 [l_norm (A) - for base]
 4010.00                                 [llow_norm (A) - window for f_obs]
 4060.00                                 [lupp_norm (A) - window for f_obs]
2.264229E-17                             [fobs_norm (in input units)]

## S/N
 3691.00                                 [llow_SN (A) - window for S/N]
 7268.00                                 [lupp_SN (A) - window for S/N]
   3.920                                 [S/N in S/N window]
   2.335                                 [S/N in norm. window]
   0.000                                 [S/N_err in S/N window]
   0.000                                 [S/N_err in norm. window]
  1.0000                                 [fscale_chi2]

## etc...
    -2007206                             [idum_orig]
  2305                                   [NOl_eff]
  2283                                   [Nl_eff]
    22    NSIGMA                         [Ntot_cliped & clip_method]
   410970                                [Nglobal_steps]
   7                                     [N_chains]
  12                                     [NEX0s_base = N_base in EX0s-fits]
 0   0   1      207   2.0   7.851E+00    [Clip-Bug, RC-Crash & Burn-In warning-flags, n_censored_weights, wei_nsig_threshold & wei_limit]
    13     13.297     12.755      0.542  [idt_all, wdt_TotTime, wdt_UsrTime & wdt_SysTime (sec)]

## Synthesis Results - Best model ##

 3.84437E-01                             [chi2/Nl_eff]
    19.44826                             [adev (%)]

   121.66257                             [sum-of-x (%)]
 1.51558E-17                             [Flux_tot (units of input spectrum!)]
 1.35062E-12                             [Mini_tot (???)]
 6.74423E-13                             [Mcor_tot (???)]

-294.35                                  [v0_min  (km/s)]
 425.00                                  [vd_min  (km/s)]
-0.4449                                  [AV_min  (mag)]
 0.0000                                  [YAV_min (mag)]

# j     x_j(%)      Mini_j(%)     Mcor_j(%)     age_j(yr)     Z_j      (L/M)_j    YAV?  Mstars   component_j        a/Fe...       SSP_chi2r SSP_adev(%)   SSP_AV   SSP_x(%)
  1      0.0000     0.0000E+00    0.0000E+00    1.000000E+06  0.00400  1.094E-02    0   1.0000   age020_m42            0.0000     6.5183E-01    15.8307   4.0000   105.1849
  2      0.0000     0.0000E+00    0.0000E+00    3.160000E+06  0.00400  4.007E-02    0   0.9999   age045_m42            0.0000     5.5577E-01    30.4097   4.0000   103.9391
  3      0.0000     0.0000E+00    0.0000E+00    5.010000E+06  0.00400  2.539E-02    0   0.9488   age055_m42            0.0000     5.9359E-01    21.0975   4.0000   105.1192
  4      0.0000     0.0000E+00    0.0000E+00    6.610000E+06  0.00400  2.620E-02    0   0.9220   age061_m42            0.0000     5.5873E-01    33.1559   4.0000   103.4741
  5      0.0000     0.0000E+00    0.0000E+00    1.000000E+07  0.00400  1.322E-02    0   0.8862   age070_m42            0.0000     5.5276E-01    45.2037   4.0000   103.1823
  6      0.0000     0.0000E+00    0.0000E+00    1.445000E+07  0.00400  7.883E-03    0   0.8571   age078_m42            0.0000     5.8006E-01    32.3948   4.0000   103.7893
  7      0.0000     0.0000E+00    0.0000E+00    2.512000E+07  0.00400  5.251E-03    0   0.8174   age090_m42            0.0000     5.4805E-01    50.9123   4.0000   102.3907
  8      0.0000     0.0000E+00    0.0000E+00    4.000000E+07  0.00400  3.649E-03    0   0.7851   age104_m42            0.0000     5.3276E-01    61.7732   4.0000   101.0364
  9      0.0000     0.0000E+00    0.0000E+00    5.500000E+07  0.00400  3.098E-03    0   0.7629   age110_m42            0.0000     5.4687E-01    53.2346   4.0000   101.8795
 10      0.0000     0.0000E+00    0.0000E+00    1.015200E+08  0.00400  2.228E-03    0   0.7207   age116_m42            0.0000     5.5553E-01    51.7622   4.0000   101.9118
 11      0.0000     0.0000E+00    0.0000E+00    2.861200E+08  0.00400  1.093E-03    0   0.6648   age125_m42            0.0000     5.3788E-01    66.2198   3.7250   101.7595
 12      0.0000     0.0000E+00    0.0000E+00    5.088000E+08  0.00400  6.597E-04    0   0.6365   age130_m42            0.0000     5.3884E-01    55.9452   3.5336   103.8632
 13      0.0000     0.0000E+00    0.0000E+00    1.434000E+09  0.00400  2.132E-04    0   0.5798   age139_m42            0.0000     4.7848E-01    34.9454   2.1212   109.7119
 14      0.0000     0.0000E+00    0.0000E+00    4.250000E+09  0.00400  5.895E-05    0   0.5377   age158_m42            0.0000     4.1701E-01    21.4546   1.2890   110.8281
 15      0.0000     0.0000E+00    0.0000E+00    7.500000E+09  0.00400  3.510E-05    0   0.5212   age171_m42            0.0000     4.0076E-01    16.2343   0.9177   112.1557
 16     15.9505     7.3375E+00    7.3971E+00    1.300000E+10  0.00400  2.005E-05    0   0.5034   age193_m42            0.0000     3.8921E-01    13.1937   0.5914   113.5340
 17      0.0000     0.0000E+00    0.0000E+00    1.800000E+10  0.00400  1.525E-05    0   0.4967   age213_m42            0.0000     3.9106E-01    13.4481   0.5846   112.8247
 18      0.0000     0.0000E+00    0.0000E+00    1.000000E+06  0.00800  1.238E-02    0   1.0000   age020_m52            0.0000     6.5079E-01    15.8151   4.0000   105.3676
 19      0.0000     0.0000E+00    0.0000E+00    3.160000E+06  0.00800  3.074E-02    0   0.9966   age045_m52            0.0000     6.3776E-01    15.8504   4.0000   105.5977
 20      0.0000     0.0000E+00    0.0000E+00    5.010000E+06  0.00800  2.668E-02    0   0.9443   age055_m52            0.0000     6.0493E-01    19.2195   4.0000   105.1387
 21      0.0000     0.0000E+00    0.0000E+00    6.610000E+06  0.00800  2.136E-02    0   0.9177   age061_m52            0.0000     4.8196E-01    71.1001   4.0000   100.9594
 22      0.0000     0.0000E+00    0.0000E+00    1.000000E+07  0.00800  1.215E-02    0   0.8827   age070_m52            0.0000     5.6789E-01    37.9040   4.0000   104.5791
 23      0.0000     0.0000E+00    0.0000E+00    1.445000E+07  0.00800  8.717E-03    0   0.8552   age078_m52            0.0000     5.7390E-01    33.4651   4.0000   104.7211
 24      0.0000     0.0000E+00    0.0000E+00    2.512000E+07  0.00800  5.592E-03    0   0.8162   age090_m52            0.0000     5.5137E-01    47.5558   4.0000   103.7951
 25      0.0000     0.0000E+00    0.0000E+00    4.000000E+07  0.00800  3.896E-03    0   0.7841   age104_m52            0.0000     5.4449E-01    50.9243   4.0000   103.3607
 26      0.0000     0.0000E+00    0.0000E+00    1.015200E+08  0.00800  2.148E-03    0   0.7226   age116_m52            0.0000     5.4015E-01    53.3853   4.0000   102.4690
 27      0.0000     0.0000E+00    0.0000E+00    2.861200E+08  0.00800  9.925E-04    0   0.6683   age125_m52            0.0000     5.4414E-01    54.8150   3.5779   104.9022
 28      0.0000     0.0000E+00    0.0000E+00    9.047900E+08  0.00800  3.141E-04    0   0.6138   age135_m52            0.0000     4.7946E-01    22.8715   2.0459   115.3073
 29      0.0000     0.0000E+00    0.0000E+00    1.434000E+09  0.00800  1.719E-04    0   0.5853   age139_m52            0.0000     4.4037E-01    20.3473   1.3666   115.2047
 30      0.0000     0.0000E+00    0.0000E+00    2.500000E+09  0.00800  7.872E-05    0   0.5600   age150_m52            0.0000     4.1319E-01    13.3139   0.7763   116.3512
 31      0.0000     0.0000E+00    0.0000E+00    4.250000E+09  0.00800  4.336E-05    0   0.5426   age158_m52            0.0000     4.0527E-01    12.8558   0.7156   115.9299
 32      0.0000     0.0000E+00    0.0000E+00    6.250000E+09  0.00800  3.159E-05    0   0.5319   age166_m52            0.0000     3.9416E-01    14.0690   0.2540   118.9314
 33      0.0000     0.0000E+00    0.0000E+00    1.300000E+10  0.00800  1.361E-05    0   0.5073   age193_m52            0.0000     3.8675E-01    21.9000  -0.6030   122.7799
 34     99.3162     9.2659E+01    9.2595E+01    1.800000E+10  0.00800  9.886E-06    0   0.4990   age213_m52            0.0000     3.8638E-01    27.4766  -0.9868   125.5385
 35      6.3958     3.8206E-03    7.6513E-03    1.000000E+06  0.02000  1.544E-02    0   1.0000   age020_m62            0.0000     6.5045E-01    15.8139   4.0000   105.6678
 36      0.0000     0.0000E+00    0.0000E+00    3.160000E+06  0.02000  3.762E-02    0   0.9858   age045_m62            0.0000     6.4110E-01    15.8477   4.0000   106.2174
 37      0.0000     0.0000E+00    0.0000E+00    5.010000E+06  0.02000  3.296E-02    0   0.9342   age055_m62            0.0000     5.8852E-01    21.9067   4.0000   105.7929
 38      0.0000     0.0000E+00    0.0000E+00    8.710000E+06  0.02000  1.154E-02    0   0.8861   age067_m62            0.0000     5.5106E-01    65.3401   4.0000   103.3878
 39      0.0000     0.0000E+00    0.0000E+00    1.445000E+07  0.02000  7.663E-03    0   0.8472   age078_m62            0.0000     5.3574E-01    53.8175   4.0000   103.9223
 40      0.0000     0.0000E+00    0.0000E+00    2.512000E+07  0.02000  4.532E-03    0   0.8099   age090_m62            0.0000     5.4671E-01    53.9391   4.0000   103.2825
 41      0.0000     0.0000E+00    0.0000E+00    5.500000E+07  0.02000  2.733E-03    0   0.7595   age110_m62            0.0000     5.4229E-01    52.3208   4.0000   102.9515
 42      0.0000     0.0000E+00    0.0000E+00    1.609000E+08  0.02000  1.369E-03    0   0.6985   age120_m62            0.0000     5.5763E-01    58.7888   4.0000   103.2660
 43      0.0000     0.0000E+00    0.0000E+00    2.861200E+08  0.02000  9.013E-04    0   0.6714   age125_m62            0.0000     5.6746E-01    55.4089   3.7055   105.8072
 44      0.0000     0.0000E+00    0.0000E+00    5.088000E+08  0.02000  5.028E-04    0   0.6449   age130_m62            0.0000     5.4202E-01    32.5804   2.8425   112.4094
 45      0.0000     0.0000E+00    0.0000E+00    9.047900E+08  0.02000  2.428E-04    0   0.6179   age135_m62            0.0000     4.6439E-01    17.5466   1.8019   116.9342
 46      0.0000     0.0000E+00    0.0000E+00    1.434000E+09  0.02000  1.263E-04    0   0.5908   age139_m62            0.0000     4.3066E-01    13.7501   1.1583   118.2011
 47      0.0000     0.0000E+00    0.0000E+00    2.500000E+09  0.02000  5.985E-05    0   0.5673   age150_m62            0.0000     4.0771E-01    14.4928   0.4440   121.2077
 48      0.0000     0.0000E+00    0.0000E+00    4.250000E+09  0.02000  3.271E-05    0   0.5468   age158_m62            0.0000     3.9353E-01    22.6124  -0.2616   125.0787
 49      0.0000     0.0000E+00    0.0000E+00    1.000000E+10  0.02000  1.360E-05    0   0.5167   age181_m62            0.0000     3.9638E-01    30.1597  -1.0000   129.5189
 50      0.0000     0.0000E+00    0.0000E+00    1.800000E+10  0.02000  7.124E-06    0   0.5013   age213_m62            0.0000     4.2498E-01    25.5549  -1.0000   126.8284
 51      0.0000     0.0000E+00    0.0000E+00    1.000000E+06  0.05000  2.592E-02    0   0.9998   age020_m72            0.0000     6.5165E-01    15.8587   4.0000   105.7552
 52      0.0000     0.0000E+00    0.0000E+00    3.160000E+06  0.05000  4.845E-02    0   0.9577   age045_m72            0.0000     6.2130E-01    16.7144   4.0000   106.1263
 53      0.0000     0.0000E+00    0.0000E+00    5.010000E+06  0.05000  3.072E-02    0   0.9147   age055_m72            0.0000     5.8005E-01    29.7082   4.0000   105.5827
 54      0.0000     0.0000E+00    0.0000E+00    6.610000E+06  0.05000  1.455E-02    0   0.8877   age061_m72            0.0000     5.7203E-01    62.8192   4.0000   104.5675
 55      0.0000     0.0000E+00    0.0000E+00    1.000000E+07  0.05000  9.074E-03    0   0.8524   age070_m72            0.0000     6.0741E-01    23.6402   4.0000   106.5245
 56      0.0000     0.0000E+00    0.0000E+00    2.512000E+07  0.05000  4.250E-03    0   0.7902   age090_m72            0.0000     5.8257E-01    32.8379   4.0000   104.9845
 57      0.0000     0.0000E+00    0.0000E+00    4.000000E+07  0.05000  3.087E-03    0   0.7618   age104_m72            0.0000     5.7238E-01    41.4966   4.0000   104.2401
 58      0.0000     0.0000E+00    0.0000E+00    1.015200E+08  0.05000  1.700E-03    0   0.7096   age116_m72            0.0000     5.6595E-01    51.9380   4.0000   104.0326
 59      0.0000     0.0000E+00    0.0000E+00    2.861200E+08  0.05000  7.384E-04    0   0.6633   age125_m72            0.0000     5.6657E-01    41.6619   3.2993   109.0879
 60      0.0000     0.0000E+00    0.0000E+00    5.088000E+08  0.05000  3.819E-04    0   0.6372   age130_m72            0.0000     5.0734E-01    21.3917   2.2802   116.1027
 61      0.0000     0.0000E+00    0.0000E+00    9.047900E+08  0.05000  1.676E-04    0   0.6110   age135_m72            0.0000     4.3739E-01    13.3005   1.0126   121.7828
 62      0.0000     0.0000E+00    0.0000E+00    1.434000E+09  0.05000  8.837E-05    0   0.5874   age139_m72            0.0000     4.1376E-01    16.5113   0.3444   123.7892
 63      0.0000     0.0000E+00    0.0000E+00    2.500000E+09  0.05000  4.233E-05    0   0.5598   age150_m72            0.0000     3.9737E-01    26.3324  -0.4396   128.2261
 64      0.0000     0.0000E+00    0.0000E+00    6.250000E+09  0.05000  1.435E-05    0   0.5249   age166_m72            0.0000     4.0820E-01    28.1321  -1.0000   128.1563
 65      0.0000     0.0000E+00    0.0000E+00    1.300000E+10  0.05000  6.513E-06    0   0.5036   age193_m72            0.0000     4.5870E-01    21.9397  -1.0000   127.0360
 66      0.0000     0.0000E+00    0.0000E+00    1.800000E+10  0.05000  4.527E-06    0   0.4945   age213_m72            0.0000     5.1326E-01    18.5437  -1.0000   125.2273


## Synthesis Results - Average & Chains ##

# j      x_j: min, <> & last-chain-values for 1 ...  7 chains
  1      0.0000      0.4383      0.0000      0.0000      0.0000      2.1526      0.0000      0.0000      0.0000
  2      0.0000      0.1649      0.0000      0.0000      0.0000      0.8432      0.0000      0.0000      0.0000
  3      0.0000      0.0982      0.0000      0.0000      0.0000      0.0000      0.0000      0.0000      0.0000
  4      0.0000      0.2719      0.0000      0.0000      0.0000      0.0000      0.0000      0.0000      0.0000
  5      0.0000      0.1122      0.0000      0.0000      2.1632      0.0000      0.0000      0.0000      0.0000
  6      0.0000      0.1787      0.0000      0.0000      0.0000      0.0000      0.0000      0.0000      0.0000
  7      0.0000      0.1799      0.0000      0.0000      0.0000      0.0000      0.0000      0.0000      0.0000
  8      0.0000      0.2688      0.0000      0.7364      0.0000      0.0000      1.1807      0.0000      0.0000
  9      0.0000      0.1350      0.0000      0.0000      0.0000      0.0000      0.0000      0.0000      0.0000
 10      0.0000      0.2104      0.0000      0.0000      0.0000      0.0000      0.0000      0.0000      0.4698
 11      0.0000      0.0881      0.0000      0.0000      0.0000      0.0000      0.0000      0.0000      0.0000
 12      0.0000      0.0855      0.0000      0.0000      0.0000      0.0000      0.0000      0.0000      0.0000
 13      0.0000      0.1298      0.0000      0.0000      0.0000      0.0000      0.0000      0.0000      0.0000
 14      0.0000      1.8881      0.0000      0.0000      0.0000      0.0000      0.0000      0.0000      0.0000
 15      0.0000      6.5428      0.0000      0.0000      0.0000      0.0000      0.5726      0.0000      0.0000
 16     15.9505     20.4431     25.7709     19.5203     22.5615     35.8046     37.8042     27.9787     21.7239
 17      0.0000     14.5407     20.5666     19.9834     24.4264      5.2604     23.8658     31.8530     33.7929
 18      0.0000      0.3952      0.0000      0.0000      1.1309      0.0000      0.0000      0.0000      0.0000
 19      0.0000      0.3177      0.0000      0.0000      0.0000      0.0000      0.0000      0.0000      0.0000
 20      0.0000      0.0987      0.0000      0.0000      0.0000      0.0000      0.0000      0.0000      0.0000
 21      0.0000      0.1934      0.0000      0.0000      1.9477      0.0000      0.0000      0.0000      0.0000
 22      0.0000      0.1544      0.0000      0.0000      3.0233      0.6999      0.0000      0.0000      0.0000
 23      0.0000      0.1970      0.0000      0.0000      0.0000      0.0000      0.0000      1.0034      0.0000
 24      0.0000      0.2250      0.0000      0.0000      0.0000      0.0000      0.0000      0.0000      0.0000
 25      0.0000      0.1088      1.1928      0.0000      0.0000      0.0000      0.0000      0.0000      0.0000
 26      0.0000      0.1844      0.0000      0.0000      0.0000      0.0000      0.0000      0.0000      0.0000
 27      0.0000      0.2375      0.0000      0.0000      0.0000      0.0000      0.0000      0.0000      0.0000
 28      0.0000      0.2212      0.0000      0.0000      0.0000      0.0000      0.0000      0.0000      0.0000
 29      0.0000      0.2712      0.0000      0.0000      0.0000      0.0000      0.0000      0.0000      0.0000
 30      0.0000      0.7838      0.0027      1.6539      0.0000      0.0000      0.0000      0.0000      0.0000
 31      0.0000      1.8014      0.0000      2.6655      0.0000      0.0000      0.0000      0.0000      1.6633
 32      0.0000     12.0985      4.5994     12.8484      7.9694     34.9618      8.8877      8.0775      0.0000
 33      0.0000     12.6356      8.1186     34.6956      0.0000     14.3498     18.4906     27.0203     20.6578
 34     99.3162     11.2764     20.4535     12.3652     43.3896      7.5078      0.0000      0.0000      7.2970
 35      6.3958      0.2606      0.0583      1.0560      0.0000      0.0000      0.0000      0.0000      0.0000
 36      0.0000      0.2945      0.0000      0.0000      0.0000      2.1254      0.0000      0.0000      1.6402
 37      0.0000      0.0718      0.5134      0.0000      0.2268      0.0000      0.0000      0.0000      0.0000
 38      0.0000      0.0997      0.0000      0.0000      0.0000      0.0000      0.0000      0.0000      0.0000
 39      0.0000      0.2449      0.0000      0.0000      0.0000      0.0000      0.0000      0.0000      0.0000
 40      0.0000      0.1768      0.0000      0.0000      0.0000      0.0000      0.0000      0.0000      0.0000
 41      0.0000      0.1485      0.0000      0.0000      0.4240      0.0000      0.0000      0.0000      0.0000
 42      0.0000      0.0794      0.0000      0.0000      0.0000      0.0000      0.0000      0.0000      0.0000
 43      0.0000      0.0699      0.0000      0.0000      0.0000      0.0000      0.0000      0.0000      0.0000
 44      0.0000      0.2053      0.0000      0.0000      0.0000      0.0000      0.0000      0.0000      0.0000
 45      0.0000      0.2122      0.0000      0.7248      0.0000      0.3082      0.0000      0.0000      0.0000
 46      0.0000      0.5851      0.0000      0.0000      0.0000      0.0000      0.0000      0.0000      0.0000
 47      0.0000      2.5372      0.0000      5.6391      2.8018      0.0000      0.0000      0.3594      0.0000
 48      0.0000      6.6596     19.8185      0.0000      0.8064     10.3995      0.1460      0.0000      3.2113
 49      0.0000      5.2561      0.0000      0.0000      0.0000      0.0000      0.0000     14.6319     15.2086
 50      0.0000      2.7403      0.0000      1.2197      0.0000      1.0659      5.5338      0.0000      0.0000
 51      0.0000      0.3098      3.2593      0.0000      1.5032      0.0000      0.0000      0.0000      6.7564
 52      0.0000      0.2858      0.0000      0.0000      0.0000      0.0000      0.3605      0.0000      0.0000
 53      0.0000      0.4362      0.0000      1.7392      0.0000      0.0000      0.0000      0.0000      0.8705
 54      0.0000      0.2704      0.6941      0.0000      0.0000      0.0000      4.3904      1.7940      0.0000
 55      0.0000      0.2294      0.0000      0.0000      0.5161      0.0000      0.0000      0.0000      0.0000
 56      0.0000      0.1291      0.0000      0.0000      0.0000      0.0000      0.0000      0.0000      0.0000
 57      0.0000      0.0901      0.0000      0.0000      0.0000      0.0000      0.0000      0.0000      0.0000
 58      0.0000      0.1182      0.0000      0.0000      0.0000      0.0000      0.0000      0.0000      0.0000
 59      0.0000      0.0767      0.0000      0.0000      0.0000      0.0000      0.0000      0.0000      0.0000
 60      0.0000      0.0745      0.0000      0.0000      0.0000      0.0000      0.0000      0.0000      0.0000
 61      0.0000      0.3483      0.0000      0.0000      0.0000      0.0000      0.0000      0.0000      0.0000
 62      0.0000      0.9198      3.1900      0.0000      0.0000      0.0000      0.0000      0.0000      1.4401
 63      0.0000      3.1748      9.4772      2.4421      2.3501      0.0000     14.1762      0.0000      0.0000
 64      0.0000      1.6083      0.7778      0.0000      0.0000      0.0000      0.0000      0.0000      1.6029
 65      0.0000      1.1399      0.0000      0.3045      0.0000      0.0000      0.6877      2.6123      0.0000
 66      0.0000      0.8032      0.0000      0.0000      0.0000      0.0000      0.0000      0.0000      0.0000

# j      m_j: min, <> & last-chain-values for 1 ...  7 chains
  1  0.0000E+00  1.2553E-03  0.0000E+00  0.0000E+00  0.0000E+00  6.9707E-03  0.0000E+00  0.0000E+00  0.0000E+00
  2  0.0000E+00  1.2892E-04  0.0000E+00  0.0000E+00  0.0000E+00  7.4541E-04  0.0000E+00  0.0000E+00  0.0000E+00
  3  0.0000E+00  1.1493E-04  0.0000E+00  0.0000E+00  0.0000E+00  0.0000E+00  0.0000E+00  0.0000E+00  0.0000E+00
  4  0.0000E+00  2.9980E-04  0.0000E+00  0.0000E+00  0.0000E+00  0.0000E+00  0.0000E+00  0.0000E+00  0.0000E+00
  5  0.0000E+00  2.3574E-04  0.0000E+00  0.0000E+00  3.8585E-03  0.0000E+00  0.0000E+00  0.0000E+00  0.0000E+00
  6  0.0000E+00  6.0884E-04  0.0000E+00  0.0000E+00  0.0000E+00  0.0000E+00  0.0000E+00  0.0000E+00  0.0000E+00
  7  0.0000E+00  8.7737E-04  0.0000E+00  0.0000E+00  0.0000E+00  0.0000E+00  0.0000E+00  0.0000E+00  0.0000E+00
  8  0.0000E+00  1.8122E-03  0.0000E+00  4.5049E-03  0.0000E+00  0.0000E+00  7.9214E-03  0.0000E+00  0.0000E+00
  9  0.0000E+00  1.0412E-03  0.0000E+00  0.0000E+00  0.0000E+00  0.0000E+00  0.0000E+00  0.0000E+00  0.0000E+00
 10  0.0000E+00  2.1327E-03  0.0000E+00  0.0000E+00  0.0000E+00  0.0000E+00  0.0000E+00  0.0000E+00  4.3351E-03
 11  0.0000E+00  1.6785E-03  0.0000E+00  0.0000E+00  0.0000E+00  0.0000E+00  0.0000E+00  0.0000E+00  0.0000E+00
 12  0.0000E+00  2.5845E-03  0.0000E+00  0.0000E+00  0.0000E+00  0.0000E+00  0.0000E+00  0.0000E+00  0.0000E+00
 13  0.0000E+00  1.1057E-02  0.0000E+00  0.0000E+00  0.0000E+00  0.0000E+00  0.0000E+00  0.0000E+00  0.0000E+00
 14  0.0000E+00  5.3956E-01  0.0000E+00  0.0000E+00  0.0000E+00  0.0000E+00  0.0000E+00  0.0000E+00  0.0000E+00
 15  0.0000E+00  3.0439E+00  0.0000E+00  0.0000E+00  0.0000E+00  0.0000E+00  2.6512E-01  0.0000E+00  0.0000E+00
 16  7.3971E+00  1.6081E+01  1.9994E+01  1.3935E+01  1.5073E+01  3.1847E+01  2.9598E+01  1.9274E+01  1.5560E+01
 17  0.0000E+00  1.4838E+01  2.0700E+01  1.8506E+01  2.1169E+01  6.0698E+00  2.4239E+01  2.8466E+01  3.1399E+01
 18  0.0000E+00  1.0002E-03  0.0000E+00  0.0000E+00  2.4306E-03  0.0000E+00  0.0000E+00  0.0000E+00  0.0000E+00
 19  0.0000E+00  3.2270E-04  0.0000E+00  0.0000E+00  0.0000E+00  0.0000E+00  0.0000E+00  0.0000E+00  0.0000E+00
 20  0.0000E+00  1.0947E-04  0.0000E+00  0.0000E+00  0.0000E+00  0.0000E+00  0.0000E+00  0.0000E+00  0.0000E+00
 21  0.0000E+00  2.6037E-04  0.0000E+00  0.0000E+00  2.2265E-03  0.0000E+00  0.0000E+00  0.0000E+00  0.0000E+00
 22  0.0000E+00  3.5133E-04  0.0000E+00  0.0000E+00  5.8444E-03  1.8012E-03  0.0000E+00  0.0000E+00  0.0000E+00
 23  0.0000E+00  6.0565E-04  0.0000E+00  0.0000E+00  0.0000E+00  0.0000E+00  0.0000E+00  2.7009E-03  0.0000E+00
 24  0.0000E+00  1.0288E-03  0.0000E+00  0.0000E+00  0.0000E+00  0.0000E+00  0.0000E+00  0.0000E+00  0.0000E+00
 25  0.0000E+00  6.8599E-04  7.4181E-03  0.0000E+00  0.0000E+00  0.0000E+00  0.0000E+00  0.0000E+00  0.0000E+00
 26  0.0000E+00  1.9436E-03  0.0000E+00  0.0000E+00  0.0000E+00  0.0000E+00  0.0000E+00  0.0000E+00  0.0000E+00
 27  0.0000E+00  5.0107E-03  0.0000E+00  0.0000E+00  0.0000E+00  0.0000E+00  0.0000E+00  0.0000E+00  0.0000E+00
 28  0.0000E+00  1.3545E-02  0.0000E+00  0.0000E+00  0.0000E+00  0.0000E+00  0.0000E+00  0.0000E+00  0.0000E+00
 29  0.0000E+00  2.8932E-02  0.0000E+00  0.0000E+00  0.0000E+00  0.0000E+00  0.0000E+00  0.0000E+00  0.0000E+00
 30  0.0000E+00  1.7470E-01  5.9443E-04  3.3453E-01  0.0000E+00  0.0000E+00  0.0000E+00  0.0000E+00  0.0000E+00
 31  0.0000E+00  7.0626E-01  0.0000E+00  9.4841E-01  0.0000E+00  0.0000E+00  0.0000E+00  0.0000E+00  5.9379E-01
 32  0.0000E+00  6.3823E+00  2.3931E+00  6.1511E+00  3.5704E+00  2.0855E+01  4.6665E+00  3.7317E+00  0.0000E+00
 33  0.0000E+00  1.4756E+01  9.3512E+00  3.6771E+01  0.0000E+00  1.8949E+01  2.1492E+01  2.7634E+01  2.1966E+01
 34  9.2595E+01  1.7833E+01  3.1903E+01  1.7746E+01  5.8275E+01  1.3425E+01  0.0000E+00  0.0000E+00  1.0507E+01
 35  7.6513E-03  5.2886E-04  1.1661E-04  1.9447E-03  0.0000E+00  0.0000E+00  0.0000E+00  0.0000E+00  0.0000E+00
 36  0.0000E+00  2.4177E-04  0.0000E+00  0.0000E+00  0.0000E+00  1.9731E-03  0.0000E+00  0.0000E+00  1.2261E-03
 37  0.0000E+00  6.3759E-05  4.4970E-04  0.0000E+00  1.7103E-04  0.0000E+00  0.0000E+00  0.0000E+00  0.0000E+00
 38  0.0000E+00  2.3987E-04  0.0000E+00  0.0000E+00  0.0000E+00  0.0000E+00  0.0000E+00  0.0000E+00  0.0000E+00
 39  0.0000E+00  8.4823E-04  0.0000E+00  0.0000E+00  0.0000E+00  0.0000E+00  0.0000E+00  0.0000E+00  0.0000E+00
 40  0.0000E+00  9.8997E-04  0.0000E+00  0.0000E+00  0.0000E+00  0.0000E+00  0.0000E+00  0.0000E+00  0.0000E+00
 41  0.0000E+00  1.2932E-03  0.0000E+00  0.0000E+00  3.1351E-03  0.0000E+00  0.0000E+00  0.0000E+00  0.0000E+00
 42  0.0000E+00  1.2690E-03  0.0000E+00  0.0000E+00  0.0000E+00  0.0000E+00  0.0000E+00  0.0000E+00  0.0000E+00
 43  0.0000E+00  1.6309E-03  0.0000E+00  0.0000E+00  0.0000E+00  0.0000E+00  0.0000E+00  0.0000E+00  0.0000E+00
 44  0.0000E+00  8.2482E-03  0.0000E+00  0.0000E+00  0.0000E+00  0.0000E+00  0.0000E+00  0.0000E+00  0.0000E+00
 45  0.0000E+00  1.6920E-02  0.0000E+00  5.2443E-02  0.0000E+00  2.7782E-02  0.0000E+00  0.0000E+00  0.0000E+00
 46  0.0000E+00  8.5751E-02  0.0000E+00  0.0000E+00  0.0000E+00  0.0000E+00  0.0000E+00  0.0000E+00  0.0000E+00
 47  0.0000E+00  7.5348E-01  0.0000E+00  1.5198E+00  7.0666E-01  0.0000E+00  0.0000E+00  9.3466E-02  0.0000E+00
 48  0.0000E+00  3.4879E+00  1.0238E+01  0.0000E+00  3.5868E-01  6.1587E+00  7.6104E-02  0.0000E+00  1.5314E+00
 49  0.0000E+00  6.2564E+00  0.0000E+00  0.0000E+00  0.0000E+00  0.0000E+00  0.0000E+00  1.5253E+01  1.6484E+01
 50  0.0000E+00  6.0413E+00  0.0000E+00  2.4403E+00  0.0000E+00  2.6571E+00  1.2143E+01  0.0000E+00  0.0000E+00
 51  0.0000E+00  3.7437E-04  3.8849E-03  0.0000E+00  1.5429E-03  0.0000E+00  0.0000E+00  0.0000E+00  7.4345E-03
 52  0.0000E+00  1.7699E-04  0.0000E+00  0.0000E+00  0.0000E+00  0.0000E+00  2.2223E-04  0.0000E+00  0.0000E+00
 53  0.0000E+00  4.0694E-04  0.0000E+00  1.4724E-03  0.0000E+00  0.0000E+00  0.0000E+00  0.0000E+00  7.3942E-04
 54  0.0000E+00  5.1679E-04  1.3086E-03  0.0000E+00  0.0000E+00  0.0000E+00  8.3527E-03  3.0032E-03  0.0000E+00
 55  0.0000E+00  6.7510E-04  0.0000E+00  0.0000E+00  1.2901E-03  0.0000E+00  0.0000E+00  0.0000E+00  0.0000E+00
 56  0.0000E+00  7.5194E-04  0.0000E+00  0.0000E+00  0.0000E+00  0.0000E+00  0.0000E+00  0.0000E+00  0.0000E+00
 57  0.0000E+00  6.9639E-04  0.0000E+00  0.0000E+00  0.0000E+00  0.0000E+00  0.0000E+00  0.0000E+00  0.0000E+00
 58  0.0000E+00  1.5464E-03  0.0000E+00  0.0000E+00  0.0000E+00  0.0000E+00  0.0000E+00  0.0000E+00  0.0000E+00
 59  0.0000E+00  2.1578E-03  0.0000E+00  0.0000E+00  0.0000E+00  0.0000E+00  0.0000E+00  0.0000E+00  0.0000E+00
 60  0.0000E+00  3.8947E-03  0.0000E+00  0.0000E+00  0.0000E+00  0.0000E+00  0.0000E+00  0.0000E+00  0.0000E+00
 61  0.0000E+00  3.9777E-02  0.0000E+00  0.0000E+00  0.0000E+00  0.0000E+00  0.0000E+00  0.0000E+00  0.0000E+00
 62  0.0000E+00  1.9155E-01  6.5524E-01  0.0000E+00  0.0000E+00  0.0000E+00  0.0000E+00  0.0000E+00  2.7308E-01
 63  0.0000E+00  1.3154E+00  3.8730E+00  9.1828E-01  8.2698E-01  0.0000E+00  5.8461E+00  0.0000E+00  0.0000E+00
 64  0.0000E+00  1.8431E+00  8.7920E-01  0.0000E+00  0.0000E+00  0.0000E+00  0.0000E+00  0.0000E+00  1.6726E+00
 65  0.0000E+00  2.7615E+00  0.0000E+00  6.6947E-01  0.0000E+00  0.0000E+00  1.6581E+00  5.5421E+00  0.0000E+00
 66  0.0000E+00  2.7489E+00  0.0000E+00  0.0000E+00  0.0000E+00  0.0000E+00  0.0000E+00  0.0000E+00  0.0000E+00

# AV, chi2 & Mass for <> & i_chain = 1 ...  7 solutions
AV      -0.4449      0.3918      0.1892      0.1612      0.4311      0.4847      0.3950      0.3032      0.3928
chi2 3.8444E-01  3.9408E-01  3.9013E-01  3.8977E-01  3.9068E-01  3.9148E-01  3.9111E-01  3.9059E-01  3.9082E-01
Mass 6.7442E-13  1.2233E-12  9.4476E-13  9.8888E-13  1.5182E-12  1.2254E-12  1.2343E-12  1.2400E-12  1.3452E-12
-294.35                                  [v0_min (km/s) before EX0s...]
 425.00                                  [vd_min (km/s) before EX0s...]


## Synthetic spectrum (Best Model) ##l_obs f_obs f_syn wei
 3478    [Nl_obs]
 3741.00   -0.01586   0.58813    0.000
 3742.00    0.17963   0.58819    0.000
 3743.00    0.32246   0.59077    0.000
 3744.00    0.38010   0.59510    0.000
 3745.00    0.38881   0.60155    2.564
 3746.00    0.42030   0.61051    2.797
 3747.00    0.54733   0.62038    2.959
 3748.00    0.80943   0.63132    2.901
 3749.00    1.18302   0.64145    2.722
 3750.00    1.56333   0.65107    2.691
 3751.00    1.83480   0.65961   -1.000
 3752.00    1.93533   0.66679   -1.000
 3753.00    1.84729   0.67181   -1.000
 3754.00    1.58837   0.67529    2.637
 3755.00    1.23569   0.67738    2.821
 3756.00    0.93331   0.67865    3.124
 3757.00    0.79220   0.68068    3.180
 3758.00    0.81592   0.68247    3.049
 3759.00    0.92171   0.68535    2.965
 3760.00    0.97558   0.68986    2.999
 3761.00    0.90308   0.69643    3.106
 3762.00    0.75195   0.70382    3.140
 3763.00    0.61233   0.71311    3.052
 3764.00    0.55786   0.72428    2.999
 3765.00    0.61925   0.73611    3.044
 3766.00    0.77144   0.74902    3.058
 3767.00    0.94376   0.76182    2.988
 3768.00    1.04397   0.77539    2.973
 3769.00    1.05208   0.78823    3.091
 3770.00    1.05079   0.80054    3.259
 3771.00    1.11978   0.81189    3.346
 3772.00    1.27307   0.82255    3.294
 3773.00    1.42900   0.83074    3.200
 3774.00    1.44407   0.83706    3.236
 3775.00    1.32267   0.84097    3.386
 3776.00    1.24351   0.84278    3.398
 3777.00    1.26142   0.84090    3.253
 3778.00    1.24581   0.83524    3.237
 3779.00    1.16082   0.82780    3.396
 3780.00    1.12221   0.81687    3.451
 3781.00    1.16896   0.80453    3.298
 3782.00    1.21163   0.78966    3.155
 3783.00    1.17151   0.77522    3.117
 3784.00    1.03136   0.75920    3.135
 3785.00    0.82825   0.74352    3.213
 3786.00    0.63183   0.72841    3.411
 3787.00    0.48616   0.71429    3.623
 3788.00    0.40171   0.70284    3.568
 3789.00    0.38867   0.69235    3.386
 3790.00    0.45461   0.68538    3.462
 3791.00    0.56880   0.68068    3.718
 3792.00    0.67466   0.68031    3.662
 3793.00    0.74970   0.68258    3.434
 3794.00    0.80440   0.68822    3.575
 3795.00    0.83814   0.69684    4.026
 3796.00    0.84655   0.70679    4.069
 3797.00    0.86542   0.71842    3.679
 3798.00    0.94599   0.72969    3.489
 3799.00    1.07695   0.74056    3.613
 3800.00    1.20256   0.75031    3.865
 3801.00    1.29825   0.75817    3.967
 3802.00    1.35885   0.76383    3.767
 3803.00    1.34317   0.76624    3.547
 3804.00    1.20156   0.76544    3.618
 3805.00    0.94869   0.76036    3.924
 3806.00    0.65733   0.75264    4.132
 3807.00    0.42050   0.74110    4.055
 3808.00    0.31035   0.72757    3.850
 3809.00    0.32248   0.71237    3.792
 3810.00    0.40558   0.69549    4.043
 3811.00    0.52333   0.67821    4.409
 3812.00    0.64799   0.65966    4.439
 3813.00    0.73691   0.64189    4.206
 3814.00    0.75169   0.62406    4.091
 3815.00    0.68993   0.60814    4.208
 3816.00    0.57376   0.59255    4.483
 3817.00    0.42824   0.57831    4.628
 3818.00    0.27804   0.56421    4.420
 3819.00    0.14575   0.55172    4.176
 3820.00    0.03440   0.54069    4.215
 3821.00   -0.08995   0.53075    0.000
 3822.00   -0.25062   0.52244    0.000
 3823.00   -0.40777   0.51457    0.000
 3824.00   -0.50941   0.50797    0.000
 3825.00   -0.54997   0.50209    0.000
 3826.00   -0.53743   0.49706    0.000
 3827.00   -0.45626   0.49391    0.000
 3828.00   -0.29807   0.49240    0.000
 3829.00   -0.09184   0.49264    0.000
 3830.00    0.12568   0.49463    4.451
 3831.00    0.33715   0.49876    4.527
 3832.00    0.52163   0.50444    4.750
 3833.00    0.63775   0.51312    4.915
 3834.00    0.66798   0.52428    4.861
 3835.00    0.65058   0.53708    4.767
 3836.00    0.63353   0.55275    4.789
 3837.00    0.63726   0.56826    4.839
 3838.00    0.65931   0.58436    4.801
 3839.00    0.68166   0.59999    4.699
 3840.00    0.68496   0.61424    4.629
 3841.00    0.66177   0.62751    4.672
 3842.00    0.63929   0.63802    4.798
 3843.00    0.68131   0.64593    4.809
 3844.00    0.80943   0.65103    4.652
 3845.00    0.96218   0.65474    4.553
 3846.00    1.04653   0.65614    4.631
 3847.00    0.98274   0.65476    0.000
 3848.00    0.77467   0.65160    0.000
 3849.00    0.52763   0.64740    0.000
 3850.00    0.34209   0.64198    0.000
 3851.00    0.26030   0.63725    0.000
 3852.00    0.28474   0.63256    0.000
 3853.00    0.39012   0.62825    0.000
 3854.00    0.53017   0.62571    0.000
 3855.00    0.64766   0.62512    0.000
 3856.00    0.70337   0.62696    0.000
 3857.00    0.69432   0.62890    0.000
 3858.00    0.67410   0.63112    0.000
 3859.00    0.72914   0.63330    0.000
 3860.00    0.85799   0.63576    0.000
 3861.00    0.96326   0.63809    0.000
 3862.00    0.99642   0.63951    0.000
 3863.00    0.98484   0.64054    0.000
 3864.00    0.93610   0.63995    0.000
 3865.00    0.82262   0.63912    0.000
 3866.00    0.64357   0.63819    0.000
 3867.00    0.43754   0.63782    0.000
 3868.00    0.25668   0.63821    0.000
 3869.00    0.14845   0.63802    0.000
 3870.00    0.12813   0.63716    0.000
 3871.00    0.18096   0.63610    0.000
 3872.00    0.28959   0.63435    0.000
 3873.00    0.43724   0.63453    0.000
 3874.00    0.59552   0.63505    0.000
 3875.00    0.72989   0.63491    0.000
 3876.00    0.82010   0.63484    0.000
 3877.00    0.85618   0.63638    0.000
 3878.00    0.81835   0.63993    0.000
 3879.00    0.69556   0.64218    0.000
 3880.00    0.53457   0.64511    0.000
 3881.00    0.41296   0.65015    5.487
 3882.00    0.36301   0.65716    5.399
 3883.00    0.37499   0.66481    5.726
 3884.00    0.43458   0.67594    6.183
 3885.00    0.53022   0.68782    6.134
 3886.00    0.65274   0.70111    5.783
 3887.00    0.79259   0.71328    5.698
 3888.00    0.93478   0.72603    5.777
 3889.00    1.04578   0.73770    5.651
 3890.00    1.05706   0.74834    5.402
 3891.00    0.92898   0.75918    5.307
 3892.00    0.74780   0.76681    5.379
 3893.00    0.63561   0.77512    5.505
 3894.00    0.60115   0.78027    5.632
 3895.00    0.59069   0.78665    5.722
 3896.00    0.58706   0.79097    5.649
 3897.00    0.60175   0.79430    5.407
 3898.00    0.64622   0.79913    5.284
 3899.00    0.72094   0.80167    5.482
 3900.00    0.80758   0.80644    5.760
 3901.00    0.88597   0.81195    5.729
 3902.00    0.95368   0.81867    5.492
 3903.00    1.01041   0.82568    5.343
 3904.00    1.03989   0.83154    5.352
 3905.00    1.02850   0.83761    5.494
 3906.00    0.98538   0.84227    5.756
 3907.00    0.92887   0.84491    6.028
 3908.00    0.87104   0.84484    5.991
 3909.00    0.81687   0.84297    5.610
 3910.00    0.76509   0.83716    5.388
 3911.00    0.71156   0.82915    5.589
 3912.00    0.65273   0.81781    5.927
 3913.00    0.59037   0.80343    6.011
 3914.00    0.53462   0.78581    5.949
 3915.00    0.49814   0.76536    5.997
 3916.00    0.49020   0.74378    6.186
 3917.00    0.50854   0.71937    6.431
 3918.00    0.53518   0.69487    6.615
 3919.00    0.54811   0.66707    6.651
 3920.00    0.53047   0.63896    6.556
 3921.00    0.47411   0.60950    6.423
 3922.00    0.38375   0.57895    6.357
 3923.00    0.29003   0.55003    6.352
 3924.00    0.24764   0.52134    6.270
 3925.00    0.27574   0.49601    6.101
 3926.00    0.33334   0.47339    6.037
 3927.00    0.38362   0.45552    6.150
 3928.00    0.42526   0.44254    6.271
 3929.00    0.45842   0.43516    6.204
 3930.00    0.47043   0.43449    5.923
 3931.00    0.45932   0.43967    5.635
 3932.00    0.44301   0.45127    5.619
 3933.00    0.44400   0.46815    5.871
 3934.00    0.47608   0.48956    6.042
 3935.00    0.51981   0.51441    5.993
 3936.00    0.52896   0.54197    6.019
 3937.00    0.50189   0.57083    6.161
 3938.00    0.49176   0.60040    6.077
 3939.00    0.52540   0.63102    5.838
 3940.00    0.58225   0.66124    5.916
 3941.00    0.63972   0.69026    6.269
 3942.00    0.68660   0.71755    6.230
 3943.00    0.70766   0.74202    5.821
 3944.00    0.68815   0.76380    5.759
 3945.00    0.64682   0.78284    6.178
 3946.00    0.63089   0.79767    6.599
 3947.00    0.66557   0.80854    6.616
 3948.00    0.74631   0.81526    6.358
 3949.00    0.86390   0.81701    6.095
 3950.00    1.00449   0.81428    5.979
 3951.00    1.12847   0.80623    5.974
 3952.00    1.18774   0.79222    5.957
 3953.00    1.18550   0.77395    5.947
 3954.00    1.16394   0.75129    6.057
 3955.00    1.13500   0.72384    6.216
 3956.00    1.08577   0.69337    6.211
 3957.00    1.03208   0.66084    6.049
 3958.00    1.00802   0.62805    5.912
 3959.00    1.01477   0.59706    5.869
 3960.00    1.01887   0.56791    0.000
 3961.00    0.97393   0.54226    0.000
 3962.00    0.85251   0.52200    0.000
 3963.00    0.69712   0.50827    0.000
 3964.00    0.57937   0.50223    0.000
 3965.00    0.50693   0.50445    0.000
 3966.00    0.44682   0.51543    0.000
 3967.00    0.39662   0.53417    0.000
 3968.00    0.37579   0.55952    0.000
 3969.00    0.39021   0.59077    0.000
 3970.00    0.43336   0.62580    0.000
 3971.00    0.49768   0.66469    0.000
 3972.00    0.57539   0.70510    0.000
 3973.00    0.65696   0.74554    0.000
 3974.00    0.72964   0.78580    0.000
 3975.00    0.77619   0.82374    0.000
 3976.00    0.78357   0.85859    0.000
 3977.00    0.75465   0.89001    0.000
 3978.00    0.70785   0.91786    0.000
 3979.00    0.67365   0.94347    0.000
 3980.00    0.67936   0.96597    0.000
 3981.00    0.73219   0.98536    6.526
 3982.00    0.82844   1.00280    6.396
 3983.00    0.96428   1.01613    5.997
 3984.00    1.11587   1.02873    5.713
 3985.00    1.22165   1.03829    6.118
 3986.00    1.23593   1.04638    7.086
 3987.00    1.17996   1.05474    5.966
 3988.00    1.09291   1.06053    4.361
 3989.00    0.98353   1.06649    6.367
 3990.00    0.86083   1.07034   -2.000
 3991.00    0.75924   1.07375    5.101
 3992.00    0.68163   1.07596    1.564
 3993.00    0.56017   1.07836   -1.000
 3994.00    0.35314   1.08166   -2.000
 3995.00    0.11837   1.08545    1.401
 3996.00   -0.04787   1.08947    0.000
 3997.00   -0.06773   1.09203   -2.000
 3998.00    0.07497   1.09501   -2.000
 3999.00    0.31620   1.09776    0.191
 4000.00    0.58310   1.10063    0.034
 4001.00    0.84158   1.10233   -2.000
 4002.00    1.07982   1.10752   -2.000
 4003.00    1.29288   1.11448    0.020
 4004.00    1.46503   1.12074    0.005
 4005.00    1.56494   1.12739   -2.000
 4006.00    1.57730   1.13357   -2.000
 4007.00    1.51829   1.14049    0.002
 4008.00    1.41776   1.14588    0.001
 4009.00    1.30805   1.15256   -2.000
 4010.00    1.21893   1.15862   -2.000
 4011.00    1.16786   1.16358    0.000
 4012.00    1.12577   1.16866    0.000
 4013.00    1.02590   1.17078   -2.000
 4014.00    0.87711   1.17283   -2.000
 4015.00    0.78293   1.17545    0.000
 4016.00    0.79889   1.17586    0.000
 4017.00    0.89241   1.17461   -2.000
 4018.00    1.03593   1.17257   -2.000
 4019.00    1.22405   1.17008    0.000
 4020.00    1.39031   1.16530    0.000
 4021.00    1.41930   1.16067   -2.000
 4022.00    1.30475   1.15739   -2.000
 4023.00    1.15670   1.15323    0.000
 4024.00    1.02958   1.14835    0.000
 4025.00    0.90004   1.14396   -2.000
 4026.00    0.78838   1.13807   -2.000
 4027.00    0.75885   1.13302    0.000
 4028.00    0.80084   1.13181    0.000
 4029.00    0.83740   1.13087   -2.000
 4030.00    0.85266   1.13213   -2.000
 4031.00    0.89166   1.13434    0.000
 4032.00    0.95988   1.13646    0.000
 4033.00    1.01380   1.13791   -2.000
 4034.00    1.00842   1.13721   -2.000
 4035.00    0.92902   1.13667    0.000
 4036.00    0.83396   1.13541    0.000
 4037.00    0.80548   1.13345   -2.000
 4038.00    0.81909   1.13292   -2.000
 4039.00    0.78720   1.13018    0.000
 4040.00    0.71418   1.12612    0.000
 4041.00    0.67799   1.12110    0.000
 4042.00    0.72525   1.11853    0.000
 4043.00    0.84626   1.12170    0.000
 4044.00    0.97159   1.12369    0.000
 4045.00    1.02465   1.12571    0.000
 4046.00    1.01425   1.12712    0.000
 4047.00    1.00000   1.12835    0.000
 4048.00    1.00597   1.12794    0.000
 4049.00    1.02698   1.12781   -2.000
 4050.00    1.06219   1.12813   -2.000
 4051.00    1.11009   1.12551    0.000
 4052.00    1.15352   1.12249    0.000
 4053.00    1.17199   1.11740   -2.000
 4054.00    1.16220   1.11290   -2.000
 4055.00    1.13123   1.10903    0.000
 4056.00    1.08382   1.10573    0.000
 4057.00    1.02806   1.10269   -2.000
 4058.00    0.98362   1.09813   -2.000
 4059.00    0.96363   1.09292    0.000
 4060.00    0.95333   1.08908    0.000
 4061.00    0.93140   1.09139   -2.000
 4062.00    0.89673   1.09379   -2.000
 4063.00    0.85984   1.09433    0.000
 4064.00    0.83002   1.09683    0.000
 4065.00    0.81118   1.09863   -2.000
 4066.00    0.79954   1.09864    0.000
 4067.00    0.78974   1.09687    0.000
 4068.00    0.78093   1.09902   -2.000
 4069.00    0.77392   1.10629   -2.000
 4070.00    0.76927   1.11143    0.000
 4071.00    0.77777   1.11508    0.000
 4072.00    0.82561   1.11857   -2.000
 4073.00    0.91895   1.12237   -2.000
 4074.00    1.02024   1.12989    0.000
 4075.00    1.09688   1.14115    0.000
 4076.00    1.15597   1.15572   -2.000
 4077.00    1.20856   1.17060   -2.000
 4078.00    1.24354   1.18277    0.002
 4079.00    1.24270   1.19273    0.001
 4080.00    1.19572   1.20374   -2.000
 4081.00    1.12110   1.21439   -2.000
 4082.00    1.06890   1.22535    0.014
 4083.00    1.05480   1.23569    0.009
 4084.00    1.03301   1.24117   -2.000
 4085.00    0.98190   1.24260   -2.000
 4086.00    0.94188   1.23882    0.091
 4087.00    0.93871   1.23444    0.071
 4088.00    0.95158   1.22612   -2.000
 4089.00    0.97655   1.21583   -2.000
 4090.00    1.04652   1.20433    0.568
 4091.00    1.16021   1.18853    0.548
 4092.00    1.26119   1.17358   -2.000
 4093.00    1.30770   1.15912   -2.000
 4094.00    1.30156   1.14734    0.000
 4095.00    1.26710   1.13700    0.000
 4096.00    1.23769   1.12781    0.000
 4097.00    1.24180   1.12047    0.000
 4098.00    1.29351   1.11686    0.000
 4099.00    1.37905   1.11887    0.000
 4100.00    1.46173   1.12314    0.000
 4101.00    1.51858   1.12971    0.000
 4102.00    1.54780   1.13900    0.000
 4103.00    1.54629   1.14717    0.000
 4104.00    1.50977   1.15565    0.000
 4105.00    1.45858   1.16460    0.000
 4106.00    1.43076   1.17377    0.000
 4107.00    1.43482   1.18191    0.000
 4108.00    1.44557   1.18796    0.000
 4109.00    1.43569   1.19561    0.000
 4110.00    1.38826   1.20006    0.000
 4111.00    1.30433   1.20293    0.000
 4112.00    1.20356   1.20478    0.000
 4113.00    1.11983   1.20556    6.907
 4114.00    1.08305   1.20474    6.842
 4115.00    1.07933   1.20203    6.738
 4116.00    1.07101   1.20186    6.658
 4117.00    1.06421   1.19943    6.631
 4118.00    1.09043   1.19575    6.659
 4119.00    1.13358   1.19175    6.727
 4120.00    1.14718   1.18791    6.804
 4121.00    1.12207   1.18290    6.847
 4122.00    1.07743   1.17734    6.846
 4123.00    1.01654   1.17179    6.914
 4124.00    0.93929   1.16750    7.149
 4125.00    0.87966   1.16386    7.326
 4126.00    0.87840   1.15955    7.137
 4127.00    0.92545   1.15818    6.849
 4128.00    0.98297   1.15388    6.855
 4129.00    1.03861   1.15327    7.049
 4130.00    1.09734   1.15258    7.101
 4131.00    1.15588   1.15188    7.009
 4132.00    1.21239   1.15364    6.998
 4133.00    1.28470   1.15066    7.165
 4134.00    1.38439   1.15093    7.436
 4135.00    1.47969   1.14966    7.509
 4136.00    1.53033   1.14841   -1.000
 4137.00    1.53810   1.14811    6.917
 4138.00    1.52411   1.14323    6.989
 4139.00    1.49407   1.13950    7.250
 4140.00    1.45259   1.13616    7.337
 4141.00    1.42255   1.13608    7.212
 4142.00    1.41786   1.13772    7.074
 4143.00    1.41375   1.13693    7.099
 4144.00    1.37996   1.13874    7.331
 4145.00    1.31783   1.13730    7.585
 4146.00    1.24892   1.13796    7.666
 4147.00    1.19828   1.14244    7.683
 4148.00    1.17464   1.14695    7.755
 4149.00    1.15701   1.15387    7.715
 4150.00    1.12945   1.15693    7.464
 4151.00    1.10778   1.16341    7.256
 4152.00    1.09188   1.16820    7.289
 4153.00    1.03343   1.17326    7.498
 4154.00    0.91602   1.18157    7.698
 4155.00    0.80958   1.18591    7.722
 4156.00    0.78146   1.19020    7.575
 4157.00    0.83137   1.19147    7.473
 4158.00    0.92730   1.19323    7.521
 4159.00    1.03541   1.19391    7.569
 4160.00    1.12780   1.19107    7.527
 4161.00    1.18730   1.18714    7.539
 4162.00    1.21188   1.18153    7.637
 4163.00    1.21209   1.17234    7.591
 4164.00    1.18050   1.16415    7.393
 4165.00    1.08737   1.15808    7.405
 4166.00    0.95972   1.15041    7.706
 4167.00    0.90094   1.14290    7.841
 4168.00    0.95415   1.13323    7.618
 4169.00    1.05224   1.12735    7.477
 4170.00    1.14137   1.12363    7.559
 4171.00    1.22844   1.12096    7.505
 4172.00    1.30067   1.12197    7.295
 4173.00    1.30482   1.12123    7.405
 4174.00    1.23091   1.12283    7.851
 4175.00    1.13402   1.12474    7.851
 4176.00    1.06284   1.12836    7.851
 4177.00    1.03334   1.13333    7.713
 4178.00    1.04857   1.13532    7.490
 4179.00    1.10354   1.14006    7.319
 4180.00    1.17171   1.14338    7.233
 4181.00    1.21122   1.14742    7.388
 4182.00    1.20410   1.14988    7.724
 4183.00    1.16339   1.14937    7.851
 4184.00    1.10914   1.15157    7.851
 4185.00    1.06118   1.15074    7.851
 4186.00    1.04265   1.14962    7.851
 4187.00    1.07233   1.14668    7.851
 4188.00    1.13921   1.14396    7.710
 4189.00    1.20787   1.14159    7.606
 4190.00    1.25467   1.13576    7.716
 4191.00    1.27622   1.13226    7.851
 4192.00    1.28355   1.12860    7.851
 4193.00    1.29266   1.12474    7.718
 4194.00    1.30563   1.12216    7.383
 4195.00    1.31247   1.12203    7.312
 4196.00    1.30655   1.12550    7.466
 4197.00    1.28764   1.12872    7.574
 4198.00    1.26032   1.13215    7.624
 4199.00    1.23346   1.13892    7.794
 4200.00    1.21961   1.14624    7.851
 4201.00    1.22655   1.15342    7.835
 4202.00    1.24148   1.16306    7.533
 4203.00    1.23663   1.17255    7.378
 4204.00    1.18625   1.18057    7.419
 4205.00    1.08343   1.18597    7.558
 4206.00    0.96227   1.18908    7.774
 4207.00    0.86919   1.19327    7.851
 4208.00    0.81021   1.19749    7.851
 4209.00    0.77713   1.19960   -1.000
 4210.00    0.80031   1.19888    7.808
 4211.00    0.91250   1.19457    7.840
 4212.00    1.08460   1.18991    7.851
 4213.00    1.25563   1.18459    7.851
 4214.00    1.38798   1.17815    7.723
 4215.00    1.46694   1.17098    7.695
 4216.00    1.48947   1.16076    7.815
 4217.00    1.46062   1.14807    7.851
 4218.00    1.39107   1.13469    7.851
 4219.00    1.30229   1.12680    7.851
 4220.00    1.23156   1.12114    7.851
 4221.00    1.21464   1.11353    7.851
 4222.00    1.26477   1.10656    7.851
 4223.00    1.36369   1.10148    7.847
 4224.00    1.45834   1.10216    7.806
 4225.00    1.50364   1.10711   -1.000
 4226.00    1.50315   1.11264   -1.000
 4227.00    1.47777   1.11909    7.628
 4228.00    1.43404   1.12627    7.851
 4229.00    1.38346   1.13285    7.851
 4230.00    1.35835   1.14272    7.851
 4231.00    1.37525   1.15314    7.851
 4232.00    1.40692   1.16384    7.820
 4233.00    1.42071   1.17255    7.851
 4234.00    1.40944   1.17753    7.851
 4235.00    1.37436   1.18678    7.851
 4236.00    1.31147   1.19224    7.851
 4237.00    1.21945   1.19763    7.851
 4238.00    1.10625   1.20067    7.851
 4239.00    0.99028   1.19921    7.851
 4240.00    0.89869   1.20189    7.851
 4241.00    0.85312   1.19852    7.851
 4242.00    0.86101   1.19670    7.851
 4243.00    0.91936   1.19564    7.851
 4244.00    1.01757   1.18934    7.851
 4245.00    1.13874   1.18321    7.851
 4246.00    1.26157   1.17474    7.851
 4247.00    1.36650   1.17321    7.851
 4248.00    1.43953   1.17499    7.851
 4249.00    1.47396   1.17065    7.851
 4250.00    1.47050   1.16755    7.851
 4251.00    1.43354   1.16419    7.851
 4252.00    1.36941   1.16493    7.851
 4253.00    1.28711   1.17076    7.851
 4254.00    1.19897   1.17430    7.851
 4255.00    1.12195   1.17830    7.851
 4256.00    1.07616   1.17909    7.851
 4257.00    1.07662   1.17902    7.851
 4258.00    1.12595   1.18041    7.851
 4259.00    1.20034   1.18239    7.851
 4260.00    1.25386   1.18327    7.828
 4261.00    1.25277   1.17936    7.616
 4262.00    1.19272   1.17179    7.657
 4263.00    1.11192   1.16398    7.851
 4264.00    1.07282   1.16036    7.851
 4265.00    1.09051   1.15345    7.851
 4266.00    1.12687   1.14529    7.739
 4267.00    1.14398   1.13966    7.683
 4268.00    1.12203   1.13414    7.851
 4269.00    1.06154   1.13425    7.851
 4270.00    0.98047   1.13199    7.851
 4271.00    0.90478   1.12902    7.851
 4272.00    0.85921   1.13249    7.851
 4273.00    0.85117   1.13388    7.851
 4274.00    0.87365   1.13856    7.851
 4275.00    0.92212   1.14123    7.851
 4276.00    0.99262   1.13872    7.851
 4277.00    1.06845   1.13981    7.851
 4278.00    1.12641   1.13699    7.851
 4279.00    1.15627   1.13679    7.851
 4280.00    1.15495   1.13242    7.851
 4281.00    1.10709   1.12333    7.851
 4282.00    1.00193   1.11720    7.851
 4283.00    0.87195   1.10759    7.851
 4284.00    0.77763   1.10158    7.851
 4285.00    0.76583   1.09005    7.851
 4286.00    0.84269   1.07838    7.851
 4287.00    0.94383   1.06800    7.851
 4288.00    0.98908   1.05357    7.851
 4289.00    0.97602   1.04358    7.851
 4290.00    0.94519   1.02763    7.851
 4291.00    0.90545   1.01288    7.851
 4292.00    0.84599   0.99827    7.730
 4293.00    0.76959   0.97984    7.726
 4294.00    0.69265   0.96672    7.729
 4295.00    0.63809   0.95155   -1.000
 4296.00    0.62273   0.93760   -1.000
 4297.00    0.64240   0.92745   -2.000
 4298.00    0.67021   0.91674   -2.000
 4299.00    0.65891   0.91235   -2.000
 4300.00    0.57074   0.91163   -2.000
 4301.00    0.40990   0.91308   -2.000
 4302.00    0.20414   0.92341   -2.000
 4303.00   -0.01722   0.93584   -2.000
 4304.00   -0.20207   0.95339   -2.000
 4305.00   -0.25869   0.97581   -2.000
 4306.00   -0.13556   0.99961   -2.000
 4307.00    0.10613   1.03167   -2.000
 4308.00    0.36119   1.06413   -2.000
 4309.00    0.55192   1.09605   -2.000
 4310.00    0.64640   1.12722   -2.000
 4311.00    0.66612   1.15378   -2.000
 4312.00    0.65674   1.18175   -1.000
 4313.00    0.66104   1.20771   -1.000
 4314.00    0.69973   1.22730   -1.000
 4315.00    0.76267   1.24294   -1.000
 4316.00    0.84471   1.25038    7.851
 4317.00    0.96730   1.25637    7.851
 4318.00    1.13927   1.26481    7.851
 4319.00    1.33274   1.26873    7.851
 4320.00    1.51207   1.27378    7.738
 4321.00    1.65364   1.27375   -1.000
 4322.00    1.74304   1.27355   -1.000
 4323.00    1.77330   1.27798   -1.000
 4324.00    1.74891   1.28095   -1.000
 4325.00    1.68763   1.28692   -1.000
 4326.00    1.61664   1.28863    7.851
 4327.00    1.56559   1.28828    7.851
 4328.00    1.54228   1.28718    7.851
 4329.00    1.52629   1.28458    7.851
 4330.00    1.50003   1.28308    0.000
 4331.00    1.46481   1.27787    0.000
 4332.00    1.44129   1.27225    0.000
 4333.00    1.46015   1.26566    0.000
 4334.00    1.52272   1.26003    0.000
 4335.00    1.59313   1.25742    0.000
 4336.00    1.63841   1.25462    0.000
 4337.00    1.64104   1.25387    0.000
 4338.00    1.58086   1.25552    0.000
 4339.00    1.44078   1.25894    0.000
 4340.00    1.25373   1.26538    0.000
 4341.00    1.09694   1.27237    0.000
 4342.00    1.01266   1.27787    0.000
 4343.00    0.99356   1.28453    0.000
 4344.00    1.02835   1.29110    0.000
 4345.00    1.10992   1.29813    0.000
 4346.00    1.21258   1.30646    0.000
 4347.00    1.29607   1.31219    0.000
 4348.00    1.33777   1.31752    0.000
 4349.00    1.33684   1.32250    0.000
 4350.00    1.29897   1.32797    0.000
 4351.00    1.23419   1.33628    7.851
 4352.00    1.16238   1.34370    7.851
 4353.00    1.10483   1.35063    7.851
 4354.00    1.06087   1.35630    7.851
 4355.00    1.01486   1.36180    7.851
 4356.00    0.96538   1.36806    7.851
 4357.00    0.92691   1.37299   -1.000
 4358.00    0.91794   1.37703   -1.000
 4359.00    0.94892   1.37794   -1.000
 4360.00    1.00406   1.37713    7.851
 4361.00    1.05751   1.37439    7.851
 4362.00    1.11137   1.37061    7.851
 4363.00    1.18271   1.36629    7.851
 4364.00    1.26701   1.35887    7.851
 4365.00    1.34663   1.35030    7.851
 4366.00    1.41689   1.33945    7.851
 4367.00    1.47426   1.32939    7.851
 4368.00    1.49118   1.31999    7.851
 4369.00    1.44384   1.30912    7.851
 4370.00    1.35919   1.29811    7.851
 4371.00    1.28059   1.28432    7.851
 4372.00    1.21031   1.27252    7.851
 4373.00    1.16196   1.26224    7.851
 4374.00    1.23460   1.25209    7.851
 4375.00    1.45875   1.24202    7.194
 4376.00    1.60255   1.22900    6.949
 4377.00    1.46663   1.22044    7.557
 4378.00    1.25429   1.21536    7.851
 4379.00    1.23825   1.21236    7.851
 4380.00    1.33770   1.21063    7.851
 4381.00    1.35598   1.20678    7.851
 4382.00    1.28677   1.20910    7.851
 4383.00    1.20338   1.21559    7.851
 4384.00    1.11342   1.22456    7.851
 4385.00    1.00730   1.23467    7.851
 4386.00    0.91693   1.24052    7.851
 4387.00    0.88016   1.24914    7.851
 4388.00    0.90329   1.25950    7.851
 4389.00    0.97159   1.27065    7.851
 4390.00    1.06226   1.28222    7.851
 4391.00    1.15171   1.28579    7.851
 4392.00    1.22123   1.28765    7.851
 4393.00    1.25905   1.29129    7.851
 4394.00    1.26145   1.29557    7.851
 4395.00    1.23089   1.30040    7.851
 4396.00    1.17483   1.29790    7.851
 4397.00    1.10770   1.29277    7.851
 4398.00    1.05030   1.29296    7.851
 4399.00    1.01535   1.29652    7.851
 4400.00    0.99974   1.29989    7.851
 4401.00    0.99749   1.30013    7.851
 4402.00    1.00765   1.29969    7.851
 4403.00    1.03071   1.30464    7.851
 4404.00    1.06582   1.31455    7.851
 4405.00    1.10904   1.32181    7.851
 4406.00    1.15473   1.32795    7.851
 4407.00    1.20678   1.33462    7.851
 4408.00    1.27989   1.34117    7.851
 4409.00    1.37501   1.35215    7.851
 4410.00    1.47137   1.35929    7.851
 4411.00    1.54872   1.36468    7.851
 4412.00    1.59682   1.37239    7.851
 4413.00    1.60917   1.37468    7.851
 4414.00    1.58278   1.38055    7.851
 4415.00    1.52989   1.38450    7.851
 4416.00    1.47674   1.38605    7.851
 4417.00    1.43920   1.39148    7.851
 4418.00    1.41642   1.38888    7.851
 4419.00    1.40486   1.38976    7.851
 4420.00    1.40242   1.39166    7.851
 4421.00    1.40376   1.39004    7.851
 4422.00    1.40100   1.39254    7.851
 4423.00    1.39198   1.38693    7.851
 4424.00    1.37925   1.38627    7.851
 4425.00    1.35843   1.38957    7.851
 4426.00    1.32365   1.38709    7.851
 4427.00    1.29428   1.38888    7.851
 4428.00    1.30526   1.38604    7.851
 4429.00    1.35847   1.38722    7.851
 4430.00    1.42383   1.39338    7.851
 4431.00    1.47905   1.39385    7.851
 4432.00    1.52021   1.39747    7.851
 4433.00    1.56023   1.40043    7.851
 4434.00    1.61382   1.40403    7.851
 4435.00    1.66422   1.40942    7.851
 4436.00    1.67525   1.41305    7.851
 4437.00    1.63532   1.41726    7.851
 4438.00    1.56016   1.42028    7.851
 4439.00    1.47700   1.42373    7.851
 4440.00    1.41453   1.42441    7.851
 4441.00    1.39024   1.42567    7.851
 4442.00    1.40887   1.42600    7.851
 4443.00    1.46459   1.42106    7.851
 4444.00    1.53958   1.41953    7.851
 4445.00    1.60172   1.41476    7.851
 4446.00    1.62217   1.40837    7.851
 4447.00    1.60436   1.40178    7.851
 4448.00    1.57090   1.39061    7.851
 4449.00    1.53551   1.38377    7.851
 4450.00    1.50229   1.37708    7.851
 4451.00    1.47140   1.37008    7.851
 4452.00    1.43875   1.36345    7.851
 4453.00    1.39508   1.35732    7.693
 4454.00    1.33760   1.35498    7.831
 4455.00    1.28445   1.35388    7.851
 4456.00    1.26054   1.35775    7.851
 4457.00    1.27678   1.36017    7.851
 4458.00    1.32409   1.36410    7.670
 4459.00    1.37104   1.37267    7.466
 4460.00    1.38562   1.38032    7.533
 4461.00    1.35990   1.39381    0.000
 4462.00    1.30769   1.40450    0.000
 4463.00    1.25738   1.41354    0.000
 4464.00    1.23240   1.42763    0.000
 4465.00    1.23325   1.44016    0.000
 4466.00    1.25002   1.45476    0.000
 4467.00    1.27506   1.46595    0.000
 4468.00    1.29328   1.47324    0.000
 4469.00    1.27599   1.48380    0.000
 4470.00    1.21339   1.49340    0.000
 4471.00    1.13893   1.50257    0.000
 4472.00    1.09438   1.50779    0.000
 4473.00    1.09997   1.50909    0.000
 4474.00    1.15504   1.51268    0.000
 4475.00    1.24183   1.51542    0.000
 4476.00    1.33785   1.51773    0.000
 4477.00    1.42480   1.51718    0.000
 4478.00    1.48867   1.51462    0.000
 4479.00    1.52037   1.51535    0.000
 4480.00    1.52247   1.51536    0.000
 4481.00    1.51114   1.51387    0.000
 4482.00    1.50236   1.51028    7.851
 4483.00    1.50506   1.50792    7.851
 4484.00    1.53169   1.50893    7.851
 4485.00    1.59971   1.51037    7.851
 4486.00    1.70507   1.51071    7.851
 4487.00    1.81286   1.50826    7.851
 4488.00    1.88493   1.51025    7.851
 4489.00    1.89643   1.51374    7.851
 4490.00    1.84439   1.51882    7.851
 4491.00    1.74814   1.52768    7.390
 4492.00    1.63388   1.53259    5.800
 4493.00    1.52867   1.54128    7.851
 4494.00    1.46598   1.54861   -2.000
 4495.00    1.47941   1.55658    3.171
 4496.00    1.56820   1.57200    1.729
 4497.00    1.69257   1.58068   -2.000
 4498.00    1.81044   1.58938   -2.000
 4499.00    1.89312   1.59708    0.524
 4500.00    1.92831   1.60111    0.282
 4501.00    1.91930   1.61018   -2.000
 4502.00    1.87888   1.61306   -2.000
 4503.00    1.82650   1.61412    0.065
 4504.00    1.78609   1.61681    0.040
 4505.00    1.78100   1.61202   -2.000
 4506.00    1.82107   1.60922   -2.000
 4507.00    1.89926   1.60495    0.008
 4508.00    1.99380   1.59771    0.006
 4509.00    2.07518   1.59597   -2.000
 4510.00    2.12259   1.58529   -2.000
 4511.00    2.12815   1.57334    0.001
 4512.00    2.09531   1.56774    0.001
 4513.00    2.03553   1.55659   -2.000
 4514.00    1.96140   1.55012   -2.000
 4515.00    1.88648   1.53686    0.000
 4516.00    1.82851   1.51934    0.000
 4517.00    1.80065   1.51412   -2.000
 4518.00    1.79200   1.50136   -2.000
 4519.00    1.78264   1.48820    0.000
 4520.00    1.78145   1.47782    0.000
 4521.00    1.80760   1.46203   -2.000
 4522.00    1.84185   1.45702   -2.000
 4523.00    1.84407   1.44934    0.000
 4524.00    1.80152   1.43864    0.000
 4525.00    1.73060   1.44015   -2.000
 4526.00    1.66383   1.43568   -2.000
 4527.00    1.62973   1.43472    0.000
 4528.00    1.62530   1.43718    0.000
 4529.00    1.63187   1.43651   -2.000
 4530.00    1.64513   1.45011   -2.000
 4531.00    1.66364   1.45739    0.000
 4532.00    1.66690   1.45918    0.000
 4533.00    1.63491   1.46719   -2.000
 4534.00    1.57786   1.47073   -2.000
 4535.00    1.52002   1.48221    0.000
 4536.00    1.47460   1.49204    0.000
 4537.00    1.45036   1.48977   -2.000
 4538.00    1.46146   1.49352   -2.000
 4539.00    1.50116   1.49745    0.000
 4540.00    1.51795   1.49949    0.000
 4541.00    1.51167   1.50431   -2.000
 4542.00    1.62303   1.49917   -2.000
 4543.00    1.92507   1.49869    0.000
 4544.00    2.22259   1.50612    0.000
 4545.00    2.30951   1.50487    0.000
 4546.00    2.22202   1.50680    0.000
 4547.00    2.06783   1.50817    0.000
 4548.00    1.85780   1.50882    0.000
 4549.00    1.60323   1.51883    0.000
 4550.00    1.40197   1.52351    0.000
 4551.00    1.33955   1.52631    0.000
 4552.00    1.40727   1.53406    0.000
 4553.00    1.54861   1.53737    0.000
 4554.00    1.70214   1.54461    0.000
 4555.00    1.81498   1.55379    0.000
 4556.00    1.85501   1.55476    0.000
 4557.00    1.84149   1.55986    0.000
 4558.00    1.85008   1.56495    0.000
 4559.00    1.90673   1.56633    0.000
 4560.00    1.93675   1.57354    0.000
 4561.00    1.89080   1.57410    0.000
 4562.00    1.81136   1.57391    0.000
 4563.00    1.74434   1.57946    0.000
 4564.00    1.69625   1.57561    0.000
 4565.00    1.70028   1.57579    0.000
 4566.00    1.82567   1.58047    0.000
 4567.00    2.02815   1.57747    0.000
 4568.00    2.12360   1.57669    0.000
 4569.00    2.04980   1.57283    0.000
 4570.00    1.94762   1.56826    0.000
 4571.00    1.92194   1.56993    0.000
 4572.00    1.94808   1.56557    0.000
 4573.00    1.97066   1.55866    0.000
 4574.00    1.95648   1.55641    0.000
 4575.00    1.92050   1.55487    0.000
 4576.00    1.91048   1.55129    0.000
 4577.00    1.90954   1.54736    0.000
 4578.00    1.83808   1.54468    0.000
 4579.00    1.70181   1.54248    0.000
 4580.00    1.60268   1.54384    0.000
 4581.00    1.58367   1.54374    0.000
 4582.00    1.59836   1.54155    0.000
 4583.00    1.59513   1.54331    0.000
 4584.00    1.55390   1.54258    0.000
 4585.00    1.50821   1.54086    0.000
 4586.00    1.51756   1.54372    0.000
 4587.00    1.57003   1.54375    0.000
 4588.00    1.59592   1.54273    0.000
 4589.00    1.58406   1.54505    0.000
 4590.00    1.59440   1.54266    0.000
 4591.00    1.70355   1.54377    0.000
 4592.00    1.94028   1.54860    0.000
 4593.00    2.17000   1.54647    0.000
 4594.00    2.19732   1.55115    0.000
 4595.00    2.06183   1.55582    0.000
 4596.00    1.96530   1.55720    0.000
 4597.00    1.96417   1.56656    0.000
 4598.00    1.97404   1.56893    0.000
 4599.00    1.92250   1.57439    0.000
 4600.00    1.80765   1.58542    0.000
 4601.00    1.74282   1.58920    0.000
 4602.00    1.84155   1.59944    0.000
 4603.00    1.99858   1.60580    0.000
 4604.00    2.01742   1.60868    0.000
 4605.00    1.89736   1.61939    0.000
 4606.00    1.78237   1.62305    0.000
 4607.00    1.79093   1.62870    0.000
 4608.00    1.92712   1.63599    0.000
 4609.00    1.99959   1.63456    0.000
 4610.00    1.84498   1.64035    0.000
 4611.00    1.65528   1.64384    0.000
 4612.00    1.70123   1.64177    0.000
 4613.00    1.89807   1.64700    0.000
 4614.00    2.01543   1.64673    0.000
 4615.00    2.02341   1.64583    0.000
 4616.00    2.00794   1.64925    0.000
 4617.00    2.01192   1.64559    0.000
 4618.00    2.04597   1.64408    0.000
 4619.00    2.12214   1.64478    0.000
 4620.00    2.23936   1.64097    0.000
 4621.00    2.36437   1.64042    0.000
 4622.00    2.44754   1.63687    0.000
 4623.00    2.44445   1.63063    0.000
 4624.00    2.34842   1.62908    0.000
 4625.00    2.21400   1.62418    0.000
 4626.00    2.08733   1.61888    0.000
 4627.00    1.94603   1.61310    0.000
 4628.00    1.77088   1.60577    0.000
 4629.00    1.60985   1.60379    0.000
 4630.00    1.53585   1.59648    0.000
 4631.00    1.59874   1.58762    0.000
 4632.00    1.75876   1.58424    0.000
 4633.00    1.86016   1.57684    0.000
 4634.00    1.81825   1.57304    0.000
 4635.00    1.73779   1.56854    0.000
 4636.00    1.73070   1.55982    0.000
 4637.00    1.78925   1.55815    0.000
 4638.00    1.85266   1.55417    0.000
 4639.00    1.86446   1.54915    0.000
 4640.00    1.81624   1.54997    0.000
 4641.00    1.76358   1.54610    0.000
 4642.00    1.76406   1.54543    0.000
 4643.00    1.83430   1.54971    0.000
 4644.00    1.92462   1.54608    0.000
 4645.00    1.93146   1.54755    0.000
 4646.00    1.83274   1.55298    0.000
 4647.00    1.73171   1.55347    0.000
 4648.00    1.70778   1.55950    0.000
 4649.00    1.74808   1.56228    0.000
 4650.00    1.79342   1.56374    0.000
 4651.00    1.77882   1.57043    0.000
 4652.00    1.70590   1.56865    0.000
 4653.00    1.64913   1.56783    0.000
 4654.00    1.64559   1.56990    0.000
 4655.00    1.66451   1.56744    0.000
 4656.00    1.67802   1.56620    0.000
 4657.00    1.69010   1.56138    0.000
 4658.00    1.73394   1.55741    0.000
 4659.00    1.85587   1.55477    0.000
 4660.00    2.06496   1.54690    0.000
 4661.00    2.32247   1.54293    0.000
 4662.00    2.56799   1.54035    0.000
 4663.00    2.72848   1.53780    0.000
 4664.00    2.71835   1.53699    0.000
 4665.00    2.48229   1.53280    0.000
 4666.00    2.11804   1.53448    0.000
 4667.00    1.82912   1.53843    0.000
 4668.00    1.69186   1.53789    0.000
 4669.00    1.64101   1.54185    0.000
 4670.00    1.60993   1.54558    0.000
 4671.00    1.56787   1.54728    0.000
 4672.00    1.51486   1.55002    0.000
 4673.00    1.46869   1.55218    0.000
 4674.00    1.43828   1.55625    0.000
 4675.00    1.42757   1.55888    0.000
 4676.00    1.45783   1.56036    0.000
 4677.00    1.54904   1.56221    0.000
 4678.00    1.67169   1.56380    0.000
 4679.00    1.76325   1.56654    0.000
 4680.00    1.78183   1.56645    0.000
 4681.00    1.73410   1.56825    0.000
 4682.00    1.70342   1.57288    0.000
 4683.00    1.77921   1.57282    0.000
 4684.00    1.92637   1.57391    0.000
 4685.00    2.03601   1.57547    0.000
 4686.00    2.04865   1.57544    0.000
 4687.00    1.95777   1.57778    0.000
 4688.00    1.78242   1.57521    0.000
 4689.00    1.56967   1.57197    0.000
 4690.00    1.40140   1.57387    0.000
 4691.00    1.33993   1.57088    0.000
 4692.00    1.35407   1.56618    0.000
 4693.00    1.38382   1.56309    0.000
 4694.00    1.43782   1.56030    0.000
 4695.00    1.55592   1.55904    0.000
 4696.00    1.74396   1.55234    0.000
 4697.00    1.94600   1.54659    0.000
 4698.00    2.03128   1.54829    0.000
 4699.00    1.93102   1.54578    0.000
 4700.00    1.77948   1.54305    0.000
 4701.00    1.72705   1.54476    0.000
 4702.00    1.73482   1.54626    0.000
 4703.00    1.69611   1.55099    0.000
 4704.00    1.58129   1.55266    0.000
 4705.00    1.44295   1.55368    0.000
 4706.00    1.39628   1.56396    0.000
 4707.00    1.50421   1.56983    0.000
 4708.00    1.68669   1.57371    0.000
 4709.00    1.83318   1.58402    0.000
 4710.00    1.90331   1.59062    0.000
 4711.00    1.90361   1.59778    0.000
 4712.00    1.86191   1.60281    0.000
 4713.00    1.82415   1.60501    0.000
 4714.00    1.84598   1.61359    0.000
 4715.00    1.93925   1.61745    0.000
 4716.00    2.04288   1.61722    0.000
 4717.00    2.09017   1.61836    0.000
 4718.00    2.05952   1.61608    0.000
 4719.00    1.99224   1.61599    0.000
 4720.00    1.98343   1.61284    0.000
 4721.00    2.06655   1.60644    0.000
 4722.00    2.16009   1.60658    0.000
 4723.00    2.17257   1.60296    0.000
 4724.00    2.07123   1.59763    0.000
 4725.00    1.91020   1.59745    0.000
 4726.00    1.81445   1.59155    0.000
 4727.00    1.82884   1.58949    0.000
 4728.00    1.87203   1.59399    0.000
 4729.00    1.89435   1.59188    0.000
 4730.00    1.93210   1.59421    0.000
 4731.00    1.99295   1.59831    0.000
 4732.00    2.02110   1.59831    0.000
 4733.00    1.98255   1.60689    0.000
 4734.00    1.89507   1.61025    0.000
 4735.00    1.79372   1.60866    0.000
 4736.00    1.71024   1.61888    0.000
 4737.00    1.65216   1.62501    0.000
 4738.00    1.60614   1.62459    0.000
 4739.00    1.57823   1.62919    0.000
 4740.00    1.59467   1.63242    0.000
 4741.00    1.65430   1.63531    0.000
 4742.00    1.73194   1.63729    0.000
 4743.00    1.84140   1.63433    0.000
 4744.00    2.01489   1.63479    0.000
 4745.00    2.18032   1.63628    0.000
 4746.00    2.19692   1.63099    0.000
 4747.00    2.06210   1.62730    0.000
 4748.00    1.91088   1.62510    0.000
 4749.00    1.84997   1.61925    0.000
 4750.00    1.90550   1.61472    0.000
 4751.00    2.01203   1.60893    0.000
 4752.00    2.05920   1.60092    0.000
 4753.00    2.00797   1.59660    0.000
 4754.00    1.90287   1.59138    0.000
 4755.00    1.83238   1.58484    0.000
 4756.00    1.86687   1.58077    0.000
 4757.00    1.95038   1.57742    0.000
 4758.00    1.96131   1.57492    0.000
 4759.00    1.88015   1.57362    0.000
 4760.00    1.76735   1.57164    0.000
 4761.00    1.65592   1.57164    0.000
 4762.00    1.55988   1.57476    0.000
 4763.00    1.52537   1.57595    0.000
 4764.00    1.58975   1.57937    0.000
 4765.00    1.69902   1.58580    0.000
 4766.00    1.76116   1.58817    0.000
 4767.00    1.75342   1.59307    0.000
 4768.00    1.71068   1.59993    0.000
 4769.00    1.67968   1.60173    0.000
 4770.00    1.68834   1.60325    0.000
 4771.00    1.71416   1.60688    0.000
 4772.00    1.72071   1.61107    0.000
 4773.00    1.71259   1.60995    0.000
 4774.00    1.72646   1.60857    0.000
 4775.00    1.80696   1.61167    0.000
 4776.00    1.96593   1.60874    0.000
 4777.00    2.14020   1.60669    0.000
 4778.00    2.24400   1.60660    0.000
 4779.00    2.23613   1.60368    0.000
 4780.00    2.13556   1.60616    0.000
 4781.00    2.02351   1.60357    0.000
 4782.00    1.96507   1.60215    0.000
 4783.00    1.93423   1.60966    0.000
 4784.00    1.88099   1.60707    0.000
 4785.00    1.80267   1.60778    0.000
 4786.00    1.72992   1.61596    0.000
 4787.00    1.70257   1.61477    0.000
 4788.00    1.72192   1.61808    0.000
 4789.00    1.72294   1.62410    0.000
 4790.00    1.68223   1.62441    0.000
 4791.00    1.69157   1.62787    0.000
 4792.00    1.81018   1.63083    0.000
 4793.00    1.95799   1.63232    0.000
 4794.00    2.02108   1.63312    0.000
 4795.00    1.94430   1.63174    0.000
 4796.00    1.79124   1.63303    0.000
 4797.00    1.74704   1.63253    0.000
 4798.00    1.88167   1.63058    0.000
 4799.00    2.03301   1.63198    0.000
 4800.00    2.06747   1.63187    0.000
 4801.00    2.02581   1.63244    0.000
 4802.00    1.98529   1.63235    0.000
 4803.00    1.97623   1.63039    0.000
 4804.00    2.00183   1.63374    0.000
 4805.00    2.05286   1.63525    0.000
 4806.00    2.11405   1.63461    0.000
 4807.00    2.16321   1.63767    0.000
 4808.00    2.15190   1.64013    0.000
 4809.00    2.02087   1.64230    0.000
 4810.00    1.81452   1.64186    0.000
 4811.00    1.69063   1.64267    0.000
 4812.00    1.72650   1.64611    0.000
 4813.00    1.85774   1.64377    0.000
 4814.00    1.98928   1.64360    0.000
 4815.00    2.05429   1.64385    0.000
 4816.00    2.05210   1.63970    0.000
 4817.00    2.03862   1.64120    0.000
 4818.00    2.03913   1.63690    0.000
 4819.00    2.03352   1.63063    0.000
 4820.00    2.01984   1.63369    0.000
 4821.00    2.01728   1.62778    0.000
 4822.00    2.00163   1.62125    0.000
 4823.00    1.92313   1.62344    0.000
 4824.00    1.82636   1.62030    0.000
 4825.00    1.82546   1.61786    0.000
 4826.00    1.92435   1.61590    0.000
 4827.00    2.01849   1.61052    0.000
 4828.00    2.04819   1.61305    0.000
 4829.00    2.02531   1.61274    0.000
 4830.00    1.98792   1.60503    0.000
 4831.00    1.97445   1.60689    0.000
 4832.00    1.99213   1.60939    0.000
 4833.00    2.02177   1.60493    0.000
 4834.00    2.04672   1.60412    0.000
 4835.00    2.04575   1.60299    0.000
 4836.00    1.96424   1.60120    0.000
 4837.00    1.76337   1.60156    0.000
 4838.00    1.53030   1.59553    0.000
 4839.00    1.41300   1.59321    0.000
 4840.00    1.45059   1.59523    0.000
 4841.00    1.58765   1.58640    0.000
 4842.00    1.76253   1.57937    0.000
 4843.00    1.91326   1.57737    0.000
 4844.00    1.96138   1.56893    0.000
 4845.00    1.86393   1.55960    0.000
 4846.00    1.69899   1.54961    0.000
 4847.00    1.59144   1.53676    0.000
 4848.00    1.57787   1.52551    0.000
 4849.00    1.62662   1.51474    0.000
 4850.00    1.69869   1.50075    0.000
 4851.00    1.76259   1.48802    0.000
 4852.00    1.80168   1.47939    0.000
 4853.00    1.80095   1.46549    0.000
 4854.00    1.73130   1.45454    0.000
 4855.00    1.59103   1.45203    0.000
 4856.00    1.45463   1.44359    0.000
 4857.00    1.40097   1.43925    0.000
 4858.00    1.42553   1.44036    0.000
 4859.00    1.48214   1.43403    0.000
 4860.00    1.54065   1.43902    0.000
 4861.00    1.59011   1.45020    0.000
 4862.00    1.63478   1.44980    0.000
 4863.00    1.68422   1.45673    0.000
 4864.00    1.74298   1.46895    0.000
 4865.00    1.80317   1.47328    0.000
 4866.00    1.84144   1.48062    0.000
 4867.00    1.84916   1.49180    0.000
 4868.00    1.85412   1.49904    0.000
 4869.00    1.87061   1.50435    0.000
 4870.00    1.86281   1.50988    0.000
 4871.00    1.80382   1.51939    0.000
 4872.00    1.71920   1.52715    0.000
 4873.00    1.63987   1.52717    0.000
 4874.00    1.56793   1.53313    0.000
 4875.00    1.50551   1.53961    0.000
 4876.00    1.47469   1.53751    0.000
 4877.00    1.50107   1.54136    0.000
 4878.00    1.59572   1.54612    0.000
 4879.00    1.71766   1.54532    0.000
 4880.00    1.77109   1.54656    0.000
 4881.00    1.73050   1.55067    0.000
 4882.00    1.69093   1.55668    0.000
 4883.00    1.71927   1.55793    0.000
 4884.00    1.78172   1.56175    0.000
 4885.00    1.82209   1.57304    0.000
 4886.00    1.80781   1.57597    0.000
 4887.00    1.73605   1.58334    0.000
 4888.00    1.63349   1.59621    0.000
 4889.00    1.54459   1.59808    0.000
 4890.00    1.52148   1.60841    0.000
 4891.00    1.60478   1.62021    0.000
 4892.00    1.79993   1.62181    0.000
 4893.00    2.01628   1.63151    0.000
 4894.00    2.09476   1.63601    0.000
 4895.00    2.01684   1.63423    0.000
 4896.00    1.92994   1.64191    0.000
 4897.00    1.92307   1.64135    0.000
 4898.00    1.96312   1.63577    0.000
 4899.00    1.98127   1.63881    0.000
 4900.00    1.93108   1.63668    0.000
 4901.00    1.87002   1.63043    0.000
 4902.00    1.92056   1.62651    0.000
 4903.00    2.06542   1.62211    0.000
 4904.00    2.16037   1.61752    0.000
 4905.00    2.16753   1.60942    0.000
 4906.00    2.16211   1.60265    0.000
 4907.00    2.15182   1.59853    0.000
 4908.00    2.07687   1.58882    0.000
 4909.00    1.94805   1.58135    0.000
 4910.00    1.83842   1.57914    0.000
 4911.00    1.76931   1.57214    0.000
 4912.00    1.71080   1.56569    0.000
 4913.00    1.65185   1.56422    0.000
 4914.00    1.60416   1.56082    0.000
 4915.00    1.57244   1.55873    0.000
 4916.00    1.55442   1.55914    0.000
 4917.00    1.55496   1.55868    0.000
 4918.00    1.58050   1.56183    0.000
 4919.00    1.62268   1.56554    0.000
 4920.00    1.66712   1.56872    0.000
 4921.00    1.71549   1.57761    0.000
 4922.00    1.77731   1.58068    0.000
 4923.00    1.84788   1.58077    0.000
 4924.00    1.90438   1.59258    0.000
 4925.00    1.90810   1.59543    0.000
 4926.00    1.84497   1.59272    0.000
 4927.00    1.78481   1.60348    0.000
 4928.00    1.81348   1.60363    0.000
 4929.00    1.92011   1.59996    0.000
 4930.00    2.03664   1.61012    0.000
 4931.00    2.11748   1.60932    0.000
 4932.00    2.14542   1.60698    0.000
 4933.00    2.12388   1.61681    0.000
 4934.00    2.06701   1.61762    0.000
 4935.00    1.98958   1.61982    0.000
 4936.00    1.92183   1.62885    0.000
 4937.00    1.92354   1.62878    0.000
 4938.00    2.01637   1.63313    0.000
 4939.00    2.11453   1.64361    0.000
 4940.00    2.13541   1.64359    0.000
 4941.00    2.11816   1.64370    0.000
 4942.00    2.13253   1.65063    0.000
 4943.00    2.17668   1.65041    0.000
 4944.00    2.20391   1.64608    0.000
 4945.00    2.16287   1.64756    0.000
 4946.00    2.04857   1.64491    0.000
 4947.00    1.93629   1.63812    0.000
 4948.00    1.89533   1.63568    0.000
 4949.00    1.91748   1.62861    0.000
 4950.00    1.96253   1.62175    0.000
 4951.00    1.99955   1.61987    0.000
 4952.00    2.00403   1.60911    0.000
 4953.00    1.95911   1.60347    0.000
 4954.00    1.89822   1.60532    0.000
 4955.00    1.91720   1.59602    0.000
 4956.00    2.04161   1.59140    0.000
 4957.00    2.15790   1.59398    0.000
 4958.00    2.16972   1.59181    0.000
 4959.00    2.09329   1.59021    0.000
 4960.00    1.99513   1.58830    0.000
 4961.00    1.93944   1.58948    0.000
 4962.00    1.92699   1.59066    0.000
 4963.00    1.88223   1.58676    0.000
 4964.00    1.77064   1.58813    0.000
 4965.00    1.64815   1.58822    0.000
 4966.00    1.57808   1.58444    0.000
 4967.00    1.58448   1.58452    0.000
 4968.00    1.64521   1.58081    0.000
 4969.00    1.70596   1.57690    0.000
 4970.00    1.75401   1.57438    0.000
 4971.00    1.82910   1.56698    0.000
 4972.00    1.92281   1.56311    0.000
 4973.00    1.96140   1.55884    0.000
 4974.00    1.91703   1.54949    0.000
 4975.00    1.83585   1.54596    0.000
 4976.00    1.76562   1.54347    0.000
 4977.00    1.72676   1.53454    0.000
 4978.00    1.71393   1.53189    0.000
 4979.00    1.70984   1.53437    0.000
 4980.00    1.72774   1.52784    0.000
 4981.00    1.80391   1.52655    0.000
 4982.00    1.92697   1.53298    0.000
 4983.00    2.02972   1.52889    0.000
 4984.00    2.03629   1.53011    0.000
 4985.00    1.90255   1.53610    0.000
 4986.00    1.68573   1.53090    0.000
 4987.00    1.51491   1.53463    0.000
 4988.00    1.45854   1.53722    0.000
 4989.00    1.50603   1.52874    0.000
 4990.00    1.61628   1.53334    0.000
 4991.00    1.73968   1.53201    0.000
 4992.00    1.83891   1.52119    0.000
 4993.00    1.88840   1.52398    0.000
 4994.00    1.86213   1.51895    0.000
 4995.00    1.75423   1.50779    0.000
 4996.00    1.62733   1.50830    0.000
 4997.00    1.57608   1.50186    0.000
 4998.00    1.63276   1.49161    0.000
 4999.00    1.75591   1.49065    0.000
 5000.00    1.84893   1.48537    0.000
 5001.00    1.82832   1.47603    0.000
 5002.00    1.73603   1.47446    0.000
 5003.00    1.67829   1.47204    0.000
 5004.00    1.68738   1.46457    0.000
 5005.00    1.72620   1.46304    0.000
 5006.00    1.73599   1.46267    0.000
 5007.00    1.67606   1.45836    0.000
 5008.00    1.57070   1.45847    0.000
 5009.00    1.48731   1.45861    0.000
 5010.00    1.49171   1.45791    0.000
 5011.00    1.59606   1.46125    0.000
 5012.00    1.70344   1.46349    0.000
 5013.00    1.70948   1.46575    0.000
 5014.00    1.63789   1.47048    0.000
 5015.00    1.57209   1.47679    0.000
 5016.00    1.55096   1.48131    0.000
 5017.00    1.56516   1.48419    0.000
 5018.00    1.57195   1.49384    0.000
 5019.00    1.55660   1.49946    0.000
 5020.00    1.58684   1.50043    0.000
 5021.00    1.68987   1.51093    0.000
 5022.00    1.73676   1.51359    0.000
 5023.00    1.63285   1.51331    0.000
 5024.00    1.49751   1.52229    0.000
 5025.00    1.48572   1.52046    0.000
 5026.00    1.61397   1.51968    0.000
 5027.00    1.82114   1.52385    0.000
 5028.00    2.03621   1.51859    0.000
 5029.00    2.18933   1.51966    0.000
 5030.00    2.22229   1.51767    0.000
 5031.00    2.13327   1.51019    0.000
 5032.00    1.99996   1.51484    0.000
 5033.00    1.89183   1.51031    0.000
 5034.00    1.81215   1.50465    0.000
 5035.00    1.76191   1.51199    0.000
 5036.00    1.77591   1.50719    0.000
 5037.00    1.84559   1.50684    0.000
 5038.00    1.88432   1.51741    0.000
 5039.00    1.84355   1.51539    0.000
 5040.00    1.77084   1.51866    0.000
 5041.00    1.71080   1.52988    0.000
 5042.00    1.65283   1.53245    0.000
 5043.00    1.58123   1.53674    0.000
 5044.00    1.50331   1.54527    0.000
 5045.00    1.44035   1.55122    0.000
 5046.00    1.41766   1.55643    0.000
 5047.00    1.44304   1.56240    0.000
 5048.00    1.50107   1.56833    0.000
 5049.00    1.57656   1.57318    0.000
 5050.00    1.66148   1.57752    0.000
 5051.00    1.73577   1.58006    0.000
 5052.00    1.76812   1.58258    0.000
 5053.00    1.75475   1.58505    0.000
 5054.00    1.72783   1.58298    0.000
 5055.00    1.72333   1.58296    0.000
 5056.00    1.76107   1.58273    0.000
 5057.00    1.82112   1.57643    0.000
 5058.00    1.85425   1.57494    0.000
 5059.00    1.84725   1.57178    0.000
 5060.00    1.83062   1.56175    0.000
 5061.00    1.82681   1.55930    0.000
 5062.00    1.83271   1.55646    0.000
 5063.00    1.82141   1.54596    0.000
 5064.00    1.76195   1.54068    0.000
 5065.00    1.67322   1.53860    0.000
 5066.00    1.61820   1.53129    0.000
 5067.00    1.64385   1.52401    0.000
 5068.00    1.75892   1.52052    0.000
 5069.00    1.92265   1.51730    0.000
 5070.00    2.06191   1.51248    0.000
 5071.00    2.11996   1.50703    0.000
 5072.00    2.07039   1.50576    0.000
 5073.00    1.92040   1.50653    0.000
 5074.00    1.71370   1.50169    0.000
 5075.00    1.53400   1.50012    0.000
 5076.00    1.46938   1.50553    0.000
 5077.00    1.53834   1.50600    0.000
 5078.00    1.68864   1.50582    0.000
 5079.00    1.82693   1.51175    0.000
 5080.00    1.86239   1.51588    0.000
 5081.00    1.77455   1.51837    0.000
 5082.00    1.60833   1.52285    0.000
 5083.00    1.44155   1.52685    0.000
 5084.00    1.34838   1.53019    0.000
 5085.00    1.34985   1.53248    0.000
 5086.00    1.42575   1.53461    0.000
 5087.00    1.54600   1.53611    0.000
 5088.00    1.67735   1.53525    0.000
 5089.00    1.78613   1.53596    0.000
 5090.00    1.84451   1.53452    0.000
 5091.00    1.83901   1.52972    0.000
 5092.00    1.77867   1.53014    0.000
 5093.00    1.70313   1.52707    0.000
 5094.00    1.66653   1.52023    0.000
 5095.00    1.71326   1.52170    0.000
 5096.00    1.83822   1.51830    0.000
 5097.00    1.95111   1.51333    0.000
 5098.00    1.97386   1.51639    0.000
 5099.00    1.94610   1.51113    0.000
 5100.00    1.93613   1.50967    0.000
 5101.00    1.93919   1.51589    0.000
 5102.00    1.91973   1.50928    0.000
 5103.00    1.86508   1.51115    0.000
 5104.00    1.79984   1.51956    0.000
 5105.00    1.78621   1.51263    0.000
 5106.00    1.84013   1.51631    0.000
 5107.00    1.86972   1.52396    0.000
 5108.00    1.79697   1.51751    0.000
 5109.00    1.65755   1.52069    0.000
 5110.00    1.53686   1.52440    0.000
 5111.00    1.50627   1.51850    0.000
 5112.00    1.57367   1.51923    0.000
 5113.00    1.66264   1.51794    0.000
 5114.00    1.71081   1.51286    0.000
 5115.00    1.73309   1.51044    0.000
 5116.00    1.76199   1.50461    0.000
 5117.00    1.80671   1.50124    0.000
 5118.00    1.86937   1.49790    0.000
 5119.00    1.95250   1.48964    0.000
 5120.00    2.03275   1.48811    0.000
 5121.00    2.05702   1.48701    0.000
 5122.00    2.01205   1.47855    0.000
 5123.00    1.94882   1.47818    0.000
 5124.00    1.89713   1.48105    0.000
 5125.00    1.83023   1.47260    0.000
 5126.00    1.72548   1.47235    0.000
 5127.00    1.59863   1.47999    0.000
 5128.00    1.51301   1.47023    0.000
 5129.00    1.55693   1.46864    0.000
 5130.00    1.72753   1.47990    0.000
 5131.00    1.90596   1.46735    0.000
 5132.00    1.97695   1.46460    0.000
 5133.00    1.88997   1.47803    0.000
 5134.00    1.68989   1.46272    0.000
 5135.00    1.49531   1.45942    0.000
 5136.00    1.37519   1.47346    0.000
 5137.00    1.32228   1.45823    0.000
 5138.00    1.32860   1.45566    0.000
 5139.00    1.39875   1.46765    0.000
 5140.00    1.50059   1.45513    0.000
 5141.00    1.56909   1.45565    0.000
 5142.00    1.57160   1.46443    0.000
 5143.00    1.52194   1.45515    0.000
 5144.00    1.45785   1.45875    0.000
 5145.00    1.42490   1.46396    0.000
 5146.00    1.45198   1.45763    0.000
 5147.00    1.53966   1.46248    0.000
 5148.00    1.64970   1.46279    0.000
 5149.00    1.72975   1.45768    0.000
 5150.00    1.78023   1.46091    0.000
 5151.00    1.83778   1.45417    0.000
 5152.00    1.89655   1.44706    0.000
 5153.00    1.91992   1.44608    0.000
 5154.00    1.90812   1.43195    0.000
 5155.00    1.88663   1.42035    0.000
 5156.00    1.85016   1.41410    0.000
 5157.00    1.77794   1.39552    0.000
 5158.00    1.68696   1.37971    0.000
 5159.00    1.61882   1.36926    0.000
 5160.00    1.59438   1.35141    0.000
 5161.00    1.60140   1.33560    0.000
 5162.00    1.59040   1.32627    0.000
 5163.00    1.51694   1.31464    0.000
 5164.00    1.41154   1.30185    0.000
 5165.00    1.34327   1.29545    0.000
 5166.00    1.34334   1.29279    0.000
 5167.00    1.39318   1.28825    0.000
 5168.00    1.42797   1.28691    0.000
 5169.00    1.38836   1.28899    0.000
 5170.00    1.29097   1.29145    0.000
 5171.00    1.20104   1.29541    0.000
 5172.00    1.18019   1.29819    0.000
 5173.00    1.24901   1.30507    0.000
 5174.00    1.35268   1.31326    0.000
 5175.00    1.42290   1.31441    0.000
 5176.00    1.45474   1.32402    0.000
 5177.00    1.47730   1.33471    0.000
 5178.00    1.50917   1.33422    0.000
 5179.00    1.54514   1.34696    0.000
 5180.00    1.55018   1.35867    0.000
 5181.00    1.49547   1.35582    0.000
 5182.00    1.39397   1.37128    0.000
 5183.00    1.28245   1.38466    0.000
 5184.00    1.20009   1.38022    0.000
 5185.00    1.17936   1.39572    0.000
 5186.00    1.23703   1.40987    0.000
 5187.00    1.35177   1.40474    0.000
 5188.00    1.45450   1.41712    0.000
 5189.00    1.50506   1.43045    0.000
 5190.00    1.54530   1.42513    0.000
 5191.00    1.61558   1.43139    0.000
 5192.00    1.69433   1.44263    0.000
 5193.00    1.75121   1.43832    0.000
 5194.00    1.78483   1.43743    0.000
 5195.00    1.79231   1.44596    0.000
 5196.00    1.75238   1.44442    0.000
 5197.00    1.66294   1.43857    0.000
 5198.00    1.56117   1.44508    0.000
 5199.00    1.49098   1.44744    0.000
 5200.00    1.48053   1.44052    0.000
 5201.00    1.53420   1.44650    0.000
 5202.00    1.63025   1.45306    0.000
 5203.00    1.73054   1.44844    0.000
 5204.00    1.79203   1.45507    0.000
 5205.00    1.79676   1.46503    0.000
 5206.00    1.76199   1.46380    0.000
 5207.00    1.71351   1.47052    0.000
 5208.00    1.67139   1.48180    0.000
 5209.00    1.64669   1.48261    0.000
 5210.00    1.63611   1.48736    0.000
 5211.00    1.60521   1.49798    0.000
 5212.00    1.50723   1.49863    0.000
 5213.00    1.38649   1.49941    0.000
 5214.00    1.37676   1.50879    0.000
 5215.00    1.53160   1.50805    0.000
 5216.00    1.77780   1.50429    0.000
 5217.00    1.99255   1.51333    0.000
 5218.00    2.06053   1.51197    0.000
 5219.00    1.96412   1.50516    0.000
 5220.00    1.78683   1.51554    0.000
 5221.00    1.62335   1.51554    0.000
 5222.00    1.53763   1.50827    0.000
 5223.00    1.52984   1.52081    0.000
 5224.00    1.55204   1.52365    0.000
 5225.00    1.58051   1.51838    0.000
 5226.00    1.62516   1.53211    0.000
 5227.00    1.69655   1.53750    0.000
 5228.00    1.79655   1.53535    0.000
 5229.00    1.91869   1.54782    0.000
 5230.00    2.04292   1.55378    0.000
 5231.00    2.12359   1.55447    0.000
 5232.00    2.11374   1.56318    0.000
 5233.00    2.02501   1.56701    0.000
 5234.00    1.91245   1.56937    0.000
 5235.00    1.81225   1.57306    0.000
 5236.00    1.74177   1.57277    0.000
 5237.00    1.72675   1.57571    0.000
 5238.00    1.78275   1.57495    0.000
 5239.00    1.87047   1.57031    0.000
 5240.00    1.92390   1.57310    0.000
 5241.00    1.91626   1.56965    0.000
 5242.00    1.85762   1.56209    0.000
 5243.00    1.76994   1.56418    0.000
 5244.00    1.68214   1.55970    0.000
 5245.00    1.62850   1.55106    0.000
 5246.00    1.63292   1.55149    0.000
 5247.00    1.68602   1.54652    0.000
 5248.00    1.75419   1.53785    0.000
 5249.00    1.79924   1.53491    0.000
 5250.00    1.80473   1.52898    0.000
 5251.00    1.80503   1.52056    0.000
 5252.00    1.84054   1.51260    0.000
 5253.00    1.89644   1.50542    0.000
 5254.00    1.92687   1.49805    0.000
 5255.00    1.89597   1.48489    0.000
 5256.00    1.80730   1.47729    0.000
 5257.00    1.72672   1.47346    0.000
 5258.00    1.71109   1.45740    0.000
 5259.00    1.73406   1.45132    0.000
 5260.00    1.76077   1.45454    0.000
 5261.00    1.82590   1.43982    0.000
 5262.00    1.95350   1.43707    0.000
 5263.00    2.07773   1.44952    0.000
 5264.00    2.11118   1.44029    0.000
 5265.00    2.01746   1.44162    0.000
 5266.00    1.83305   1.46224    0.000
 5267.00    1.66804   1.46034    0.000
 5268.00    1.59065   1.46526    0.000
 5269.00    1.54645   1.49000    0.000
 5270.00    1.48705   1.49433    0.000
 5271.00    1.46284   1.50160    0.000
 5272.00    1.51878   1.52561    0.000
 5273.00    1.62040   1.53318    0.000
 5274.00    1.71667   1.54155    0.000
 5275.00    1.78627   1.56140    0.000
 5276.00    1.82769   1.56897    0.000
 5277.00    1.84751   1.57711    0.000
 5278.00    1.84088   1.59134    0.000
 5279.00    1.78948   1.59681    0.000
 5280.00    1.72091   1.60334    0.000
 5281.00    1.71948   1.61189    0.000
 5282.00    1.78900   1.61444    0.000
 5283.00    1.81606   1.61823    0.000
 5284.00    1.78621   1.62164    0.000
 5285.00    1.84636   1.62181    0.000
 5286.00    2.03584   1.62278    0.000
 5287.00    2.19892   1.62224    0.000
 5288.00    2.21968   1.62169    0.000
 5289.00    2.11721   1.62124    0.000
 5290.00    1.95928   1.61855    0.000
 5291.00    1.81262   1.61929    0.000
 5292.00    1.70772   1.61971    0.000
 5293.00    1.63602   1.61682    0.000
 5294.00    1.59508   1.62013    0.000
 5295.00    1.59808   1.62308    0.000
 5296.00    1.64133   1.62117    0.000
 5297.00    1.69680   1.62673    0.000
 5298.00    1.72989   1.63217    0.000
 5299.00    1.71608   1.63089    0.000
 5300.00    1.67251   1.63688    0.000
 5301.00    1.64994   1.64311    0.000
 5302.00    1.67552   1.64109    0.000
 5303.00    1.73621   1.64523    0.000
 5304.00    1.78528   1.64991    0.000
 5305.00    1.77824   1.64569    0.000
 5306.00    1.76289   1.64637    0.000
 5307.00    1.84095   1.64769    0.000
 5308.00    2.00514   1.64054    0.000
 5309.00    2.15092   1.63755    0.000
 5310.00    2.21231   1.63467    0.000
 5311.00    2.18755   1.62494    0.000
 5312.00    2.11667   1.61956    0.000
 5313.00    2.05801   1.61289    0.000
 5314.00    2.04940   1.60165    0.000
 5315.00    2.09651   1.59623    0.000
 5316.00    2.16787   1.58750    0.000
 5317.00    2.21023   1.57624    0.000
 5318.00    2.18101   1.57339    0.000
 5319.00    2.07724   1.56528    0.000
 5320.00    1.97334   1.55553    0.000
 5321.00    1.95280   1.55704    0.000
 5322.00    1.98104   1.55200    0.000
 5323.00    1.96374   1.54490    0.000
 5324.00    1.87891   1.55091    0.000
 5325.00    1.77231   1.55000    0.000
 5326.00    1.71353   1.54564    0.000
 5327.00    1.74693   1.55491    0.000
 5328.00    1.83297   1.55738    0.000
 5329.00    1.89892   1.55481    0.000
 5330.00    1.92077   1.56554    0.000
 5331.00    1.91765   1.56992    0.000
 5332.00    1.92715   1.56780    0.000
 5333.00    1.96682   1.57872    0.000
 5334.00    1.99435   1.58411    0.000
 5335.00    1.96363   1.58170    0.000
 5336.00    1.89403   1.59235    0.000
 5337.00    1.83931   1.59884    0.000
 5338.00    1.84180   1.59639    0.000
 5339.00    1.90287   1.60674    0.000
 5340.00    1.96280   1.61480    0.000
 5341.00    1.96863   1.61297    0.000
 5342.00    1.93967   1.62265    0.000
 5343.00    1.92356   1.63212    0.000
 5344.00    1.94820   1.63119    0.000
 5345.00    2.01403   1.63913    0.000
 5346.00    2.09357   1.64881    0.000
 5347.00    2.15512   1.64810    0.000
 5348.00    2.18417   1.65273    0.000
 5349.00    2.19254   1.66079    0.000
 5350.00    2.21729   1.65896    0.000
 5351.00    2.26496   1.65914    0.000
 5352.00    2.27821   1.66416    0.000
 5353.00    2.20289   1.66010    0.000
 5354.00    2.03955   1.65577    0.000
 5355.00    1.85256   1.65781    0.000
 5356.00    1.75563   1.65158    0.000
 5357.00    1.79250   1.64401    0.000
 5358.00    1.88142   1.64471    0.000
 5359.00    1.94377   1.63779    0.000
 5360.00    1.97416   1.62907    0.000
 5361.00    1.98095   1.63077    0.000
 5362.00    1.95882   1.62539    0.000
 5363.00    1.93705   1.61742    0.000
 5364.00    1.98306   1.62177    0.000
 5365.00    2.08603   1.61959    0.000
 5366.00    2.12908   1.61323    0.000
 5367.00    2.04362   1.62021    0.000
 5368.00    1.87072   1.62145    0.000
 5369.00    1.69381   1.61623    0.000
 5370.00    1.59550   1.62423    0.000
 5371.00    1.61336   1.62764    0.000
 5372.00    1.72523   1.62224    0.000
 5373.00    1.86594   1.62881    0.000
 5374.00    1.95509   1.63263    0.000
 5375.00    1.97182   1.62595    0.000
 5376.00    1.96260   1.62897    0.000
 5377.00    1.96666   1.63167    0.000
 5378.00    1.99074   1.62364    0.000
 5379.00    2.01814   1.62200    0.000
 5380.00    2.02050   1.62264    0.000
 5381.00    1.98381   1.61438    0.000
 5382.00    1.91708   1.60836    0.000
 5383.00    1.85236   1.60635    0.000
 5384.00    1.83306   1.59957    0.000
 5385.00    1.88218   1.59075    0.000
 5386.00    1.99246   1.58574   -2.000
 5387.00    2.12582   1.58185   -2.000
 5388.00    2.23596   1.57275   -2.000
 5389.00    2.32342   1.56475   -2.000
 5390.00    2.41258   1.56407   -2.000
 5391.00    2.46601   1.55728   -2.000
 5392.00    2.41607   1.54722   -2.000
 5393.00    2.27953   1.54903   -2.000
 5394.00    2.13107   1.54635   -2.000
 5395.00    1.99383   1.53613   -2.000
 5396.00    1.86113   1.53943   -2.000
 5397.00    1.78455   1.54140   -2.000
 5398.00    1.82509   1.53332   -2.000
 5399.00    1.93106   1.53753   -2.000
 5400.00    1.99134   1.54358   -2.000
 5401.00    1.97029   1.53946    0.000
 5402.00    1.90336   1.54449    0.000
 5403.00    1.84723   1.55316    0.000
 5404.00    1.84575   1.55341    0.000
 5405.00    1.89083   1.55908    0.000
 5406.00    1.94235   1.56824    0.000
 5407.00    1.96812   1.57169    0.000
 5408.00    1.96206   1.57738    0.000
 5409.00    1.95832   1.58474    0.000
 5410.00    1.98350   1.58939    0.000
 5411.00    1.99387   1.59421    0.000
 5412.00    1.93368   1.59785    0.000
 5413.00    1.81720   1.60155    0.000
 5414.00    1.69651   1.60512    0.000
 5415.00    1.61073   1.60436    0.000
 5416.00    1.58765   1.60599    0.000
 5417.00    1.65001   1.60858    0.000
 5418.00    1.78896   1.60393    0.000
 5419.00    1.94022   1.60368    0.000
 5420.00    2.04524   1.60650    0.000
 5421.00    2.11146   1.59946    0.000
 5422.00    2.16419   1.59813    0.000
 5423.00    2.19584   1.60264    0.000
 5424.00    2.17916   1.59551    0.000
 5425.00    2.08805   1.59397    0.000
 5426.00    1.94139   1.60062    0.000
 5427.00    1.82762   1.59538    0.000
 5428.00    1.80343   1.59416    0.000
 5429.00    1.82139   1.60196    0.000
 5430.00    1.82908   1.59961    0.000
 5431.00    1.84167   1.59858    0.000
 5432.00    1.87847   1.60520    0.000
 5433.00    1.91697   1.60517    0.000
 5434.00    1.92245   1.60422    0.000
 5435.00    1.87370   1.60756    0.000
 5436.00    1.78296   1.60812    0.000
 5437.00    1.70090   1.60687    0.000
 5438.00    1.67186   1.60623    0.000
 5439.00    1.70542   1.60629    0.000
 5440.00    1.77569   1.60531    0.000
 5441.00    1.83391   1.60119    0.000
 5442.00    1.87424   1.59989    0.000
 5443.00    1.95050   1.60003    0.000
 5444.00    2.07480   1.59467    0.000
 5445.00    2.18096   1.59220    0.000
 5446.00    2.20812   1.59378    0.000
 5447.00    2.14275   1.58909    0.000
 5448.00    2.01467   1.58594    0.000
 5449.00    1.88508   1.58858    0.000
 5450.00    1.80672   1.58592    0.000
 5451.00    1.80463   1.58287    0.000
 5452.00    1.86997   1.58520    0.000
 5453.00    1.96508   1.58473    0.000
 5454.00    2.05088   1.58265    0.000
 5455.00    2.10264   1.58286    0.000
 5456.00    2.12652   1.58376    0.000
 5457.00    2.15034   1.58367    0.000
 5458.00    2.17296   1.58045    0.000
 5459.00    2.16376   1.58030    0.000
 5460.00    2.11818   1.58263    0.000
 5461.00    2.06771   1.57722    0.000
 5462.00    2.05324   1.57409    0.000
 5463.00    2.10027   1.57806    0.000
 5464.00    2.17423   1.57308    0.000
 5465.00    2.19888   1.56658    0.000
 5466.00    2.14058   1.57040    0.000
 5467.00    2.02266   1.56874    0.000
 5468.00    1.90096   1.56053    0.000
 5469.00    1.83649   1.56225    0.000
 5470.00    1.84704   1.56558    0.000
 5471.00    1.90492   1.55920    0.000
 5472.00    1.96047   1.55784    0.000
 5473.00    1.97587   1.56473    0.000
 5474.00    1.98331   1.56336    0.000
 5475.00    2.04194   1.55991    0.000
 5476.00    2.12687   1.56666    0.000
 5477.00    2.15387   1.57117    0.000
 5478.00    2.07158   1.56820    0.000
 5479.00    1.89282   1.57137    0.000
 5480.00    1.71481   1.57958    0.000
 5481.00    1.65073   1.57938    0.000
 5482.00    1.70892   1.57737    0.000
 5483.00    1.82229   1.58587    0.000
 5484.00    1.93064   1.58979    0.000
 5485.00    2.00174   1.58311    0.000
 5486.00    2.04167   1.58803    0.000
 5487.00    2.07187   1.59571    0.000
 5488.00    2.09412   1.58742    0.000
 5489.00    2.09548   1.58683    0.000
 5490.00    2.06290   1.59588    0.000
 5491.00    1.99693   1.58872    0.000
 5492.00    1.92553   1.58323    0.000
 5493.00    1.88403   1.59139    0.000
 5494.00    1.88797   1.58703    0.000
 5495.00    1.92523   1.57873    0.000
 5496.00    1.95409   1.58453    0.000
 5497.00    1.94615   1.58361   -2.000
 5498.00    1.92970   1.57478   -2.000
 5499.00    1.94484   1.57802   -2.000
 5500.00    1.99657   1.58041   -2.000
 5501.00    2.10222   1.57287   -2.000
 5502.00    2.33098   1.57426   -2.000
 5503.00    2.68789   1.57931   -2.000
 5504.00    3.03073   1.57426   -2.000
 5505.00    3.33572   1.57497   -2.000
 5506.00    3.87345   1.58143   -2.000
 5507.00    4.64211   1.57866   -2.000
 5508.00    4.99239   1.57979   -2.000
 5509.00    4.52902   1.58678   -2.000
 5510.00    3.73680   1.58514   -2.000
 5511.00    3.14116   1.58634   -2.000
 5512.00    2.71045   1.59316   -2.000
 5513.00    2.31416   1.59243   -2.000
 5514.00    2.04051   1.59277   -2.000
 5515.00    1.96753   1.59809   -2.000
 5516.00    2.01751   1.59760   -2.000
 5517.00    2.08730   1.59649   -2.000
 5518.00    2.13167   1.60069   -2.000
 5519.00    2.13567   1.60097   -2.000
 5520.00    2.09770   1.59809    0.000
 5521.00    2.04198   1.60151    0.000
 5522.00    2.01416   1.60330    0.000
 5523.00    2.02041   1.59946    0.000
 5524.00    2.00923   1.60234    0.000
 5525.00    1.94378   1.60589    0.000
 5526.00    1.83420   1.60243    0.000
 5527.00    1.71418   1.60491    0.000
 5528.00    1.62638   1.61016    0.000
 5529.00    1.61068   1.60842    0.000
 5530.00    1.69157   1.61031    0.000
 5531.00    1.84836   1.61606    0.000
 5532.00    2.01702   1.61638    0.000
 5533.00    2.14637   1.61791    0.000
 5534.00    2.21974   1.62318    0.000
 5535.00    2.24960   1.62496    0.000
 5536.00    2.26341   1.62606    0.000
 5537.00    2.26327   1.62983    0.000
 5538.00    2.22709   1.63145    0.000
 5539.00    2.15912   1.63228    0.000
 5540.00    2.09360   1.63513    0.000
 5541.00    2.05279   1.63560    0.000
 5542.00    2.03759   1.63561    0.000
 5543.00    2.04037   1.63778    0.000
 5544.00    2.05411   1.63664    0.000
 5545.00    2.08602   1.63505    0.000
 5546.00    2.14195   1.63674    0.000
 5547.00    2.17751   1.63451    0.000
 5548.00    2.12906   1.63042    0.000
 5549.00    2.01972   1.63142    0.000
 5550.00    1.93881   1.62985    0.000
 5551.00    1.93256   1.62341    0.000
 5552.00    1.98754   1.62267    0.000
 5553.00    2.05349   1.62326    0.000
 5554.00    2.07868   1.61534    0.000
 5555.00    2.06995   1.61182    0.000
 5556.00    2.06857   1.61567    0.000
 5557.00    2.07911   1.60798    0.000
 5558.00    2.07997   1.60100    0.000
 5559.00    2.06816   1.60812    0.000
 5560.00    2.04920   1.60312    0.000
 5561.00    2.00577   1.59300    0.000
 5562.00    1.92258   1.60180    0.000
 5563.00    1.83479   1.60067    0.000
 5564.00    1.80044   1.58828    0.000
 5565.00    1.84449   1.59645    0.000
 5566.00    1.94770   1.59983    0.000
 5567.00    2.04593   1.58634    0.000
 5568.00    2.07914   1.59072    0.000
 5569.00    2.05749   1.59800    0.000
 5570.00    2.02899   1.58561    0.000
 5571.00    2.02448   1.58379    0.000
 5572.00    2.05001   1.59201    0.000
 5573.00    2.08750   1.58208    0.000
 5574.00    2.11182   1.57495    0.000
 5575.00    2.11083   1.58221    0.000
 5576.00    2.08569   1.57516    0.000
 5577.00    2.04854   1.56499    0.000
 5578.00    2.02066   1.56981    0.000
 5579.00    2.02840   1.56473    0.000
 5580.00    2.07582   1.55469    0.000
 5581.00    2.12192   1.55864    0.000
 5582.00    2.12402   1.55539    0.000
 5583.00    2.08013   1.54636    0.000
 5584.00    2.02172   1.55004    0.000
 5585.00    1.99782   1.54989    0.000
 5586.00    2.02090   1.54333    0.000
 5587.00    2.03104   1.54643    0.000
 5588.00    1.97312   1.54952    0.000
 5589.00    1.85803   1.54680    0.000
 5590.00    1.73684   1.54940    0.000
 5591.00    1.67218   1.55511    0.000
 5592.00    1.69689   1.55580    0.000
 5593.00    1.78997   1.55780    0.000
 5594.00    1.90856   1.56519    0.000
 5595.00    2.01268   1.56865    0.000
 5596.00    2.07683   1.56981    0.000
 5597.00    2.09590   1.57622    0.000
 5598.00    2.08020   1.58149    0.000
 5599.00    2.04943   1.58254    0.000
 5600.00    2.01668   1.58507    0.000
 5601.00    1.98365   1.59052    0.000
 5602.00    1.96362   1.59316    0.000
 5603.00    1.98571   1.59093    0.000
 5604.00    2.05235   1.59349    0.000
 5605.00    2.12666   1.59832    0.000
 5606.00    2.17800   1.59416    0.000
 5607.00    2.20203   1.59271    0.000
 5608.00    2.20918   1.59770    0.000
 5609.00    2.21269   1.59339    0.000
 5610.00    2.20300   1.58914    0.000
 5611.00    2.15235   1.59405    0.000
 5612.00    2.07639   1.59091    0.000
 5613.00    2.04217   1.58461    0.000
 5614.00    2.10299   1.59002    0.000
 5615.00    2.26126   1.59020    0.000
 5616.00    2.43045   1.58311    0.000
 5617.00    2.47553   1.58798    0.000
 5618.00    2.38968   1.59148    0.000
 5619.00    2.29628   1.58497    0.000
 5620.00    2.26303   1.58820    0.000
 5621.00    2.26193   1.59386    0.000
 5622.00    2.23452   1.58910    0.000
 5623.00    2.13478   1.59030    0.000
 5624.00    1.98948   1.59642    0.000
 5625.00    1.87756   1.59242    0.000
 5626.00    1.83111   1.59092    0.000
 5627.00    1.83510   1.59762    0.000
 5628.00    1.89463   1.59539    0.000
 5629.00    2.02331   1.59065    0.000
 5630.00    2.17568   1.59596    0.000
 5631.00    2.27059   1.59676    0.000
 5632.00    2.27902   1.59138    0.000
 5633.00    2.22648   1.59361    0.000
 5634.00    2.15452   1.59586    0.000
 5635.00    2.10447   1.59199    0.000
 5636.00    2.10177   1.59141    0.000
 5637.00    2.14700   1.59385    0.000
 5638.00    2.20609   1.59247    0.000
 5639.00    2.23123   1.58954    0.000
 5640.00    2.20106   1.59069    0.000
 5641.00    2.12434   1.59254    0.000
 5642.00    2.03276   1.58837    0.000
 5643.00    1.95964   1.58497    0.000
 5644.00    1.90882   1.58883    0.000
 5645.00    1.86653   1.58742    0.000
 5646.00    1.82668   1.57864    0.000
 5647.00    1.79182   1.57964    0.000
 5648.00    1.76885   1.58397    0.000
 5649.00    1.76592   1.57578    0.000
 5650.00    1.78859   1.57103    0.000
 5651.00    1.83471   1.57735    0.000
 5652.00    1.88865   1.57384    0.000
 5653.00    1.92505   1.56665    0.000
 5654.00    1.91571   1.57319    0.000
 5655.00    1.85058   1.57461    0.000
 5656.00    1.75896   1.56684    0.000
 5657.00    1.68726   1.57231    0.000
 5658.00    1.67148   1.57951    0.000
 5659.00    1.72358   1.57395    0.000
 5660.00    1.82251   1.57620    0.000
 5661.00    1.93553   1.58703    0.000
 5662.00    2.03710   1.58679    0.000
 5663.00    2.08326   1.58505    0.000
 5664.00    1.99831   1.59402    0.000
 5665.00    1.78083   1.59947    0.000
 5666.00    1.57875   1.59722    0.000
 5667.00    1.53443   1.60066    0.000
 5668.00    1.65827   1.60719    0.000
 5669.00    1.87441   1.60685    0.000
 5670.00    2.07317   1.60583    0.000
 5671.00    2.18461   1.61005    0.000
 5672.00    2.22098   1.61112    0.000
 5673.00    2.21168   1.60842    0.000
 5674.00    2.16037   1.61025    0.000
 5675.00    2.07423   1.61165    0.000
 5676.00    1.98043   1.60775    0.000
 5677.00    1.89839   1.60764    0.000
 5678.00    1.82730   1.61016    0.000
 5679.00    1.77740   1.60670    0.000
 5680.00    1.78156   1.60477    0.000
 5681.00    1.85580   1.60757    0.000
 5682.00    1.97837   1.60555    0.000
 5683.00    2.09824   1.60191    0.000
 5684.00    2.15228   1.60410    0.000
 5685.00    2.12383   1.60395    0.000
 5686.00    2.05744   1.59853    0.000
 5687.00    1.99396   1.59898    0.000
 5688.00    1.94559   1.60045    0.000
 5689.00    1.92264   1.59381    0.000
 5690.00    1.94172   1.59109    0.000
 5691.00    2.00895   1.59340    0.000
 5692.00    2.11412   1.58821    0.000
 5693.00    2.23616   1.58195    0.000
 5694.00    2.34505   1.58252    0.000
 5695.00    2.40052   1.58120    0.000
 5696.00    2.36657   1.57312    0.000
 5697.00    2.26101   1.57030    0.000
 5698.00    2.14966   1.57403    0.000
 5699.00    2.07200   1.56768    0.000
 5700.00    2.02628   1.56211    0.000
 5701.00    2.00066   1.56987    0.000
 5702.00    1.98643   1.56890    0.000
 5703.00    1.98699   1.56289    0.000
 5704.00    2.00786   1.57127    0.000
 5705.00    2.02399   1.57660    0.000
 5706.00    1.99302   1.57296    0.000
 5707.00    1.91163   1.57953    0.000
 5708.00    1.81707   1.58909    0.000
 5709.00    1.75429   1.58870    0.000
 5710.00    1.75484   1.59330    0.000
 5711.00    1.80893   1.60452    0.000
 5712.00    1.88087   1.60617    0.000
 5713.00    1.95546   1.60929    0.000
 5714.00    2.03028   1.62012    0.000
 5715.00    2.08006   1.62166    0.000
 5716.00    2.07667   1.62304    0.000
 5717.00    2.03987   1.63266    0.000
 5718.00    2.00891   1.63373    0.000
 5719.00    1.97471   1.63218    0.000
 5720.00    1.90660   1.63988    0.000
 5721.00    1.81881   1.64229    0.000
 5722.00    1.75928   1.63835    0.000
 5723.00    1.77119   1.64287    0.000
 5724.00    1.85557   1.64680    0.000
 5725.00    1.92848   1.64261    0.000
 5726.00    1.90166   1.64406    0.000
 5727.00    1.80480   1.64819    0.000
 5728.00    1.72733   1.64492    0.000
 5729.00    1.71411   1.64406    0.000
 5730.00    1.75390   1.64783    0.000
 5731.00    1.78742   1.64656    0.000
 5732.00    1.77712   1.64373    0.000
 5733.00    1.78446   1.64595    0.000
 5734.00    1.87940   1.64701    0.000
 5735.00    2.02934   1.64371    0.000
 5736.00    2.15666   1.64346    0.000
 5737.00    2.21587   1.64536    0.000
 5738.00    2.19786   1.64271    0.000
 5739.00    2.12478   1.64027    0.000
 5740.00    2.03507   1.64127    0.000
 5741.00    1.96719   1.63991    0.000
 5742.00    1.94023   1.63735    0.000
 5743.00    1.94036   1.63731    0.000
 5744.00    1.95268   1.63633    0.000
 5745.00    1.98576   1.63367    0.000
 5746.00    2.03285   1.63365    0.000
 5747.00    2.04552   1.63423    0.000
 5748.00    1.99748   1.63232    0.000
 5749.00    1.92832   1.63159    0.000
 5750.00    1.87909   1.63178    0.000
 5751.00    1.84602   1.63076    0.000
 5752.00    1.81284   1.63132    0.000
 5753.00    1.77775   1.63115    0.000
 5754.00    1.76751   1.62981    0.000
 5755.00    1.83431   1.63188    0.000
 5756.00    1.98338   1.63324    0.000
 5757.00    2.14131   1.63176    0.000
 5758.00    2.24122   1.63274    0.000
 5759.00    2.27096   1.63404    0.000
 5760.00    2.24949   1.63223    0.000
 5761.00    2.20833   1.63227    0.000
 5762.00    2.17280   1.63261    0.000
 5763.00    2.15299   1.62937    0.000
 5764.00    2.14769   1.62867    0.000
 5765.00    2.14908   1.62842    0.000
 5766.00    2.15401   1.62388    0.000
 5767.00    2.16622   1.62254    0.000
 5768.00    2.18265   1.62142    0.000
 5769.00    2.19153   1.61519    0.000
 5770.00    2.19007   1.61300    0.000
 5771.00    2.18643   1.61247    0.000
 5772.00    2.17780   1.60462    0.000
 5773.00    2.14503   1.60061    0.000
 5774.00    2.06610   1.60393    0.000
 5775.00    1.93448   1.59903    0.000
 5776.00    1.80318   1.59220    0.000
 5777.00    1.76522   1.59753    0.000
 5778.00    1.83983   1.59793    0.000
 5779.00    1.96230   1.59123    0.000
 5780.00    2.07246   1.59741    0.000
 5781.00    2.13911   1.60168    0.000
 5782.00    2.14633   1.59566    0.000
 5783.00    2.09438   1.60107    0.000
 5784.00    2.01362   1.61012    0.000
 5785.00    1.95371   1.60754    0.000
 5786.00    1.94556   1.60968    0.000
 5787.00    1.98894   1.62078    0.000
 5788.00    2.04824   1.62155    0.000
 5789.00    2.07309   1.61977    0.000
 5790.00    2.04766   1.63086    0.000
 5791.00    1.98975   1.63554    0.000
 5792.00    1.92273   1.63182    0.000
 5793.00    1.86412   1.63916    0.000
 5794.00    1.81627   1.64538    0.000
 5795.00    1.77724   1.64159    0.000
 5796.00    1.76520   1.64383    0.000
 5797.00    1.79932   1.65029    0.000
 5798.00    1.85704   1.64944    0.000
 5799.00    1.89899   1.64826    0.000
 5800.00    1.92535   1.65239    0.000
 5801.00    1.95796   1.65418    0.000
 5802.00    1.99502   1.65266    0.000
 5803.00    2.02363   1.65407    0.000
 5804.00    2.05033   1.65605    0.000
 5805.00    2.08726   1.65573    0.000
 5806.00    2.12554   1.65591    0.000
 5807.00    2.15046   1.65632    0.000
 5808.00    2.16725   1.65772    0.000
 5809.00    2.18912   1.65988    0.000
 5810.00    2.21641   1.65993    0.000
 5811.00    2.23188   1.66104   -2.000
 5812.00    2.20073   1.66366   -2.000
 5813.00    2.10443   1.66436   -2.000
 5814.00    1.97761   1.66485   -2.000
 5815.00    1.86659   1.66676   -2.000
 5816.00    1.78157   1.66857   -2.000
 5817.00    1.73494   1.66920   -2.000
 5818.00    1.77849   1.67017   -2.000
 5819.00    1.90613   1.67163   -2.000
 5820.00    1.97053   1.67306   -2.000
 5821.00    1.87017   1.67412   -2.000
 5822.00    1.71730   1.67366   -2.000
 5823.00    1.67291   1.67443   -2.000
 5824.00    1.78603   1.67638   -2.000
 5825.00    2.00365   1.67456   -2.000
 5826.00    2.20252   1.67305   -2.000
 5827.00    2.29268   1.67559   -2.000
 5828.00    2.29054   1.67466   -2.000
 5829.00    2.24963   1.67064   -2.000
 5830.00    2.20490   1.67120    0.000
 5831.00    2.18253   1.67190    0.000
 5832.00    2.20463   1.66758    0.000
 5833.00    2.25598   1.66511    0.000
 5834.00    2.27213   1.66485    0.000
 5835.00    2.21143   1.66081    0.000
 5836.00    2.09647   1.65682    0.000
 5837.00    1.97775   1.65471    0.000
 5838.00    1.90629   1.64986    0.000
 5839.00    1.91218   1.64537    0.000
 5840.00    1.99391   1.64207    0.000
 5841.00    2.12419   1.63667    0.000
 5842.00    2.25811   1.63262    0.000
 5843.00    2.35607   1.62908    0.000
 5844.00    2.39806   1.62184    0.000
 5845.00    2.39426   1.61734    0.000
 5846.00    2.37847   1.61683    0.000
 5847.00    2.35680   1.61091    0.000
 5848.00    2.29924   1.60381    0.000
 5849.00    2.20382   1.60445    0.000
 5850.00    2.11476   1.60310    0.000
 5851.00    2.08173   1.59717    0.000
 5852.00    2.12873   1.59825    0.000
 5853.00    2.20390   1.59946    0.000
 5854.00    2.20253   1.59453    0.000
 5855.00    2.11414   1.59577    0.000
 5856.00    2.02952   1.60052    0.000
 5857.00    1.98377   1.59739    0.000
 5858.00    1.93367   1.59598    0.000
 5859.00    1.85987   1.60194    0.000
 5860.00    1.78767   1.60210    0.000
 5861.00    1.74737   1.59906    0.000
 5862.00    1.75861   1.60383    0.000
 5863.00    1.82231   1.60499    0.000
 5864.00    1.92311   1.59898    0.000
 5865.00    2.04175   1.60064    0.000
 5866.00    2.15151   1.60318    0.000
 5867.00    2.20146   1.59499    0.000
 5868.00    2.14535   1.59045    0.000
 5869.00    2.01788   1.59218    0.000
 5870.00    1.90289   1.58305    0.000
 5871.00    1.82249   1.57133    0.000
 5872.00    1.75050   1.57084    0.000
 5873.00    1.69407   1.56232    0.000
 5874.00    1.68811   1.54402    0.000
 5875.00    1.74826   1.53997    0.000
 5876.00    1.86308   1.53395    0.000
 5877.00    1.99827   1.51238    0.000
 5878.00    2.11602   1.50404    0.000
 5879.00    2.20678   1.50180    0.000
 5880.00    2.27409   1.47820    0.000
 5881.00    2.30005   1.46252    0.000
 5882.00    2.26038   1.46925    0.000
 5883.00    2.15732   1.45571    0.000
 5884.00    2.01654   1.43543    0.000
 5885.00    1.87348   1.44599    0.000
 5886.00    1.75332   1.44470    0.000
 5887.00    1.64689   1.42376    0.000
 5888.00    1.53412   1.43442    0.000
 5889.00    1.41994   1.44869    0.000
 5890.00    1.33296   1.43273    0.000
 5891.00    1.31504   1.43549    0.000
 5892.00    1.38467   1.46185    0.000
 5893.00    1.49788   1.46195    0.000
 5894.00    1.59557   1.45857    0.000
 5895.00    1.66145   1.48279    0.000
 5896.00    1.70898   1.49342    0.000
 5897.00    1.75825   1.48712    0.000
 5898.00    1.81111   1.50376    0.000
 5899.00    1.83228   1.52260    0.000
 5900.00    1.79377   1.52019    0.000
 5901.00    1.71670   1.52582    0.000
 5902.00    1.64273   1.54276    0.000
 5903.00    1.60393   1.54671    0.000
 5904.00    1.61972   1.54634    0.000
 5905.00    1.69547   1.55544    0.000
 5906.00    1.81684   1.56164    0.000
 5907.00    1.94864   1.56021    0.000
 5908.00    2.06317   1.56392    0.000
 5909.00    2.15968   1.56995    0.000
 5910.00    2.24398   1.57005    0.000
 5911.00    2.31299   1.57112    0.000
 5912.00    2.35871   1.57448    0.000
 5913.00    2.37172   1.57553    0.000
 5914.00    2.34162   1.57560    0.000
 5915.00    2.26123   1.57691    0.000
 5916.00    2.15163   1.57864    0.000
 5917.00    2.06695   1.57917    0.000
 5918.00    2.03211   1.57957    0.000
 5919.00    2.01617   1.58075    0.000
 5920.00    1.98957   1.58217    0.000
 5921.00    1.95180   1.58180    0.000
 5922.00    1.90530   1.58186    0.000
 5923.00    1.84032   1.58443    0.000
 5924.00    1.73304   1.58435    0.000
 5925.00    1.55837   1.58206    0.000
 5926.00    1.35102   1.58421    0.000
 5927.00    1.20938   1.58741    0.000
 5928.00    1.19002   1.58443    0.000
 5929.00    1.27165   1.58316    0.000
 5930.00    1.40282   1.58805    0.000
 5931.00    1.53079   1.58730    0.000
 5932.00    1.63173   1.58302    0.000
 5933.00    1.71321   1.58575    0.000
 5934.00    1.78062   1.58884    0.000
 5935.00    1.83023   1.58518    0.000
 5936.00    1.86871   1.58300    0.000
 5937.00    1.91179   1.58667    0.000
 5938.00    1.95790   1.58749    0.000
 5939.00    1.98581   1.58376    0.000
 5940.00    1.97486   1.58353    0.000
 5941.00    1.92302   1.58634    0.000
 5942.00    1.87824   1.58518    0.000
 5943.00    1.90919   1.58172    0.000
 5944.00    2.00290   1.58361    0.000
 5945.00    2.07809   1.58771    0.000
 5946.00    2.09194   1.58533    0.000
 5947.00    2.05750   1.58290    0.000
 5948.00    2.01559   1.58805    0.000
 5949.00    2.00573   1.58980    0.000
 5950.00    2.01787   1.58581    0.000
 5951.00    2.01378   1.58866    0.000
 5952.00    1.99602   1.59431    0.000
 5953.00    1.99352   1.59265    0.000
 5954.00    2.00179   1.59215    0.000
 5955.00    1.99364   1.59811    0.000
 5956.00    1.96342   1.59941    0.000
 5957.00    1.92440   1.59711    0.000
 5958.00    1.88824   1.60077    0.000
 5959.00    1.86457   1.60295    0.000
 5960.00    1.86672   1.60059    0.000
 5961.00    1.90518   1.60220    0.000
 5962.00    1.97547   1.60481    0.000
 5963.00    2.05451   1.60306    0.000
 5964.00    2.09977   1.60198    0.000
 5965.00    2.07803   1.60374    0.000
 5966.00    2.00590   1.60247    0.000
 5967.00    1.93082   1.59941    0.000
 5968.00    1.89527   1.59878    0.000
 5969.00    1.90889   1.59832    0.000
 5970.00    1.92265   1.59660    0.000
 5971.00    1.88493   1.59434    0.000
 5972.00    1.81205   1.59337    0.000
 5973.00    1.75672   1.59362    0.000
 5974.00    1.75946   1.59188    0.000
 5975.00    1.82208   1.58863    0.000
 5976.00    1.88936   1.58924    0.000
 5977.00    1.90705   1.59033    0.000
 5978.00    1.88132   1.58624    0.000
 5979.00    1.84680   1.58541    0.000
 5980.00    1.82884   1.58977    0.000
 5981.00    1.83829   1.58883    0.000
 5982.00    1.87023   1.58522    0.000
 5983.00    1.90774   1.58809    0.000
 5984.00    1.92688   1.59083    0.000
 5985.00    1.90974   1.58652    0.000
 5986.00    1.85643   1.58566    0.000
 5987.00    1.79548   1.59031    0.000
 5988.00    1.78364   1.58979    0.000
 5989.00    1.84636   1.58630    0.000
 5990.00    1.94182   1.58732    0.000
 5991.00    2.02453   1.58876    0.000
 5992.00    2.08745   1.58528    0.000
 5993.00    2.12858   1.58303    0.000
 5994.00    2.13043   1.58495    0.000
 5995.00    2.08265   1.58472    0.000
 5996.00    1.99722   1.58054    0.000
 5997.00    1.90892   1.57861    0.000
 5998.00    1.86647   1.58016    0.000
 5999.00    1.88506   1.57807    0.000
 6000.00    1.92962   1.57406    0.000
 6001.00    1.96868   1.57453    0.000
 6002.00    1.99964   1.57547    0.000
 6003.00    2.02791   1.57173    0.000
 6004.00    2.05365   1.56941    0.000
 6005.00    2.06298   1.57338    0.000
 6006.00    2.03296   1.57335    0.000
 6007.00    1.97054   1.56766    0.000
 6008.00    1.91829   1.56888    0.000
 6009.00    1.90482   1.57435    0.000
 6010.00    1.92638   1.57176    0.000
 6011.00    1.95954   1.56856    0.000
 6012.00    1.97264   1.57583    0.000
 6013.00    1.94754   1.57944    0.000
 6014.00    1.88806   1.57359    0.000
 6015.00    1.82002   1.57615    0.000
 6016.00    1.78164   1.58587    0.000
 6017.00    1.79299   1.58537    0.000
 6018.00    1.84783   1.58208    0.000
 6019.00    1.92098   1.59093    0.000
 6020.00    1.97921   1.59743    0.000
 6021.00    2.00484   1.59360    0.000
 6022.00    1.99665   1.59668    0.000
 6023.00    1.95254   1.60603    0.000
 6024.00    1.87363   1.60740    0.000
 6025.00    1.78748   1.60580    0.000
 6026.00    1.73943   1.61209    0.000
 6027.00    1.75611   1.61787    0.000
 6028.00    1.83643   1.61680    0.000
 6029.00    1.95296   1.61831    0.000
 6030.00    2.06083   1.62389    0.000
 6031.00    2.11676   1.62596    0.000
 6032.00    2.09753   1.62537    0.000
 6033.00    2.02801   1.62722    0.000
 6034.00    1.96147   1.63078    0.000
 6035.00    1.92953   1.63126    0.000
 6036.00    1.93443   1.63009    0.000
 6037.00    1.95452   1.63239    0.000
 6038.00    1.96959   1.63458    0.000
 6039.00    2.00130   1.63321    0.000
 6040.00    2.07911   1.63216    0.000
 6041.00    2.17411   1.63415    0.000
 6042.00    2.23067   1.63374    0.000
 6043.00    2.23259   1.63088    0.000
 6044.00    2.19517   1.63186    0.000
 6045.00    2.13766   1.63245    0.000
 6046.00    2.07281   1.62992    0.000
 6047.00    1.99901   1.62889    0.000
 6048.00    1.91591   1.62956    0.000
 6049.00    1.84532   1.62716    0.000
 6050.00    1.81260   1.62519    0.000
 6051.00    1.82058   1.62670    0.000
 6052.00    1.85565   1.62441    0.000
 6053.00    1.89904   1.62268    0.000
 6054.00    1.92998   1.62531    0.000
 6055.00    1.92906   1.62492    0.000
 6056.00    1.89290   1.62143    0.000
 6057.00    1.84716   1.62304    0.000
 6058.00    1.82081   1.62547    0.000
 6059.00    1.81996   1.62071    0.000
 6060.00    1.83799   1.62108    0.000
 6061.00    1.86788   1.62683    0.000
 6062.00    1.90696   1.62467    0.000
 6063.00    1.95911   1.62141    0.000
 6064.00    2.02626   1.62522    0.000
 6065.00    2.10082   1.62508    0.000
 6066.00    2.16524   1.61913    0.000
 6067.00    2.19442   1.62114    0.000
 6068.00    2.17460   1.62445    0.000
 6069.00    2.11633   1.61841    0.000
 6070.00    2.04544   1.61567    0.000
 6071.00    1.99297   1.61964    0.000
 6072.00    1.97686   1.61520    0.000
 6073.00    1.99199   1.60803    0.000
 6074.00    2.02568   1.61129    0.000
 6075.00    2.06700   1.61256    0.000
 6076.00    2.10008   1.60412    0.000
 6077.00    2.10361   1.60124    0.000
 6078.00    2.07271   1.60609    0.000
 6079.00    2.02692   1.60210    0.000
 6080.00    1.98456   1.59509    0.000
 6081.00    1.94929   1.59841    0.000
 6082.00    1.91487   1.60103    0.000
 6083.00    1.87120   1.59435    0.000
 6084.00    1.81934   1.59138    0.000
 6085.00    1.77579   1.59623    0.000
 6086.00    1.75913   1.59491    0.000
 6087.00    1.78090   1.59009    0.000
 6088.00    1.83426   1.59290    0.000
 6089.00    1.89569   1.59412    0.000
 6090.00    1.95073   1.58931    0.000
 6091.00    2.00053   1.58936    0.000
 6092.00    2.04632   1.59259    0.000
 6093.00    2.08310   1.59092    0.000
 6094.00    2.09941   1.58966    0.000
 6095.00    2.08288   1.59222    0.000
 6096.00    2.03797   1.58971    0.000
 6097.00    1.98475   1.58672    0.000
 6098.00    1.93558   1.59053    0.000
 6099.00    1.89207   1.59187    0.000
 6100.00    1.85900   1.59038    0.000
 6101.00    1.84437   1.59155    0.000
 6102.00    1.84733   1.59112    0.000
 6103.00    1.85722   1.58871    0.000
 6104.00    1.86036   1.59037    0.000
 6105.00    1.84248   1.59167    0.000
 6106.00    1.78994   1.58865    0.000
 6107.00    1.70257   1.58968    0.000
 6108.00    1.62175   1.59169    0.000
 6109.00    1.60414   1.58549    0.000
 6110.00    1.64880   1.58316    0.000
 6111.00    1.70761   1.58880    0.000
 6112.00    1.74319   1.58638    0.000
 6113.00    1.74765   1.57928    0.000
 6114.00    1.75311   1.58160    0.000
 6115.00    1.79764   1.58304    0.000
 6116.00    1.85901   1.57290    0.000
 6117.00    1.88260   1.57067    0.000
 6118.00    1.85346   1.57816    0.000
 6119.00    1.79525   1.57478    0.000
 6120.00    1.74526   1.56683    0.000
 6121.00    1.73100   1.56786    0.000
 6122.00    1.74116   1.56929    0.000
 6123.00    1.74674   1.56137    0.000
 6124.00    1.73964   1.55662    0.000
 6125.00    1.73074   1.56183    0.000
 6126.00    1.73807   1.56353    0.000
 6127.00    1.77285   1.55815    0.000
 6128.00    1.82405   1.55394    0.000
 6129.00    1.87280   1.55594    0.000
 6130.00    1.91323   1.55564    0.000
 6131.00    1.95195   1.54916    0.000
 6132.00    2.00243   1.55030    0.000
 6133.00    2.06251   1.55825    0.000
 6134.00    2.09341   1.55701    0.000
 6135.00    2.07026   1.54895    0.000
 6136.00    2.03383   1.55097    0.000
 6137.00    2.02959   1.55622    0.000
 6138.00    2.04324   1.55093    0.000
 6139.00    2.03613   1.54906    0.000
 6140.00    1.98685   1.55661    0.000
 6141.00    1.90442   1.55457    0.000
 6142.00    1.83200   1.54471    0.000
 6143.00    1.80076   1.54571    0.000
 6144.00    1.79327   1.54838    0.000
 6145.00    1.77741   1.54033    0.000
 6146.00    1.73813   1.53608    0.000
 6147.00    1.69030   1.54022    0.000
 6148.00    1.67976   1.53230    0.000
 6149.00    1.72955   1.51815    0.000
 6150.00    1.80730   1.51885    0.000
 6151.00    1.87677   1.52038    0.000
 6152.00    1.93271   1.50844    0.000
 6153.00    1.98359   1.50080    0.000
 6154.00    2.03675   1.50651    0.000
 6155.00    2.08578   1.50065    0.000
 6156.00    2.10817   1.48324    0.000
 6157.00    2.09561   1.48370    0.000
 6158.00    2.06586   1.49352    0.000
 6159.00    2.02937   1.48631    0.000
 6160.00    1.97543   1.47546    0.000
 6161.00    1.89911   1.48524    0.000
 6162.00    1.81411   1.49123    0.000
 6163.00    1.74379   1.47684    0.000
 6164.00    1.71108   1.47517    0.000
 6165.00    1.71473   1.49287    0.000
 6166.00    1.72680   1.49471    0.000
 6167.00    1.72990   1.48272    0.000
 6168.00    1.73158   1.49152    0.000
 6169.00    1.75464   1.50512    0.000
 6170.00    1.82246   1.49629    0.000
 6171.00    1.92041   1.49071    0.000
 6172.00    1.99560   1.50613    0.000
 6173.00    2.01093   1.51182    0.000
 6174.00    1.96470   1.50009    0.000
 6175.00    1.88688   1.50265    0.000
 6176.00    1.83402   1.51497    0.000
 6177.00    1.87766   1.51048    0.000
 6178.00    2.06531   1.50099    0.000
 6179.00    2.31744   1.50841    0.000
 6180.00    2.46295   1.51520    0.000
 6181.00    2.43197   1.50640    0.000
 6182.00    2.27672   1.50304    0.000
 6183.00    2.07073   1.51171    0.000
 6184.00    1.87709   1.51271    0.000
 6185.00    1.74191   1.50369    0.000
 6186.00    1.69134   1.50459    0.000
 6187.00    1.72844   1.51243    0.000
 6188.00    1.82786   1.51054    0.000
 6189.00    1.92638   1.50632    0.000
 6190.00    1.95137   1.51069    0.000
 6191.00    1.88561   1.51535    0.000
 6192.00    1.76431   1.51170    0.000
 6193.00    1.63895   1.50933    0.000
 6194.00    1.55637   1.51369    0.000
 6195.00    1.53380   1.51597    0.000
 6196.00    1.55525   1.51365    0.000
 6197.00    1.57527   1.51302    0.000
 6198.00    1.54763   1.51518    0.000
 6199.00    1.47245   1.51388    0.000
 6200.00    1.38891   1.50974    0.000
 6201.00    1.34909   1.50878    0.000
 6202.00    1.39556   1.50892    0.000
 6203.00    1.53403   1.50563    0.000
 6204.00    1.73389   1.50253    0.000
 6205.00    1.93669   1.50179    0.000
 6206.00    2.08100   1.49799    0.000
 6207.00    2.13517   1.49232    0.000
 6208.00    2.10240   1.49089    0.000
 6209.00    2.01973   1.48915    0.000
 6210.00    1.92968   1.48341    0.000
 6211.00    1.84635   1.48128    0.000
 6212.00    1.76611   1.48220    0.000
 6213.00    1.68532   1.47662    0.000
 6214.00    1.60944   1.47075    0.000
 6215.00    1.55995   1.47267    0.000
 6216.00    1.56330   1.47206   -2.000
 6217.00    1.63656   1.46555   -2.000
 6218.00    1.76398   1.46487   -2.000
 6219.00    1.88178   1.46810   -2.000
 6220.00    1.94419   1.46309   -2.000
 6221.00    1.97951   1.45883   -2.000
 6222.00    2.02160   1.46255   -2.000
 6223.00    2.05116   1.46196   -2.000
 6224.00    2.05007   1.45667   -2.000
 6225.00    2.04407   1.45671   -2.000
 6226.00    2.04653   1.45854   -2.000
 6227.00    2.02045   1.45460   -2.000
 6228.00    1.94980   1.45389    0.000
 6229.00    1.88490   1.45627    0.000
 6230.00    1.86837   1.45285    0.000
 6231.00    1.88543   1.45057    0.000
 6232.00    1.89985   1.45166    0.000
 6233.00    1.88440   1.44929    0.000
 6234.00    1.84687   1.44579    0.000
 6235.00    1.83395   1.44887    0.000
 6236.00    1.86177   1.44940    0.000
 6237.00    1.88700   1.44318    0.000
 6238.00    1.88161   1.44354    0.000
 6239.00    1.86806   1.44581    0.000
 6240.00    1.87460   1.44121    0.000
 6241.00    1.90716   1.43769    0.000
 6242.00    1.93505   1.44248    0.000
 6243.00    1.90185   1.44404    0.000
 6244.00    1.80660   1.43815    0.000
 6245.00    1.72292   1.43831    0.000
 6246.00    1.71126   1.44223    0.000
 6247.00    1.77985   1.44107    0.000
 6248.00    1.89263   1.43749    0.000
 6249.00    1.98843   1.44201    0.000
 6250.00    2.03946   1.44845    0.000
 6251.00    2.06162   1.44608    0.000
 6252.00    2.06510   1.44362    0.000
 6253.00    2.04174   1.44980    0.000
 6254.00    1.98835   1.45611    0.000
 6255.00    1.91299   1.45309    0.000
 6256.00    1.82724   1.45513    0.000
 6257.00    1.74339   1.46534    0.000
 6258.00    1.67406   1.46761    0.000
 6259.00    1.63247   1.46333    0.000
 6260.00    1.63329   1.46862    0.000
 6261.00    1.68309   1.47835    0.000
 6262.00    1.75421   1.47742    0.000
 6263.00    1.79856   1.47617    0.000
 6264.00    1.80231   1.48351    0.000
 6265.00    1.78768   1.48803    0.000
 6266.00    1.78037   1.48541    0.000
 6267.00    1.79575   1.48691    0.000
 6268.00    1.82679   1.49283    0.000
 6269.00    1.85249   1.49424    0.000
 6270.00    1.86245   1.49292    0.000
 6271.00    1.85823   1.49540    0.000
 6272.00    1.84439   1.49862    0.000
 6273.00    1.82101   1.49870    0.000
 6274.00    1.77383   1.49863    0.000
 6275.00    1.69277   1.50050    0.000
 6276.00    1.60842   1.50219    0.000
 6277.00    1.56639   1.50240    0.000
 6278.00    1.57137   1.50358    0.000
 6279.00    1.60415   1.50433    0.000
 6280.00    1.66543   1.50384    0.000
 6281.00    1.76124   1.50400    0.000
 6282.00    1.86969   1.50554    0.000
 6283.00    1.95694   1.50563    0.000
 6284.00    2.00847   1.50403    0.000
 6285.00    2.02707   1.50480    0.000
 6286.00    2.02339   1.50529    0.000
 6287.00    2.01253   1.50311    0.000
 6288.00    2.01059   1.50208    0.000
 6289.00    2.02497   1.50423    0.000
 6290.00    2.04394   1.50425    0.000
 6291.00    2.05290   1.50030    0.000
 6292.00    2.05378   1.49994    0.000
 6293.00    2.04768   1.50275    0.000
 6294.00    2.01483   1.50134    0.000
 6295.00    1.93871   1.49860    0.000
 6296.00    1.83309   1.50103    0.000
 6297.00    1.73262   1.50263    0.000
 6298.00    1.67759   1.49878    0.000
 6299.00    1.68225   1.49892    0.000
 6300.00    1.71087   1.50336    0.000
 6301.00    1.72561   1.50175    0.000
 6302.00    1.73005   1.49833    0.000
 6303.00    1.75372   1.50255    0.000
 6304.00    1.83068   1.50495    0.000
 6305.00    1.95548   1.49970    0.000
 6306.00    2.05935   1.50058    0.000
 6307.00    2.09294   1.50754    0.000
 6308.00    2.08286   1.50505    0.000
 6309.00    2.07084   1.50014    0.000
 6310.00    2.06757   1.50649    0.000
 6311.00    2.05858   1.51122    0.000
 6312.00    2.01581   1.50503    0.000
 6313.00    1.93394   1.50462    0.000
 6314.00    1.84743   1.51368    0.000
 6315.00    1.79264   1.51420    0.000
 6316.00    1.78337   1.50945    0.000
 6317.00    1.80853   1.51378    0.000
 6318.00    1.83782   1.51913    0.000
 6319.00    1.85562   1.51601    0.000
 6320.00    1.87494   1.51566    0.000
 6321.00    1.91410   1.52115    0.000
 6322.00    1.98110   1.52219    0.000
 6323.00    2.05951   1.52095    0.000
 6324.00    2.11100   1.52306    0.000
 6325.00    2.11648   1.52422    0.000
 6326.00    2.09025   1.52213    0.000
 6327.00    2.05887   1.52355    0.000
 6328.00    2.04666   1.52666    0.000
 6329.00    2.05701   1.52409    0.000
 6330.00    2.06990   1.52218    0.000
 6331.00    2.06130   1.52555    0.000
 6332.00    2.01566   1.52685    0.000
 6333.00    1.94212   1.52246    0.000
 6334.00    1.87239   1.52192    0.000
 6335.00    1.83395   1.52709    0.000
 6336.00    1.83681   1.52549    0.000
 6337.00    1.86244   1.51897    0.000
 6338.00    1.87536   1.51972    0.000
 6339.00    1.86744   1.52557    0.000
 6340.00    1.85812   1.52279    0.000
 6341.00    1.85630   1.51582    0.000
 6342.00    1.85650   1.51833    0.000
 6343.00    1.85891   1.52253    0.000
 6344.00    1.87039   1.51637    0.000
 6345.00    1.89301   1.50919    0.000
 6346.00    1.92103   1.51423    0.000
 6347.00    1.94093   1.51754    0.000
 6348.00    1.94059   1.50875    0.000
 6349.00    1.92910   1.50441    0.000
 6350.00    1.92780   1.51117    0.000
 6351.00    1.94195   1.51207    0.000
 6352.00    1.95785   1.50316    0.000
 6353.00    1.94997   1.50308    0.000
 6354.00    1.89848   1.51051    0.000
 6355.00    1.81851   1.50914    0.000
 6356.00    1.74948   1.50338    0.000
 6357.00    1.72532   1.50756    0.000
 6358.00    1.75726   1.51487    0.000
 6359.00    1.81571   1.51271    0.000
 6360.00    1.86146   1.51033    0.000
 6361.00    1.89866   1.51595    0.000
 6362.00    1.94724   1.52201    0.000
 6363.00    1.98998   1.52117    0.000
 6364.00    1.99593   1.52060    0.000
 6365.00    1.96488   1.52592    0.000
 6366.00    1.92348   1.53063    0.000
 6367.00    1.90973   1.53014    0.000
 6368.00    1.94902   1.52942    0.000
 6369.00    2.02736   1.53420    0.000
 6370.00    2.11061   1.53743    0.000
 6371.00    2.17161   1.53480    0.000
 6372.00    2.19092   1.53369    0.000
 6373.00    2.15492   1.53831    0.000
 6374.00    2.06677   1.54019    0.000
 6375.00    1.95701   1.53534    0.000
 6376.00    1.86441   1.53432    0.000
 6377.00    1.81422   1.53895    0.000
 6378.00    1.80820   1.53826    0.000
 6379.00    1.81955   1.53151    0.000
 6380.00    1.81984   1.53255    0.000
 6381.00    1.80550   1.53839    0.000
 6382.00    1.80856   1.53375    0.000
 6383.00    1.89466   1.52547    0.000
 6384.00    2.08163   1.53023    0.000
 6385.00    2.28443   1.53631    0.000
 6386.00    2.41229   1.52817    0.000
 6387.00    2.44427   1.52313    0.000
 6388.00    2.40096   1.53255    0.000
 6389.00    2.31795   1.53378    0.000
 6390.00    2.23210   1.52058    0.000
 6391.00    2.17050   1.52231    0.000
 6392.00    2.13356   1.53609    0.000
 6393.00    2.09218   1.53167    0.000
 6394.00    2.03652   1.51859    0.000
 6395.00    1.99804   1.52613    0.000
 6396.00    1.99766   1.53703    0.000
 6397.00    2.01796   1.52711    0.000
 6398.00    2.02366   1.52062    0.000
 6399.00    1.98010   1.53327    0.000
 6400.00    1.88503   1.53640    0.000
 6401.00    1.77619   1.52242    0.000
 6402.00    1.68769   1.52322    0.000
 6403.00    1.63297   1.53575    0.000
 6404.00    1.62853   1.53304    0.000
 6405.00    1.69570   1.52410    0.000
 6406.00    1.81885   1.52899    0.000
 6407.00    1.94140   1.53490    0.000
 6408.00    2.02541   1.52957    0.000
 6409.00    2.07144   1.52636    0.000
 6410.00    2.09604   1.53109    0.000
 6411.00    2.11718   1.53229    0.000
 6412.00    2.13517   1.52928    0.000
 6413.00    2.13366   1.53095    0.000
 6414.00    2.10682   1.53253    0.000
 6415.00    2.06497   1.53201    0.000
 6416.00    2.02102   1.53280    0.000
 6417.00    1.98317   1.53344    0.000
 6418.00    1.94709   1.53267    0.000
 6419.00    1.90337   1.53556    0.000
 6420.00    1.86507   1.53709    0.000
 6421.00    1.85881   1.53250    0.000
 6422.00    1.87884   1.53295    0.000
 6423.00    1.88945   1.53950    0.000
 6424.00    1.86438   1.53998    0.000
 6425.00    1.80043   1.53426    0.000
 6426.00    1.72373   1.53851    0.000
 6427.00    1.67337   1.54483    0.000
 6428.00    1.66104   1.53862    0.000
 6429.00    1.67587   1.53326    0.000
 6430.00    1.71503   1.54306    0.000
 6431.00    1.77757   1.54730    0.000
 6432.00    1.83870   1.53760    0.000
 6433.00    1.86375   1.53718    0.000
 6434.00    1.84499   1.54658    0.000
 6435.00    1.80055   1.54471    0.000
 6436.00    1.75830   1.53628    0.000
 6437.00    1.73969   1.54155    0.000
 6438.00    1.73809   1.54849    0.000
 6439.00    1.73459   1.54029    0.000
 6440.00    1.72936   1.53253    0.000
 6441.00    1.73591   1.53970    0.000
 6442.00    1.76406   1.54353    0.000
 6443.00    1.81450   1.53849    0.000
 6444.00    1.87503   1.53709    0.000
 6445.00    1.92581   1.53848    0.000
 6446.00    1.94800   1.53615    0.000
 6447.00    1.93440   1.53568    0.000
 6448.00    1.90107   1.53758    0.000
 6449.00    1.87496   1.53691    0.000
 6450.00    1.87579   1.53590    0.000
 6451.00    1.90097   1.53660    0.000
 6452.00    1.91388   1.53441    0.000
 6453.00    1.88510   1.53215    0.000
 6454.00    1.83657   1.53780    0.000
 6455.00    1.80965   1.54077    0.000
 6456.00    1.82568   1.53551    0.000
 6457.00    1.87359   1.53265    0.000
 6458.00    1.90608   1.53853    0.000
 6459.00    1.88733   1.54014    0.000
 6460.00    1.83458   1.53551    0.000
 6461.00    1.78517   1.53421    0.000
 6462.00    1.76390   1.53790    0.000
 6463.00    1.78205   1.53793    0.000
 6464.00    1.83879   1.53251    0.000
 6465.00    1.92319   1.53137    0.000
 6466.00    2.01602   1.53466    0.000
 6467.00    2.09147   1.53504    0.000
 6468.00    2.12048   1.52798    0.000
 6469.00    2.08497   1.52464    0.000
 6470.00    1.98874   1.52803    0.000
 6471.00    1.86217   1.52650    0.000
 6472.00    1.75857   1.51640    0.000
 6473.00    1.71235   1.51248    0.000
 6474.00    1.71700   1.51658    0.000
 6475.00    1.75204   1.51249    0.000
 6476.00    1.80048   1.50157    0.000
 6477.00    1.85033   1.49871    0.000
 6478.00    1.89345   1.50102    0.000
 6479.00    1.91736   1.49424    0.000
 6480.00    1.90716   1.48402    0.000
 6481.00    1.87653   1.48245    0.000
 6482.00    1.87234   1.48324    0.000
 6483.00    1.92198   1.47551    0.000
 6484.00    2.00927   1.46703    0.000
 6485.00    2.08251   1.46701    0.000
 6486.00    2.07678   1.46780    0.000
 6487.00    1.98847   1.46288    0.000
 6488.00    1.88755   1.45963    0.000
 6489.00    1.84027   1.46100    0.000
 6490.00    1.87087   1.46187    0.000
 6491.00    1.94013   1.46008    0.000
 6492.00    1.96453   1.46094    0.000
 6493.00    1.90941   1.46494    0.000
 6494.00    1.80967   1.46648    0.000
 6495.00    1.72543   1.46715    0.000
 6496.00    1.70939   1.47122    0.000
 6497.00    1.75544   1.47534    0.000
 6498.00    1.80954   1.47753    0.000
 6499.00    1.84877   1.48231    0.000
 6500.00    1.88949   1.48719    0.000
 6501.00    1.94232   1.48893    0.000
 6502.00    1.99624   1.49106    0.000
 6503.00    2.01245   1.49716    0.000
 6504.00    1.95075   1.50088    0.000
 6505.00    1.83699   1.49953    0.000
 6506.00    1.74232   1.50164    0.000
 6507.00    1.69589   1.50836    0.000
 6508.00    1.68440   1.50885    0.000
 6509.00    1.69776   1.50579    0.000
 6510.00    1.73579   1.50980    0.000
 6511.00    1.80018   1.51549    0.000
 6512.00    1.88739   1.51301    0.000
 6513.00    1.97869   1.51007    0.000
 6514.00    2.04508   1.51549    0.000
 6515.00    2.06105   1.51921    0.000
 6516.00    2.02722   1.51489    0.000
 6517.00    2.00275   1.51333    0.000
 6518.00    2.05210   1.51916    0.000
 6519.00    2.15011   1.52017    0.000
 6520.00    2.22609   1.51612    0.000
 6521.00    2.25716   1.51713    0.000
 6522.00    2.26136   1.52174    0.000
 6523.00    2.26449   1.52025    0.000
 6524.00    2.28416   1.51640    0.000
 6525.00    2.31474   1.51835    0.000
 6526.00    2.33603   1.52175    0.000
 6527.00    2.32811   1.51867    0.000
 6528.00    2.28062   1.51425    0.000
 6529.00    2.20109   1.51529    0.000
 6530.00    2.10106   1.51684    0.000
 6531.00    1.97996   1.51354    0.000
 6532.00    1.84369   1.50854    0.000
 6533.00    1.72531   1.50692    0.000
 6534.00    1.65736   1.50589    0.000
 6535.00    1.64160   1.50236    0.000
 6536.00    1.66655   1.49659    0.000
 6537.00    1.72676   1.49157    0.000
 6538.00    1.80717   1.48804    0.000
 6539.00    1.87089   1.48474    0.000
 6540.00    1.90058   1.47747    0.000
 6541.00    1.93033   1.46823    0.000
 6542.00    1.98581   1.46444    0.000
 6543.00    2.03693   1.46225    0.000
 6544.00    2.04882   1.45048    0.000
 6545.00    2.02569   1.43732    0.000
 6546.00    2.00662   1.43821    0.000
 6547.00    2.04918   1.43809    0.000
 6548.00    2.15011   1.41861    0.000
 6549.00    2.20760   1.40318    0.000
 6550.00    2.15506   1.41389    0.000
 6551.00    2.04068   1.41676    0.000
 6552.00    1.93445   1.39184    0.000
 6553.00    1.86512   1.38091    0.000
 6554.00    1.82450   1.39918    0.000
 6555.00    1.78080   1.39913    0.000
 6556.00    1.72868   1.37685    0.000
 6557.00    1.70609   1.37941    0.000
 6558.00    1.73015   1.39989    0.000
 6559.00    1.76992   1.39338    0.000
 6560.00    1.79044   1.37781    0.000
 6561.00    1.77688   1.39357    0.000
 6562.00    1.73590   1.41365    0.000
 6563.00    1.69104   1.40292    0.000
 6564.00    1.66101   1.39417    0.000
 6565.00    1.65128   1.41559    0.000
 6566.00    1.66131   1.43135    0.000
 6567.00    1.68683   1.42466    0.000
 6568.00    1.71575   1.42587    0.000
 6569.00    1.73155   1.44210    0.000
 6570.00    1.73209   1.44850    0.000
 6571.00    1.73237   1.44498    0.000
 6572.00    1.74782   1.45063    0.000
 6573.00    1.78558   1.46246    0.000
 6574.00    1.83668   1.46455    0.000
 6575.00    1.88099   1.46103    0.000
 6576.00    1.91080   1.46624    0.000
 6577.00    1.92971   1.47544    0.000
 6578.00    1.92617   1.47494    0.000
 6579.00    1.88223   1.46993    0.000
 6580.00    1.82000   1.47433    0.000
 6581.00    1.78558   1.48135    0.000
 6582.00    1.77090   1.47873    0.000
 6583.00    1.72906   1.47365    0.000
 6584.00    1.66637   1.47740    0.000
 6585.00    1.63587   1.48240    0.000
 6586.00    1.66489   1.47911    0.000
 6587.00    1.74218   1.47499    0.000
 6588.00    1.83058   1.47893    0.000
 6589.00    1.88952   1.48263    0.000
 6590.00    1.91562   1.47825    0.000
 6591.00    1.93065   1.47548    0.000
 6592.00    1.94045   1.48062    0.000
 6593.00    1.93817   1.48393    0.000
 6594.00    1.92634   1.47885    0.000
 6595.00    1.91713   1.47563    0.000
 6596.00    1.92455   1.48136    0.000
 6597.00    1.95563   1.48713    0.000
 6598.00    1.99825   1.48371    0.000
 6599.00    2.02594   1.47917    0.000
 6600.00    2.00983   1.48331    0.000
 6601.00    1.93460   1.48965    0.000
 6602.00    1.81904   1.48726    0.000
 6603.00    1.70532   1.48376    0.000
 6604.00    1.63781   1.48832    0.000
 6605.00    1.63792   1.49269    0.000
 6606.00    1.67670   1.48887    0.000
 6607.00    1.70976   1.48681    0.000
 6608.00    1.72535   1.49291    0.000
 6609.00    1.72528   1.49554    0.000
 6610.00    1.69676   1.48949    0.000
 6611.00    1.63949   1.48761    0.000
 6612.00    1.59740   1.49444    0.000
 6613.00    1.62081   1.49597    0.000
 6614.00    1.72081   1.48958    0.000
 6615.00    1.86203   1.48743    0.000
 6616.00    1.96621   1.49201    0.000
 6617.00    1.97984   1.49233    0.000
 6618.00    1.93416   1.48722    0.000
 6619.00    1.88924   1.48567    0.000
 6620.00    1.87625   1.48770    0.000
 6621.00    1.88531   1.48645    0.000
 6622.00    1.86704   1.48251    0.000
 6623.00    1.80222   1.48298    0.000
 6624.00    1.74908   1.48440    0.000
 6625.00    1.76076   1.48076    0.000
 6626.00    1.82204   1.47699    0.000
 6627.00    1.88060   1.47993    0.000
 6628.00    1.88013   1.48181    0.000
 6629.00    1.80792   1.47672    0.000
 6630.00    1.71613   1.47377    0.000
 6631.00    1.64990   1.47801    0.000
 6632.00    1.60532   1.47944    0.000
 6633.00    1.57068   1.47409    0.000
 6634.00    1.55139   1.47281    0.000
 6635.00    1.55480   1.47745    0.000
 6636.00    1.58099   1.47708    0.000
 6637.00    1.62513   1.47190    0.000
 6638.00    1.68172   1.47319    0.000
 6639.00    1.75750   1.47792    0.000
 6640.00    1.86856   1.47490    0.000
 6641.00    1.99310   1.46969    0.000
 6642.00    2.06340   1.47275    0.000
 6643.00    2.03750   1.47708    0.000
 6644.00    1.92981   1.47262    0.000
 6645.00    1.79400   1.46720    0.000
 6646.00    1.70150   1.47051    0.000
 6647.00    1.68816   1.47442    0.000
 6648.00    1.73742   1.47021    0.000
 6649.00    1.80265   1.46465    0.000
 6650.00    1.83183   1.46729    0.000
 6651.00    1.82208   1.47080    0.000
 6652.00    1.82222   1.46670    0.000
 6653.00    1.87187   1.46185    0.000
 6654.00    1.97392   1.46457    0.000
 6655.00    2.07849   1.46710    0.000
 6656.00    2.10989   1.46237    0.000
 6657.00    2.06257   1.45941    0.000
 6658.00    1.99689   1.46346    0.000
 6659.00    1.93964   1.46387    0.000
 6660.00    1.87531   1.45750    0.000
 6661.00    1.80371   1.45751    0.000
 6662.00    1.75127   1.46337    0.000
 6663.00    1.75685   1.46091    0.000
 6664.00    1.84693   1.45373    0.000
 6665.00    1.98666   1.45667    0.000
 6666.00    2.10255   1.46249    0.000
 6667.00    2.16139   1.45776    0.000
 6668.00    2.16926   1.45295    0.000
 6669.00    2.12908   1.45760    0.000
 6670.00    2.04428   1.46039    0.000
 6671.00    1.94518   1.45474    0.000
 6672.00    1.87799   1.45375    0.000
 6673.00    1.87240   1.45911    0.000
 6674.00    1.92775   1.45826    0.000
 6675.00    2.00116   1.45286    0.000
 6676.00    2.04224   1.45523    0.000
 6677.00    2.05468   1.46022    0.000
 6678.00    2.06650   1.45672    0.000
 6679.00    2.06556   1.45260    0.000
 6680.00    2.02310   1.45643    0.000
 6681.00    1.94570   1.45951    0.000
 6682.00    1.86431   1.45598    0.000
 6683.00    1.80578   1.45474    0.000
 6684.00    1.78108   1.45746    0.000
 6685.00    1.77565   1.45735    0.000
 6686.00    1.76547   1.45488    0.000
 6687.00    1.73979   1.45570    0.000
 6688.00    1.70494   1.45670    0.000
 6689.00    1.68386   1.45460    0.000
 6690.00    1.69602   1.45348    0.000
 6691.00    1.73529   1.45473    0.000
 6692.00    1.78581   1.45379    0.000
 6693.00    1.84129   1.45132    0.000
 6694.00    1.89353   1.45129    0.000
 6695.00    1.92026   1.45141    0.000
 6696.00    1.90587   1.44898    0.000
 6697.00    1.86162   1.44738    0.000
 6698.00    1.80915   1.44781    0.000
 6699.00    1.76360   1.44569    0.000
 6700.00    1.73696   1.44255    0.000
 6701.00    1.74054   1.44311    0.000
 6702.00    1.76977   1.44349    0.000
 6703.00    1.79426   1.43925    0.000
 6704.00    1.78281   1.43641    0.000
 6705.00    1.72487   1.43849    0.000
 6706.00    1.63726   1.43816    0.000
 6707.00    1.56313   1.43296    0.000
 6708.00    1.53599   1.43177    0.000
 6709.00    1.55622   1.43532    0.000
 6710.00    1.60704   1.43396    0.000
 6711.00    1.66759   1.42859    0.000
 6712.00    1.72127   1.42961    0.000
 6713.00    1.76039   1.43399    0.000
 6714.00    1.78395   1.43173    0.000
 6715.00    1.79622   1.42738    0.000
 6716.00    1.80655   1.43002    0.000
 6717.00    1.82484   1.43402    0.000
 6718.00    1.83842   1.43161    0.000
 6719.00    1.80993   1.42862    0.000
 6720.00    1.72782   1.43157    0.000
 6721.00    1.62652   1.43443    0.000
 6722.00    1.55851   1.43289    0.000
 6723.00    1.57049   1.43116    0.000
 6724.00    1.66169   1.43242    0.000
 6725.00    1.77982   1.43377    0.000
 6726.00    1.88247   1.43354    0.000
 6727.00    1.95763   1.43233    0.000
 6728.00    1.99835   1.43147    0.000
 6729.00    1.99455   1.43203    0.000
 6730.00    1.94222   1.43297    0.000
 6731.00    1.85001   1.43150    0.000
 6732.00    1.74890   1.42915    0.000
 6733.00    1.68307   1.42990    0.000
 6734.00    1.66852   1.43159    0.000
 6735.00    1.68551   1.42931    0.000
 6736.00    1.69974   1.42668    0.000
 6737.00    1.68424   1.42844    0.000
 6738.00    1.66176   1.43056    0.000
 6739.00    1.69183   1.42781    0.000
 6740.00    1.79966   1.42579    0.000
 6741.00    1.95851   1.42834    0.000
 6742.00    2.09901   1.43040    0.000
 6743.00    2.14917   1.42838    0.000
 6744.00    2.12401   1.42771    0.000
 6745.00    2.09918   1.43007    0.000
 6746.00    2.09700   1.43135    0.000
 6747.00    2.09007   1.43103    0.000
 6748.00    2.06982   1.43175    0.000
 6749.00    2.04674   1.43295    0.000
 6750.00    2.01847   1.43358    0.000
 6751.00    1.97514   1.43487    0.000
 6752.00    1.92346   1.43580    0.000
 6753.00    1.88437   1.43577    0.000
 6754.00    1.87923   1.43677    0.000
 6755.00    1.91421   1.43902    0.000
 6756.00    1.95893   1.43863    0.000
 6757.00    1.97232   1.43770    0.000
 6758.00    1.95097   1.44004    0.000
 6759.00    1.91544   1.44209    0.000
 6760.00    1.87615   1.43991    0.000
 6761.00    1.83360   1.43896    0.000
 6762.00    1.78741   1.44237    0.000
 6763.00    1.74445   1.44350    0.000
 6764.00    1.72689   1.43997    0.000
 6765.00    1.74793   1.43958    0.000
 6766.00    1.78045   1.44350    0.000
 6767.00    1.79167   1.44343    0.000
 6768.00    1.78951   1.43913    0.000
 6769.00    1.78972   1.43935    0.000
 6770.00    1.77287   1.44292    0.000
 6771.00    1.72053   1.44170    0.000
 6772.00    1.65917   1.43775    0.000
 6773.00    1.63087   1.43849    0.000
 6774.00    1.65679   1.44076    0.000
 6775.00    1.73442   1.43863    0.000
 6776.00    1.83844   1.43583    0.000
 6777.00    1.92184   1.43702    0.000
 6778.00    1.92256   1.43801    0.000
 6779.00    1.81836   1.43548    0.000
 6780.00    1.67050   1.43378    0.000
 6781.00    1.57211   1.43531    0.000
 6782.00    1.59711   1.43583    0.000
 6783.00    1.76838   1.43359    0.000
 6784.00    2.03665   1.43266    0.000
 6785.00    2.29427   1.43429    0.000
 6786.00    2.40256   1.43489    0.000
 6787.00    2.30750   1.43347    0.000
 6788.00    2.10477   1.43314    0.000
 6789.00    1.91439   1.43459    0.000
 6790.00    1.79390   1.43555    0.000
 6791.00    1.75615   1.43496    0.000
 6792.00    1.78663   1.43461    0.000
 6793.00    1.85942   1.43544    0.000
 6794.00    1.94582   1.43712    0.000
 6795.00    2.01006   1.43722    0.000
 6796.00    2.01338   1.43614    0.000
 6797.00    1.95070   1.43637    0.000
 6798.00    1.86328   1.43894    0.000
 6799.00    1.80038   1.43939    0.000
 6800.00    1.79478   1.43746    0.000
 6801.00    1.84422   1.43742    0.000
 6802.00    1.90944   1.44040    0.000
 6803.00    1.94489   1.44087    0.000
 6804.00    1.91971   1.43862    0.000
 6805.00    1.84436   1.43853    0.000
 6806.00    1.77096   1.44143    0.000
 6807.00    1.74871   1.44184    0.000
 6808.00    1.79566   1.43984    0.000
 6809.00    1.86419   1.43972    0.000
 6810.00    1.86164   1.44200    0.000
 6811.00    1.76911   1.44262    0.000
 6812.00    1.65764   1.44126    0.000
 6813.00    1.59396   1.44049    0.000
 6814.00    1.60512   1.44192    0.000
 6815.00    1.67395   1.44322    0.000
 6816.00    1.75388   1.44228    0.000
 6817.00    1.81643   1.44041    0.000
 6818.00    1.86063   1.44091    0.000
 6819.00    1.89728   1.44287    0.000
 6820.00    1.93938   1.44231    0.000
 6821.00    1.98948   1.43927    0.000
 6822.00    2.03953   1.43878    0.000
 6823.00    2.07923   1.44100    0.000
 6824.00    2.09865   1.44057    0.000
 6825.00    2.08922   1.43700    0.000
 6826.00    2.04963   1.43596    0.000
 6827.00    1.99800   1.43781    0.000
 6828.00    1.95820   1.43712    0.000
 6829.00    1.92603   1.43375    0.000
 6830.00    1.88953   1.43282    0.000
 6831.00    1.88279   1.43388    0.000
 6832.00    1.94966   1.43278    0.000
 6833.00    2.05649   1.43044    0.000
 6834.00    2.13649   1.43017    0.000
 6835.00    2.19681   1.43004    0.000
 6836.00    2.27376   1.42829    0.000
 6837.00    2.32669   1.42745    0.000
 6838.00    2.28643   1.42821    0.000
 6839.00    2.16039   1.42674    0.000
 6840.00    2.00969   1.42430    0.000
 6841.00    1.88810   1.42500    0.000
 6842.00    1.82709   1.42654    0.000
 6843.00    1.82814   1.42385    0.000
 6844.00    1.86726   1.42121    0.000
 6845.00    1.90369   1.42317    0.000
 6846.00    1.89810   1.42493    0.000
 6847.00    1.83504   1.42153    0.000
 6848.00    1.73269   1.41932    0.000
 6849.00    1.64765   1.42197    0.000
 6850.00    1.62595   1.42320    0.000
 6851.00    1.64986   1.41987    0.000
 6852.00    1.68293   1.41880    0.000
 6853.00    1.72246   1.42149    0.000
 6854.00    1.76740   1.42193    0.000
 6855.00    1.78448   1.41952    0.000
 6856.00    1.76037   1.41982    0.000
 6857.00    1.74936   1.42192    0.000
 6858.00    1.81155   1.42169    0.000
 6859.00    1.95167   1.42084    0.000
 6860.00    2.11864   1.42229    0.000
 6861.00    2.21955   1.42345    0.000
 6862.00    2.20576   1.42303    0.000
 6863.00    2.13153   1.42373    0.000
 6864.00    2.05696   1.42541    0.000
 6865.00    1.97799   1.42589    0.000
 6866.00    1.89861   1.42613    0.000
 6867.00    1.87423   1.42778    0.000
 6868.00    1.91487   1.42887    0.000
 6869.00    1.93608   1.42926    0.000
 6870.00    1.89766   1.43033    0.000
 6871.00    1.87691   1.43203    0.000
 6872.00    1.93612   1.43272    0.000
 6873.00    2.04405   1.43386    0.000
 6874.00    2.12053   1.43517    0.000
 6875.00    2.08251   1.43606    0.000
 6876.00    1.93694   1.43698    0.000
 6877.00    1.80328   1.43926    0.000
 6878.00    1.76451   1.44010    0.000
 6879.00    1.80244   1.44004    0.000
 6880.00    1.87386   1.44174    0.000
 6881.00    1.95238   1.44458    0.000
 6882.00    2.03691   1.44446    0.000
 6883.00    2.14161   1.44411    0.000
 6884.00    2.23853   1.44669    0.000
 6885.00    2.25689   1.44903    0.000
 6886.00    2.18421   1.44795    0.000
 6887.00    2.09109   1.44812    0.000
 6888.00    2.05981   1.45131    0.000
 6889.00    2.13862   1.45230    0.000
 6890.00    2.28393   1.45046    0.000
 6891.00    2.37667   1.45155    0.000
 6892.00    2.35076   1.45482    0.000
 6893.00    2.22491   1.45436    0.000
 6894.00    2.05521   1.45206    0.000
 6895.00    1.90857   1.45366    0.000
 6896.00    1.83258   1.45651    0.000
 6897.00    1.84100   1.45523    0.000
 6898.00    1.90010   1.45273    0.000
 6899.00    1.94595   1.45404    0.000
 6900.00    1.94140   1.45630    0.000
 6901.00    1.88823   1.45498    0.000
 6902.00    1.81569   1.45235    0.000
 6903.00    1.76211   1.45280    0.000
 6904.00    1.73881   1.45460    0.000
 6905.00    1.73020   1.45382    0.000
 6906.00    1.71547   1.45103    0.000
 6907.00    1.68263   1.45059    0.000
 6908.00    1.64659   1.45224    0.000
 6909.00    1.62993   1.45211    0.000
 6910.00    1.61711   1.44919    0.000
 6911.00    1.58543   1.44830    0.000
 6912.00    1.58087   1.45023    0.000
 6913.00    1.66923   1.45047    0.000
 6914.00    1.82155   1.44737    0.000
 6915.00    1.94498   1.44658    0.000
 6916.00    1.97348   1.44916    0.000
 6917.00    1.89054   1.44945    0.000
 6918.00    1.73834   1.44601    0.000
 6919.00    1.58608   1.44569    0.000
 6920.00    1.47892   1.44909    0.000
 6921.00    1.43346   1.44917    0.000
 6922.00    1.44287   1.44534    0.000
 6923.00    1.48284   1.44548    0.000
 6924.00    1.51987   1.44954    0.000
 6925.00    1.53246   1.44934    0.000
 6926.00    1.53554   1.44518    0.000
 6927.00    1.55474   1.44554    0.000
 6928.00    1.59198   1.44993    0.000
 6929.00    1.64096   1.44953    0.000
 6930.00    1.70847   1.44529    0.000
 6931.00    1.79447   1.44575    0.000
 6932.00    1.86925   1.45002    0.000
 6933.00    1.89599   1.44952    0.000
 6934.00    1.85858   1.44571    0.000
 6935.00    1.77926   1.44626    0.000
 6936.00    1.72596   1.45000    0.000
 6937.00    1.73561   1.44954    0.000
 6938.00    1.75093   1.44670    0.000
 6939.00    1.71253   1.44730    0.000
 6940.00    1.64044   1.45032    0.000
 6941.00    1.58565   1.45031    0.000
 6942.00    1.58186   1.44883    0.000
 6943.00    1.62933   1.44924    0.000
 6944.00    1.69042   1.45140    0.000
 6945.00    1.73384   1.45225    0.000
 6946.00    1.76455   1.45218    0.000
 6947.00    1.79513   1.45197    0.000
 6948.00    1.82462   1.45321    0.000
 6949.00    1.84304   1.45513    0.000
 6950.00    1.83920   1.45613    0.000
 6951.00    1.82461   1.45482    0.000
 6952.00    1.83731   1.45494    0.000
 6953.00    1.87498   1.45787    0.000
 6954.00    1.87107   1.45966    0.000
 6955.00    1.79060   1.45681    0.000
 6956.00    1.67692   1.45543    0.000
 6957.00    1.60333   1.45906    0.000
 6958.00    1.63357   1.46132    0.000
 6959.00    1.76387   1.45690    0.000
 6960.00    1.91063   1.45404    0.000
 6961.00    1.98889   1.45809    0.000
 6962.00    1.95848   1.46076    0.000
 6963.00    1.85557   1.45520    0.000
 6964.00    1.77873   1.45107    0.000
 6965.00    1.77512   1.45542    0.000
 6966.00    1.81149   1.45866    0.000
 6967.00    1.85533   1.45270    0.000
 6968.00    1.90041   1.44801    0.000
 6969.00    1.93637   1.45266    0.000
 6970.00    1.94623   1.45639    0.000
 6971.00    1.93975   1.45092    0.000
 6972.00    1.94968   1.44653    0.000
 6973.00    1.97978   1.45118    0.000
 6974.00    2.00189   1.45504    0.000
 6975.00    2.00237   1.45081    0.000
 6976.00    1.98617   1.44726    0.000
 6977.00    1.94443   1.45127    0.000
 6978.00    1.86109   1.45470    0.000
 6979.00    1.75835   1.45203    0.000
 6980.00    1.68521   1.44935    0.000
 6981.00    1.65377   1.45196    0.000
 6982.00    1.64009   1.45454    0.000
 6983.00    1.62913   1.45347    0.000
 6984.00    1.61629   1.45117    0.000
 6985.00    1.58435   1.45175    0.000
 6986.00    1.51840   1.45361    0.000
 6987.00    1.44992   1.45421    0.000
 6988.00    1.43332   1.45174    0.000
 6989.00    1.47697   1.44992    0.000
 6990.00    1.55224   1.45151    0.000
 6991.00    1.64023   1.45389    0.000
 6992.00    1.72958   1.45093    0.000
 6993.00    1.79534   1.44671    0.000
 6994.00    1.81473   1.44856    0.000
 6995.00    1.80053   1.45290    0.000
 6996.00    1.78123   1.44944    0.000
 6997.00    1.75900   1.44305    0.000
 6998.00    1.73030   1.44547    0.000
 6999.00    1.72702   1.45190    0.000
 7000.00    1.77475   1.44814    0.000
 7001.00    1.82460   1.43988   -2.000
 7002.00    1.80926   1.44292   -2.000
 7003.00    1.73443   1.45131   -2.000
 7004.00    1.65403   1.44759   -2.000
 7005.00    1.61869   1.43803   -2.000
 7006.00    1.65075   1.44151   -2.000
 7007.00    1.72337   1.45132   -2.000
 7008.00    1.78757   1.44801   -2.000
 7009.00    1.80818   1.43817   -2.000
 7010.00    1.77226   1.44179   -2.000
 7011.00    1.69421   1.45197   -2.000
 7012.00    1.62027   1.44943   -2.000
 7013.00    1.62667   1.44072   -2.000
 7014.00    1.75299   1.44423   -2.000
 7015.00    1.93956   1.45333   -2.000
 7016.00    2.07629   1.45176   -2.000
 7017.00    2.06283   1.44564   -2.000
 7018.00    1.88311   1.44885   -2.000
 7019.00    1.65525   1.45550   -2.000
 7020.00    1.51225   1.45488   -2.000
 7021.00    1.49770   1.45233   -2.000
 7022.00    1.58162   1.45512   -2.000
 7023.00    1.68768   1.45850   -2.000
 7024.00    1.75482   1.45861   -2.000
 7025.00    1.77907   1.45967   -2.000
 7026.00    1.77946   1.46191   -2.000
 7027.00    1.77127   1.46196   -2.000
 7028.00    1.76659   1.46235   -2.000
 7029.00    1.77421   1.46599   -2.000
 7030.00    1.78961   1.46748   -2.000
 7031.00    1.79154   1.46488   -2.000
 7032.00    1.76129   1.46492   -2.000
 7033.00    1.69685   1.46931   -2.000
 7034.00    1.62503   1.46974   -2.000
 7035.00    1.59657   1.46546   -2.000
 7036.00    1.62465   1.46452   -2.000
 7037.00    1.66498   1.46771   -2.000
 7038.00    1.68780   1.46691   -2.000
 7039.00    1.70668   1.46196   -2.000
 7040.00    1.73327   1.45958   -2.000
 7041.00    1.76099   1.46033   -2.000
 7042.00    1.79562   1.45852   -2.000
 7043.00    1.85726   1.45375   -2.000
 7044.00    1.92714   1.44998   -2.000
 7045.00    1.94541   1.44814   -2.000
 7046.00    1.89600   1.44598   -2.000
 7047.00    1.82414   1.44218   -2.000
 7048.00    1.76771   1.43761   -2.000
 7049.00    1.73468   1.43386   -2.000
 7050.00    1.72053   1.43215   -2.000
 7051.00    1.71903   1.43002   -2.000
 7052.00    1.73496   1.42554   -2.000
 7053.00    1.78089   1.42088   -2.000
 7054.00    1.85335   1.42010   -2.000
 7055.00    1.92489   1.41999   -2.000
 7056.00    1.94512   1.41633   -2.000
 7057.00    1.86962   1.41145   -2.000
 7058.00    1.73846   1.41151   -2.000
 7059.00    1.65496   1.41328   -2.000
 7060.00    1.66803   1.41060   -2.000
 7061.00    1.74790   1.40559   -2.000
 7062.00    1.81012   1.40592   -2.000
 7063.00    1.77617   1.40894   -2.000
 7064.00    1.69808   1.40680   -2.000
 7065.00    1.69448   1.40122   -2.000
 7066.00    1.74139   1.40101   -2.000
 7067.00    1.72604   1.40449   -2.000
 7068.00    1.66180   1.40226   -2.000
 7069.00    1.64003   1.39567   -2.000
 7070.00    1.64117   1.39429   -2.000
 7071.00    1.58240   1.39751   -2.000
 7072.00    1.47982   1.39493   -2.000
 7073.00    1.41631   1.38739   -2.000
 7074.00    1.42758   1.38471   -2.000
 7075.00    1.50052   1.38724   -2.000
 7076.00    1.60685   1.38461   -2.000
 7077.00    1.71788   1.37701   -2.000
 7078.00    1.81839   1.37347   -2.000
 7079.00    1.89653   1.37519   -2.000
 7080.00    1.92696   1.37310   -2.000
 7081.00    1.89826   1.36674   -2.000
 7082.00    1.85291   1.36337   -2.000
 7083.00    1.83822   1.36427   -2.000
 7084.00    1.83556   1.36303   -2.000
 7085.00    1.81230   1.35906   -2.000
 7086.00    1.79671   1.35701   -2.000
 7087.00    1.82327   1.35706   -2.000
 7088.00    1.85870   1.35633   -2.000
 7089.00    1.85307   1.35520   -2.000
 7090.00    1.80708   1.35532   -2.000
 7091.00    1.75241   1.35454   -2.000
 7092.00    1.72159   1.35338   -2.000
 7093.00    1.73930   1.35469   -2.000
 7094.00    1.81384   1.35718   -2.000
 7095.00    1.90901   1.35567   -2.000
 7096.00    1.92763   1.35343   -2.000
 7097.00    1.81344   1.35620   -2.000
 7098.00    1.63699   1.36042   -2.000
 7099.00    1.50461   1.35822   -2.000
 7100.00    1.47089   1.35486   -2.000
 7101.00    1.52558   1.35828   -2.000
 7102.00    1.59724   1.36302   -2.000
 7103.00    1.62495   1.35990   -2.000
 7104.00    1.60983   1.35605   -2.000
 7105.00    1.57846   1.35985   -2.000
 7106.00    1.55197   1.36382   -2.000
 7107.00    1.53808   1.35923   -2.000
 7108.00    1.52628   1.35563   -2.000
 7109.00    1.48399   1.36008   -2.000
 7110.00    1.36865   1.36261   -2.000
 7111.00    1.21709   1.35604   -2.000
 7112.00    1.17118   1.35290   -2.000
 7113.00    1.30056   1.35843   -2.000
 7114.00    1.51716   1.35984   -2.000
 7115.00    1.69501   1.35147   -2.000
 7116.00    1.74899   1.34832   -2.000
 7117.00    1.67912   1.35496   -2.000
 7118.00    1.56717   1.35646   -2.000
 7119.00    1.45428   1.34749   -2.000
 7120.00    1.31078   1.34358   -2.000
 7121.00    1.18160   1.35048   -2.000
 7122.00    1.20830   1.35350   -2.000
 7123.00    1.42235   1.34577   -2.000
 7124.00    1.68748   1.34063   -2.000
 7125.00    1.84900   1.34656   -2.000
 7126.00    1.81795   1.35174   -2.000
 7127.00    1.64243   1.34687   -2.000
 7128.00    1.48357   1.34072   -2.000
 7129.00    1.42934   1.34453   -2.000
 7130.00    1.45331   1.35167   -2.000
 7131.00    1.51754   1.35029   -2.000
 7132.00    1.60205   1.34341   -2.000
 7133.00    1.67835   1.34463   -2.000
 7134.00    1.70908   1.35314   -2.000
 7135.00    1.67509   1.35512   -2.000
 7136.00    1.58905   1.34789   -2.000
 7137.00    1.50824   1.34649   -2.000
 7138.00    1.49931   1.35561   -2.000
 7139.00    1.53466   1.36039   -2.000
 7140.00    1.52433   1.35297   -2.000
 7141.00    1.47122   1.34919   -2.000
 7142.00    1.45894   1.35840   -2.000
 7143.00    1.52129   1.36515   -2.000
 7144.00    1.62084   1.35773   -2.000
 7145.00    1.67837   1.35223   -2.000
 7146.00    1.63150   1.36079   -2.000
 7147.00    1.54247   1.36861   -2.000
 7148.00    1.53992   1.36173   -2.000
 7149.00    1.65246   1.35494   -2.000
 7150.00    1.82615   1.36178   -2.000
 7151.00    2.02581   1.37026   -2.000
 7152.00    2.22495   1.36488   -2.000
 7153.00    2.35318   1.35708   -2.000
 7154.00    2.35806   1.36111   -2.000
 7155.00    2.32282   1.36994   -2.000
 7156.00    2.35237   1.36706   -2.000
 7157.00    2.36138   1.35880   -2.000
 7158.00    2.21562   1.35951   -2.000
 7159.00    1.99645   1.36799   -2.000
 7160.00    1.86891   1.36790   -2.000
 7161.00    1.83415   1.36007   -2.000
 7162.00    1.80528   1.35798   -2.000
 7163.00    1.76084   1.36524   -2.000
 7164.00    1.72868   1.36732   -2.000
 7165.00    1.73538   1.36041   -2.000
 7166.00    1.77653   1.35653   -2.000
 7167.00    1.79251   1.36235   -2.000
 7168.00    1.72998   1.36565   -2.000
 7169.00    1.61396   1.35950   -2.000
 7170.00    1.50570   1.35447   -2.000
 7171.00    1.44603   1.35922   -2.000
 7172.00    1.44606   1.36340   -2.000
 7173.00    1.48556   1.35791   -2.000
 7174.00    1.53616   1.35196   -2.000
 7175.00    1.58449   1.35576   -2.000
 7176.00    1.63170   1.36088   -2.000
 7177.00    1.68755   1.35651   -2.000
 7178.00    1.73903   1.34987   -2.000
 7179.00    1.73093   1.35249   -2.000
 7180.00    1.63975   1.35851   -2.000
 7181.00    1.53165   1.35585   -2.000
 7182.00    1.51445   1.34886   -2.000
 7183.00    1.67869   1.35000   -2.000
 7184.00    1.96684   1.35680   -2.000
 7185.00    2.12091   1.35624   -2.000
 7186.00    2.00043   1.34902   -2.000
 7187.00    1.77130   1.34826   -2.000
 7188.00    1.61794   1.35573   -2.000
 7189.00    1.55916   1.35775   -2.000
 7190.00    1.57248   1.35086   -2.000
 7191.00    1.66630   1.34787   -2.000
 7192.00    1.79356   1.35456   -2.000
 7193.00    1.82570   1.35910   -2.000
 7194.00    1.71360   1.35410   -2.000
 7195.00    1.55239   1.34943   -2.000
 7196.00    1.42937   1.35391   -2.000
 7197.00    1.35231   1.35991   -2.000
 7198.00    1.31476   1.35809   -2.000
 7199.00    1.32263   1.35330   -2.000
 7200.00    1.35393   1.35495   -2.000
 7201.00    1.35858   1.36080   -2.000
 7202.00    1.34533   1.36222   -2.000
 7203.00    1.38846   1.35942   -2.000
 7204.00    1.48955   1.35887   -2.000
 7205.00    1.55499   1.36297   -2.000
 7206.00    1.54417   1.36649   -2.000
 7207.00    1.50309   1.36673   -2.000
 7208.00    1.46124   1.36581   -2.000
 7209.00    1.41332   1.36769   -2.000
 7210.00    1.39678   1.37196   -2.000
 7211.00    1.48145   1.37514   -2.000
 7212.00    1.64258   1.37414   -2.000
 7213.00    1.76519   1.37388   -2.000
 7214.00    1.79342   1.37848   -2.000
 7215.00    1.75566   1.38409   -2.000
 7216.00    1.69355   1.38337   -2.000
 7217.00    1.63179   1.38120   -2.000
 7218.00    1.55754   1.38540   -2.000
