###################################################################
## OUTPUT of StarlightChains_v04.for    [Cid@UFSC - 01/Apr/2007] ##
###################################################################

## Some input info
1998ar.txt                               [arq_obs]
Base.CB07.vall.4m                        [arq_base]
Masks.EmLines.NEW.gm                     [arq_masks]
StCv04.C11.config                        [arq_config]
   66                                    [N_base]
    0                                    [N_YAV_components = # of components with extra extinction!]
    0                                    [i_FitPowerLaw (1/0 = Yes/No)]
-9.99                                    [alpha_PowerLaw]
CCM                                      [red_law_option]
 1.458241                                [q_norm = A(l_norm)/A(V)]

## (Re)Sampling Parameters
 3741.00                                 [l_ini (A)]
 7218.00                                 [l_fin (A)]
    1.00                                 [dl    (A)]     (OBS: dl_cushion =    50.00 A)

## Normalization info
 4020.00                                 [l_norm (A) - for base]
 4010.00                                 [llow_norm (A) - window for f_obs]
 4060.00                                 [lupp_norm (A) - window for f_obs]
3.348220E-17                             [fobs_norm (in input units)]

## S/N
 3691.00                                 [llow_SN (A) - window for S/N]
 7268.00                                 [lupp_SN (A) - window for S/N]
   5.025                                 [S/N in S/N window]
   5.206                                 [S/N in norm. window]
   0.000                                 [S/N_err in S/N window]
   0.000                                 [S/N_err in norm. window]
  1.0000                                 [fscale_chi2]

## etc...
    -2007231                             [idum_orig]
  2371                                   [NOl_eff]
  2283                                   [Nl_eff]
    88    NSIGMA                         [Ntot_cliped & clip_method]
   813330                                [Nglobal_steps]
   7                                     [N_chains]
  12                                     [NEX0s_base = N_base in EX0s-fits]
 0   0   1      210   2.0   1.621E+01    [Clip-Bug, RC-Crash & Burn-In warning-flags, n_censored_weights, wei_nsig_threshold & wei_limit]
    14     14.052     13.556      0.496  [idt_all, wdt_TotTime, wdt_UsrTime & wdt_SysTime (sec)]

## Synthesis Results - Best model ##

 3.97463E-01                             [chi2/Nl_eff]
    19.89707                             [adev (%)]

   120.78316                             [sum-of-x (%)]
 1.68831E-16                             [Flux_tot (units of input spectrum!)]
 2.68457E-13                             [Mini_tot (???)]
 1.73402E-13                             [Mcor_tot (???)]

  37.79                                  [v0_min  (km/s)]
   0.00                                  [vd_min  (km/s)]
 1.0640                                  [AV_min  (mag)]
 0.0000                                  [YAV_min (mag)]

# j     x_j(%)      Mini_j(%)     Mcor_j(%)     age_j(yr)     Z_j      (L/M)_j    YAV?  Mstars   component_j        a/Fe...       SSP_chi2r SSP_adev(%)   SSP_AV   SSP_x(%)
  1      0.0000     0.0000E+00    0.0000E+00    1.000000E+06  0.00400  1.094E-02    0   1.0000   age020_m42            0.0000     4.1114E-01    20.2911   3.1142    96.7379
  2      0.0000     0.0000E+00    0.0000E+00    3.160000E+06  0.00400  4.007E-02    0   0.9999   age045_m42            0.0000     4.0578E-01    20.2675   2.3090   107.9024
  3      0.0000     0.0000E+00    0.0000E+00    5.010000E+06  0.00400  2.539E-02    0   0.9488   age055_m42            0.0000     4.1110E-01    20.0542   2.6534   103.7642
  4      0.0000     0.0000E+00    0.0000E+00    6.610000E+06  0.00400  2.620E-02    0   0.9220   age061_m42            0.0000     4.0599E-01    21.3050   2.1692   112.0612
  5      0.9433     3.7152E-02    5.0972E-02    1.000000E+07  0.00400  1.322E-02    0   0.8862   age070_m42            0.0000     4.0425E-01    26.8268   1.6142   131.6010
  6      0.0000     0.0000E+00    0.0000E+00    1.445000E+07  0.00400  7.883E-03    0   0.8571   age078_m42            0.0000     4.0735E-01    27.5003   1.9417   128.7160
  7      0.7613     7.5485E-02    9.5524E-02    2.512000E+07  0.00400  5.251E-03    0   0.8174   age090_m42            0.0000     4.0322E-01    27.0984   1.4575   133.8512
  8      0.0000     0.0000E+00    0.0000E+00    4.000000E+07  0.00400  3.649E-03    0   0.7851   age104_m42            0.0000     4.0278E-01    25.8034   1.2712   131.9103
  9      0.0000     0.0000E+00    0.0000E+00    5.500000E+07  0.00400  3.098E-03    0   0.7629   age110_m42            0.0000     4.0210E-01    25.0859   1.4767   129.1118
 10      0.0000     0.0000E+00    0.0000E+00    1.015200E+08  0.00400  2.228E-03    0   0.7207   age116_m42            0.0000     4.0063E-01    23.6742   1.5603   125.2255
 11      0.0000     0.0000E+00    0.0000E+00    2.861200E+08  0.00400  1.093E-03    0   0.6648   age125_m42            0.0000     4.1022E-01    32.3272   0.6577   154.8168
 12      0.0000     0.0000E+00    0.0000E+00    5.088000E+08  0.00400  6.597E-04    0   0.6365   age130_m42            0.0000     4.0826E-01    27.0224   0.8404   140.6149
 13      0.0000     0.0000E+00    0.0000E+00    1.434000E+09  0.00400  2.132E-04    0   0.5798   age139_m42            0.0000     4.1607E-01    17.7064   0.2772   112.9693
 14      0.0000     0.0000E+00    0.0000E+00    4.250000E+09  0.00400  5.895E-05    0   0.5377   age158_m42            0.0000     4.1341E-01    17.6226   0.1338    92.5583
 15      0.0000     0.0000E+00    0.0000E+00    7.500000E+09  0.00400  3.510E-05    0   0.5212   age171_m42            0.0000     4.1191E-01    18.3036  -0.0772    93.7580
 16      0.0000     0.0000E+00    0.0000E+00    1.300000E+10  0.00400  2.005E-05    0   0.5034   age193_m42            0.0000     4.1147E-01    19.2180  -0.3030    97.1802
 17      0.0000     0.0000E+00    0.0000E+00    1.800000E+10  0.00400  1.525E-05    0   0.4967   age213_m42            0.0000     4.1663E-01    18.7009  -0.2542    92.4513
 18      2.6769     1.1259E-01    1.7431E-01    1.000000E+06  0.00800  1.238E-02    0   1.0000   age020_m52            0.0000     4.1111E-01    20.2758   3.1131    96.8070
 19      0.0000     0.0000E+00    0.0000E+00    3.160000E+06  0.00800  3.074E-02    0   0.9966   age045_m52            0.0000     4.1307E-01    19.5183   3.0959    94.3286
 20      0.0000     0.0000E+00    0.0000E+00    5.010000E+06  0.00800  2.668E-02    0   0.9443   age055_m52            0.0000     4.1179E-01    20.0246   2.7466   102.2284
 21     24.2905     5.9212E-01    8.4126E-01    6.610000E+06  0.00800  2.136E-02    0   0.9177   age061_m52            0.0000     4.0120E-01    21.8457   1.3031   119.5040
 22      0.0000     0.0000E+00    0.0000E+00    1.000000E+07  0.00800  1.215E-02    0   0.8827   age070_m52            0.0000     4.1006E-01    31.0597   1.6489   142.0645
 23      0.0000     0.0000E+00    0.0000E+00    1.445000E+07  0.00800  8.717E-03    0   0.8552   age078_m52            0.0000     4.0643E-01    26.2672   1.9358   128.0608
 24      0.0000     0.0000E+00    0.0000E+00    2.512000E+07  0.00800  5.592E-03    0   0.8162   age090_m52            0.0000     4.0599E-01    28.2876   1.4716   139.0111
 25      0.0000     0.0000E+00    0.0000E+00    4.000000E+07  0.00800  3.896E-03    0   0.7841   age104_m52            0.0000     4.0464E-01    29.6443   1.3502   143.4003
 26      0.0000     0.0000E+00    0.0000E+00    1.015200E+08  0.00800  2.148E-03    0   0.7226   age116_m52            0.0000     4.0131E-01    26.6841   1.4078   134.7967
 27      0.0000     0.0000E+00    0.0000E+00    2.861200E+08  0.00800  9.925E-04    0   0.6683   age125_m52            0.0000     4.0173E-01    29.4860   0.8322   148.4543
 28      0.0000     0.0000E+00    0.0000E+00    9.047900E+08  0.00800  3.141E-04    0   0.6138   age135_m52            0.0000     4.1135E-01    22.9128   0.3063   132.5501
 29      0.0000     0.0000E+00    0.0000E+00    1.434000E+09  0.00800  1.719E-04    0   0.5853   age139_m52            0.0000     4.2994E-01    19.1476  -0.1011   116.9210
 30      0.0000     0.0000E+00    0.0000E+00    2.500000E+09  0.00800  7.872E-05    0   0.5600   age150_m52            0.0000     4.1155E-01    18.6172  -0.1091    99.5556
 31      0.0000     0.0000E+00    0.0000E+00    4.250000E+09  0.00800  4.336E-05    0   0.5426   age158_m52            0.0000     4.0991E-01    18.6351  -0.0887    96.6434
 32      0.0000     0.0000E+00    0.0000E+00    6.250000E+09  0.00800  3.159E-05    0   0.5319   age166_m52            0.0000     4.1310E-01    19.2354  -0.2081    92.6697
 33      0.0000     0.0000E+00    0.0000E+00    1.300000E+10  0.00800  1.361E-05    0   0.5073   age193_m52            0.0000     4.1357E-01    20.1017  -0.5252    84.9934
 34      0.0000     0.0000E+00    0.0000E+00    1.800000E+10  0.00800  9.886E-06    0   0.4990   age213_m52            0.0000     4.1452E-01    20.7771  -0.5561    81.4220
 35      0.0000     0.0000E+00    0.0000E+00    1.000000E+06  0.02000  1.544E-02    0   1.0000   age020_m62            0.0000     4.1041E-01    20.2039   3.1160    96.6405
 36      0.0000     0.0000E+00    0.0000E+00    3.160000E+06  0.02000  3.762E-02    0   0.9858   age045_m62            0.0000     4.1509E-01    20.0660   3.0663    96.8997
 37      0.0000     0.0000E+00    0.0000E+00    5.010000E+06  0.02000  3.296E-02    0   0.9342   age055_m62            0.0000     4.0853E-01    20.1783   2.6091   105.5652
 38      0.0000     0.0000E+00    0.0000E+00    8.710000E+06  0.02000  1.154E-02    0   0.8861   age067_m62            0.0000     4.2519E-01    42.0647   0.6694   180.4106
 39      0.0000     0.0000E+00    0.0000E+00    1.445000E+07  0.02000  7.663E-03    0   0.8472   age078_m62            0.0000     4.1680E-01    36.4182   1.0920   161.1420
 40      0.0000     0.0000E+00    0.0000E+00    2.512000E+07  0.02000  4.532E-03    0   0.8099   age090_m62            0.0000     4.2063E-01    38.7978   1.0044   167.8206
 41      0.0000     0.0000E+00    0.0000E+00    5.500000E+07  0.02000  2.733E-03    0   0.7595   age110_m62            0.0000     4.0642E-01    28.2688   1.3734   138.9568
 42      0.0000     0.0000E+00    0.0000E+00    1.609000E+08  0.02000  1.369E-03    0   0.6985   age120_m62            0.0000     4.0046E-01    27.6539   1.2520   140.9644
 43      0.0000     0.0000E+00    0.0000E+00    2.861200E+08  0.02000  9.013E-04    0   0.6714   age125_m62            0.0000     3.9885E-01    24.5895   1.1150   136.0876
 44     80.3428     8.3200E+01    8.3068E+01    5.088000E+08  0.02000  5.028E-04    0   0.6449   age130_m62            0.0000     3.9691E-01    21.8648   0.9093   127.7400
 45      0.0000     0.0000E+00    0.0000E+00    9.047900E+08  0.02000  2.428E-04    0   0.6179   age135_m62            0.0000     4.0250E-01    20.0943   0.4564   118.0931
 46      0.0000     0.0000E+00    0.0000E+00    1.434000E+09  0.02000  1.263E-04    0   0.5908   age139_m62            0.0000     4.0572E-01    18.5967   0.1939   104.8478
 47      0.0000     0.0000E+00    0.0000E+00    2.500000E+09  0.02000  5.985E-05    0   0.5673   age150_m62            0.0000     4.0953E-01    19.2613   0.0130    93.7584
 48      0.0000     0.0000E+00    0.0000E+00    4.250000E+09  0.02000  3.271E-05    0   0.5468   age158_m62            0.0000     4.1157E-01    20.2712  -0.0933    83.6128
 49      0.0000     0.0000E+00    0.0000E+00    1.000000E+10  0.02000  1.360E-05    0   0.5167   age181_m62            0.0000     4.1557E-01    21.3785  -0.3351    79.0363
 50      0.0000     0.0000E+00    0.0000E+00    1.800000E+10  0.02000  7.124E-06    0   0.5013   age213_m62            0.0000     4.1987E-01    22.2241  -0.4711    75.7218
 51      0.0000     0.0000E+00    0.0000E+00    1.000000E+06  0.05000  2.592E-02    0   0.9998   age020_m72            0.0000     4.0901E-01    20.1247   3.1190    95.9670
 52      0.0000     0.0000E+00    0.0000E+00    3.160000E+06  0.05000  4.845E-02    0   0.9577   age045_m72            0.0000     4.1414E-01    19.7167   2.9526    98.1022
 53      0.0000     0.0000E+00    0.0000E+00    5.010000E+06  0.05000  3.072E-02    0   0.9147   age055_m72            0.0000     4.2978E-01    42.8728   1.5795   167.1888
 54      0.0000     0.0000E+00    0.0000E+00    6.610000E+06  0.05000  1.455E-02    0   0.8877   age061_m72            0.0000     5.2863E-01    90.5732  -0.2702   318.0257
 55      0.0000     0.0000E+00    0.0000E+00    1.000000E+07  0.05000  9.074E-03    0   0.8524   age070_m72            0.0000     5.0812E-01    76.1259   1.0770   250.4796
 56      0.0000     0.0000E+00    0.0000E+00    2.512000E+07  0.05000  4.250E-03    0   0.7902   age090_m72            0.0000     4.4505E-01    53.4045   1.1862   199.0402
 57      0.0000     0.0000E+00    0.0000E+00    4.000000E+07  0.05000  3.087E-03    0   0.7618   age104_m72            0.0000     4.4705E-01    49.1721   1.0185   193.6873
 58      0.0000     0.0000E+00    0.0000E+00    1.015200E+08  0.05000  1.700E-03    0   0.7096   age116_m72            0.0000     4.0650E-01    31.5809   1.2447   152.0319
 59      0.0946     6.6727E-02    6.8522E-02    2.861200E+08  0.05000  7.384E-04    0   0.6633   age125_m72            0.0000     3.9914E-01    22.6251   1.0801   130.8684
 60     11.6737     1.5916E+01    1.5701E+01    5.088000E+08  0.05000  3.819E-04    0   0.6372   age130_m72            0.0000     3.9981E-01    18.5253   0.8906   112.6967
 61      0.0000     0.0000E+00    0.0000E+00    9.047900E+08  0.05000  1.676E-04    0   0.6110   age135_m72            0.0000     4.0293E-01    19.1066   0.5426    91.7515
 62      0.0000     0.0000E+00    0.0000E+00    1.434000E+09  0.05000  8.837E-05    0   0.5874   age139_m72            0.0000     4.1138E-01    19.4147   0.0236    94.5806
 63      0.0000     0.0000E+00    0.0000E+00    2.500000E+09  0.05000  4.233E-05    0   0.5598   age150_m72            0.0000     4.1347E-01    20.6209  -0.0677    83.3280
 64      0.0000     0.0000E+00    0.0000E+00    6.250000E+09  0.05000  1.435E-05    0   0.5249   age166_m72            0.0000     4.2318E-01    21.7063  -0.3274    74.1686
 65      0.0000     0.0000E+00    0.0000E+00    1.300000E+10  0.05000  6.513E-06    0   0.5036   age193_m72            0.0000     4.2998E-01    22.7404  -0.5310    72.3448
 66      0.0000     0.0000E+00    0.0000E+00    1.800000E+10  0.05000  4.527E-06    0   0.4945   age213_m72            0.0000     4.3695E-01    23.3331  -0.6575    71.2117


## Synthesis Results - Average & Chains ##

# j      x_j: min, <> & last-chain-values for 1 ...  7 chains
  1      0.0000      0.2807      0.0000      0.0000      0.5116      2.2442      1.5993      0.0000      0.5239
  2      0.0000      0.8654      2.6471      1.3365      0.0000      1.2925      0.0000      0.0000      0.0000
  3      0.0000      0.7235      0.0000      4.6622      1.6542      0.0000      1.2699      0.0000      3.2171
  4      0.0000      0.9216      0.0000      0.0000      0.0000      0.0000      4.5980      0.0000      0.0000
  5      0.9433      1.2368      0.0000      0.0000      0.0000      0.0000      0.0000      2.3960      0.3788
  6      0.0000      0.2605      0.0000      0.0000      1.8674      0.4643      0.0000      0.0000      0.0000
  7      0.7613      1.3474      1.7692      8.7786      0.1463      2.0226      0.0000      7.4295      0.0000
  8      0.0000      2.6347      0.0000      0.0000      7.6169      1.8590      1.6433      0.0000      0.0000
  9      0.0000      1.4535      0.0000      5.3320      1.4809      0.0000      0.0000      0.0000      2.5827
 10      0.0000      2.3303      0.0000      0.0000     12.7118      0.2051      0.0000      0.0000      0.4854
 11      0.0000      3.0481      0.0000      0.0000      0.0000      0.0000      0.0000      0.0000      0.0000
 12      0.0000      5.4628      0.0000      1.0589      0.0000      0.0000      0.0000      0.0000      0.0000
 13      0.0000      0.2578      1.0480      0.0000      0.3467      0.2463      0.0000      0.0000      0.0000
 14      0.0000      0.0931      0.0000      0.0000      0.0000      0.7083      0.0000      0.0000      0.0000
 15      0.0000      0.0305      0.0000      0.0000      0.4650      0.0000      0.0000      0.0000      0.0000
 16      0.0000      0.0357      0.0000      0.4772      0.0000      0.0000      0.0000      0.0000      0.0000
 17      0.0000      0.0110      0.0000      0.0904      0.0000      0.0000      0.0000      0.0000      0.0000
 18      2.6769      0.1699      1.8019      0.0000      0.5607      1.5422      0.0000      1.6891      0.0000
 19      0.0000      0.2600      0.0000      0.0000      0.1408      0.0000      0.0000      0.0000      0.0000
 20      0.0000      0.1516      0.0000      0.0000      0.0000      0.0000      0.1009      0.0000      0.0000
 21     24.2905     10.1232     16.4641      5.9330      4.7243     14.0326     14.0196     25.1663     28.4222
 22      0.0000      0.5862      0.0000      0.0000      0.0000      0.0000      0.0000      0.0000      0.0000
 23      0.0000      0.4786      3.3751      0.0000      0.0000      0.0000      0.0000      2.2331      0.5767
 24      0.0000      0.6959      0.0000      0.0000      1.2308      0.0000      0.0000      0.0268      2.1611
 25      0.0000      1.1669      0.0000      0.0000      0.0000      5.7780      0.0000      0.0000      0.0000
 26      0.0000      0.7593      3.3745      0.0000      1.4181      2.7625      2.1210      0.0000      0.0000
 27      0.0000      4.9121      0.0000      0.0000      4.8269      0.0000      2.6933      2.7340      0.3999
 28      0.0000      0.6974      0.0000      0.0000      0.0909      0.5038      0.2879      0.0000      0.0000
 29      0.0000      0.0705      0.0000      0.0000      0.0000      0.0000      0.1729      0.0000      0.0000
 30      0.0000      0.0777      0.0000      0.5019      0.0000      0.2356      0.0000      0.0000      0.0000
 31      0.0000      0.0830      0.0000      0.0000      0.0445      0.0000      0.0000      0.0000      0.8711
 32      0.0000      0.1855      0.0000      0.0000      0.0000      0.0000      0.9277      0.0000      0.0000
 33      0.0000      0.0247      0.0000      0.0000      0.0000      0.6527      0.0082      0.0000      0.0000
 34      0.0000      0.0177      0.0000      0.0000      0.0000      0.0000      0.0000      0.0000      0.0000
 35      0.0000      0.5462      0.0000      0.0000      0.0000      0.0000      4.1949      0.0000      0.0000
 36      0.0000      0.1807      0.0000      0.0000      0.0000      0.3216      0.0000      0.0000      0.0000
 37      0.0000      0.1943      0.0000      0.0000      0.0000      0.4970      0.9021      0.0000      0.0000
 38      0.0000      0.9444      0.0000      0.0000      0.4886      0.0000      0.0000      0.0000      0.0000
 39      0.0000      0.9899      0.0000      0.0000      0.0000      0.0000      0.0000      0.0000      4.3011
 40      0.0000      0.9677      0.0000      0.0000      0.0000      0.0000      0.5301      0.7754      0.0000
 41      0.0000      1.0410      0.0000      0.0000      0.0000      0.5213      0.3346      0.8355      0.0000
 42      0.0000      1.6261      2.5410      4.8386      0.0000      0.4844      0.0000      0.0000      1.5891
 43      0.0000      6.7472      3.2989      6.4770      0.0000     13.3857      0.0000      0.7885     18.9719
 44     80.3428     27.2182     39.1410     40.4908     28.6749     39.2855     35.5694     45.6757     34.9898
 45      0.0000      2.6636      5.5738      1.4649      0.0000      2.1755      4.0792      2.0953      0.7683
 46      0.0000      0.3862      0.2117      0.0000      1.9291      0.0000      0.0000      0.0000      0.0000
 47      0.0000      0.2741      0.0000      0.0000      0.0000      0.0000      0.0000      0.0000      0.0000
 48      0.0000      0.0600      0.0000      0.0000      0.0000      0.0000      0.0000      0.0000      0.0000
 49      0.0000      0.0098      0.0000      0.0000      0.0000      0.0000      0.0000      0.0000      0.0000
 50      0.0000      0.0254      0.0000      0.0000      0.0000      0.0000      0.0000      0.0000      0.0000
 51      0.0000      0.4037      0.0000      0.0000      0.8480      1.5105      0.0000      0.0000      0.0000
 52      0.0000      0.2369      0.0000      0.0000      0.0000      0.2468      0.0000      0.0000      0.0000
 53      0.0000      0.4990      0.0000      0.2259      0.0000      0.0000      0.0000      0.0000      0.0000
 54      0.0000      0.4112      0.0000      0.0000      0.0000      0.1924      0.0000      0.0000      0.0000
 55      0.0000      0.1695      0.0000      0.0000      0.0000      0.0000      0.0000      0.0000      0.2325
 56      0.0000      0.3070      0.0000      0.0000      0.0000      0.9699      0.0000      0.0000      0.0000
 57      0.0000      0.4340      0.0000      0.0000      0.0000      0.0000      0.0000      0.0000      0.0000
 58      0.0000      2.0081      0.0000      3.1840      0.0000      7.0307      0.0000      0.0000      0.0000
 59      0.0946      7.0892      3.7375      1.3885      6.5169      2.4040     10.4137      5.6782      8.9640
 60     11.6737     21.1114     26.3569     31.5863     35.1228     14.5485     28.6805     20.2669     15.1796
 61      0.0000      1.2471      4.1235      0.1625      1.6814      2.4505      0.0000      1.7956      0.5355
 62      0.0000      0.1656      0.0000      0.0000      0.3566      0.0000      0.0000      0.0000      0.0000
 63      0.0000      0.2607      0.0000      0.0000      0.0000      0.0000      1.4358      0.0000      0.0000
 64      0.0000      0.0258      0.0000      0.2695      0.0000      0.0000      0.0000      0.0000      0.0000
 65      0.0000      0.0068      0.0000      0.0000      0.0000      0.0000      0.0000      0.0000      0.0000
 66      0.0000      0.0153      0.0000      0.0000      0.0000      0.0000      0.0000      0.0000      0.0000

# j      m_j: min, <> & last-chain-values for 1 ...  7 chains
  1  0.0000E+00  1.8899E-02  0.0000E+00  0.0000E+00  3.3884E-02  1.4358E-01  9.5172E-02  0.0000E+00  4.3004E-02
  2  0.0000E+00  1.5904E-02  4.8212E-02  2.2035E-02  0.0000E+00  2.2574E-02  0.0000E+00  0.0000E+00  0.0000E+00
  3  0.0000E+00  1.9913E-02  0.0000E+00  1.1511E-01  4.4786E-02  0.0000E+00  3.0895E-02  0.0000E+00  1.0796E-01
  4  0.0000E+00  2.3887E-02  0.0000E+00  0.0000E+00  0.0000E+00  0.0000E+00  1.0534E-01  0.0000E+00  0.0000E+00
  5  5.0972E-02  6.1061E-02  0.0000E+00  0.0000E+00  0.0000E+00  0.0000E+00  0.0000E+00  1.3974E-01  2.2802E-02
  6  0.0000E+00  2.0861E-02  0.0000E+00  0.0000E+00  1.4711E-01  3.5334E-02  0.0000E+00  0.0000E+00  0.0000E+00
  7  9.5524E-02  1.5448E-01  2.0101E-01  9.0288E-01  1.6498E-02  2.2037E-01  0.0000E+00  1.0062E+00  0.0000E+00
  8  0.0000E+00  4.1751E-01  0.0000E+00  0.0000E+00  1.1874E+00  2.7994E-01  2.3017E-01  0.0000E+00  0.0000E+00
  9  0.0000E+00  2.6363E-01  0.0000E+00  8.6755E-01  2.6422E-01  0.0000E+00  0.0000E+00  0.0000E+00  5.7115E-01
 10  0.0000E+00  5.5519E-01  0.0000E+00  0.0000E+00  2.9792E+00  4.6430E-02  0.0000E+00  0.0000E+00  1.4099E-01
 11  0.0000E+00  1.3655E+00  0.0000E+00  0.0000E+00  0.0000E+00  0.0000E+00  0.0000E+00  0.0000E+00  0.0000E+00
 12  0.0000E+00  3.8820E+00  0.0000E+00  6.7504E-01  0.0000E+00  0.0000E+00  0.0000E+00  0.0000E+00  0.0000E+00
 13  0.0000E+00  5.1645E-01  2.0803E+00  0.0000E+00  6.8316E-01  4.6879E-01  0.0000E+00  0.0000E+00  0.0000E+00
 14  0.0000E+00  6.2563E-01  0.0000E+00  0.0000E+00  0.0000E+00  4.5218E+00  0.0000E+00  0.0000E+00  0.0000E+00
 15  0.0000E+00  3.3305E-01  0.0000E+00  0.0000E+00  5.0027E+00  0.0000E+00  0.0000E+00  0.0000E+00  0.0000E+00
 16  0.0000E+00  6.6080E-01  0.0000E+00  7.9163E+00  0.0000E+00  0.0000E+00  0.0000E+00  0.0000E+00  0.0000E+00
 17  0.0000E+00  2.6277E-01  0.0000E+00  1.9459E+00  0.0000E+00  0.0000E+00  0.0000E+00  0.0000E+00  0.0000E+00
 18  1.7431E-01  1.0107E-02  1.0623E-01  0.0000E+00  3.2816E-02  8.7190E-02  0.0000E+00  1.1871E-01  0.0000E+00
 19  0.0000E+00  6.2082E-03  0.0000E+00  0.0000E+00  3.3070E-03  0.0000E+00  0.0000E+00  0.0000E+00  0.0000E+00
 20  0.0000E+00  3.9522E-03  0.0000E+00  0.0000E+00  0.0000E+00  0.0000E+00  2.3240E-03  0.0000E+00  0.0000E+00
 21  8.4126E-01  3.2033E-01  5.1628E-01  1.6842E-01  1.4706E-01  4.2197E-01  3.9213E-01  9.4073E-01  1.0966E+00
 22  0.0000E+00  3.1366E-02  0.0000E+00  0.0000E+00  0.0000E+00  0.0000E+00  0.0000E+00  0.0000E+00  0.0000E+00
 23  0.0000E+00  3.4579E-02  2.4168E-01  0.0000E+00  0.0000E+00  0.0000E+00  0.0000E+00  1.9061E-01  5.0812E-02
 24  0.0000E+00  7.4808E-02  0.0000E+00  0.0000E+00  1.3016E-01  0.0000E+00  0.0000E+00  3.4047E-03  2.8326E-01
 25  0.0000E+00  1.7296E-01  0.0000E+00  0.0000E+00  0.0000E+00  8.1390E-01  0.0000E+00  0.0000E+00  0.0000E+00
 26  0.0000E+00  1.8814E-01  8.2855E-01  0.0000E+00  3.4564E-01  6.5044E-01  4.6451E-01  0.0000E+00  0.0000E+00
 27  0.0000E+00  2.4361E+00  0.0000E+00  0.0000E+00  2.3548E+00  0.0000E+00  1.1807E+00  1.6017E+00  2.4179E-01
 28  0.0000E+00  1.0038E+00  0.0000E+00  0.0000E+00  1.2865E-01  6.8904E-01  3.6626E-01  0.0000E+00  0.0000E+00
 29  0.0000E+00  1.7686E-01  0.0000E+00  0.0000E+00  0.0000E+00  0.0000E+00  3.8324E-01  0.0000E+00  0.0000E+00
 30  0.0000E+00  4.0708E-01  0.0000E+00  2.3590E+00  0.0000E+00  1.1730E+00  0.0000E+00  0.0000E+00  0.0000E+00
 31  0.0000E+00  7.6485E-01  0.0000E+00  0.0000E+00  4.0330E-01  0.0000E+00  0.0000E+00  0.0000E+00  9.7893E+00
 32  0.0000E+00  2.2999E+00  0.0000E+00  0.0000E+00  0.0000E+00  0.0000E+00  1.0169E+01  0.0000E+00  0.0000E+00
 33  0.0000E+00  6.7919E-01  0.0000E+00  0.0000E+00  0.0000E+00  1.7028E+01  1.9944E-01  0.0000E+00  0.0000E+00
 34  0.0000E+00  6.5975E-01  0.0000E+00  0.0000E+00  0.0000E+00  0.0000E+00  0.0000E+00  0.0000E+00  0.0000E+00
 35  0.0000E+00  2.6056E-02  0.0000E+00  0.0000E+00  0.0000E+00  0.0000E+00  1.7688E-01  0.0000E+00  0.0000E+00
 36  0.0000E+00  3.4882E-03  0.0000E+00  0.0000E+00  0.0000E+00  5.8991E-03  0.0000E+00  0.0000E+00  0.0000E+00
 37  0.0000E+00  4.0566E-03  0.0000E+00  0.0000E+00  0.0000E+00  9.8602E-03  1.6647E-02  0.0000E+00  0.0000E+00
 38  0.0000E+00  5.3408E-02  0.0000E+00  0.0000E+00  2.7181E-02  0.0000E+00  0.0000E+00  0.0000E+00  0.0000E+00
 39  0.0000E+00  8.0603E-02  0.0000E+00  0.0000E+00  0.0000E+00  0.0000E+00  0.0000E+00  0.0000E+00  4.2702E-01
 40  0.0000E+00  1.2737E-01  0.0000E+00  0.0000E+00  0.0000E+00  0.0000E+00  6.1672E-02  1.2056E-01  0.0000E+00
 41  0.0000E+00  2.1307E-01  0.0000E+00  0.0000E+00  0.0000E+00  1.0139E-01  6.0541E-02  2.0202E-01  0.0000E+00
 42  0.0000E+00  6.1106E-01  9.4626E-01  1.6312E+00  0.0000E+00  1.7297E-01  0.0000E+00  0.0000E+00  7.2810E-01
 43  0.0000E+00  3.7018E+00  1.7936E+00  3.1879E+00  0.0000E+00  6.9790E+00  0.0000E+00  5.1104E-01  1.2691E+01
 44  8.3068E+01  2.5712E+01  3.6642E+01  3.4314E+01  2.6647E+01  3.5267E+01  2.9701E+01  5.0972E+01  4.0302E+01
 45  0.0000E+00  4.9926E+00  1.0353E+01  2.4632E+00  0.0000E+00  3.8749E+00  6.7583E+00  4.6393E+00  1.7559E+00
 46  0.0000E+00  1.3306E+00  7.2267E-01  0.0000E+00  6.5379E+00  0.0000E+00  0.0000E+00  0.0000E+00  0.0000E+00
 47  0.0000E+00  1.9133E+00  0.0000E+00  0.0000E+00  0.0000E+00  0.0000E+00  0.0000E+00  0.0000E+00  0.0000E+00
 48  0.0000E+00  7.3844E-01  0.0000E+00  0.0000E+00  0.0000E+00  0.0000E+00  0.0000E+00  0.0000E+00  0.0000E+00
 49  0.0000E+00  2.7328E-01  0.0000E+00  0.0000E+00  0.0000E+00  0.0000E+00  0.0000E+00  0.0000E+00  0.0000E+00
 50  0.0000E+00  1.3140E+00  0.0000E+00  0.0000E+00  0.0000E+00  0.0000E+00  0.0000E+00  0.0000E+00  0.0000E+00
 51  0.0000E+00  1.1469E-02  0.0000E+00  0.0000E+00  2.3700E-02  4.0780E-02  0.0000E+00  0.0000E+00  0.0000E+00
 52  0.0000E+00  3.4493E-03  0.0000E+00  0.0000E+00  0.0000E+00  3.4147E-03  0.0000E+00  0.0000E+00  0.0000E+00
 53  0.0000E+00  1.0943E-02  0.0000E+00  4.4434E-03  0.0000E+00  0.0000E+00  0.0000E+00  0.0000E+00  0.0000E+00
 54  0.0000E+00  1.8476E-02  0.0000E+00  0.0000E+00  0.0000E+00  8.2169E-03  0.0000E+00  0.0000E+00  0.0000E+00
 55  0.0000E+00  1.1724E-02  0.0000E+00  0.0000E+00  0.0000E+00  0.0000E+00  0.0000E+00  0.0000E+00  1.9609E-02
 56  0.0000E+00  4.2037E-02  0.0000E+00  0.0000E+00  0.0000E+00  1.2622E-01  0.0000E+00  0.0000E+00  0.0000E+00
 57  0.0000E+00  7.8888E-02  0.0000E+00  0.0000E+00  0.0000E+00  0.0000E+00  0.0000E+00  0.0000E+00  0.0000E+00
 58  0.0000E+00  6.1735E-01  0.0000E+00  8.7812E-01  0.0000E+00  2.0540E+00  0.0000E+00  0.0000E+00  0.0000E+00
 59  6.8522E-02  4.6903E+00  2.4505E+00  8.2412E-01  4.2415E+00  1.5115E+00  6.0901E+00  4.4379E+00  7.2311E+00
 60  1.5701E+01  2.5943E+01  3.2098E+01  3.4821E+01  4.2459E+01  1.6990E+01  3.1154E+01  2.9421E+01  2.2744E+01
 61  0.0000E+00  3.3486E+00  1.0972E+01  3.9133E-01  4.4410E+00  6.2526E+00  0.0000E+00  5.6954E+00  1.7532E+00
 62  0.0000E+00  8.1093E-01  0.0000E+00  0.0000E+00  1.7173E+00  0.0000E+00  0.0000E+00  0.0000E+00  0.0000E+00
 63  0.0000E+00  2.5397E+00  0.0000E+00  0.0000E+00  0.0000E+00  0.0000E+00  1.2362E+01  0.0000E+00  0.0000E+00
 64  0.0000E+00  6.9406E-01  0.0000E+00  6.5127E+00  0.0000E+00  0.0000E+00  0.0000E+00  0.0000E+00  0.0000E+00
 65  0.0000E+00  3.8805E-01  0.0000E+00  0.0000E+00  0.0000E+00  0.0000E+00  0.0000E+00  0.0000E+00  0.0000E+00
 66  0.0000E+00  1.2280E+00  0.0000E+00  0.0000E+00  0.0000E+00  0.0000E+00  0.0000E+00  0.0000E+00  0.0000E+00

# AV, chi2 & Mass for <> & i_chain = 1 ...  7 solutions
AV       1.0640      1.0998      1.0730      1.1021      1.1161      1.1239      1.1016      1.0995      1.0916
chi2 3.9746E-01  4.0070E-01  3.9891E-01  3.9902E-01  3.9930E-01  3.9969E-01  3.9954E-01  3.9838E-01  3.9882E-01
Mass 1.7340E-13  1.9914E-13  1.9385E-13  2.2267E-13  2.0692E-13  2.1644E-13  2.2584E-13  1.6850E-13  1.6154E-13
  37.79                                  [v0_min (km/s) before EX0s...]
   0.00                                  [vd_min (km/s) before EX0s...]


## Synthetic spectrum (Best Model) ##l_obs f_obs f_syn wei
 3478    [Nl_obs]
 3741.00    0.43127   0.70784    0.000
 3742.00    0.43160   0.70735    0.000
 3743.00    0.45017   0.68821    0.000
 3744.00    0.46739   0.66501    0.000
 3745.00    0.46455   0.63628    0.000
 3746.00    0.44650   0.59911    0.000
 3747.00    0.43618   0.55907    0.000
 3748.00    0.44641   0.50768    0.000
 3749.00    0.47368   0.44487    0.000
 3750.00    0.50113   0.40842    0.000
 3751.00    0.50877   0.43088    0.000
 3752.00    0.49357   0.49615    0.000
 3753.00    0.46508   0.56720    0.000
 3754.00    0.42673   0.63010    0.000
 3755.00    0.37801   0.68422    0.000
 3756.00    0.32641   0.71660    0.000
 3757.00    0.28671   0.71100    0.000
 3758.00    0.27485   0.68260    0.000
 3759.00    0.30118   0.67019    0.000
 3760.00    0.36100   0.68479    0.000
 3761.00    0.43685   0.70625    0.000
 3762.00    0.50551   0.71895    0.000
 3763.00    0.54558   0.71867    0.000
 3764.00    0.54729   0.70804    0.000
 3765.00    0.51219   0.69320    0.000
 3766.00    0.45039   0.66563    0.000
 3767.00    0.38224   0.62045    0.000
 3768.00    0.33940   0.57335    0.000
 3769.00    0.33321   0.52740    0.000
 3770.00    0.31684   0.47835    0.000
 3771.00    0.24856   0.45532    0.000
 3772.00    0.17304   0.48767    0.000
 3773.00    0.16092   0.55186    0.000
 3774.00    0.22603   0.60706    0.000
 3775.00    0.34147   0.64722    0.000
 3776.00    0.47043   0.68709    0.000
 3777.00    0.58881   0.73036    0.000
 3778.00    0.70347   0.76888    0.000
 3779.00    0.82231   0.80281    0.000
 3780.00    0.92464   0.83723    0.000
 3781.00    0.98683   0.86325    0.000
 3782.00    1.00934   0.87276    0.000
 3783.00    1.01411   0.87641    0.000
 3784.00    1.03609   0.88489    0.000
 3785.00    1.08780   0.88235    0.000
 3786.00    1.13440   0.85210    0.000
 3787.00    1.13827   0.81351    0.000
 3788.00    1.09543   0.78842    0.000
 3789.00    1.02411   0.77171    0.000
 3790.00    0.95219   0.75756    0.000
 3791.00    0.90390   0.74631    0.000
 3792.00    0.88903   0.72876    0.000
 3793.00    0.89160   0.69313    0.000
 3794.00    0.86967   0.64027    0.000
 3795.00    0.80186   0.58182    0.000
 3796.00    0.71269   0.52379    0.000
 3797.00    0.63882   0.46375    0.000
 3798.00    0.60542   0.41853    0.000
 3799.00    0.61624   0.42317    0.000
 3800.00    0.65332   0.48224    0.000
 3801.00    0.70316   0.56104    0.000
 3802.00    0.76695   0.63248    0.000
 3803.00    0.83771   0.69347    0.000
 3804.00    0.89236   0.74080    0.000
 3805.00    0.91246   0.76828    0.000
 3806.00    0.89614   0.77782    0.000
 3807.00    0.86414   0.78567    0.000
 3808.00    0.85322   0.81337    0.000
 3809.00    0.87759   0.85913    0.000
 3810.00    0.91964   0.90166    0.000
 3811.00    0.96208   0.92538    0.000
 3812.00    1.00009   0.92146    0.000
 3813.00    1.03517   0.89214    0.000
 3814.00    1.06991   0.86029    0.000
 3815.00    1.09883   0.84698    0.000
 3816.00    1.10957   0.85593    0.000
 3817.00    1.09812   0.88269    0.000
 3818.00    1.07343   0.90411    0.000
 3819.00    1.05465   0.88881    0.000
 3820.00    1.06291   0.84631    0.000
 3821.00    1.10011   0.82676    0.000
 3822.00    1.14827   0.84750    0.000
 3823.00    1.18679   0.86363    0.000
 3824.00    1.20011   0.83685    0.000
 3825.00    1.18416   0.78934    0.000
 3826.00    1.14386   0.75756    0.000
 3827.00    1.08247   0.74090    0.000
 3828.00    1.00224   0.72240    0.000
 3829.00    0.91265   0.69834    0.000
 3830.00    0.82895   0.67313    0.000
 3831.00    0.76382   0.63960    0.000
 3832.00    0.72125   0.58496    0.000
 3833.00    0.68795   0.51675    0.000
 3834.00    0.64560   0.45264    0.000
 3835.00    0.59893   0.40708    0.000
 3836.00    0.56821   0.39980    0.000
 3837.00    0.56351   0.43330    0.000
 3838.00    0.58274   0.48233    0.000
 3839.00    0.61760   0.53059    0.000
 3840.00    0.65915   0.57721    0.000
 3841.00    0.70512   0.62686    0.000
 3842.00    0.75327   0.68640    0.000
 3843.00    0.78919   0.74556    0.000
 3844.00    0.80081   0.78811    0.000
 3845.00    0.80262   0.81297    0.000
 3846.00    0.81851   0.83056    0.000
 3847.00    0.85171   0.85503    0.000
 3848.00    0.89180   0.88269    0.000
 3849.00    0.93041   0.89233    0.000
 3850.00    0.96076   0.88874    0.000
 3851.00    0.97453   0.90396    0.000
 3852.00    0.96616   0.93823    0.000
 3853.00    0.93850   0.96153    0.000
 3854.00    0.90191   0.96466    0.000
 3855.00    0.87150   0.95417    0.000
 3856.00    0.85583   0.94076    0.000
 3857.00    0.84622   0.94439    0.000
 3858.00    0.83478   0.95605    0.000
 3859.00    0.83281   0.94939    0.000
 3860.00    0.85157   0.94284    0.000
 3861.00    0.88326   0.96384    0.000
 3862.00    0.92114   0.99396    0.000
 3863.00    0.97725   1.00792    0.000
 3864.00    1.05629   1.00902    0.000
 3865.00    1.13429   1.00339    0.000
 3866.00    1.19137   0.99320    0.000
 3867.00    1.23684   0.98905    0.000
 3868.00    1.27652   0.99573    0.000
 3869.00    1.28916   1.00309    0.000
 3870.00    1.25917   0.99704    0.000
 3871.00    1.19976   0.96901    0.000
 3872.00    1.13050   0.92558    0.000
 3873.00    1.06234   0.89701    0.000
 3874.00    1.01282   0.90530    0.000
 3875.00    1.01061   0.92995    0.000
 3876.00    1.05358   0.93503    0.000
 3877.00    1.09185   0.90344    0.000
 3878.00    1.09000   0.84700    0.000
 3879.00    1.05895   0.80894    0.000
 3880.00    1.01721   0.80988    0.000
 3881.00    0.96930   0.80996    0.000
 3882.00    0.91586   0.78014    0.000
 3883.00    0.85931   0.74371    0.000
 3884.00    0.80159   0.71624    0.000
 3885.00    0.74334   0.67441    0.000
 3886.00    0.68583   0.60632    0.000
 3887.00    0.63113   0.53387    0.000
 3888.00    0.57871   0.47183    0.000
 3889.00    0.52643   0.42953    0.000
 3890.00    0.48146   0.43607    0.000
 3891.00    0.46042   0.49722    0.000
 3892.00    0.47110   0.57626    0.000
 3893.00    0.50851   0.64091    0.000
 3894.00    0.56873   0.68510    0.000
 3895.00    0.65000   0.71655    0.000
 3896.00    0.73770   0.74908    0.000
 3897.00    0.80622   0.78824    0.000
 3898.00    0.84359   0.81750    0.000
 3899.00    0.85538   0.82794    0.000
 3900.00    0.84956   0.83990    0.000
 3901.00    0.83485   0.87415    0.000
 3902.00    0.83023   0.91237    0.000
 3903.00    0.85785   0.92588    0.000
 3904.00    0.91507   0.92756    0.000
 3905.00    0.97670   0.92848    0.000
 3906.00    1.02295   0.92603    0.000
 3907.00    1.04568   0.94388    0.000
 3908.00    1.04460   0.98866    0.000
 3909.00    1.02503   1.03137    0.000
 3910.00    0.99519   1.05571    0.000
 3911.00    0.96408   1.06790    0.000
 3912.00    0.93832   1.07014    0.000
 3913.00    0.92313   1.05584    0.000
 3914.00    0.92577   1.03816    0.000
 3915.00    0.95066   1.03901    0.000
 3916.00    0.98840   1.04565    0.000
 3917.00    1.01954   1.04164    0.000
 3918.00    1.02637   1.03350    0.000
 3919.00    1.00265   1.02301    0.000
 3920.00    0.96624   1.01211    0.000
 3921.00    0.94381   1.01082    0.000
 3922.00    0.94186   1.02141    0.000
 3923.00    0.95261   1.03519    0.000
 3924.00    0.97143   1.04588    0.000
 3925.00    0.99425   1.04448    0.000
 3926.00    1.00962   1.02379    0.000
 3927.00    1.00524   0.99522    0.000
 3928.00    0.97892   0.96636    0.000
 3929.00    0.93873   0.93384    0.000
 3930.00    0.90022   0.89464    0.000
 3931.00    0.87377   0.84024    0.000
 3932.00    0.85018   0.75467    0.000
 3933.00    0.82091   0.64453    0.000
 3934.00    0.80273   0.57542    0.000
 3935.00    0.80898   0.61066    0.000
 3936.00    0.81595   0.72302    0.000
 3937.00    0.79774   0.83405    0.000
 3938.00    0.76667   0.90573    0.000
 3939.00    0.75417   0.95221    0.000
 3940.00    0.78468   0.98976    0.000
 3941.00    0.85365   1.01127    0.000
 3942.00    0.91365   1.01211    0.000
 3943.00    0.92624   0.99855    0.000
 3944.00    0.90690   0.98154    0.000
 3945.00    0.88316   0.98491    0.000
 3946.00    0.85734   1.01387    0.000
 3947.00    0.83148   1.03139    0.000
 3948.00    0.82637   1.01734    0.000
 3949.00    0.84748   0.99857    0.000
 3950.00    0.86313   0.99832    0.000
 3951.00    0.85211   1.00355    0.000
 3952.00    0.83517   0.99401    0.000
 3953.00    0.83864   0.98101    0.000
 3954.00    0.86762   0.98518    0.000
 3955.00    0.91008   0.98702    0.000
 3956.00    0.94301   0.95798    0.000
 3957.00    0.94838   0.91950    0.000
 3958.00    0.92218   0.90649    0.000
 3959.00    0.86950   0.91111    0.000
 3960.00    0.80053   0.89772    0.000
 3961.00    0.72667   0.84897    0.000
 3962.00    0.65795   0.78900    0.000
 3963.00    0.60084   0.74616    0.000
 3964.00    0.55699   0.71127    0.000
 3965.00    0.52238   0.66457    0.000
 3966.00    0.48935   0.60159    0.000
 3967.00    0.45796   0.52209    0.000
 3968.00    0.43800   0.43283    0.000
 3969.00    0.43426   0.35947    0.000
 3970.00    0.44285   0.33297    0.000
 3971.00    0.46404   0.36470    0.000
 3972.00    0.50421   0.43591    0.000
 3973.00    0.56175   0.51392    0.000
 3974.00    0.62557   0.58392    0.000
 3975.00    0.69087   0.64960    0.000
 3976.00    0.76038   0.70732    0.000
 3977.00    0.82806   0.75308    0.000
 3978.00    0.87914   0.79655    0.000
 3979.00    0.90996   0.84351    0.000
 3980.00    0.92924   0.88646    0.000
 3981.00    0.94116   0.91193    0.000
 3982.00    0.94303   0.91673    0.000
 3983.00    0.93464   0.92023    0.000
 3984.00    0.91994   0.93877    0.000
 3985.00    0.90368   0.96742    0.000
 3986.00    0.89211   0.99245    0.000
 3987.00    0.89714   1.01025    0.000
 3988.00    0.93149   1.03108    0.000
 3989.00    0.99395   1.04977    0.000
 3990.00    1.07121   1.05524    0.000
 3991.00    1.15095   1.06074    0.000
 3992.00    1.22457   1.07842    0.000
 3993.00    1.28626   1.09954    0.000
 3994.00    1.33145   1.10884    0.000
 3995.00    1.35435   1.10183    0.000
 3996.00    1.34987   1.08657    0.000
 3997.00    1.31858   1.06966    0.000
 3998.00    1.26560   1.06238    0.000
 3999.00    1.19714   1.08286    0.000
 4000.00    1.12385   1.12094    0.000
 4001.00    1.06743   1.14247    0.000
 4002.00    1.04468   1.14284    0.000
 4003.00    1.04044   1.14044    0.000
 4004.00    1.02837   1.12814    0.000
 4005.00    1.00993   1.09070    0.000
 4006.00    0.99871   1.05998    0.000
 4007.00    0.98881   1.07684    0.000
 4008.00    0.96781   1.11940    0.000
 4009.00    0.94109   1.14412    0.000
 4010.00    0.92222   1.14915    0.000
 4011.00    0.91572   1.15052    0.000
 4012.00    0.91856   1.14799    0.000
 4013.00    0.92500   1.14437    0.000
 4014.00    0.92962   1.14800    0.000
 4015.00    0.93005   1.15804    0.000
 4016.00    0.92430   1.16764    0.000
 4017.00    0.90808   1.16735    0.000
 4018.00    0.88327   1.16604    0.000
 4019.00    0.86590   1.18182    0.000
 4020.00    0.86994   1.20151    0.000
 4021.00    0.89103   1.20041    0.000
 4022.00    0.91675   1.18303    0.000
 4023.00    0.93847   1.16623    0.000
 4024.00    0.95507   1.14671    0.000
 4025.00    0.97370   1.12453    0.000
 4026.00    0.99468   1.12541    0.000
 4027.00    1.00132   1.15408    0.000
 4028.00    0.98680   1.18015    0.000
 4029.00    0.97292   1.17891    0.000
 4030.00    0.97914   1.14622    0.000
 4031.00    1.00000   1.10521    0.000
 4032.00    1.02302   1.08711    0.000
 4033.00    1.04225   1.09150    0.000
 4034.00    1.05290   1.10610    0.000
 4035.00    1.04891   1.12982    0.000
 4036.00    1.03599   1.16177    0.000
 4037.00    1.03550   1.19583    0.000
 4038.00    1.05492   1.21883    0.000
 4039.00    1.07518   1.22132    0.000
 4040.00    1.08445   1.20631    0.000
 4041.00    1.09257   1.18956    0.000
 4042.00    1.09847   1.18958    0.000
 4043.00    1.07947   1.19565    0.000
 4044.00    1.03251   1.17097    0.000
 4045.00    0.98801   1.10934    0.000
 4046.00    0.97048   1.06435    0.000
 4047.00    0.98147   1.08929    0.000
 4048.00    1.01338   1.15173    0.000
 4049.00    1.05578   1.18493    0.000
 4050.00    1.09250   1.19007    0.000
 4051.00    1.10470   1.19232    0.000
 4052.00    1.08810   1.18493    0.000
 4053.00    1.05605   1.16405    0.000
 4054.00    1.02311   1.14223    0.000
 4055.00    0.99928   1.13131    0.000
 4056.00    0.99321   1.13389    0.000
 4057.00    1.01007   1.13387    0.000
 4058.00    1.03981   1.12472    0.000
 4059.00    1.06027   1.12943    0.000
 4060.00    1.06003   1.15421    0.000
 4061.00    1.04320   1.17170    0.000
 4062.00    1.02010   1.15298    0.000
 4063.00    1.00267   1.09985    0.000
 4064.00    0.99987   1.06339    0.000
 4065.00    1.01513   1.08374    0.000
 4066.00    1.04360   1.11793    0.000
 4067.00    1.07605   1.11631    0.000
 4068.00    1.11055   1.10888    0.000
 4069.00    1.14990   1.12859    0.000
 4070.00    1.18788   1.14078    0.000
 4071.00    1.21185   1.11037    0.000
 4072.00    1.21638   1.07240    0.000
 4073.00    1.20288   1.08014    0.000
 4074.00    1.17172   1.11399    0.000
 4075.00    1.12448   1.11698    0.000
 4076.00    1.07169   1.07553    0.000
 4077.00    1.02432   1.01683    0.000
 4078.00    0.97502   0.98582    0.000
 4079.00    0.91093   1.00961    0.000
 4080.00    0.84332   1.06172    0.000
 4081.00    0.79745   1.10058    0.000
 4082.00    0.78557   1.10952    0.000
 4083.00    0.80573   1.08977    0.000
 4084.00    0.84803   1.05766    0.000
 4085.00    0.89877   1.03115    0.000
 4086.00    0.94568   1.01916    0.000
 4087.00    0.98210   1.02375    0.000
 4088.00    1.01154   1.03273    0.000
 4089.00    1.03898   1.02936    0.000
 4090.00    1.05821   1.01337    0.000
 4091.00    1.05732   0.99295    0.000
 4092.00    1.02846   0.96847    0.000
 4093.00    0.97522   0.94331    0.000
 4094.00    0.91892   0.92142    0.000
 4095.00    0.88040   0.88773    0.000
 4096.00    0.85885   0.83556    0.000
 4097.00    0.84535   0.78339    0.000
 4098.00    0.83981   0.74004    0.000
 4099.00    0.84229   0.69432    0.000
 4100.00    0.84291   0.62946    0.000
 4101.00    0.83321   0.54535    0.000
 4102.00    0.81759   0.48661    0.000
 4103.00    0.80525   0.50204    0.000
 4104.00    0.80161   0.57501    0.000
 4105.00    0.80974   0.65613    0.000
 4106.00    0.83175   0.72516    0.000
 4107.00    0.86368   0.77927    0.000
 4108.00    0.89279   0.81689    0.000
 4109.00    0.91212   0.84202    0.000
 4110.00    0.93039   0.86057    0.000
 4111.00    0.95577   0.88070    0.000
 4112.00    0.98381   0.90823    0.000
 4113.00    1.00433   0.94107    0.000
 4114.00    1.00793   0.97342    0.000
 4115.00    0.99282   1.00065    0.000
 4116.00    0.96789   1.02283    0.000
 4117.00    0.94404   1.03673    0.000
 4118.00    0.92844   1.03157    0.000
 4119.00    0.92508   1.01529    0.000
 4120.00    0.93516   1.01672    0.000
 4121.00    0.95691   1.03580    0.000
 4122.00    0.98598   1.04768    0.000
 4123.00    1.01839   1.05251    0.000
 4124.00    1.05133   1.06747    0.000
 4125.00    1.07925   1.09084    0.000
 4126.00    1.09405   1.10218    0.000
 4127.00    1.09563   1.09060    0.000
 4128.00    1.09344   1.06886    0.000
 4129.00    1.09019   1.06046    0.000
 4130.00    1.07887   1.06682    0.000
 4131.00    1.06227   1.06458    0.000
 4132.00    1.05498   1.04749    0.000
 4133.00    1.05737   1.04010    0.000
 4134.00    1.05229   1.05865    0.000
 4135.00    1.03358   1.09293    0.000
 4136.00    1.01243   1.12716    0.000
 4137.00    0.99966   1.14507    0.000
 4138.00    0.99900   1.15087    0.000
 4139.00    1.00724   1.16331    0.000
 4140.00    1.01728   1.17744    0.000
 4141.00    1.02762   1.17644    0.000
 4142.00    1.04185   1.14676    0.000
 4143.00    1.05801   1.08847    0.000
 4144.00    1.06828   1.04508    0.000
 4145.00    1.06743   1.06226    0.000
 4146.00    1.05603   1.11345    0.000
 4147.00    1.04196   1.14688    0.000
 4148.00    1.03622   1.15373    0.000
 4149.00    1.04155   1.14285    0.000
 4150.00    1.05268   1.12799    0.000
 4151.00    1.06394   1.12711    0.000
 4152.00    1.07186   1.13545    0.000
 4153.00    1.07655   1.13463    0.000
 4154.00    1.07949   1.11983    0.000
 4155.00    1.07832   1.10524    0.000
 4156.00    1.06764   1.10280    0.000
 4157.00    1.04332   1.10729    0.000
 4158.00    1.00824   1.12018    0.000
 4159.00    0.98109   1.14209    0.000
 4160.00    0.98506   1.15729    0.000
 4161.00    1.02468   1.15645    0.000
 4162.00    1.08690   1.15407    0.000
 4163.00    1.15033   1.16184    0.000
 4164.00    1.19225   1.16910    0.000
 4165.00    1.19726   1.17302    0.000
 4166.00    1.16201   1.17253    0.000
 4167.00    1.09962   1.15820    0.000
 4168.00    1.03169   1.14558    0.000
 4169.00    0.97577   1.15572    0.000
 4170.00    0.94221   1.16765    0.000
 4171.00    0.93235   1.14693    0.000
 4172.00    0.94087   1.09612    0.000
 4173.00    0.95908   1.05311    0.000
 4174.00    0.97772   1.05289    0.000
 4175.00    0.99000   1.08655    0.000
 4176.00    0.99385   1.11330    0.000
 4177.00    0.99354   1.10858    0.000
 4178.00    0.99417   1.08487    0.000
 4179.00    0.99566   1.07746    0.000
 4180.00    0.99843   1.10158    0.000
 4181.00    1.00914   1.12844    0.000
 4182.00    1.03350   1.13122    0.000
 4183.00    1.06888   1.12599    0.000
 4184.00    1.10713   1.13363    0.000
 4185.00    1.13819   1.15023    0.000
 4186.00    1.15428   1.15574    0.000
 4187.00    1.15324   1.13191    0.000
 4188.00    1.13867   1.10609    0.000
 4189.00    1.11880   1.11923    0.000
 4190.00    1.09974   1.15042    0.000
 4191.00    1.08118   1.15936    0.000
 4192.00    1.06493   1.15819    0.000
 4193.00    1.05958   1.17688    0.000
 4194.00    1.06681   1.19655    0.000
 4195.00    1.07389   1.18195    0.000
 4196.00    1.06951   1.14700    0.000
 4197.00    1.05422   1.12126    0.000
 4198.00    1.03604   1.09890    0.000
 4199.00    1.02551   1.08087    0.000
 4200.00    1.02499   1.09164    0.000
 4201.00    1.02458   1.11193    0.000
 4202.00    1.01493   1.10915    0.000
 4203.00    0.99490   1.10567    0.000
 4204.00    0.97204   1.12014    0.000
 4205.00    0.95998   1.13529    0.000
 4206.00    0.96472   1.14843    0.000
 4207.00    0.97963   1.16594    0.000
 4208.00    0.99475   1.17842    0.000
 4209.00    1.00303   1.17604    0.000
 4210.00    1.00762   1.16446    0.000
 4211.00    1.02107   1.16263    0.000
 4212.00    1.04877   1.17710    0.000
 4213.00    1.08442   1.19006    0.000
 4214.00    1.12087   1.17915    0.000
 4215.00    1.15302   1.13774    0.000
 4216.00    1.17212   1.10000    0.000
 4217.00    1.16735   1.11426    0.000
 4218.00    1.13860   1.16312    0.000
 4219.00    1.09728   1.19257    0.000
 4220.00    1.05359   1.19784    0.000
 4221.00    1.01246   1.20220    0.000
 4222.00    0.97484   1.20084    0.000
 4223.00    0.94008   1.18162    0.000
 4224.00    0.91149   1.15051    0.000
 4225.00    0.89613   1.10669    0.000
 4226.00    0.89928   1.04788    0.000
 4227.00    0.92104   1.00627    0.000
 4228.00    0.95180   1.03290    0.000
 4229.00    0.97784   1.11615    0.000
 4230.00    0.99816   1.18593    0.000
 4231.00    1.02115   1.21150    0.000
 4232.00    1.04709   1.19662    0.000
 4233.00    1.06787   1.14967    0.000
 4234.00    1.07582   1.11491    0.000
 4235.00    1.06860   1.11817    0.000
 4236.00    1.05477   1.12641    0.000
 4237.00    1.04759   1.12939    0.000
 4238.00    1.05088   1.13802    0.000
 4239.00    1.06100   1.14087    0.000
 4240.00    1.07608   1.14412    0.000
 4241.00    1.09389   1.16177    0.000
 4242.00    1.10554   1.17744    0.000
 4243.00    1.10224   1.18107    0.000
 4244.00    1.08835   1.19154    0.000
 4245.00    1.07557   1.20335    0.000
 4246.00    1.07046   1.18607    0.000
 4247.00    1.07461   1.14777    0.000
 4248.00    1.08799   1.12838    0.000
 4249.00    1.10784   1.13238    0.000
 4250.00    1.12682   1.12498    0.000
 4251.00    1.13751   1.11070    0.000
 4252.00    1.13858   1.12578    0.000
 4253.00    1.13106   1.15109    0.000
 4254.00    1.11301   1.14782    0.000
 4255.00    1.08546   1.13585    0.000
 4256.00    1.05953   1.15109    0.000
 4257.00    1.04505   1.17952    0.000
 4258.00    1.03766   1.18265    0.000
 4259.00    1.03033   1.15385    0.000
 4260.00    1.02636   1.11501    0.000
 4261.00    1.02880   1.09286    0.000
 4262.00    1.02982   1.11095    0.000
 4263.00    1.02574   1.15875    0.000
 4264.00    1.03004   1.19785    0.000
 4265.00    1.04892   1.21499    0.000
 4266.00    1.06100   1.21939    0.000
 4267.00    1.04651   1.20865    0.000
 4268.00    1.01191   1.18504    0.000
 4269.00    0.97217   1.16398    0.000
 4270.00    0.93501   1.13933    0.000
 4271.00    0.90486   1.09367    0.000
 4272.00    0.88616   1.05101    0.000
 4273.00    0.87951   1.05344    0.000
 4274.00    0.88004   1.08002    0.000
 4275.00    0.88758   1.09188    0.000
 4276.00    0.91066   1.10912    0.000
 4277.00    0.94562   1.14696    0.000
 4278.00    0.96873   1.17876    0.000
 4279.00    0.97366   1.18613    0.000
 4280.00    0.98668   1.17298    0.000
 4281.00    1.01683   1.15435    0.000
 4282.00    1.03518   1.14100    0.000
 4283.00    1.02616   1.13279    0.000
 4284.00    1.00976   1.13259    0.000
 4285.00    1.00466   1.13491    0.000
 4286.00    1.00987   1.13314    0.000
 4287.00    1.01372   1.13210    0.000
 4288.00    1.00248   1.12213    0.000
 4289.00    0.97722   1.08513    0.000
 4290.00    0.95540   1.03870    0.000
 4291.00    0.94402   1.03622    0.000
 4292.00    0.93232   1.08579    0.000
 4293.00    0.91144   1.12915    0.000
 4294.00    0.88165   1.12720    0.000
 4295.00    0.84725   1.10553    0.000
 4296.00    0.81328   1.09761    0.000
 4297.00    0.78127   1.09545   -2.000
 4298.00    0.74887   1.07968   -2.000
 4299.00    0.71385   1.03871   -2.000
 4300.00    0.67631   0.99123   -2.000
 4301.00    0.64121   0.97748   -2.000
 4302.00    0.61811   0.98767   -2.000
 4303.00    0.61806   0.99277   -2.000
 4304.00    0.64921   1.00699   -2.000
 4305.00    0.70734   1.03144   -2.000
 4306.00    0.77587   1.03869   -2.000
 4307.00    0.83349   1.02097   -2.000
 4308.00    0.86363   0.98950   -2.000
 4309.00    0.87217   0.97317   -2.000
 4310.00    0.88034   0.99396   -2.000
 4311.00    0.89627   1.03293   -2.000
 4312.00    0.91434   1.05619   -2.000
 4313.00    0.93030   1.05069    0.000
 4314.00    0.94386   1.02964    0.000
 4315.00    0.95624   1.02509    0.000
 4316.00    0.96981   1.06323    0.000
 4317.00    0.98839   1.11769    0.000
 4318.00    1.01595   1.14068    0.000
 4319.00    1.05390   1.13171    0.000
 4320.00    1.09739   1.10979    0.000
 4321.00    1.13012   1.08457    0.000
 4322.00    1.13314   1.07056    0.000
 4323.00    1.10172   1.06113    0.000
 4324.00    1.04484   1.02423    0.000
 4325.00    0.97924   0.95801    0.000
 4326.00    0.92313   0.90664    0.000
 4327.00    0.88795   0.91637    0.000
 4328.00    0.87642   0.97226    0.000
 4329.00    0.88193   1.01131    0.000
 4330.00    0.89419   1.00291    0.000
 4331.00    0.90711   0.97021    0.000
 4332.00    0.91691   0.94673    0.000
 4333.00    0.91847   0.93267    0.000
 4334.00    0.91001   0.91420    0.000
 4335.00    0.89888   0.89298    0.000
 4336.00    0.89440   0.85957    0.000
 4337.00    0.89884   0.79144    0.000
 4338.00    0.91082   0.69907    0.000
 4339.00    0.92993   0.61288    0.000
 4340.00    0.95229   0.53964    0.000
 4341.00    0.96595   0.50471    0.000
 4342.00    0.95831   0.54779    0.000
 4343.00    0.92447   0.63635    0.000
 4344.00    0.87158   0.70787    0.000
 4345.00    0.82082   0.76176    0.000
 4346.00    0.79320   0.81514    0.000
 4347.00    0.79662   0.85718    0.000
 4348.00    0.82480   0.89114    0.000
 4349.00    0.85924   0.93013    0.000
 4350.00    0.88507   0.95331    0.000
 4351.00    0.90273   0.93173    0.000
 4352.00    0.91933   0.89285    0.000
 4353.00    0.94114   0.89952    0.000
 4354.00    0.97123   0.95328    0.000
 4355.00    1.00829   1.00363    0.000
 4356.00    1.04707   1.03622    0.000
 4357.00    1.07936   1.06201    0.000
 4358.00    1.09727   1.07093    0.000
 4359.00    1.09573   1.05976    0.000
 4360.00    1.07404   1.05751    0.000
 4361.00    1.03685   1.08231    0.000
 4362.00    0.99405   1.11284    0.000
 4363.00    0.95887   1.12854    0.000
 4364.00    0.93746   1.14011    0.000
 4365.00    0.92566   1.15901    0.000
 4366.00    0.92084   1.16633    0.000
 4367.00    0.92648   1.14406    0.000
 4368.00    0.94410   1.11192    0.000
 4369.00    0.97021   1.10085    0.000
 4370.00    1.00103   1.11050    0.000
 4371.00    1.03324   1.12572    0.000
 4372.00    1.05719   1.14162    0.000
 4373.00    1.05894   1.14391    0.000
 4374.00    1.03959   1.11279    0.000
 4375.00    1.01758   1.07051    0.000
 4376.00    1.00668   1.06966    0.000
 4377.00    1.00953   1.11798    0.000
 4378.00    1.02550   1.16983    0.000
 4379.00    1.05119   1.18878    0.000
 4380.00    1.07193   1.18198    0.000
 4381.00    1.06748   1.17104    0.000
 4382.00    1.03915   1.14763    0.000
 4383.00    1.00740   1.08380    0.000
 4384.00    0.97837   1.00546    0.000
 4385.00    0.94483   0.98360    0.000
 4386.00    0.91849   1.03107    0.000
 4387.00    0.92500   1.08962    0.000
 4388.00    0.96538   1.11650    0.000
 4389.00    1.01554   1.12364    0.000
 4390.00    1.05239   1.12627    0.000
 4391.00    1.06266   1.12667    0.000
 4392.00    1.04692   1.13835    0.000
 4393.00    1.01672   1.15589    0.000
 4394.00    0.98570   1.14819    0.000
 4395.00    0.96472   1.11815    0.000
 4396.00    0.95598   1.11577    0.000
 4397.00    0.95754   1.15800    0.000
 4398.00    0.97453   1.19373    0.000
 4399.00    1.01110   1.18361    0.000
 4400.00    1.05126   1.14416    0.000
 4401.00    1.07000   1.11870    0.000
 4402.00    1.05976   1.13785    0.000
 4403.00    1.02799   1.16793    0.000
 4404.00    0.98441   1.14925    0.000
 4405.00    0.93842   1.10547    0.000
 4406.00    0.89832   1.10648    0.000
 4407.00    0.87038   1.14110    0.000
 4408.00    0.85740   1.15241    0.000
 4409.00    0.85673   1.14877    0.000
 4410.00    0.85841   1.16621    0.000
 4411.00    0.85493   1.19405    0.000
 4412.00    0.85409   1.21329    0.000
 4413.00    0.86660   1.22113    0.000
 4414.00    0.88849   1.19775    0.000
 4415.00    0.91129   1.13983    0.000
 4416.00    0.93669   1.09591    0.000
 4417.00    0.96993   1.09580    0.000
 4418.00    1.01008   1.12071    0.000
 4419.00    1.05056   1.16084    0.000
 4420.00    1.08151   1.20401    0.000
 4421.00    1.09784   1.21823    0.000
 4422.00    1.10635   1.19463    0.000
 4423.00    1.11578   1.16611    0.000
 4424.00    1.12666   1.16576    0.000
 4425.00    1.13550   1.18258    0.000
 4426.00    1.13954   1.18904    0.000
 4427.00    1.13641   1.18513    0.000
 4428.00    1.12398   1.18563    0.000
 4429.00    1.10423   1.19081    0.000
 4430.00    1.08543   1.18341    0.000
 4431.00    1.07397   1.16997    0.000
 4432.00    1.06834   1.17513    0.000
 4433.00    1.06393   1.18078    0.000
 4434.00    1.05736   1.16014    0.000
 4435.00    1.04863   1.12900    0.000
 4436.00    1.04135   1.12209    0.000
 4437.00    1.03397   1.15329    0.000
 4438.00    1.01640   1.19899    0.000
 4439.00    0.98535   1.22952    0.000
 4440.00    0.95231   1.23365    0.000
 4441.00    0.93153   1.20862    0.000
 4442.00    0.93230   1.16330    0.000
 4443.00    0.95869   1.11868    0.000
 4444.00    1.00888   1.10368    0.000
 4445.00    1.07189   1.13626    0.000
 4446.00    1.12844   1.18701    0.000
 4447.00    1.16352   1.20847    0.000
 4448.00    1.17245   1.20569    0.000
 4449.00    1.15890   1.20540    0.000
 4450.00    1.13283   1.19808    0.000
 4451.00    1.10616   1.18358    0.000
 4452.00    1.08904   1.18570    0.000
 4453.00    1.08261   1.19357    0.000
 4454.00    1.07886   1.17397    0.000
 4455.00    1.07206   1.13190    0.000
 4456.00    1.06211   1.11043    0.000
 4457.00    1.04952   1.12586    0.000
 4458.00    1.03410   1.14387    0.000
 4459.00    1.01724   1.14283    0.000
 4460.00    1.00160   1.13707    0.000
 4461.00    0.98719   1.13126    0.000
 4462.00    0.97234   1.12329    0.000
 4463.00    0.96084   1.13458    0.000
 4464.00    0.96036   1.16372    0.000
 4465.00    0.97127   1.17656    0.000
 4466.00    0.98708   1.17039    0.000
 4467.00    1.00521   1.16152    0.000
 4468.00    1.02724   1.14798    0.000
 4469.00    1.05158   1.12757    0.000
 4470.00    1.07482   1.11610    0.000
 4471.00    1.10003   1.12446    0.000
 4472.00    1.13285   1.14568    0.000
 4473.00    1.16751   1.17528    0.000
 4474.00    1.19067   1.20567    0.000
 4475.00    1.19732   1.21914    0.000
 4476.00    1.19150   1.21654    0.000
 4477.00    1.18010   1.22200    0.000
 4478.00    1.16846   1.23656    0.000
 4479.00    1.15457   1.22635    0.000
 4480.00    1.13242   1.16953    0.000
 4481.00    1.10044   1.09009    0.000
 4482.00    1.06205   1.05170    0.000
 4483.00    1.02355   1.09052    0.000
 4484.00    0.99085   1.16400    0.000
 4485.00    0.96479   1.21489    0.000
 4486.00    0.94317   1.23605    0.000
 4487.00    0.92524   1.23589    0.000
 4488.00    0.91290   1.21066    0.000
 4489.00    0.91091   1.16986    0.000
 4490.00    0.92089   1.14408    0.000
 4491.00    0.93319   1.15032    0.000
 4492.00    0.93638   1.17709    0.000
 4493.00    0.93103   1.19966    0.000
 4494.00    0.92240   1.19579    0.000
 4495.00    0.90932   1.17519    0.000
 4496.00    0.88933   1.16996    0.000
 4497.00    0.86617   1.18533    0.000
 4498.00    0.84534   1.20896    0.000
 4499.00    0.82852   1.22852    0.000
 4500.00    0.81871   1.22648    0.000
 4501.00    0.82578   1.20012    0.000
 4502.00    0.85856   1.18352    0.000
 4503.00    0.91621   1.21056    0.000
 4504.00    0.98847   1.25586    0.000
 4505.00    1.05746   1.27728    0.000
 4506.00    1.10539   1.27193    0.000
 4507.00    1.12187   1.25117    0.000
 4508.00    1.10713   1.22429    0.000
 4509.00    1.07345   1.21283    0.000
 4510.00    1.03712   1.22858    0.000
 4511.00    1.01110   1.24923    0.000
 4512.00    1.00070   1.25100    0.000
 4513.00    1.00158   1.23669    0.000
 4514.00    1.00812   1.21491    0.000
 4515.00    1.01900   1.19143    0.000
 4516.00    1.03161   1.18455    0.000
 4517.00    1.03943   1.19704    0.000
 4518.00    1.04133   1.20622    0.000
 4519.00    1.04564   1.20598    0.000
 4520.00    1.05632   1.20648    0.000
 4521.00    1.06610   1.20945    0.000
 4522.00    1.06791   1.20257    0.000
 4523.00    1.06138   1.18217    0.000
 4524.00    1.04924   1.17443    0.000
 4525.00    1.03506   1.18018    0.000
 4526.00    1.02268   1.17427    0.000
 4527.00    1.01573   1.15759    0.000
 4528.00    1.01632   1.13783    0.000
 4529.00    1.02437   1.12170    0.000
 4530.00    1.03743   1.12344    0.000
 4531.00    1.05125   1.14291    0.000
 4532.00    1.06268   1.16372    0.000
 4533.00    1.07084   1.16400    0.000
 4534.00    1.07683   1.13564    0.000
 4535.00    1.08259   1.11517    0.000
 4536.00    1.08717   1.13792    0.000
 4537.00    1.08603   1.19220    0.000
 4538.00    1.07385   1.23631    0.000
 4539.00    1.05115   1.23972    0.000
 4540.00    1.04260   1.21394    0.000
 4541.00    1.07379   1.18665    0.000
 4542.00    1.07751   1.18062    0.000
 4543.00    0.94499   1.19849    0.000
 4544.00    0.77435   1.21139    0.000
 4545.00    0.80022   1.20247    0.000
 4546.00    0.96739   1.19329    0.000
 4547.00    0.98969   1.19603    0.000
 4548.00    0.85709   1.18726    0.000
 4549.00    0.81787   1.14642    0.000
 4550.00    0.96070   1.10823    0.000
 4551.00    1.17973   1.12552    0.000
 4552.00    1.36615   1.16974    0.000
 4553.00    1.44285   1.17907    0.000
 4554.00    1.33251   1.15417    0.000
 4555.00    1.02144   1.12640    0.000
 4556.00    0.70864   1.12334    0.000
 4557.00    0.66042   1.15468    0.000
 4558.00    0.84969   1.19033    0.000
 4559.00    1.04471   1.20341    0.000
 4560.00    1.12966   1.21119    0.000
 4561.00    1.12057   1.22691    0.000
 4562.00    1.07438   1.23618    0.000
 4563.00    1.04593   1.22023    0.000
 4564.00    1.04430   1.18338    0.000
 4565.00    1.04260   1.15886    0.000
 4566.00    1.00858   1.16727    0.000
 4567.00    0.94305   1.19817    0.000
 4568.00    0.92616   1.22871    0.000
 4569.00    1.02027   1.24253    0.000
 4570.00    1.12506   1.23842    0.000
 4571.00    1.11934   1.21175    0.000
 4572.00    1.07797   1.17584    0.000
 4573.00    1.11205   1.17749    0.000
 4574.00    1.13168   1.21329    0.000
 4575.00    1.03325   1.22965    0.000
 4576.00    0.95407   1.22134    0.000
 4577.00    1.02869   1.21687    0.000
 4578.00    1.08732   1.21919    0.000
 4579.00    0.95247   1.21036    0.000
 4580.00    0.78534   1.18640    0.000
 4581.00    0.79559   1.16747    0.000
 4582.00    0.91214   1.16255    0.000
 4583.00    0.98350   1.15469    0.000
 4584.00    1.00416   1.14168    0.000
 4585.00    1.03129   1.14675    0.000
 4586.00    1.08514   1.16847    0.000
 4587.00    1.14631   1.18454    0.000
 4588.00    1.16732   1.19253    0.000
 4589.00    1.13018   1.20016    0.000
 4590.00    1.08478   1.20570    0.000
 4591.00    1.06409   1.19942    0.000
 4592.00    1.02613   1.18345    0.000
 4593.00    0.95703   1.17650    0.000
 4594.00    0.93462   1.18473    0.000
 4595.00    0.98874   1.19006    0.000
 4596.00    1.02123   1.18619    0.000
 4597.00    0.97668   1.18632    0.000
 4598.00    0.93914   1.19431    0.000
 4599.00    0.97283   1.20382    0.000
 4600.00    1.02988   1.20404    0.000
 4601.00    1.04402   1.19419    0.000
 4602.00    0.99107   1.19313    0.000
 4603.00    0.88561   1.20225    0.000
 4604.00    0.77385   1.20522    0.000
 4605.00    0.71527   1.20039    0.000
 4606.00    0.75626   1.19763    0.000
 4607.00    0.84933   1.20866    0.000
 4608.00    0.85879   1.23124    0.000
 4609.00    0.78636   1.25204    0.000
 4610.00    0.81507   1.25756    0.000
 4611.00    1.00440   1.24485    0.000
 4612.00    1.19907   1.22898    0.000
 4613.00    1.25435   1.22091    0.000
 4614.00    1.14236   1.22007    0.000
 4615.00    0.96753   1.22582    0.000
 4616.00    0.90955   1.22781    0.000
 4617.00    0.99205   1.22163    0.000
 4618.00    1.06145   1.21418    0.000
 4619.00    1.03591   1.20000    0.000
 4620.00    0.97029   1.19039    0.000
 4621.00    0.95697   1.20528    0.000
 4622.00    1.05526   1.22767    0.000
 4623.00    1.18488   1.23760    0.000
 4624.00    1.18415   1.24096    0.000
 4625.00    1.08541   1.23806    0.000
 4626.00    1.08599   1.22870    0.000
 4627.00    1.22297   1.22521    0.000
 4628.00    1.34956   1.22304    0.000
 4629.00    1.33310   1.20716    0.000
 4630.00    1.14345   1.19398    0.000
 4631.00    0.92920   1.20895    0.000
 4632.00    0.90029   1.23166    0.000
 4633.00    1.00713   1.22633    0.000
 4634.00    1.03172   1.20163    0.000
 4635.00    0.96952   1.18988    0.000
 4636.00    0.98446   1.19719    0.000
 4637.00    1.12178   1.20315    0.000
 4638.00    1.29549   1.19765    0.000
 4639.00    1.39429   1.19213    0.000
 4640.00    1.33899   1.19355    0.000
 4641.00    1.14802   1.20094    0.000
 4642.00    0.92320   1.21370    0.000
 4643.00    0.79740   1.22033    0.000
 4644.00    0.84490   1.21466    0.000
 4645.00    0.95289   1.20262    0.000
 4646.00    0.96597   1.18147    0.000
 4647.00    0.94645   1.15382    0.000
 4648.00    1.01724   1.14002    0.000
 4649.00    1.06822   1.14986    0.000
 4650.00    0.95291   1.17327    0.000
 4651.00    0.82298   1.19607    0.000
 4652.00    0.88616   1.21175    0.000
 4653.00    1.02435   1.22035    0.000
 4654.00    1.03063   1.21436    0.000
 4655.00    0.96997   1.19356    0.000
 4656.00    0.98867   1.17710    0.000
 4657.00    1.03516   1.17685    0.000
 4658.00    1.00623   1.19670    0.000
 4659.00    0.94749   1.23199    0.000
 4660.00    0.95214   1.25777    0.000
 4661.00    1.02783   1.25607    0.000
 4662.00    1.13022   1.23373    0.000
 4663.00    1.21318   1.20855    0.000
 4664.00    1.23654   1.19473    0.000
 4665.00    1.17355   1.19156    0.000
 4666.00    1.05662   1.17374    0.000
 4667.00    1.00409   1.13170    0.000
 4668.00    1.07260   1.10293    0.000
 4669.00    1.14482   1.11584    0.000
 4670.00    1.11448   1.15094    0.000
 4671.00    1.03310   1.18263    0.000
 4672.00    0.97300   1.20135    0.000
 4673.00    0.92099   1.20378    0.000
 4674.00    0.86825   1.19991    0.000
 4675.00    0.87089   1.20511    0.000
 4676.00    0.95794   1.22012    0.000
 4677.00    1.07185   1.23020    0.000
 4678.00    1.13141   1.22026    0.000
 4679.00    1.08670   1.19806    0.000
 4680.00    0.98140   1.18416    0.000
 4681.00    0.95289   1.18142    0.000
 4682.00    1.00609   1.18405    0.000
 4683.00    0.94692   1.19485    0.000
 4684.00    0.78069   1.20894    0.000
 4685.00    0.82841   1.21214    0.000
 4686.00    1.12172   1.20738    0.000
 4687.00    1.22031   1.20589    0.000
 4688.00    0.95749   1.20566    0.000
 4689.00    0.69310   1.20564    0.000
 4690.00    0.67622   1.20597    0.000
 4691.00    0.79720   1.20153    0.000
 4692.00    0.89119   1.19593    0.000
 4693.00    0.88404   1.19882    0.000
 4694.00    0.79639   1.20718    0.000
 4695.00    0.71788   1.21638    0.000
 4696.00    0.70782   1.22645    0.000
 4697.00    0.76003   1.22706    0.000
 4698.00    0.82539   1.20740    0.000
 4699.00    0.84113   1.18094    0.000
 4700.00    0.79995   1.17242    0.000
 4701.00    0.75794   1.17760    0.000
 4702.00    0.77668   1.17182    0.000
 4703.00    0.88399   1.15425    0.000
 4704.00    1.01700   1.15208    0.000
 4705.00    1.05643   1.17389    0.000
 4706.00    0.97957   1.19269    0.000
 4707.00    0.86557   1.18878    0.000
 4708.00    0.77821   1.17314    0.000
 4709.00    0.74414   1.16454    0.000
 4710.00    0.78650   1.17162    0.000
 4711.00    0.91599   1.19270    0.000
 4712.00    1.08609   1.21004    0.000
 4713.00    1.20581   1.20388    0.000
 4714.00    1.19764   1.18214    0.000
 4715.00    1.04789   1.17080    0.000
 4716.00    0.88214   1.18623    0.000
 4717.00    0.86534   1.21452    0.000
 4718.00    0.96131   1.23195    0.000
 4719.00    1.01328   1.23914    0.000
 4720.00    1.00374   1.24675    0.000
 4721.00    1.00257   1.24872    0.000
 4722.00    0.97383   1.24094    0.000
 4723.00    0.85508   1.23324    0.000
 4724.00    0.75730   1.23718    0.000
 4725.00    0.82692   1.24954    0.000
 4726.00    0.96255   1.25111    0.000
 4727.00    0.97572   1.22777    0.000
 4728.00    0.91448   1.19122    0.000
 4729.00    0.92911   1.16972    0.000
 4730.00    0.99810   1.16784    0.000
 4731.00    1.02034   1.16891    0.000
 4732.00    1.00198   1.17455    0.000
 4733.00    1.01065   1.19244    0.000
 4734.00    1.07706   1.21018    0.000
 4735.00    1.17389   1.21795    0.000
 4736.00    1.21194   1.21136    0.000
 4737.00    1.13041   1.19374    0.000
 4738.00    0.99981   1.19423    0.000
 4739.00    0.93417   1.21635    0.000
 4740.00    0.97574   1.22607    0.000
 4741.00    1.08001   1.21776    0.000
 4742.00    1.12525   1.21481    0.000
 4743.00    1.05332   1.22414    0.000
 4744.00    0.99227   1.23100    0.000
 4745.00    1.03447   1.22773    0.000
 4746.00    1.03684   1.22599    0.000
 4747.00    0.89402   1.23319    0.000
 4748.00    0.77469   1.23631    0.000
 4749.00    0.82625   1.23226    0.000
 4750.00    0.93003   1.23316    0.000
 4751.00    0.96382   1.23610    0.000
 4752.00    1.00630   1.22971    0.000
 4753.00    1.10814   1.21708    0.000
 4754.00    1.13425   1.20751    0.000
 4755.00    1.01600   1.20057    0.000
 4756.00    0.91066   1.19618    0.000
 4757.00    0.94773   1.19786    0.000
 4758.00    1.06513   1.20757    0.000
 4759.00    1.15457   1.22077    0.000
 4760.00    1.16421   1.22996    0.000
 4761.00    1.09440   1.22491    0.000
 4762.00    0.98688   1.20128    0.000
 4763.00    0.89724   1.17715    0.000
 4764.00    0.87164   1.16779    0.000
 4765.00    0.90883   1.16311    0.000
 4766.00    0.95745   1.15753    0.000
 4767.00    1.00995   1.16258    0.000
 4768.00    1.12022   1.18112    0.000
 4769.00    1.24468   1.20328    0.000
 4770.00    1.21898   1.21877    0.000
 4771.00    1.02122   1.21597    0.000
 4772.00    0.83592   1.19932    0.000
 4773.00    0.78169   1.19580    0.000
 4774.00    0.82129   1.21365    0.000
 4775.00    0.90479   1.23252    0.000
 4776.00    1.01943   1.23605    0.000
 4777.00    1.13958   1.23428    0.000
 4778.00    1.21622   1.23864    0.000
 4779.00    1.21457   1.23639    0.000
 4780.00    1.12659   1.22468    0.000
 4781.00    0.96398   1.22010    0.000
 4782.00    0.76968   1.22087    0.000
 4783.00    0.66180   1.21185    0.000
 4784.00    0.76840   1.20219    0.000
 4785.00    0.98718   1.20517    0.000
 4786.00    1.05197   1.20280    0.000
 4787.00    0.94299   1.18993    0.000
 4788.00    0.86786   1.18990    0.000
 4789.00    0.87126   1.19635    0.000
 4790.00    0.82996   1.19487    0.000
 4791.00    0.72914   1.19710    0.000
 4792.00    0.66832   1.20558    0.000
 4793.00    0.69279   1.21706    0.000
 4794.00    0.77139   1.23540    0.000
 4795.00    0.84677   1.25253    0.000
 4796.00    0.87739   1.25514    0.000
 4797.00    0.89968   1.24373    0.000
 4798.00    0.97988   1.22514    0.000
 4799.00    1.08838   1.20395    0.000
 4800.00    1.13555   1.19058    0.000
 4801.00    1.09288   1.19611    0.000
 4802.00    0.99034   1.21587    0.000
 4803.00    0.86652   1.23090    0.000
 4804.00    0.76867   1.22623    0.000
 4805.00    0.76618   1.20560    0.000
 4806.00    0.87910   1.19071    0.000
 4807.00    0.96546   1.19153    0.000
 4808.00    0.89448   1.19315    0.000
 4809.00    0.83144   1.19293    0.000
 4810.00    0.98563   1.19814    0.000
 4811.00    1.18901   1.20251    0.000
 4812.00    1.17392   1.20154    0.000
 4813.00    1.03247   1.20026    0.000
 4814.00    0.97937   1.20354    0.000
 4815.00    0.96701   1.21053    0.000
 4816.00    0.87725   1.21795    0.000
 4817.00    0.81094   1.22404    0.000
 4818.00    0.90703   1.22810    0.000
 4819.00    1.09507   1.23089    0.000
 4820.00    1.21216   1.23263    0.000
 4821.00    1.16948   1.22977    0.000
 4822.00    0.99375   1.21769    0.000
 4823.00    0.83858   1.18710    0.000
 4824.00    0.82696   1.14969    0.000
 4825.00    0.90418   1.14495    0.000
 4826.00    0.97208   1.17424    0.000
 4827.00    1.02222   1.19819    0.000
 4828.00    1.05372   1.19780    0.000
 4829.00    1.00307   1.18525    0.000
 4830.00    0.87604   1.17880    0.000
 4831.00    0.83728   1.17735    0.000
 4832.00    0.96796   1.16796    0.000
 4833.00    1.09911   1.16037    0.000
 4834.00    1.09857   1.16827    0.000
 4835.00    1.06770   1.17634    0.000
 4836.00    1.09230   1.17169    0.000
 4837.00    1.08113   1.16425    0.000
 4838.00    0.97301   1.16034    0.000
 4839.00    0.86181   1.14877    0.000
 4840.00    0.83189   1.12950    0.000
 4841.00    0.85909   1.11986    0.000
 4842.00    0.89319   1.12145    0.000
 4843.00    0.91297   1.11787    0.000
 4844.00    0.92858   1.10891    0.000
 4845.00    0.96734   1.11049    0.000
 4846.00    0.99823   1.11605    0.000
 4847.00    0.92664   1.10489    0.000
 4848.00    0.77891   1.07254    0.000
 4849.00    0.73815   1.04069    0.000
 4850.00    0.85113   1.03284    0.000
 4851.00    0.94580   1.03840    0.000
 4852.00    0.92154   1.03197    0.000
 4853.00    0.85568   1.01228    0.000
 4854.00    0.86590   0.98129    0.000
 4855.00    1.01553   0.93283    0.000
 4856.00    1.19046   0.88544    0.000
 4857.00    1.15317   0.86364    0.000
 4858.00    0.93425   0.84973    0.000
 4859.00    0.84201   0.80630    0.000
 4860.00    0.94495   0.72144    0.000
 4861.00    1.01390   0.62213    0.000
 4862.00    0.98361   0.57700    0.000
 4863.00    1.00368   0.62805    0.000
 4864.00    1.07738   0.72025    0.000
 4865.00    1.04713   0.79102    0.000
 4866.00    0.91498   0.84386    0.000
 4867.00    0.83799   0.88870    0.000
 4868.00    0.82830   0.92229    0.000
 4869.00    0.76408   0.94836    0.000
 4870.00    0.65769   0.96204    0.000
 4871.00    0.63598   0.95013    0.000
 4872.00    0.70004   0.93404    0.000
 4873.00    0.73732   0.95265    0.000
 4874.00    0.70380   0.99619    0.000
 4875.00    0.64456   1.02670    0.000
 4876.00    0.63448   1.03791    0.000
 4877.00    0.72034   1.04713    0.000
 4878.00    0.83094   1.06311    0.000
 4879.00    0.84979   1.08875    0.000
 4880.00    0.79913   1.11911    0.000
 4881.00    0.79187   1.12883    0.000
 4882.00    0.86621   1.11549    0.000
 4883.00    0.97335   1.10695    0.000
 4884.00    1.01846   1.10644    0.000
 4885.00    0.95033   1.09994    0.000
 4886.00    0.89305   1.09138    0.000
 4887.00    0.98550   1.09377    0.000
 4888.00    1.09544   1.10775    0.000
 4889.00    1.01909   1.11877    0.000
 4890.00    0.84833   1.10950    0.000
 4891.00    0.79554   1.08061    0.000
 4892.00    0.86324   1.07201    0.000
 4893.00    0.93682   1.11380    0.000
 4894.00    0.97622   1.17064    0.000
 4895.00    0.99529   1.20531    0.000
 4896.00    1.00081   1.21972    0.000
 4897.00    0.98842   1.22205    0.000
 4898.00    0.94833   1.21861    0.000
 4899.00    0.88200   1.20599    0.000
 4900.00    0.81958   1.18338    0.000
 4901.00    0.80584   1.17327    0.000
 4902.00    0.87806   1.18252    0.000
 4903.00    1.01528   1.18446    0.000
 4904.00    1.10069   1.17752    0.000
 4905.00    1.06444   1.18694    0.000
 4906.00    1.01241   1.21313    0.000
 4907.00    1.05518   1.22915    0.000
 4908.00    1.14655   1.22125    0.000
 4909.00    1.18089   1.19791    0.000
 4910.00    1.09830   1.16833    0.000
 4911.00    0.93895   1.14688    0.000
 4912.00    0.85831   1.15226    0.000
 4913.00    0.93153   1.17657    0.000
 4914.00    1.02402   1.19857    0.000
 4915.00    1.01094   1.21593    0.000
 4916.00    0.93282   1.22917    0.000
 4917.00    0.86835   1.22238    0.000
 4918.00    0.83750   1.18439    0.000
 4919.00    0.81345   1.12695    0.000
 4920.00    0.74762   1.07912    0.000
 4921.00    0.65322   1.06495    0.000
 4922.00    0.63228   1.08705    0.000
 4923.00    0.72089   1.11485    0.000
 4924.00    0.82297   1.11776    0.000
 4925.00    0.87495   1.12097    0.000
 4926.00    0.91640   1.15544    0.000
 4927.00    0.95075   1.19853    0.000
 4928.00    0.90312   1.21999    0.000
 4929.00    0.79858   1.23014    0.000
 4930.00    0.79460   1.23904    0.000
 4931.00    0.89799   1.23874    0.000
 4932.00    0.90760   1.22768    0.000
 4933.00    0.77591   1.19858    0.000
 4934.00    0.69778   1.15988    0.000
 4935.00    0.77701   1.15425    0.000
 4936.00    0.91651   1.18198    0.000
 4937.00    0.96923   1.19061    0.000
 4938.00    0.84293   1.16357    0.000
 4939.00    0.64697   1.13479    0.000
 4940.00    0.63619   1.14110    0.000
 4941.00    0.82114   1.18161    0.000
 4942.00    0.95090   1.21846    0.000
 4943.00    0.93022   1.23217    0.000
 4944.00    0.87859   1.23712    0.000
 4945.00    0.85767   1.23462    0.000
 4946.00    0.83641   1.22066    0.000
 4947.00    0.85464   1.21384    0.000
 4948.00    0.99614   1.22314    0.000
 4949.00    1.17411   1.23264    0.000
 4950.00    1.18738   1.23546    0.000
 4951.00    1.03055   1.23748    0.000
 4952.00    0.87817   1.23611    0.000
 4953.00    0.83176   1.22626    0.000
 4954.00    0.88316   1.21751    0.000
 4955.00    0.98611   1.21723    0.000
 4956.00    1.08962   1.20386    0.000
 4957.00    1.17110   1.15186    0.000
 4958.00    1.22321   1.09899    0.000
 4959.00    1.21162   1.11795    0.000
 4960.00    1.11570   1.18747    0.000
 4961.00    1.02336   1.23001    0.000
 4962.00    1.03729   1.23373    0.000
 4963.00    1.06906   1.23096    0.000
 4964.00    0.97635   1.23123    0.000
 4965.00    0.86847   1.21866    0.000
 4966.00    0.93064   1.19444    0.000
 4967.00    1.04517   1.18121    0.000
 4968.00    0.97980   1.18218    0.000
 4969.00    0.78343   1.18505    0.000
 4970.00    0.66833   1.18744    0.000
 4971.00    0.73388   1.19336    0.000
 4972.00    0.91073   1.20652    0.000
 4973.00    0.95723   1.21958    0.000
 4974.00    0.72610   1.22673    0.000
 4975.00    0.49912   1.23195    0.000
 4976.00    0.59437   1.23207    0.000
 4977.00    0.83292   1.22441    0.000
 4978.00    0.89771   1.21098    0.000
 4979.00    0.83034   1.19409    0.000
 4980.00    0.79151   1.18306    0.000
 4981.00    0.73564   1.17284    0.000
 4982.00    0.60645   1.14377    0.000
 4983.00    0.56499   1.10327    0.000
 4984.00    0.72404   1.08579    0.000
 4985.00    0.88107   1.10202    0.000
 4986.00    0.84448   1.13417    0.000
 4987.00    0.74772   1.17096    0.000
 4988.00    0.75999   1.20104    0.000
 4989.00    0.81459   1.20805    0.000
 4990.00    0.81106   1.19595    0.000
 4991.00    0.79687   1.18076    0.000
 4992.00    0.83468   1.17630    0.000
 4993.00    0.88994   1.18217    0.000
 4994.00    0.90718   1.18323    0.000
 4995.00    0.87595   1.18704    0.000
 4996.00    0.82706   1.20175    0.000
 4997.00    0.81596   1.21002    0.000
 4998.00    0.84738   1.20548    0.000
 4999.00    0.84276   1.19090    0.000
 5000.00    0.77306   1.16623    0.000
 5001.00    0.72605   1.14159    0.000
 5002.00    0.76315   1.12976    0.000
 5003.00    0.84022   1.13619    0.000
 5004.00    0.88965   1.14851    0.000
 5005.00    0.88197   1.13988    0.000
 5006.00    0.87933   1.11081    0.000
 5007.00    1.01281   1.09921    0.000
 5008.00    1.21656   1.12978    0.000
 5009.00    1.18967   1.17297    0.000
 5010.00    0.90450   1.19007    0.000
 5011.00    0.73426   1.17993    0.000
 5012.00    0.84579   1.15565    0.000
 5013.00    1.00877   1.12717    0.000
 5014.00    1.04885   1.10758    0.000
 5015.00    1.00726   1.10525    0.000
 5016.00    0.93372   1.11835    0.000
 5017.00    0.82359   1.12328    0.000
 5018.00    0.72774   1.10011    0.000
 5019.00    0.75373   1.07984    0.000
 5020.00    0.90605   1.09717    0.000
 5021.00    1.06489   1.12906    0.000
 5022.00    1.12542   1.14041    0.000
 5023.00    1.05830   1.14104    0.000
 5024.00    0.93810   1.15556    0.000
 5025.00    0.89023   1.17617    0.000
 5026.00    0.90306   1.18270    0.000
 5027.00    0.85185   1.17025    0.000
 5028.00    0.74180   1.15249    0.000
 5029.00    0.69933   1.15641    0.000
 5030.00    0.74659   1.17610    0.000
 5031.00    0.80332   1.18540    0.000
 5032.00    0.85922   1.19227    0.000
 5033.00    0.95247   1.21006    0.000
 5034.00    1.00498   1.22169    0.000
 5035.00    0.89147   1.20372    0.000
 5036.00    0.69228   1.16658    0.000
 5037.00    0.61693   1.15016    0.000
 5038.00    0.70626   1.15987    0.000
 5039.00    0.84332   1.15650    0.000
 5040.00    0.91749   1.12315    0.000
 5041.00    0.87277   1.07788    0.000
 5042.00    0.73150   1.06320    0.000
 5043.00    0.58312   1.10724    0.000
 5044.00    0.55075   1.16908    0.000
 5045.00    0.69337   1.20532    0.000
 5046.00    0.85521   1.22298    0.000
 5047.00    0.83941   1.22391    0.000
 5048.00    0.73075   1.19839    0.000
 5049.00    0.74192   1.16290    0.000
 5050.00    0.89112   1.14507    0.000
 5051.00    1.04041   1.14492    0.000
 5052.00    1.03537   1.14651    0.000
 5053.00    0.83929   1.15530    0.000
 5054.00    0.67517   1.17749    0.000
 5055.00    0.76105   1.19605    0.000
 5056.00    0.95063   1.19715    0.000
 5057.00    0.99919   1.19358    0.000
 5058.00    0.94352   1.20061    0.000
 5059.00    0.92070   1.21259    0.000
 5060.00    0.90749   1.21982    0.000
 5061.00    0.85342   1.22593    0.000
 5062.00    0.85117   1.23300    0.000
 5063.00    0.97578   1.23138    0.000
 5064.00    1.10821   1.20811    0.000
 5065.00    1.10117   1.16988    0.000
 5066.00    0.95928   1.15190    0.000
 5067.00    0.78112   1.16245    0.000
 5068.00    0.67960   1.16881    0.000
 5069.00    0.70646   1.16651    0.000
 5070.00    0.80077   1.17625    0.000
 5071.00    0.88890   1.18777    0.000
 5072.00    0.96400   1.17683    0.000
 5073.00    0.99782   1.16039    0.000
 5074.00    0.89011   1.16372    0.000
 5075.00    0.67719   1.17028    0.000
 5076.00    0.63973   1.16827    0.000
 5077.00    0.88411   1.17360    0.000
 5078.00    1.09938   1.17929    0.000
 5079.00    1.03911   1.15460    0.000
 5080.00    0.82283   1.10997    0.000
 5081.00    0.64981   1.09528    0.000
 5082.00    0.60239   1.11841    0.000
 5083.00    0.66462   1.14116    0.000
 5084.00    0.75566   1.14915    0.000
 5085.00    0.81878   1.16147    0.000
 5086.00    0.86162   1.17814    0.000
 5087.00    0.89412   1.18136    0.000
 5088.00    0.90444   1.17602    0.000
 5089.00    0.91772   1.17975    0.000
 5090.00    0.99616   1.18863    0.000
 5091.00    1.08897   1.19172    0.000
 5092.00    1.02600   1.19520    0.000
 5093.00    0.82615   1.20557    0.000
 5094.00    0.74136   1.21454    0.000
 5095.00    0.82298   1.21291    0.000
 5096.00    0.83871   1.19947    0.000
 5097.00    0.72087   1.17458    0.000
 5098.00    0.66041   1.14310    0.000
 5099.00    0.73906   1.11590    0.000
 5100.00    0.83931   1.11013    0.000
 5101.00    0.85445   1.13487    0.000
 5102.00    0.77246   1.16997    0.000
 5103.00    0.68453   1.18811    0.000
 5104.00    0.72158   1.18653    0.000
 5105.00    0.84832   1.18059    0.000
 5106.00    0.89296   1.17585    0.000
 5107.00    0.84222   1.16507    0.000
 5108.00    0.84379   1.15096    0.000
 5109.00    0.94679   1.14671    0.000
 5110.00    1.07325   1.14649    0.000
 5111.00    1.15280   1.14796    0.000
 5112.00    1.16223   1.16376    0.000
 5113.00    1.12652   1.18288    0.000
 5114.00    1.08329   1.19123    0.000
 5115.00    0.99995   1.19353    0.000
 5116.00    0.83734   1.19484    0.000
 5117.00    0.73549   1.20182    0.000
 5118.00    0.87535   1.21271    0.000
 5119.00    1.09716   1.21548    0.000
 5120.00    1.08180   1.20707    0.000
 5121.00    0.88337   1.19165    0.000
 5122.00    0.79584   1.17348    0.000
 5123.00    0.88477   1.15285    0.000
 5124.00    1.00557   1.13087    0.000
 5125.00    1.00953   1.12091    0.000
 5126.00    0.84466   1.12718    0.000
 5127.00    0.65426   1.13574    0.000
 5128.00    0.61636   1.13621    0.000
 5129.00    0.66459   1.13135    0.000
 5130.00    0.65333   1.13190    0.000
 5131.00    0.67169   1.14393    0.000
 5132.00    0.86086   1.15719    0.000
 5133.00    1.08981   1.15911    0.000
 5134.00    1.15351   1.15856    0.000
 5135.00    1.10060   1.17052    0.000
 5136.00    1.07496   1.18300    0.000
 5137.00    1.05825   1.17068    0.000
 5138.00    0.97749   1.14422    0.000
 5139.00    0.87286   1.12377    0.000
 5140.00    0.81941   1.11859    0.000
 5141.00    0.81605   1.13612    0.000
 5142.00    0.83601   1.14491    0.000
 5143.00    0.89267   1.12953    0.000
 5144.00    0.99311   1.13019    0.000
 5145.00    1.08654   1.14872    0.000
 5146.00    1.11286   1.14908    0.000
 5147.00    1.05599   1.13459    0.000
 5148.00    0.94293   1.12769    0.000
 5149.00    0.83499   1.13508    0.000
 5150.00    0.79576   1.14847    0.000
 5151.00    0.85873   1.15004    0.000
 5152.00    0.98895   1.14110    0.000
 5153.00    1.06875   1.13293    0.000
 5154.00    1.03191   1.12612    0.000
 5155.00    0.95347   1.12755    0.000
 5156.00    0.90299   1.14423    0.000
 5157.00    0.84923   1.16695    0.000
 5158.00    0.81362   1.18393    0.000
 5159.00    0.94308   1.19050    0.000
 5160.00    1.22256   1.18959    0.000
 5161.00    1.34582   1.18562    0.000
 5162.00    1.16312   1.17178    0.000
 5163.00    0.90975   1.15531    0.000
 5164.00    0.80875   1.15066    0.000
 5165.00    0.84497   1.13786    0.000
 5166.00    0.90595   1.09268    0.000
 5167.00    0.88644   1.02234    0.000
 5168.00    0.77489   0.96191    0.000
 5169.00    0.66981   0.95622    0.000
 5170.00    0.63635   1.00735    0.000
 5171.00    0.64878   1.05207    0.000
 5172.00    0.67355   1.02850    0.000
 5173.00    0.70536   0.97878    0.000
 5174.00    0.74118   0.99948    0.000
 5175.00    0.77174   1.08441    0.000
 5176.00    0.79936   1.14839    0.000
 5177.00    0.83437   1.16492    0.000
 5178.00    0.85081   1.16788    0.000
 5179.00    0.79907   1.17313    0.000
 5180.00    0.72016   1.17139    0.000
 5181.00    0.73453   1.15900    0.000
 5182.00    0.84733   1.12552    0.000
 5183.00    0.92967   1.05374    0.000
 5184.00    0.89642   0.98073    0.000
 5185.00    0.76531   0.98566    0.000
 5186.00    0.64275   1.06259    0.000
 5187.00    0.65990   1.12785    0.000
 5188.00    0.80152   1.14368    0.000
 5189.00    0.92074   1.13673    0.000
 5190.00    0.92848   1.14407    0.000
 5191.00    0.84043   1.14583    0.000
 5192.00    0.75059   1.10947    0.000
 5193.00    0.76658   1.08020    0.000
 5194.00    0.87052   1.09769    0.000
 5195.00    0.95766   1.11996    0.000
 5196.00    1.01122   1.11660    0.000
 5197.00    1.07542   1.11262    0.000
 5198.00    1.10168   1.12100    0.000
 5199.00    1.01276   1.13839    0.000
 5200.00    0.90834   1.15916    0.000
 5201.00    0.95235   1.16913    0.000
 5202.00    1.06519   1.16590    0.000
 5203.00    1.05575   1.15830    0.000
 5204.00    0.98275   1.14392    0.000
 5205.00    1.01720   1.11093    0.000
 5206.00    1.07987   1.07778    0.000
 5207.00    0.99137   1.07347    0.000
 5208.00    0.82921   1.08086    0.000
 5209.00    0.78364   1.08024    0.000
 5210.00    0.83524   1.09409    0.000
 5211.00    0.85839   1.12534    0.000
 5212.00    0.85245   1.15361    0.000
 5213.00    0.88049   1.17518    0.000
 5214.00    0.93359   1.18133    0.000
 5215.00    0.96758   1.16197    0.000
 5216.00    0.97729   1.12924    0.000
 5217.00    0.97162   1.11331    0.000
 5218.00    0.93157   1.12733    0.000
 5219.00    0.85222   1.15715    0.000
 5220.00    0.79467   1.18113    0.000
 5221.00    0.81698   1.19093    0.000
 5222.00    0.89185   1.19256    0.000
 5223.00    0.95916   1.18573    0.000
 5224.00    0.99236   1.16646    0.000
 5225.00    0.98939   1.13278    0.000
 5226.00    0.95528   1.08139    0.000
 5227.00    0.89118   1.02821    0.000
 5228.00    0.78996   1.02426    0.000
 5229.00    0.68259   1.08292    0.000
 5230.00    0.66855   1.14255    0.000
 5231.00    0.79444   1.16645    0.000
 5232.00    0.96036   1.16249    0.000
 5233.00    1.05502   1.13307    0.000
 5234.00    1.06660   1.10206    0.000
 5235.00    1.01914   1.09801    0.000
 5236.00    0.92218   1.11827    0.000
 5237.00    0.81734   1.14758    0.000
 5238.00    0.79925   1.16920    0.000
 5239.00    0.89884   1.17882    0.000
 5240.00    1.02150   1.18265    0.000
 5241.00    1.09346   1.18595    0.000
 5242.00    1.14195   1.18697    0.000
 5243.00    1.16597   1.18101    0.000
 5244.00    1.08462   1.18040    0.000
 5245.00    0.93224   1.19331    0.000
 5246.00    0.91636   1.19552    0.000
 5247.00    1.08066   1.17097    0.000
 5248.00    1.18551   1.14682    0.000
 5249.00    1.09581   1.14478    0.000
 5250.00    0.94015   1.14369    0.000
 5251.00    0.84927   1.13459    0.000
 5252.00    0.83736   1.13989    0.000
 5253.00    0.88743   1.15683    0.000
 5254.00    0.98320   1.16010    0.000
 5255.00    1.05922   1.14510    0.000
 5256.00    1.02039   1.13896    0.000
 5257.00    0.91546   1.16261    0.000
 5258.00    0.92758   1.19482    0.000
 5259.00    1.05080   1.20910    0.000
 5260.00    1.06594   1.20219    0.000
 5261.00    0.93342   1.17812    0.000
 5262.00    0.84642   1.14284    0.000
 5263.00    0.88973   1.10295    0.000
 5264.00    0.96721   1.06694    0.000
 5265.00    0.97467   1.03912    0.000
 5266.00    0.87409   1.02539    0.000
 5267.00    0.73313   1.04059    0.000
 5268.00    0.68238   1.07452    0.000
 5269.00    0.75709   1.06833    0.000
 5270.00    0.88557   1.01849    0.000
 5271.00    0.99139   1.01117    0.000
 5272.00    1.02957   1.06946    0.000
 5273.00    1.00192   1.11890    0.000
 5274.00    0.93854   1.12384    0.000
 5275.00    0.84398   1.10405    0.000
 5276.00    0.72646   1.08494    0.000
 5277.00    0.69370   1.10410    0.000
 5278.00    0.84476   1.15674    0.000
 5279.00    0.99136   1.18784    0.000
 5280.00    0.85535   1.17952    0.000
 5281.00    0.59739   1.15694    0.000
 5282.00    0.58726   1.13942    0.000
 5283.00    0.74309   1.12484    0.000
 5284.00    0.74823   1.10988    0.000
 5285.00    0.68974   1.11751    0.000
 5286.00    0.84140   1.16107    0.000
 5287.00    1.08152   1.20392    0.000
 5288.00    1.10623   1.21494    0.000
 5289.00    0.94857   1.20869    0.000
 5290.00    0.84767   1.20909    0.000
 5291.00    0.90531   1.21627    0.000
 5292.00    1.06249   1.21579    0.000
 5293.00    1.15470   1.20502    0.000
 5294.00    1.06818   1.19519    0.000
 5295.00    0.93574   1.19221    0.000
 5296.00    0.94504   1.18219    0.000
 5297.00    1.05541   1.15158    0.000
 5298.00    1.11906   1.11503    0.000
 5299.00    1.08103   1.10770    0.000
 5300.00    0.98707   1.13539    0.000
 5301.00    0.95335   1.15825    0.000
 5302.00    1.03205   1.15615    0.000
 5303.00    1.08142   1.15556    0.000
 5304.00    0.98808   1.17511    0.000
 5305.00    0.89820   1.19924    0.000
 5306.00    0.96978   1.20496    0.000
 5307.00    1.11453   1.19251    0.000
 5308.00    1.17771   1.18165    0.000
 5309.00    1.13122   1.18735    0.000
 5310.00    1.03958   1.20220    0.000
 5311.00    1.00307   1.21019    0.000
 5312.00    1.06071   1.20772    0.000
 5313.00    1.12651   1.19922    0.000
 5314.00    1.12813   1.18917    0.000
 5315.00    1.11060   1.18005    0.000
 5316.00    1.12572   1.15991    0.000
 5317.00    1.14783   1.13147    0.000
 5318.00    1.12808   1.13060    0.000
 5319.00    1.04111   1.15852    0.000
 5320.00    0.90370   1.17913    0.000
 5321.00    0.78067   1.18350    0.000
 5322.00    0.75136   1.18164    0.000
 5323.00    0.87072   1.17088    0.000
 5324.00    1.06825   1.14569    0.000
 5325.00    1.13365   1.12324    0.000
 5326.00    0.99048   1.12469    0.000
 5327.00    0.80999   1.11876    0.000
 5328.00    0.74603   1.07001    0.000
 5329.00    0.79728   1.02363    0.000
 5330.00    0.88011   1.04828    0.000
 5331.00    0.89468   1.11700    0.000
 5332.00    0.84083   1.15969    0.000
 5333.00    0.83165   1.16564    0.000
 5334.00    0.89718   1.16572    0.000
 5335.00    0.93777   1.17566    0.000
 5336.00    0.92377   1.18091    0.000
 5337.00    0.94167   1.17265    0.000
 5338.00    1.01523   1.16251    0.000
 5339.00    1.06832   1.15347    0.000
 5340.00    1.07478   1.13132    0.000
 5341.00    1.08158   1.10885    0.000
 5342.00    1.07507   1.11948    0.000
 5343.00    0.98095   1.15582    0.000
 5344.00    0.83563   1.18061    0.000
 5345.00    0.77762   1.18148    0.000
 5346.00    0.82556   1.16767    0.000
 5347.00    0.87416   1.15809    0.000
 5348.00    0.90783   1.15842    0.000
 5349.00    0.99327   1.15208    0.000
 5350.00    1.06540   1.14539    0.000
 5351.00    0.98116   1.15920    0.000
 5352.00    0.83361   1.18302    0.000
 5353.00    0.85981   1.19275    0.000
 5354.00    0.98547   1.19339    0.000
 5355.00    0.94348   1.20406    0.000
 5356.00    0.84421   1.21914    0.000
 5357.00    1.01148   1.22469    0.000
 5358.00    1.29187   1.22328    0.000
 5359.00    1.26004   1.22163    0.000
 5360.00    1.00360   1.21924    0.000
 5361.00    0.93343   1.21014    0.000
 5362.00    1.04748   1.18906    0.000
 5363.00    1.06075   1.16508    0.000
 5364.00    0.95061   1.15305    0.000
 5365.00    0.88627   1.14907    0.000
 5366.00    0.90411   1.14682    0.000
 5367.00    0.93439   1.14985    0.000
 5368.00    0.95154   1.15199    0.000
 5369.00    0.96069   1.14471    0.000
 5370.00    0.93519   1.11981    0.000
 5371.00    0.86468   1.08553    0.000
 5372.00    0.83992   1.07762    0.000
 5373.00    0.95468   1.11411    0.000
 5374.00    1.14822   1.16510    0.000
 5375.00    1.28256   1.19441    0.000
 5376.00    1.28255   1.20288    0.000
 5377.00    1.16238   1.19857    0.000
 5378.00    1.02852   1.19130    0.000
 5379.00    0.98022   1.18941    0.000
 5380.00    0.99270   1.18451    0.000
 5381.00    1.00808   1.17195    0.000
 5382.00    1.05225   1.16240    0.000
 5383.00    1.15088   1.15675    0.000
 5384.00    1.22901   1.15529    0.000
 5385.00    1.19947   1.16943    0.000
 5386.00    1.06484   1.18756   -2.000
 5387.00    0.89105   1.19037   -2.000
 5388.00    0.76797   1.18320   -2.000
 5389.00    0.77789   1.17379   -2.000
 5390.00    0.96149   1.16161   -2.000
 5391.00    1.24496   1.15014   -2.000
 5392.00    1.40745   1.14441   -2.000
 5393.00    1.35109   1.14145   -2.000
 5394.00    1.28619   1.14028   -2.000
 5395.00    1.34214   1.14310   -2.000
 5396.00    1.29800   1.13731   -2.000
 5397.00    1.01488   1.11198   -2.000
 5398.00    0.72884   1.09508   -2.000
 5399.00    0.67581   1.11487   -2.000
 5400.00    0.82825   1.14164   -2.000
 5401.00    1.04395   1.14767    0.000
 5402.00    1.18801   1.14917    0.000
 5403.00    1.19275   1.14848    0.000
 5404.00    1.08308   1.12373    0.000
 5405.00    0.92095   1.08311    0.000
 5406.00    0.76981   1.06095    0.000
 5407.00    0.69127   1.07503    0.000
 5408.00    0.73027   1.10785    0.000
 5409.00    0.84149   1.12363    0.000
 5410.00    0.88692   1.11058    0.000
 5411.00    0.82397   1.10033    0.000
 5412.00    0.76580   1.12067    0.000
 5413.00    0.80181   1.15160    0.000
 5414.00    0.91765   1.15955    0.000
 5415.00    1.04059   1.14788    0.000
 5416.00    1.08297   1.14705    0.000
 5417.00    1.02914   1.16718    0.000
 5418.00    0.95180   1.18426    0.000
 5419.00    0.92705   1.18147    0.000
 5420.00    0.99056   1.16840    0.000
 5421.00    1.10875   1.15826    0.000
 5422.00    1.19347   1.15963    0.000
 5423.00    1.19122   1.16148    0.000
 5424.00    1.10355   1.14268    0.000
 5425.00    0.94417   1.12251    0.000
 5426.00    0.74514   1.13727    0.000
 5427.00    0.62269   1.17262    0.000
 5428.00    0.71561   1.18493    0.000
 5429.00    0.94217   1.15503    0.000
 5430.00    1.05805   1.11137    0.000
 5431.00    1.02771   1.10919    0.000
 5432.00    1.01175   1.13860    0.000
 5433.00    1.04359   1.14325    0.000
 5434.00    1.02654   1.12228    0.000
 5435.00    0.95201   1.10769    0.000
 5436.00    0.89917   1.11201    0.000
 5437.00    0.89787   1.13194    0.000
 5438.00    0.92336   1.15944    0.000
 5439.00    0.96073   1.18613    0.000
 5440.00    1.00334   1.20121    0.000
 5441.00    1.01858   1.20378    0.000
 5442.00    0.98175   1.20119    0.000
 5443.00    0.95569   1.19934    0.000
 5444.00    1.01656   1.19221    0.000
 5445.00    1.08743   1.16818    0.000
 5446.00    1.04074   1.12923    0.000
 5447.00    0.93414   1.09572    0.000
 5448.00    0.91308   1.09856    0.000
 5449.00    0.97602   1.13887    0.000
 5450.00    1.02923   1.17593    0.000
 5451.00    1.03880   1.18731    0.000
 5452.00    1.02105   1.18456    0.000
 5453.00    0.99021   1.17755    0.000
 5454.00    0.95076   1.16138    0.000
 5455.00    0.89860   1.12729    0.000
 5456.00    0.82936   1.09612    0.000
 5457.00    0.75034   1.10733    0.000
 5458.00    0.69593   1.15187    0.000
 5459.00    0.73830   1.18385    0.000
 5460.00    0.88686   1.18829    0.000
 5461.00    0.97960   1.17690    0.000
 5462.00    0.88861   1.15733    0.000
 5463.00    0.75359   1.13135    0.000
 5464.00    0.75197   1.11850    0.000
 5465.00    0.83046   1.13467    0.000
 5466.00    0.83362   1.15442    0.000
 5467.00    0.67274   1.15691    0.000
 5468.00    0.40143   1.15907    0.000
 5469.00    0.24835   1.16727    0.000
 5470.00    0.35916   1.16758    0.000
 5471.00    0.58154   1.16049    0.000
 5472.00    0.72767   1.15672    0.000
 5473.00    0.80652   1.15066    0.000
 5474.00    0.89113   1.13857    0.000
 5475.00    0.99305   1.13100    0.000
 5476.00    1.06545   1.11415    0.000
 5477.00    1.02715   1.07990    0.000
 5478.00    0.87162   1.07315    0.000
 5479.00    0.72497   1.11028    0.000
 5480.00    0.68378   1.14155    0.000
 5481.00    0.71221   1.13571    0.000
 5482.00    0.74392   1.11796    0.000
 5483.00    0.75265   1.12141    0.000
 5484.00    0.73892   1.14293    0.000
 5485.00    0.71988   1.16518    0.000
 5486.00    0.73379   1.17509    0.000
 5487.00    0.82624   1.16133    0.000
 5488.00    0.95797   1.13802    0.000
 5489.00    0.99282   1.13278    0.000
 5490.00    0.90773   1.14441    0.000
 5491.00    0.85479   1.15385    0.000
 5492.00    0.90496   1.15875    0.000
 5493.00    0.95759   1.15673    0.000
 5494.00    0.93613   1.14832    0.000
 5495.00    0.86879   1.14880    0.000
 5496.00    0.81783   1.15605    0.000
 5497.00    0.83192   1.15044   -2.000
 5498.00    0.89052   1.13850   -2.000
 5499.00    0.91460   1.14664   -2.000
 5500.00    0.89820   1.16560   -2.000
 5501.00    0.90276   1.16118   -2.000
 5502.00    0.84128   1.13670   -2.000
 5503.00    0.53328   1.12263   -2.000
 5504.00    0.17781   1.12938   -2.000
 5505.00    0.27303   1.13965   -2.000
 5506.00    0.79713   1.13432   -2.000
 5507.00    1.20550   1.12050   -2.000
 5508.00    1.29112   1.12408   -2.000
 5509.00    1.26428   1.14053   -2.000
 5510.00    1.16516   1.14437   -2.000
 5511.00    0.84355   1.13766   -2.000
 5512.00    0.40104   1.12773   -2.000
 5513.00    0.15811   1.11719   -2.000
 5514.00    0.23452   1.11730   -2.000
 5515.00    0.50369   1.12936   -2.000
 5516.00    0.76715   1.14227   -2.000
 5517.00    0.86556   1.15081   -2.000
 5518.00    0.82601   1.15990   -2.000
 5519.00    0.80720   1.17177   -2.000
 5520.00    0.90047   1.17680   -2.000
 5521.00    1.07926   1.17231    0.000
 5522.00    1.19471   1.16696    0.000
 5523.00    1.10008   1.16598    0.000
 5524.00    0.89040   1.16636    0.000
 5525.00    0.78699   1.16100    0.000
 5526.00    0.83507   1.14608    0.000
 5527.00    0.92996   1.12466    0.000
 5528.00    0.96741   1.10077    0.000
 5529.00    0.89906   1.08978    0.000
 5530.00    0.77655   1.10931    0.000
 5531.00    0.70021   1.14175    0.000
 5532.00    0.72571   1.15677    0.000
 5533.00    0.83773   1.15385    0.000
 5534.00    0.93839   1.14208    0.000
 5535.00    0.93905   1.12679    0.000
 5536.00    0.88647   1.12191    0.000
 5537.00    0.86953   1.13606    0.000
 5538.00    0.87510   1.15017    0.000
 5539.00    0.84523   1.15476    0.000
 5540.00    0.77281   1.16192    0.000
 5541.00    0.69296   1.17160    0.000
 5542.00    0.65543   1.17246    0.000
 5543.00    0.68220   1.16026    0.000
 5544.00    0.72845   1.14465    0.000
 5545.00    0.74798   1.14029    0.000
 5546.00    0.76299   1.14374    0.000
 5547.00    0.80515   1.14750    0.000
 5548.00    0.85323   1.15698    0.000
 5549.00    0.88412   1.17027    0.000
 5550.00    0.92231   1.17761    0.000
 5551.00    0.98662   1.17884    0.000
 5552.00    1.04288   1.17642    0.000
 5553.00    1.05433   1.16862    0.000
 5554.00    1.02699   1.15643    0.000
 5555.00    0.99616   1.14650    0.000
 5556.00    1.00564   1.14902    0.000
 5557.00    1.05447   1.15746    0.000
 5558.00    1.06981   1.15802    0.000
 5559.00    1.00734   1.15536    0.000
 5560.00    0.91543   1.15625    0.000
 5561.00    0.85581   1.15556    0.000
 5562.00    0.84855   1.14945    0.000
 5563.00    0.89252   1.13936    0.000
 5564.00    0.97702   1.13384    0.000
 5565.00    1.05677   1.13534    0.000
 5566.00    1.05366   1.13263    0.000
 5567.00    0.95894   1.12705    0.000
 5568.00    0.86782   1.12791    0.000
 5569.00    0.83681   1.12743    0.000
 5570.00    0.82737   1.12364    0.000
 5571.00    0.83274   1.12990    0.000
 5572.00    0.91473   1.13598    0.000
 5573.00    1.04919   1.12302    0.000
 5574.00    1.09481   1.11718    0.000
 5575.00    1.00784   1.13524    0.000
 5576.00    0.90072   1.14687    0.000
 5577.00    0.85195   1.14481    0.000
 5578.00    0.84360   1.14681    0.000
 5579.00    0.85973   1.15142    0.000
 5580.00    0.91237   1.15410    0.000
 5581.00    0.97763   1.15662    0.000
 5582.00    0.99631   1.15315    0.000
 5583.00    0.96899   1.14733    0.000
 5584.00    0.95592   1.14867    0.000
 5585.00    0.95462   1.14640    0.000
 5586.00    0.89974   1.12645    0.000
 5587.00    0.80335   1.09212    0.000
 5588.00    0.75545   1.06423    0.000
 5589.00    0.78138   1.05853    0.000
 5590.00    0.82473   1.07262    0.000
 5591.00    0.83007   1.09630    0.000
 5592.00    0.78039   1.11596    0.000
 5593.00    0.72779   1.12064    0.000
 5594.00    0.74546   1.11080    0.000
 5595.00    0.78608   1.10621    0.000
 5596.00    0.74337   1.12515    0.000
 5597.00    0.68821   1.14831    0.000
 5598.00    0.78360   1.14249    0.000
 5599.00    0.95898   1.11995    0.000
 5600.00    1.00135   1.11177    0.000
 5601.00    0.91581   1.10949    0.000
 5602.00    0.86431   1.09724    0.000
 5603.00    0.87693   1.08863    0.000
 5604.00    0.87932   1.10165    0.000
 5605.00    0.86297   1.13567    0.000
 5606.00    0.86147   1.16410    0.000
 5607.00    0.84741   1.17405    0.000
 5608.00    0.78863   1.17313    0.000
 5609.00    0.77328   1.16925    0.000
 5610.00    0.89901   1.16712    0.000
 5611.00    1.06309   1.16917    0.000
 5612.00    1.09525   1.17524    0.000
 5613.00    1.01216   1.17829    0.000
 5614.00    0.93438   1.16193    0.000
 5615.00    0.90765   1.11731    0.000
 5616.00    0.91558   1.07518    0.000
 5617.00    0.93476   1.08032    0.000
 5618.00    0.95329   1.11572    0.000
 5619.00    0.98278   1.13363    0.000
 5620.00    1.02340   1.13215    0.000
 5621.00    1.02363   1.13379    0.000
 5622.00    0.95011   1.14332    0.000
 5623.00    0.86890   1.14762    0.000
 5624.00    0.85977   1.13127    0.000
 5625.00    0.91457   1.10358    0.000
 5626.00    0.98744   1.09772    0.000
 5627.00    1.05548   1.11637    0.000
 5628.00    1.07784   1.13428    0.000
 5629.00    0.96480   1.14481    0.000
 5630.00    0.74383   1.15559    0.000
 5631.00    0.68111   1.16347    0.000
 5632.00    0.90916   1.16536    0.000
 5633.00    1.13291   1.16069    0.000
 5634.00    1.08662   1.15023    0.000
 5635.00    0.90484   1.14135    0.000
 5636.00    0.79682   1.13533    0.000
 5637.00    0.77671   1.12457    0.000
 5638.00    0.78582   1.11413    0.000
 5639.00    0.79841   1.11707    0.000
 5640.00    0.80638   1.12740    0.000
 5641.00    0.80606   1.12708    0.000
 5642.00    0.81706   1.11844    0.000
 5643.00    0.88250   1.11812    0.000
 5644.00    0.98361   1.12423    0.000
 5645.00    1.01127   1.13025    0.000
 5646.00    0.92983   1.13611    0.000
 5647.00    0.84790   1.14165    0.000
 5648.00    0.84026   1.14539    0.000
 5649.00    0.86228   1.14355    0.000
 5650.00    0.85998   1.13720    0.000
 5651.00    0.82866   1.13442    0.000
 5652.00    0.79097   1.14067    0.000
 5653.00    0.77607   1.14739    0.000
 5654.00    0.78158   1.14161    0.000
 5655.00    0.77175   1.12527    0.000
 5656.00    0.75130   1.11682    0.000
 5657.00    0.77639   1.11773    0.000
 5658.00    0.85552   1.09920    0.000
 5659.00    0.92526   1.06881    0.000
 5660.00    0.92937   1.07259    0.000
 5661.00    0.86000   1.10168    0.000
 5662.00    0.78498   1.10973    0.000
 5663.00    0.80980   1.09767    0.000
 5664.00    0.90940   1.10141    0.000
 5665.00    0.93919   1.12447    0.000
 5666.00    0.87909   1.13913    0.000
 5667.00    0.84804   1.13393    0.000
 5668.00    0.87871   1.12237    0.000
 5669.00    0.88991   1.11908    0.000
 5670.00    0.82960   1.12347    0.000
 5671.00    0.71484   1.12955    0.000
 5672.00    0.61461   1.13750    0.000
 5673.00    0.60977   1.15057    0.000
 5674.00    0.70219   1.16215    0.000
 5675.00    0.81871   1.16016    0.000
 5676.00    0.88553   1.15090    0.000
 5677.00    0.86856   1.15182    0.000
 5678.00    0.81978   1.15735    0.000
 5679.00    0.82819   1.15338    0.000
 5680.00    0.88611   1.14581    0.000
 5681.00    0.91383   1.14199    0.000
 5682.00    0.87836   1.13316    0.000
 5683.00    0.80562   1.11649    0.000
 5684.00    0.75085   1.11038    0.000
 5685.00    0.77138   1.11994    0.000
 5686.00    0.88632   1.12617    0.000
 5687.00    1.05652   1.11916    0.000
 5688.00    1.16644   1.10852    0.000
 5689.00    1.10896   1.10866    0.000
 5690.00    0.93071   1.12093    0.000
 5691.00    0.76136   1.13441    0.000
 5692.00    0.66059   1.14240    0.000
 5693.00    0.63006   1.14800    0.000
 5694.00    0.66920   1.14944    0.000
 5695.00    0.77208   1.14584    0.000
 5696.00    0.91111   1.14334    0.000
 5697.00    1.04974   1.14559    0.000
 5698.00    1.16149   1.14292    0.000
 5699.00    1.20986   1.13174    0.000
 5700.00    1.12572   1.12381    0.000
 5701.00    0.90548   1.11678    0.000
 5702.00    0.72048   1.10651    0.000
 5703.00    0.72825   1.10508    0.000
 5704.00    0.85163   1.11713    0.000
 5705.00    0.93700   1.12632    0.000
 5706.00    0.95026   1.11755    0.000
 5707.00    0.92587   1.10037    0.000
 5708.00    0.89085   1.08873    0.000
 5709.00    0.84394   1.07857    0.000
 5710.00    0.75078   1.07183    0.000
 5711.00    0.63085   1.07564    0.000
 5712.00    0.61845   1.08088    0.000
 5713.00    0.76843   1.08976    0.000
 5714.00    0.91072   1.11137    0.000
 5715.00    0.92231   1.13050    0.000
 5716.00    0.93224   1.13766    0.000
 5717.00    1.05298   1.14029    0.000
 5718.00    1.18216   1.13927    0.000
 5719.00    1.21085   1.13908    0.000
 5720.00    1.17335   1.14550    0.000
 5721.00    1.12491   1.15164    0.000
 5722.00    1.05797   1.15634    0.000
 5723.00    0.97173   1.16176    0.000
 5724.00    0.91226   1.16335    0.000
 5725.00    0.90894   1.16083    0.000
 5726.00    0.93848   1.15555    0.000
 5727.00    0.96147   1.14362    0.000
 5728.00    0.94967   1.13366    0.000
 5729.00    0.90718   1.13905    0.000
 5730.00    0.87420   1.14901    0.000
 5731.00    0.88582   1.14676    0.000
 5732.00    0.94766   1.13576    0.000
 5733.00    1.02705   1.13273    0.000
 5734.00    1.06347   1.14387    0.000
 5735.00    1.03552   1.15432    0.000
 5736.00    0.97883   1.15609    0.000
 5737.00    0.92217   1.15234    0.000
 5738.00    0.86779   1.14692    0.000
 5739.00    0.83266   1.14331    0.000
 5740.00    0.84883   1.14313    0.000
 5741.00    0.89446   1.14330    0.000
 5742.00    0.89797   1.14131    0.000
 5743.00    0.85705   1.13851    0.000
 5744.00    0.84527   1.13924    0.000
 5745.00    0.87565   1.14725    0.000
 5746.00    0.88946   1.15492    0.000
 5747.00    0.88394   1.15100    0.000
 5748.00    0.91694   1.13545    0.000
 5749.00    0.98422   1.12441    0.000
 5750.00    1.01479   1.13245    0.000
 5751.00    0.97517   1.14583    0.000
 5752.00    0.88982   1.14355    0.000
 5753.00    0.80732   1.12306    0.000
 5754.00    0.77777   1.09992    0.000
 5755.00    0.82024   1.09548    0.000
 5756.00    0.91528   1.11508    0.000
 5757.00    1.00901   1.13893    0.000
 5758.00    1.03719   1.14974    0.000
 5759.00    0.97832   1.14917    0.000
 5760.00    0.86390   1.14114    0.000
 5761.00    0.77074   1.12875    0.000
 5762.00    0.77075   1.11300    0.000
 5763.00    0.83310   1.09935    0.000
 5764.00    0.87213   1.10379    0.000
 5765.00    0.88198   1.12865    0.000
 5766.00    0.90904   1.14977    0.000
 5767.00    0.95062   1.15512    0.000
 5768.00    0.97603   1.15478    0.000
 5769.00    0.99695   1.15328    0.000
 5770.00    1.03797   1.14940    0.000
 5771.00    1.06832   1.14580    0.000
 5772.00    1.03782   1.14153    0.000
 5773.00    0.95159   1.13587    0.000
 5774.00    0.86306   1.13479    0.000
 5775.00    0.84261   1.13477    0.000
 5776.00    0.92310   1.13571    0.000
 5777.00    1.03458   1.14217    0.000
 5778.00    1.08524   1.14692    0.000
 5779.00    1.07823   1.14321    0.000
 5780.00    1.05044   1.12776    0.000
 5781.00    0.97956   1.10274    0.000
 5782.00    0.84237   1.08198    0.000
 5783.00    0.69367   1.07994    0.000
 5784.00    0.60080   1.08676    0.000
 5785.00    0.56273   1.08543    0.000
 5786.00    0.55773   1.08344    0.000
 5787.00    0.60097   1.09631    0.000
 5788.00    0.70617   1.11684    0.000
 5789.00    0.84328   1.12797    0.000
 5790.00    0.96908   1.12852    0.000
 5791.00    1.06068   1.11996    0.000
 5792.00    1.11550   1.11232    0.000
 5793.00    1.14524   1.11914    0.000
 5794.00    1.14469   1.13008    0.000
 5795.00    1.07341   1.13758    0.000
 5796.00    0.92775   1.14318    0.000
 5797.00    0.79015   1.13840    0.000
 5798.00    0.73806   1.12503    0.000
 5799.00    0.77325   1.12164    0.000
 5800.00    0.84613   1.13513    0.000
 5801.00    0.88792   1.15084    0.000
 5802.00    0.88643   1.15801    0.000
 5803.00    0.91721   1.15833    0.000
 5804.00    1.00803   1.14848    0.000
 5805.00    1.07515   1.13151    0.000
 5806.00    1.09476   1.12234    0.000
 5807.00    1.17371   1.12411    0.000
 5808.00    1.32083   1.13134    0.000
 5809.00    1.36252   1.13703    0.000
 5810.00    1.23749   1.13768    0.000
 5811.00    1.11161   1.14050   -2.000
 5812.00    1.10088   1.14676   -2.000
 5813.00    1.15456   1.14805   -2.000
 5814.00    1.21973   1.14383   -2.000
 5815.00    1.29753   1.13597   -2.000
 5816.00    1.31026   1.12453   -2.000
 5817.00    1.10503   1.11793   -2.000
 5818.00    0.74450   1.12663   -2.000
 5819.00    0.53093   1.14358   -2.000
 5820.00    0.57257   1.15422   -2.000
 5821.00    0.69977   1.15657   -2.000
 5822.00    0.85492   1.15488   -2.000
 5823.00    1.14079   1.15096   -2.000
 5824.00    1.42447   1.14799   -2.000
 5825.00    1.36618   1.14819   -2.000
 5826.00    1.02950   1.14977   -2.000
 5827.00    0.87147   1.14879   -2.000
 5828.00    1.00610   1.14812   -2.000
 5829.00    1.13795   1.14991   -2.000
 5830.00    1.12458   1.15259   -2.000
 5831.00    1.07293   1.15227    0.000
 5832.00    1.09127   1.14892    0.000
 5833.00    1.20493   1.14822    0.000
 5834.00    1.33769   1.14725    0.000
 5835.00    1.37098   1.14140    0.000
 5836.00    1.30607   1.13771    0.000
 5837.00    1.24406   1.14273    0.000
 5838.00    1.23201   1.14457    0.000
 5839.00    1.24575   1.14048    0.000
 5840.00    1.24171   1.14326    0.000
 5841.00    1.19400   1.15085    0.000
 5842.00    1.14521   1.15498    0.000
 5843.00    1.15698   1.15556    0.000
 5844.00    1.18842   1.15497    0.000
 5845.00    1.15246   1.15078    0.000
 5846.00    1.07241   1.14307    0.000
 5847.00    1.03917   1.13458    0.000
 5848.00    1.07614   1.12733    0.000
 5849.00    1.15255   1.12640    0.000
 5850.00    1.25015   1.13199    0.000
 5851.00    1.35064   1.13572    0.000
 5852.00    1.39793   1.13147    0.000
 5853.00    1.34530   1.11697    0.000
 5854.00    1.23545   1.10189    0.000
 5855.00    1.15182   1.10184    0.000
 5856.00    1.12934   1.10977    0.000
 5857.00    1.16206   1.10149    0.000
 5858.00    1.23243   1.08135    0.000
 5859.00    1.31377   1.07806    0.000
 5860.00    1.36931   1.09446    0.000
 5861.00    1.36871   1.11141    0.000
 5862.00    1.30797   1.11782    0.000
 5863.00    1.20068   1.11510    0.000
 5864.00    1.06493   1.11752    0.000
 5865.00    0.92584   1.12698    0.000
 5866.00    0.82042   1.12847    0.000
 5867.00    0.80283   1.12048    0.000
 5868.00    0.93908   1.11865    0.000
 5869.00    1.19383   1.12802    0.000
 5870.00    1.34276   1.13895    0.000
 5871.00    1.23925   1.14324    0.000
 5872.00    1.04811   1.14013    0.000
 5873.00    0.97323   1.13362    0.000
 5874.00    1.00824   1.12799    0.000
 5875.00    1.06984   1.12545    0.000
 5876.00    1.12696   1.12344    0.000
 5877.00    1.18377   1.11981    0.000
 5878.00    1.25264   1.12125    0.000
 5879.00    1.31099   1.12585    0.000
 5880.00    1.28438   1.12006    0.000
 5881.00    1.15595   1.11125    0.000
 5882.00    1.02669   1.11212    0.000
 5883.00    0.97512   1.11683    0.000
 5884.00    0.97182   1.11296    0.000
 5885.00    0.96871   1.10809    0.000
 5886.00    0.95690   1.11122    0.000
 5887.00    0.94379   1.11339    0.000
 5888.00    0.93732   1.09691    0.000
 5889.00    0.94677   1.04016    0.000
 5890.00    0.97953   0.95078    0.000
 5891.00    1.01901   0.90671    0.000
 5892.00    1.02527   0.95404    0.000
 5893.00    0.99935   1.02467    0.000
 5894.00    0.99909   1.05417    0.000
 5895.00    1.05416   1.03500    0.000
 5896.00    1.13052   0.97818    0.000
 5897.00    1.16248   0.95018    0.000
 5898.00    1.08994   0.99625    0.000
 5899.00    0.94805   1.05672    0.000
 5900.00    0.85779   1.08440    0.000
 5901.00    0.83373   1.09638    0.000
 5902.00    0.76602   1.10613    0.000
 5903.00    0.65488   1.11196    0.000
 5904.00    0.63869   1.11422    0.000
 5905.00    0.76256   1.11330    0.000
 5906.00    0.93372   1.10924    0.000
 5907.00    1.06516   1.10865    0.000
 5908.00    1.12323   1.11448    0.000
 5909.00    1.11430   1.11876    0.000
 5910.00    1.07273   1.11965    0.000
 5911.00    1.03913   1.12078    0.000
 5912.00    1.04393   1.12360    0.000
 5913.00    1.08100   1.11999    0.000
 5914.00    1.11666   1.10342    0.000
 5915.00    1.13386   1.08656    0.000
 5916.00    1.13540   1.08556    0.000
 5917.00    1.12087   1.09449    0.000
 5918.00    1.09678   1.10381    0.000
 5919.00    1.11384   1.11135    0.000
 5920.00    1.21906   1.11527    0.000
 5921.00    1.33050   1.11888    0.000
 5922.00    1.30803   1.11795    0.000
 5923.00    1.16371   1.11128    0.000
 5924.00    1.02097   1.11058    0.000
 5925.00    0.93913   1.11752    0.000
 5926.00    0.90154   1.12322    0.000
 5927.00    0.86494   1.12682    0.000
 5928.00    0.79944   1.12407    0.000
 5929.00    0.74056   1.11214    0.000
 5930.00    0.74463   1.09689    0.000
 5931.00    0.79845   1.09163    0.000
 5932.00    0.84852   1.10301    0.000
 5933.00    0.87363   1.11687    0.000
 5934.00    0.88604   1.11693    0.000
 5935.00    0.91335   1.10703    0.000
 5936.00    0.96323   1.10625    0.000
 5937.00    0.98093   1.11685    0.000
 5938.00    0.92357   1.12612    0.000
 5939.00    0.86321   1.13016    0.000
 5940.00    0.88285   1.12855    0.000
 5941.00    0.93121   1.11728    0.000
 5942.00    0.93092   1.10328    0.000
 5943.00    0.92575   1.09966    0.000
 5944.00    0.97393   1.10657    0.000
 5945.00    1.01330   1.11805    0.000
 5946.00    0.98015   1.12430    0.000
 5947.00    0.94503   1.12149    0.000
 5948.00    0.98049   1.10973    0.000
 5949.00    1.02012   1.09549    0.000
 5950.00    0.98696   1.09280    0.000
 5951.00    0.92488   1.10480    0.000
 5952.00    0.90835   1.11124    0.000
 5953.00    0.94935   1.10244    0.000
 5954.00    1.02270   1.09782    0.000
 5955.00    1.09523   1.10716    0.000
 5956.00    1.12425   1.11379    0.000
 5957.00    1.06188   1.10592    0.000
 5958.00    0.91682   1.09756    0.000
 5959.00    0.78968   1.09932    0.000
 5960.00    0.76735   1.10933    0.000
 5961.00    0.84641   1.12003    0.000
 5962.00    0.96981   1.12654    0.000
 5963.00    1.06303   1.13002    0.000
 5964.00    1.07802   1.12997    0.000
 5965.00    1.02049   1.12579    0.000
 5966.00    0.94249   1.11904    0.000
 5967.00    0.92155   1.11464    0.000
 5968.00    0.97158   1.11848    0.000
 5969.00    1.01434   1.12410    0.000
 5970.00    1.01997   1.12721    0.000
 5971.00    1.05903   1.12992    0.000
 5972.00    1.14562   1.13159    0.000
 5973.00    1.18478   1.13274    0.000
 5974.00    1.14142   1.13336    0.000
 5975.00    1.09605   1.12650    0.000
 5976.00    1.09295   1.11173    0.000
 5977.00    1.08552   1.09736    0.000
 5978.00    1.02742   1.09101    0.000
 5979.00    0.91882   1.09547    0.000
 5980.00    0.81886   1.10754    0.000
 5981.00    0.81793   1.12083    0.000
 5982.00    0.91194   1.12341    0.000
 5983.00    0.99293   1.11266    0.000
 5984.00    1.00431   1.09348    0.000
 5985.00    0.97981   1.07778    0.000
 5986.00    0.96663   1.07999    0.000
 5987.00    0.99049   1.09259    0.000
 5988.00    1.03670   1.10199    0.000
 5989.00    1.06297   1.10697    0.000
 5990.00    1.05809   1.11225    0.000
 5991.00    1.04210   1.10971    0.000
 5992.00    1.01083   1.10059    0.000
 5993.00    0.94161   1.10265    0.000
 5994.00    0.85650   1.11657    0.000
 5995.00    0.81385   1.12359    0.000
 5996.00    0.83789   1.12027    0.000
 5997.00    0.90467   1.11129    0.000
 5998.00    0.95675   1.09911    0.000
 5999.00    0.93902   1.09509    0.000
 6000.00    0.87169   1.10265    0.000
 6001.00    0.82495   1.11008    0.000
 6002.00    0.82423   1.11107    0.000
 6003.00    0.84899   1.10278    0.000
 6004.00    0.87672   1.09731    0.000
 6005.00    0.89891   1.10274    0.000
 6006.00    0.93248   1.10515    0.000
 6007.00    0.99313   1.09562    0.000
 6008.00    1.04322   1.07945    0.000
 6009.00    1.03096   1.07028    0.000
 6010.00    0.97597   1.08322    0.000
 6011.00    0.94409   1.10557    0.000
 6012.00    0.97836   1.11248    0.000
 6013.00    1.07919   1.10019    0.000
 6014.00    1.19333   1.08851    0.000
 6015.00    1.24626   1.09076    0.000
 6016.00    1.19479   1.09610    0.000
 6017.00    1.05549   1.09314    0.000
 6018.00    0.92841   1.09065    0.000
 6019.00    0.91026   1.09453    0.000
 6020.00    0.97660   1.09129    0.000
 6021.00    1.02966   1.08000    0.000
 6022.00    0.98455   1.07764    0.000
 6023.00    0.84569   1.08395    0.000
 6024.00    0.77099   1.08686    0.000
 6025.00    0.87313   1.08709    0.000
 6026.00    1.00381   1.09582    0.000
 6027.00    0.99646   1.10311    0.000
 6028.00    0.93695   1.10227    0.000
 6029.00    0.96412   1.10536    0.000
 6030.00    1.04746   1.11124    0.000
 6031.00    1.09769   1.11302    0.000
 6032.00    1.09314   1.11359    0.000
 6033.00    1.06378   1.11855    0.000
 6034.00    1.06051   1.12260    0.000
 6035.00    1.10260   1.12010    0.000
 6036.00    1.14144   1.11752    0.000
 6037.00    1.12652   1.11840    0.000
 6038.00    1.05980   1.11966    0.000
 6039.00    0.97574   1.11949    0.000
 6040.00    0.91973   1.11547    0.000
 6041.00    0.92621   1.10941    0.000
 6042.00    1.00071   1.10587    0.000
 6043.00    1.10053   1.10658    0.000
 6044.00    1.13772   1.11457    0.000
 6045.00    1.08309   1.12162    0.000
 6046.00    1.01640   1.11823    0.000
 6047.00    1.00704   1.11529    0.000
 6048.00    1.04640   1.11831    0.000
 6049.00    1.10306   1.12140    0.000
 6050.00    1.15536   1.11945    0.000
 6051.00    1.17737   1.11755    0.000
 6052.00    1.14012   1.11634    0.000
 6053.00    1.06229   1.11169    0.000
 6054.00    1.01727   1.10411    0.000
 6055.00    1.03599   1.09962    0.000
 6056.00    1.07057   1.09715    0.000
 6057.00    1.05512   1.09496    0.000
 6058.00    0.95010   1.09964    0.000
 6059.00    0.80344   1.10899    0.000
 6060.00    0.73577   1.11554    0.000
 6061.00    0.77153   1.11604    0.000
 6062.00    0.81377   1.11458    0.000
 6063.00    0.82507   1.10965    0.000
 6064.00    0.86611   1.10217    0.000
 6065.00    0.96773   1.09034    0.000
 6066.00    1.09416   1.07650    0.000
 6067.00    1.18713   1.08154    0.000
 6068.00    1.19646   1.10468    0.000
 6069.00    1.12454   1.12153    0.000
 6070.00    1.02224   1.12547    0.000
 6071.00    0.93037   1.12415    0.000
 6072.00    0.86680   1.12387    0.000
 6073.00    0.84385   1.12562    0.000
 6074.00    0.86922   1.12811    0.000
 6075.00    0.93363   1.12762    0.000
 6076.00    1.00787   1.12418    0.000
 6077.00    1.04492   1.11821    0.000
 6078.00    1.00434   1.10680    0.000
 6079.00    0.90907   1.09071    0.000
 6080.00    0.83311   1.08518    0.000
 6081.00    0.83949   1.09437    0.000
 6082.00    0.94520   1.09665    0.000
 6083.00    1.07982   1.08868    0.000
 6084.00    1.13636   1.08856    0.000
 6085.00    1.09338   1.09075    0.000
 6086.00    1.00656   1.08737    0.000
 6087.00    0.94038   1.08669    0.000
 6088.00    0.93354   1.09365    0.000
 6089.00    0.96299   1.10015    0.000
 6090.00    0.98555   1.09626    0.000
 6091.00    1.01952   1.08827    0.000
 6092.00    1.10151   1.08586    0.000
 6093.00    1.19401   1.08670    0.000
 6094.00    1.22977   1.09060    0.000
 6095.00    1.20348   1.09887    0.000
 6096.00    1.14437   1.10633    0.000
 6097.00    1.05584   1.10726    0.000
 6098.00    0.93589   1.10336    0.000
 6099.00    0.81680   1.10454    0.000
 6100.00    0.74577   1.11161    0.000
 6101.00    0.75105   1.10927    0.000
 6102.00    0.82573   1.08661    0.000
 6103.00    0.91625   1.04894    0.000
 6104.00    0.96749   1.03670    0.000
 6105.00    0.97623   1.06673    0.000
 6106.00    0.96965   1.09579    0.000
 6107.00    0.97243   1.10390    0.000
 6108.00    0.98368   1.09897    0.000
 6109.00    0.96138   1.09532    0.000
 6110.00    0.88254   1.10323    0.000
 6111.00    0.79867   1.10885    0.000
 6112.00    0.76645   1.10334    0.000
 6113.00    0.78061   1.09950    0.000
 6114.00    0.81380   1.10365    0.000
 6115.00    0.85635   1.10758    0.000
 6116.00    0.90219   1.10375    0.000
 6117.00    0.93579   1.09484    0.000
 6118.00    0.94739   1.09489    0.000
 6119.00    0.94501   1.10132    0.000
 6120.00    0.94456   1.09827    0.000
 6121.00    0.95999   1.08377    0.000
 6122.00    0.99072   1.06252    0.000
 6123.00    1.01425   1.04920    0.000
 6124.00    0.99540   1.06274    0.000
 6125.00    0.90169   1.08698    0.000
 6126.00    0.75939   1.09447    0.000
 6127.00    0.67083   1.09083    0.000
 6128.00    0.69941   1.08561    0.000
 6129.00    0.80839   1.08068    0.000
 6130.00    0.92308   1.08203    0.000
 6131.00    0.97637   1.09031    0.000
 6132.00    0.94714   1.09723    0.000
 6133.00    0.87295   1.09969    0.000
 6134.00    0.81127   1.10076    0.000
 6135.00    0.80932   1.09421    0.000
 6136.00    0.85974   1.06866    0.000
 6137.00    0.89992   1.02669    0.000
 6138.00    0.90505   0.99873    0.000
 6139.00    0.91475   1.02042    0.000
 6140.00    0.95936   1.06860    0.000
 6141.00    1.03084   1.08551    0.000
 6142.00    1.10044   1.06434    0.000
 6143.00    1.13170   1.05389    0.000
 6144.00    1.10008   1.07651    0.000
 6145.00    1.01029   1.10034    0.000
 6146.00    0.92953   1.10420    0.000
 6147.00    0.95175   1.09702    0.000
 6148.00    1.03906   1.08551    0.000
 6149.00    1.04455   1.07278    0.000
 6150.00    0.96082   1.06835    0.000
 6151.00    0.92000   1.07362    0.000
 6152.00    0.94518   1.08277    0.000
 6153.00    0.94278   1.08954    0.000
 6154.00    0.90349   1.08972    0.000
 6155.00    0.90582   1.08250    0.000
 6156.00    0.96482   1.07437    0.000
 6157.00    1.02795   1.07390    0.000
 6158.00    1.07282   1.07707    0.000
 6159.00    1.11179   1.07854    0.000
 6160.00    1.14064   1.07774    0.000
 6161.00    1.14008   1.05797    0.000
 6162.00    1.10815   1.01811    0.000
 6163.00    1.05873   0.99199    0.000
 6164.00    1.00176   1.00302    0.000
 6165.00    0.94056   1.03311    0.000
 6166.00    0.87540   1.05600    0.000
 6167.00    0.80616   1.06784    0.000
 6168.00    0.73637   1.07258    0.000
 6169.00    0.68043   1.05956    0.000
 6170.00    0.67391   1.03140    0.000
 6171.00    0.74028   1.02225    0.000
 6172.00    0.83317   1.04626    0.000
 6173.00    0.87913   1.07127    0.000
 6174.00    0.86282   1.07524    0.000
 6175.00    0.82811   1.07380    0.000
 6176.00    0.85468   1.07277    0.000
 6177.00    0.99330   1.06872    0.000
 6178.00    1.18138   1.06866    0.000
 6179.00    1.30611   1.07573    0.000
 6180.00    1.30846   1.07952    0.000
 6181.00    1.19466   1.07917    0.000
 6182.00    1.03017   1.08411    0.000
 6183.00    0.90118   1.09103    0.000
 6184.00    0.86627   1.09139    0.000
 6185.00    0.92677   1.09085    0.000
 6186.00    1.00533   1.08885    0.000
 6187.00    1.02389   1.07972    0.000
 6188.00    0.98839   1.07083    0.000
 6189.00    0.94022   1.06942    0.000
 6190.00    0.89750   1.06873    0.000
 6191.00    0.86732   1.05453    0.000
 6192.00    0.86245   1.03110    0.000
 6193.00    0.88862   1.03209    0.000
 6194.00    0.93211   1.05980    0.000
 6195.00    0.96853   1.07941    0.000
 6196.00    0.97418   1.08549    0.000
 6197.00    0.94937   1.09115    0.000
 6198.00    0.93075   1.09560    0.000
 6199.00    0.93694   1.08829    0.000
 6200.00    0.93228   1.06920    0.000
 6201.00    0.88906   1.05844    0.000
 6202.00    0.83087   1.06823    0.000
 6203.00    0.79141   1.08441    0.000
 6204.00    0.78448   1.09199    0.000
 6205.00    0.81485   1.09273    0.000
 6206.00    0.88487   1.09136    0.000
 6207.00    0.98230   1.09156    0.000
 6208.00    1.07526   1.09199    0.000
 6209.00    1.13014   1.09037    0.000
 6210.00    1.12501   1.08929    0.000
 6211.00    1.06244   1.08694    0.000
 6212.00    0.97187   1.08257    0.000
 6213.00    0.88450   1.07289    0.000
 6214.00    0.81589   1.05445    0.000
 6215.00    0.74838   1.03732    0.000
 6216.00    0.65258   1.03188    0.000
 6217.00    0.62731   1.04186   -2.000
 6218.00    0.89792   1.05879   -2.000
 6219.00    1.50950   1.06489   -2.000
 6220.00    2.22721   1.05350   -2.000
 6221.00    2.71538   1.04467   -2.000
 6222.00    2.68078   1.04858   -2.000
 6223.00    2.11533   1.05946   -2.000
 6224.00    1.32083   1.06756   -2.000
 6225.00    0.63311   1.06694   -2.000
 6226.00    0.28486   1.06658   -2.000
 6227.00    0.31015   1.06940   -2.000
 6228.00    0.55278   1.07008   -2.000
 6229.00    0.80670   1.06606    0.000
 6230.00    0.90702   1.05054    0.000
 6231.00    0.85566   1.02382    0.000
 6232.00    0.79036   1.01381    0.000
 6233.00    0.77431   1.02705    0.000
 6234.00    0.77264   1.04530    0.000
 6235.00    0.76966   1.06702    0.000
 6236.00    0.78721   1.08342    0.000
 6237.00    0.84109   1.08071    0.000
 6238.00    0.92897   1.06573    0.000
 6239.00    1.03061   1.05173    0.000
 6240.00    1.10782   1.04392    0.000
 6241.00    1.10502   1.04175    0.000
 6242.00    0.98699   1.04776    0.000
 6243.00    0.81956   1.04927    0.000
 6244.00    0.71582   1.03840    0.000
 6245.00    0.68633   1.03080    0.000
 6246.00    0.67072   1.02880    0.000
 6247.00    0.66440   1.02578    0.000
 6248.00    0.70717   1.03185    0.000
 6249.00    0.81220   1.05023    0.000
 6250.00    0.94762   1.06515    0.000
 6251.00    1.03118   1.06680    0.000
 6252.00    0.98798   1.05391    0.000
 6253.00    0.84701   1.03115    0.000
 6254.00    0.70640   1.01808    0.000
 6255.00    0.65020   1.01816    0.000
 6256.00    0.70787   1.02232    0.000
 6257.00    0.81718   1.02373    0.000
 6258.00    0.88270   1.02019    0.000
 6259.00    0.86720   1.01717    0.000
 6260.00    0.79765   1.02457    0.000
 6261.00    0.75082   1.04124    0.000
 6262.00    0.77678   1.05262    0.000
 6263.00    0.81142   1.06163    0.000
 6264.00    0.78707   1.07121    0.000
 6265.00    0.77043   1.06650    0.000
 6266.00    0.84401   1.05210    0.000
 6267.00    0.95914   1.05445    0.000
 6268.00    1.02686   1.06724    0.000
 6269.00    1.03202   1.06805    0.000
 6270.00    1.01042   1.06076    0.000
 6271.00    1.00882   1.05581    0.000
 6272.00    1.03751   1.05761    0.000
 6273.00    1.03704   1.06440    0.000
 6274.00    0.97150   1.07188    0.000
 6275.00    0.90743   1.07486    0.000
 6276.00    0.92051   1.07558    0.000
 6277.00    1.00919   1.07557    0.000
 6278.00    1.10417   1.06944    0.000
 6279.00    1.10035   1.06284    0.000
 6280.00    1.00606   1.05492    0.000
 6281.00    1.02113   1.04536    0.000
 6282.00    1.25197   1.04538    0.000
 6283.00    1.52978   1.05239    0.000
 6284.00    1.65637   1.06215    0.000
 6285.00    1.57903   1.07212    0.000
 6286.00    1.34513   1.07460    0.000
 6287.00    1.05752   1.07567    0.000
 6288.00    0.82743   1.08045    0.000
 6289.00    0.73642   1.08470    0.000
 6290.00    0.78129   1.08241    0.000
 6291.00    0.86313   1.07188    0.000
 6292.00    0.90265   1.06422    0.000
 6293.00    0.90045   1.06203    0.000
 6294.00    0.90645   1.06131    0.000
 6295.00    0.98248   1.06705    0.000
 6296.00    1.10759   1.06949    0.000
 6297.00    1.16753   1.05816   -2.000
 6298.00    1.12430   1.04613   -2.000
 6299.00    1.06358   1.04402    0.000
 6300.00    1.04562   1.04862    0.000
 6301.00    1.05524   1.04744   -2.000
 6302.00    1.07902   1.03545   -2.000
 6303.00    1.12827   1.02821    0.000
 6304.00    1.19658   1.03980    0.000
 6305.00    1.25004   1.05547   -2.000
 6306.00    1.25544   1.06103   -2.000
 6307.00    1.19917   1.06420    0.000
 6308.00    1.11323   1.07393    0.000
 6309.00    1.06192   1.08038   -2.000
 6310.00    1.06913   1.07539   -2.000
 6311.00    1.10852   1.06323    0.000
 6312.00    1.14998   1.05598    0.000
 6313.00    1.17748   1.05534   -2.000
 6314.00    1.19613   1.05502   -2.000
 6315.00    1.21992   1.04339    0.000
 6316.00    1.23373   1.03239    0.000
 6317.00    1.20529   1.03294   -2.000
 6318.00    1.14380   1.03049   -2.000
 6319.00    1.09276   1.02072    0.000
 6320.00    1.07388   1.02487    0.000
 6321.00    1.08296   1.04194   -2.000
 6322.00    1.11345   1.05329   -2.000
 6323.00    1.15464   1.05402    0.000
 6324.00    1.17602   1.05674    0.001
 6325.00    1.14616   1.06763   -2.000
 6326.00    1.07856   1.07515   -2.000
 6327.00    1.01918   1.07442    0.001
 6328.00    1.00265   1.06977    0.005
 6329.00    1.03458   1.06771   -2.000
 6330.00    1.07726   1.06728   -2.000
 6331.00    1.08894   1.06226    0.009
 6332.00    1.09462   1.05965    0.044
 6333.00    1.13825   1.06641   -2.000
 6334.00    1.18601   1.07095   -2.000
 6335.00    1.18159   1.05818    0.070
 6336.00    1.15438   1.03476    0.432
 6337.00    1.15907   1.02066   -2.000
 6338.00    1.16503   1.02505   -2.000
 6339.00    1.12410   1.03746    0.526
 6340.00    1.08325   1.04558    3.677
 6341.00    1.10357   1.05502   -2.000
 6342.00    1.13745   1.06487   16.215
 6343.00    1.10976   1.05926    3.304
 6344.00    1.03589   1.04319   12.766
 6345.00    0.96674   1.03472   -2.000
 6346.00    0.90892   1.03516   16.215
 6347.00    0.85813   1.03187   11.159
 6348.00    0.84434   1.02924   -1.000
 6349.00    0.89808   1.04160   16.215
 6350.00    1.00958   1.05754   16.215
 6351.00    1.13204   1.06336   16.215
 6352.00    1.19480   1.06637   16.215
 6353.00    1.16472   1.06738   16.215
 6354.00    1.09647   1.06125   16.215
 6355.00    1.06035   1.04897   16.215
 6356.00    1.07394   1.04182   16.215
 6357.00    1.11312   1.04511   16.215
 6358.00    1.13108   1.04440   16.215
 6359.00    1.09944   1.03268   16.215
 6360.00    1.03666   1.02429   16.123
 6361.00    0.97718   1.02476   16.046
 6362.00    0.94493   1.01944   16.132
 6363.00    0.94552   1.00986   16.167
 6364.00    0.96470   1.01062   15.978
 6365.00    0.98948   1.02242   15.590
 6366.00    1.02040   1.03451   15.253
 6367.00    1.05578   1.04441   15.171
 6368.00    1.08252   1.05151   15.397
 6369.00    1.08633   1.05422   15.890
 6370.00    1.06143   1.04961   16.215
 6371.00    1.02824   1.03625   16.215
 6372.00    1.03322   1.03318   16.215
 6373.00    1.09333   1.04978   16.215
 6374.00    1.17413   1.06639   16.215
 6375.00    1.23623   1.06986   16.215
 6376.00    1.26051   1.06797   -1.000
 6377.00    1.24892   1.06692   16.215
 6378.00    1.22112   1.06271   16.215
 6379.00    1.19960   1.05628   16.215
 6380.00    1.20084   1.05178   15.483
 6381.00    1.22728   1.04808   14.614
 6382.00    1.26473   1.04953   13.627
 6383.00    1.28593   1.05598   12.642
 6384.00    1.26245   1.05529   11.875
 6385.00    1.20357   1.04768   11.325
 6386.00    1.15298   1.04759   10.871
 6387.00    1.12271   1.05622   10.591
 6388.00    1.08742   1.06485   10.690
 6389.00    1.04909   1.06640   11.066
 6390.00    1.04003   1.06675   11.299
 6391.00    1.05920   1.06737   11.361
 6392.00    1.07158   1.06133   11.696
 6393.00    1.07088   1.04259   12.436
 6394.00    1.07860   1.02124   13.253
 6395.00    1.08537   1.02193   13.956
 6396.00    1.05757   1.04344   14.699
 6397.00    1.00217   1.06192   15.472
 6398.00    0.96325   1.06867   15.986
 6399.00    0.96685   1.05925   16.191
 6400.00    1.00799   1.02902   16.215
 6401.00    1.05609   1.00776   16.215
 6402.00    1.07656   1.02362   16.215
 6403.00    1.07530   1.05478   16.215
 6404.00    1.08121   1.07039   16.215
 6405.00    1.08699   1.07285   16.215
 6406.00    1.06247   1.06725   16.215
 6407.00    1.00811   1.05428   16.215
 6408.00    0.94752   1.03718   16.215
 6409.00    0.89206   1.03017   16.215
 6410.00    0.84695   1.04116   -1.000
 6411.00    0.83431   1.04810   -1.000
 6412.00    0.87349   1.03819   16.215
 6413.00    0.94172   1.03737   16.215
 6414.00    1.00945   1.04800   14.582
 6415.00    1.10543   1.05064   12.657
 6416.00    1.25461   1.04831   10.973
 6417.00    1.37113   1.04711   -1.000
 6418.00    1.34517   1.04750    9.574
 6419.00    1.19039   1.04722    9.888
 6420.00    1.00143   1.03783   10.696
 6421.00    0.86385   1.02231   11.755
 6422.00    0.82011   1.01947   12.701
 6423.00    0.84443   1.03822   13.369
 6424.00    0.88832   1.06250   13.866
 6425.00    0.93844   1.07115   14.366
 6426.00    0.98720   1.06727   14.988
 6427.00    0.99386   1.06793   15.719
 6428.00    0.93247   1.07321   16.215
 6429.00    0.84537   1.07258   -1.000
 6430.00    0.79332   1.05974   -1.000
 6431.00    0.79766   1.03494   -1.000
 6432.00    0.84585   1.01800   -1.000
 6433.00    0.90510   1.02391   16.215
 6434.00    0.94751   1.04120   16.117
 6435.00    0.97081   1.05591   16.101
 6436.00    0.97983   1.06410   16.215
 6437.00    0.97163   1.06535   16.215
 6438.00    0.96405   1.05257   16.215
 6439.00    1.01167   1.02617   15.753
 6440.00    1.12868   1.01239   14.229
 6441.00    1.23944   1.03325   13.216
 6442.00    1.28163   1.06218   13.161
 6443.00    1.27822   1.07362   -1.000
 6444.00    1.27120   1.07357   -1.000
 6445.00    1.27173   1.07072   -1.000
 6446.00    1.26854   1.06988   -1.000
 6447.00    1.24177   1.07315   16.215
 6448.00    1.20233   1.07168   16.215
 6449.00    1.20480   1.05206   15.536
 6450.00    1.27584   1.01424   -1.000
 6451.00    1.37675   0.99361   -1.000
 6452.00    1.44308   1.01338   -1.000
 6453.00    1.41722   1.04348   -1.000
 6454.00    1.29343   1.05655   -1.000
 6455.00    1.13147   1.04848   13.559
 6456.00    1.00494   1.02304   15.060
 6457.00    0.96318   1.00221   16.215
 6458.00    0.98174   1.01404   16.215
 6459.00    0.96847   1.04521   15.881
 6460.00    0.89466   1.06497   15.074
 6461.00    0.82795   1.06489   -1.000
 6462.00    0.81488   1.04230   -1.000
 6463.00    0.84254   1.00817   12.834
 6464.00    0.89339   0.99985   12.925
 6465.00    0.96092   1.02492   13.240
 6466.00    1.02132   1.04692   13.728
 6467.00    1.04097   1.05659   14.584
 6468.00    1.04141   1.06102   15.247
 6469.00    1.09269   1.05725   14.429
 6470.00    1.21259   1.04720   12.767
 6471.00    1.34597   1.03948   -1.000
 6472.00    1.41189   1.03386   -1.000
 6473.00    1.34608   1.03426   -1.000
 6474.00    1.17754   1.04414   11.738
 6475.00    1.01532   1.04773   12.780
 6476.00    0.94526   1.04250   14.701
 6477.00    0.99184   1.04240   16.215
 6478.00    1.10020   1.04918   16.215
 6479.00    1.17297   1.05203   16.121
 6480.00    1.17311   1.05160   15.592
 6481.00    1.12874   1.04646   14.920
 6482.00    1.08049   1.02783   14.325
 6483.00    1.05709   1.01061   14.090
 6484.00    1.05150   1.01154   14.100
 6485.00    1.03764   1.02637   14.022
 6486.00    1.01678   1.03904   13.800
 6487.00    1.00899   1.04516   13.599
 6488.00    1.01603   1.04789   13.496
 6489.00    1.02078   1.04838   13.542
 6490.00    1.00180   1.04390   13.972
 6491.00    0.96176   1.03350   14.895
 6492.00    0.96985   1.02225   15.361
 6493.00    1.09452   1.00894   14.236
 6494.00    1.28031   0.98169   -1.000
 6495.00    1.40280   0.94516   -1.000
 6496.00    1.39080   0.92529   -1.000
 6497.00    1.24815   0.92864   -1.000
 6498.00    1.05395   0.94940   12.760
 6499.00    0.91100   0.97678   14.400
 6500.00    0.87173   0.99239   16.215
 6501.00    0.92726   1.00469   16.215
 6502.00    1.01093   1.02056   16.215
 6503.00    1.05872   1.02923   16.215
 6504.00    1.08256   1.03175   16.215
 6505.00    1.11836   1.03415   16.215
 6506.00    1.15354   1.03831   16.215
 6507.00    1.14957   1.04211   16.215
 6508.00    1.08032   1.04137   16.215
 6509.00    0.96416   1.03579   16.215
 6510.00    0.88689   1.03196   16.215
 6511.00    0.91462   1.03495   15.952
 6512.00    1.00697   1.03777   15.481
 6513.00    1.07729   1.03698   14.825
 6514.00    1.06418   1.03573   14.505
 6515.00    0.97688   1.02944   14.784
 6516.00    0.91741   1.01507   15.169
 6517.00    0.94968   1.00179   15.165
 6518.00    0.99988   0.99752   15.083
 6519.00    1.00385   0.99748   15.243
 6520.00    1.02014   1.00256   15.320
 6521.00    1.09747   1.01707   14.970
 6522.00    1.17635   1.03017   14.387
 6523.00    1.18384   1.03196   14.052
 6524.00    1.10788   1.02890   14.478
 6525.00    0.98635   1.02979   15.803
 6526.00    0.88765   1.02667   16.215
 6527.00    0.85409   1.01434   16.215
 6528.00    0.87218   1.00431    0.000
 6529.00    0.91940   1.00617    0.000
 6530.00    0.98907   1.01470    0.000
 6531.00    1.05503   1.02042    0.000
 6532.00    1.06363   1.01652    0.000
 6533.00    1.01020   1.00521    0.000
 6534.00    0.96466   0.99661    0.000
 6535.00    0.97708   0.99938    0.000
 6536.00    1.03380   1.00951    0.000
 6537.00    1.09544   1.01262    0.000
 6538.00    1.12355   1.00604    0.000
 6539.00    1.10867   1.00443    0.000
 6540.00    1.07606   1.01039    0.000
 6541.00    1.05296   1.01233    0.000
 6542.00    1.05166   1.00531    0.000
 6543.00    1.06229   0.99463    0.000
 6544.00    1.05844   0.98694    0.000
 6545.00    1.02986   0.98032    0.000
 6546.00    0.99324   0.96519    0.000
 6547.00    0.98247   0.94791    0.000
 6548.00    1.03088   0.94608    0.000
 6549.00    1.12434   0.95592    0.000
 6550.00    1.20190   0.96115    0.000
 6551.00    1.21298   0.95587    0.000
 6552.00    1.14431   0.94444    0.000
 6553.00    1.04064   0.93080    0.000
 6554.00    0.97953   0.91860    0.000
 6555.00    0.98058   0.90464    0.000
 6556.00    1.00539   0.88673    0.000
 6557.00    1.03368   0.87372    0.000
 6558.00    1.07061   0.86702    0.000
 6559.00    1.10882   0.85600    0.000
 6560.00    1.14077   0.83290    0.000
 6561.00    1.21301   0.79092    0.000
 6562.00    1.39092   0.70740    0.000
 6563.00    1.64653   0.59500    0.000
 6564.00    1.87744   0.55652    0.000
 6565.00    2.00807   0.64288    0.000
 6566.00    2.01125   0.75876    0.000
 6567.00    1.90401   0.82742    0.000
 6568.00    1.73094   0.85964    0.000
 6569.00    1.53339   0.87336    0.000
 6570.00    1.34098   0.87590    0.000
 6571.00    1.16770   0.88416    0.000
 6572.00    1.02313   0.89895    0.000
 6573.00    0.93203   0.90605    0.000
 6574.00    0.91480   0.90565    0.000
 6575.00    0.95013   0.90547    0.000
 6576.00    0.99135   0.91556    0.000
 6577.00    1.00255   0.93767    0.000
 6578.00    0.97537   0.95868    0.000
 6579.00    0.94379   0.96811    0.000
 6580.00    0.95859   0.97003    0.000
 6581.00    1.04781   0.96576    0.000
 6582.00    1.20631   0.96157    0.000
 6583.00    1.39105   0.96837    0.000
 6584.00    1.55008   0.97747    0.000
 6585.00    1.65913   0.98126    0.000
 6586.00    1.71271   0.98058    0.000
 6587.00    1.70800   0.97948    0.000
 6588.00    1.64371   0.98288    0.000
 6589.00    1.52158   0.99272    0.000
 6590.00    1.35625   1.00299    0.000
 6591.00    1.18383   1.00445    0.000
 6592.00    1.04152   0.99391    0.000
 6593.00    0.94662   0.96710    0.000
 6594.00    0.90242   0.94384    0.000
 6595.00    0.90501   0.95229    0.000
 6596.00    0.93606   0.97890    0.000
 6597.00    0.95933   0.99418    0.000
 6598.00    0.95350   0.99443    0.000
 6599.00    0.93700   0.98993    0.000
 6600.00    0.93444   0.99211    0.000
 6601.00    0.94880   1.00277    0.000
 6602.00    0.97050   1.01499    0.000
 6603.00    0.98706   1.01822    0.000
 6604.00    0.99162   1.01139    0.000
 6605.00    0.98818   1.00206    0.000
 6606.00    0.98769   0.99643    0.000
 6607.00    1.00228   0.99809    0.000
 6608.00    1.02646   0.99800    0.000
 6609.00    1.03306   0.99071   16.215
 6610.00    1.02281   0.98409   16.215
 6611.00    1.04115   0.99240   16.215
 6612.00    1.09582   1.00771   16.215
 6613.00    1.12313   1.01356   16.215
 6614.00    1.07278   1.00800   16.215
 6615.00    0.95595   1.00703   16.215
 6616.00    0.84290   1.01479   16.215
 6617.00    0.83343   1.01990   -1.000
 6618.00    0.92714   1.01855   16.215
 6619.00    1.00136   1.01656   16.215
 6620.00    1.00264   1.01808   16.215
 6621.00    1.00371   1.02352   16.215
 6622.00    1.05616   1.02591   16.215
 6623.00    1.13446   1.02332   16.179
 6624.00    1.18132   1.01556   15.629
 6625.00    1.14381   1.00293   15.454
 6626.00    1.03327   0.99802   15.727
 6627.00    0.92410   1.00316   16.164
 6628.00    0.86498   1.00917   16.215
 6629.00    0.85316   1.01259   16.215
 6630.00    0.86261   1.01199   16.058
 6631.00    0.86500   1.00816   16.215
 6632.00    0.86308   1.00488   16.215
 6633.00    0.88172   0.99662   16.215
 6634.00    0.90815   0.98052   16.215
 6635.00    0.89926   0.97228   16.215
 6636.00    0.85620   0.98434   16.215
 6637.00    0.82081   1.00130   -1.000
 6638.00    0.80592   1.01162   -1.000
 6639.00    0.79660   1.01334   -1.000
 6640.00    0.80337   1.00809   -1.000
 6641.00    0.85094   1.00486   16.215
 6642.00    0.91767   1.01003   16.215
 6643.00    0.95499   1.00777   16.215
 6644.00    0.96524   0.99468   16.215
 6645.00    0.98753   0.99191   16.215
 6646.00    1.02782   1.00033   16.215
 6647.00    1.05998   1.00796   16.215
 6648.00    1.06014   1.01105   16.215
 6649.00    1.02127   1.01079   16.215
 6650.00    0.96603   1.01258   16.169
 6651.00    0.92788   1.01316   16.215
 6652.00    0.91290   1.01127   16.215
 6653.00    0.91146   1.01039   16.215
 6654.00    0.92983   1.01060   16.215
 6655.00    0.97378   1.01067   16.215
 6656.00    1.01438   1.01039   16.215
 6657.00    1.01645   1.00977   16.215
 6658.00    0.98957   1.01072   16.215
 6659.00    0.96151   1.01284   16.215
 6660.00    0.92929   1.01184   16.215
 6661.00    0.87950   1.00733   16.215
 6662.00    0.82526   1.00102   -1.000
 6663.00    0.79109   0.99076   -1.000
 6664.00    0.78680   0.97916   -1.000
 6665.00    0.81255   0.98018   -1.000
 6666.00    0.86873   0.99029   16.215
 6667.00    0.94972   0.99399   16.215
 6668.00    1.03572   0.99446   16.215
 6669.00    1.09970   0.99619   16.215
 6670.00    1.11767   1.00325   16.215
 6671.00    1.08680   1.01077   16.215
 6672.00    1.04000   1.01349   16.215
 6673.00    1.00873   1.01313   16.215
 6674.00    0.98828   1.01338   16.215
 6675.00    0.97716   1.01438   16.215
 6676.00    1.01018   1.01368   16.215
 6677.00    1.09050   1.00154   16.215
 6678.00    1.13817   0.97438   16.215
 6679.00    1.09869   0.95343   16.215
 6680.00    1.02742   0.96541   16.215
 6681.00    0.99599   0.99146   16.215
 6682.00    1.01459   1.00374   16.215
 6683.00    1.05273   1.00841   16.215
 6684.00    1.06407   1.01188   16.215
 6685.00    1.02258   1.01433   16.215
 6686.00    0.94572   1.01473   16.215
 6687.00    0.88253   1.01323   16.215
 6688.00    0.89374   1.01171   16.215
 6689.00    0.98343   1.01123   16.215
 6690.00    1.07145   1.01124   16.215
 6691.00    1.09089   1.01210   16.215
 6692.00    1.04361   1.01354   16.215
 6693.00    0.97009   1.01246   16.215
 6694.00    0.92176   1.01400   16.215
 6695.00    0.91496   1.00954   16.215
 6696.00    0.92019   0.99886    0.000
 6697.00    0.93139   0.98800    0.000
 6698.00    0.98299   0.98612    0.000
 6699.00    1.05895   0.99247    0.000
 6700.00    1.07574   0.99983    0.000
 6701.00    1.00704   1.00718    0.000
 6702.00    0.91851   1.01044    0.000
 6703.00    0.86805   1.00745    0.000
 6704.00    0.86876   0.99847    0.000
 6705.00    0.91870   0.99093    0.000
 6706.00    1.00465   0.99197    0.000
 6707.00    1.06869   1.00034    0.000
 6708.00    1.03191   1.00250    0.000
 6709.00    0.92238   1.00111    0.000
 6710.00    0.86630   0.99974    0.000
 6711.00    0.90191   0.99708    0.000
 6712.00    0.95604   0.99685    0.000
 6713.00    0.97662   0.99744    0.000
 6714.00    0.97093   0.99510    0.000
 6715.00    0.98609   0.99049    0.000
 6716.00    1.07499   0.98229    0.000
 6717.00    1.22032   0.97031    0.000
 6718.00    1.34522   0.95955    0.000
 6719.00    1.40068   0.96208    0.000
 6720.00    1.38278   0.98085    0.000
 6721.00    1.31403   0.99677    0.000
 6722.00    1.23123   0.99780    0.000
 6723.00    1.16846   0.99433    0.000
 6724.00    1.14291   0.99869    0.000
 6725.00    1.13372   1.00408    0.000
 6726.00    1.10378   1.00109    0.000
 6727.00    1.05548   0.99321    0.000
 6728.00    1.02530   0.99219    0.000
 6729.00    1.04767   0.99702    0.000
 6730.00    1.12923   1.00327    0.000
 6731.00    1.21667   1.00702    0.000
 6732.00    1.24347   1.00715    0.000
 6733.00    1.22232   1.00392    0.000
 6734.00    1.20756   0.99974    0.000
 6735.00    1.20391   0.99663    0.000
 6736.00    1.18215   0.99742    0.000
 6737.00    1.12971   0.99994    0.000
 6738.00    1.05798   0.99726    0.000
 6739.00    1.00039   0.98920    0.000
 6740.00    0.99988   0.98395    0.000
 6741.00    1.08963   0.98707    0.000
 6742.00    1.26167   0.99345    0.000
 6743.00    1.43161   0.99273    0.000
 6744.00    1.49540   0.98663    0.000
 6745.00    1.41049   0.98694    0.000
 6746.00    1.22894   0.99175    0.000
 6747.00    1.11265   0.99398    0.000
 6748.00    1.16602   0.99313    0.000
 6749.00    1.25661   0.98785    0.000
 6750.00    1.21161   0.98100    0.000
 6751.00    1.04602   0.98003    0.000
 6752.00    0.86822   0.98490    0.000
 6753.00    0.75698   0.98766   -1.000
 6754.00    0.74995   0.98637   -1.000
 6755.00    0.84225   0.99006   14.152
 6756.00    0.96925   0.99329   14.155
 6757.00    1.00544   0.99104   14.102
 6758.00    0.90068   0.99134   14.194
 6759.00    0.78029   0.99826   -1.000
 6760.00    0.76789   1.00530   -1.000
 6761.00    0.84264   1.00905   15.480
 6762.00    0.93471   1.00740   16.215
 6763.00    1.00804   1.00365   16.215
 6764.00    1.05195   1.00479   16.215
 6765.00    1.06974   1.00609   16.183
 6766.00    1.07072   1.00276   16.215
 6767.00    1.06446   0.99364   16.215
 6768.00    1.05655   0.98195   16.215
 6769.00    1.04770   0.97945   16.215
 6770.00    1.04443   0.98767   16.215
 6771.00    1.06565   0.99233   16.215
 6772.00    1.14078   0.98842   16.215
 6773.00    1.30032   0.98694   -1.000
 6774.00    1.53077   0.99341   -1.000
 6775.00    1.77303   1.00150   -1.000
 6776.00    2.04646   1.00686   -1.000
 6777.00    2.45655   1.00880   -1.000
 6778.00    2.90453   1.00664   -1.000
 6779.00    3.02912   1.00456   -1.000
 6780.00    2.62569   1.00848   -1.000
 6781.00    1.82647   1.00802   -1.000
 6782.00    0.99088   1.00159    4.301
 6783.00    0.54913   0.99358    5.141
 6784.00    0.58396   0.98328   -1.000
 6785.00    0.77752   0.97507   10.167
 6786.00    0.90089   0.97538   10.136
 6787.00    0.95995   0.97901    9.356
 6788.00    0.98866   0.98685    9.819
 6789.00    0.98650   0.99737   11.481
 6790.00    0.98507   1.00100   12.548
 6791.00    1.05738   1.00026   10.237
 6792.00    1.26672   0.99958    7.453
 6793.00    1.62063   0.99769   -1.000
 6794.00    1.98683   0.99120   -1.000
 6795.00    2.15228   0.98609   -1.000
 6796.00    2.07072   0.98582   -1.000
 6797.00    1.86637   0.98737   -1.000
 6798.00    1.63498   0.98824   -1.000
 6799.00    1.41724   0.98938    6.628
 6800.00    1.28071   0.99215    6.695
 6801.00    1.31834   0.99522    6.315
 6802.00    1.58765   0.99672   -1.000
 6803.00    2.03297   0.99701   -1.000
 6804.00    2.34941   0.99286   -1.000
 6805.00    2.18759   0.98901   -1.000
 6806.00    1.66473   0.99125   -1.000
 6807.00    1.21016   0.99285    5.552
 6808.00    1.00472   0.99075    6.068
 6809.00    0.97932   0.99148    6.407
 6810.00    1.05222   0.99007    6.576
 6811.00    1.17710   0.98600    6.676
 6812.00    1.33982   0.98851    6.624
 6813.00    1.52098   0.99358   -1.000
 6814.00    1.63448   0.99401   -1.000
 6815.00    1.59074   0.98698   -1.000
 6816.00    1.41733   0.98298    6.587
 6817.00    1.21309   0.99113    8.613
 6818.00    1.04391   1.00153   12.496
 6819.00    0.93661   1.00200   15.545
 6820.00    0.89501   0.99568   15.560
 6821.00    0.90328   0.98914   15.562
 6822.00    0.92969   0.99194   15.658
 6823.00    0.96569   1.00136   14.297
 6824.00    1.07004   1.00668   12.272
 6825.00    1.25896   1.00590   10.763
 6826.00    1.37424   1.00369   -1.000
 6827.00    1.28309   1.00055    9.632
 6828.00    1.12015   0.99248    9.782
 6829.00    1.07371   0.98430   10.344
 6830.00    1.12143   0.98528   11.399
 6831.00    1.14990   0.99368   12.963
 6832.00    1.11472   0.99840   14.481
 6833.00    1.05216   0.99827   14.881
 6834.00    1.06439   0.99815   13.881
 6835.00    1.21064   1.00280   12.245
 6836.00    1.41131   1.00566   -1.000
 6837.00    1.52528   1.00201   -1.000
 6838.00    1.43917   0.99551   -1.000
 6839.00    1.16663   0.98546   10.281
 6840.00    0.90296   0.97400   11.406
 6841.00    0.80819   0.96644   12.606
 6842.00    0.84289   0.95874   13.923
 6843.00    0.90767   0.95544   15.457
 6844.00    0.95892   0.96471   16.215
 6845.00    0.99577   0.98065   16.215
 6846.00    1.03845   0.99159   15.682
 6847.00    1.08298   0.99492   15.587
 6848.00    1.08441   0.99501   15.840
 6849.00    1.04857   0.99555   15.843
 6850.00    1.07053   0.99678   14.900
 6851.00    1.19271   0.99788   13.232
 6852.00    1.33444   0.99637   -1.000
 6853.00    1.40654   0.99725   -1.000
 6854.00    1.38026   0.99835   -1.000
 6855.00    1.27993   0.98788   -1.000
 6856.00    1.16524   0.97104   12.309
 6857.00    1.07063   0.96909   13.514
 6858.00    0.99159   0.97621   14.329
 6859.00    0.97202   0.97959   13.900
 6860.00    1.10258   0.98368   12.021
 6861.00    1.31412   0.98401   -1.000
 6862.00    1.36719   0.97510   -1.000
 6863.00    1.22688   0.97118    8.566
 6864.00    1.12381   0.98226    8.696
 6865.00    1.11952   0.99660    9.205
 6866.00    1.03198   0.99812   10.505
 6867.00    0.85980   0.98933   12.797
 6868.00    0.83390   0.97733   14.890
 6869.00    0.98803   0.96849   15.371
 6870.00    1.10518   0.97490   15.174
 6871.00    1.09244   0.98834   15.245
 6872.00    1.04868   0.98944   15.508
 6873.00    1.04657   0.98081   15.768
 6874.00    1.07576   0.98034   15.996
 6875.00    1.09850   0.98248   16.215
 6876.00    1.07960   0.97988   16.215
 6877.00    1.01916   0.98105   16.215
 6878.00    0.94851   0.98666   16.215
 6879.00    0.89308   0.99028   16.215
 6880.00    0.86241   0.98891   15.981
 6881.00    0.85205   0.98455   14.668
 6882.00    0.85181   0.97753   13.720
 6883.00    0.86368   0.97008   13.121
 6884.00    0.90215   0.97017   12.690
 6885.00    0.98366   0.97886   12.684
 6886.00    1.10540   0.98720   13.445
 6887.00    1.20723   0.98702   -1.000
 6888.00    1.22907   0.98746   -1.000
 6889.00    1.24054   0.99720   12.159
 6890.00    1.34016   0.99844   -1.000
 6891.00    1.41523   0.99912   -1.000
 6892.00    1.29043   1.00566    9.730
 6893.00    1.07720   1.00447    9.884
 6894.00    1.00570   0.99930   10.487
 6895.00    1.02947   0.99861   11.582
 6896.00    0.96906   0.99375   13.181
 6897.00    0.85421   0.98898   15.085
 6898.00    0.81278   0.99300   -1.000
 6899.00    0.81673   1.00307   -1.000
 6900.00    0.78107   1.00323   -1.000
 6901.00    0.76003   0.99632   -1.000
 6902.00    0.84204   0.99849   16.215
 6903.00    0.97067   1.00284   16.215
 6904.00    1.03876   1.00262   16.215
 6905.00    1.04077   0.99784   16.215
 6906.00    1.02311   0.99621   16.215
 6907.00    0.99903   1.00101   16.215
 6908.00    0.96313   1.00628   16.215
 6909.00    0.92059   1.00657   16.215
 6910.00    0.88984   1.00497   16.215
 6911.00    0.89912   1.00250   16.016
 6912.00    0.95472   1.00035   15.849
 6913.00    1.01287   0.99458   15.698
 6914.00    1.03724   0.98795   15.281
 6915.00    1.05309   0.97922   14.792
 6916.00    1.08485   0.97698   14.490
 6917.00    1.09846   0.98266   14.394
 6918.00    1.06291   0.98558   14.487
 6919.00    1.00563   0.98885   14.852
 6920.00    0.97406   0.99341   15.366
 6921.00    0.99665   0.99704   15.419
 6922.00    1.06322   0.99970   14.722
 6923.00    1.11904   1.00148   13.885
 6924.00    1.12517   0.99351   13.323
 6925.00    1.09765   0.98040   12.886
 6926.00    1.05395   0.97245   12.638
 6927.00    0.98111   0.97412   13.145
 6928.00    0.89658   0.98266   14.663
 6929.00    0.87413   0.98982   16.215
 6930.00    0.93429   0.99083   16.215
 6931.00    0.99291   0.98954   16.215
 6932.00    0.98718   0.98972   16.215
 6933.00    0.94179   0.98512   16.215
 6934.00    0.89340   0.97941   16.215
 6935.00    0.84960   0.98046   16.215
 6936.00    0.81533   0.98983   16.215
 6937.00    0.80354   0.99366   -1.000
 6938.00    0.81133   0.99132   16.215
 6939.00    0.81729   0.98938   16.215
 6940.00    0.82953   0.99376   16.215
 6941.00    0.89048   0.99722   16.215
 6942.00    0.99303   0.99834   16.215
 6943.00    1.06481   0.99375   16.215
 6944.00    1.06743   0.98508   16.215
 6945.00    1.02991   0.97353   16.215
 6946.00    1.00532   0.96400   16.215
 6947.00    1.03610   0.96918   16.215
 6948.00    1.09545   0.98022   16.215
 6949.00    1.10008   0.98843   16.212
 6950.00    1.03455   0.99196   16.215
 6951.00    0.96870   0.98654   16.111
 6952.00    0.96023   0.97777   15.543
 6953.00    1.02090   0.97441   15.059
 6954.00    1.11999   0.97677   14.843
 6955.00    1.20113   0.97891   -1.000
 6956.00    1.22792   0.98116   -1.000
 6957.00    1.20035   0.98591   -1.000
 6958.00    1.15979   0.99024   14.782
 6959.00    1.15613   0.99068   14.415
 6960.00    1.15898   0.99356   13.916
 6961.00    1.09534   0.99508   13.832
 6962.00    1.00363   0.99428   14.143
 6963.00    0.98769   0.99204   14.455
 6964.00    1.01430   0.99195   14.865
 6965.00    0.96866   0.99422   15.821
 6966.00    0.88793   0.99123   16.215
 6967.00    0.90115   0.98733   16.215
 6968.00    0.98875   0.99369   16.215
 6969.00    1.03070   1.00351   15.908
 6970.00    1.00793   1.00453   15.936
 6971.00    0.97963   0.99886   15.963
 6972.00    0.96121   0.98980   15.827
 6973.00    0.93514   0.99086   15.678
 6974.00    0.91238   0.99960   15.697
 6975.00    0.91804   0.99865   15.950
 6976.00    0.94807   0.98645   16.215
 6977.00    0.97888   0.97548   16.197
 6978.00    0.99509   0.96011   15.938
 6979.00    0.99871   0.94153   15.730
 6980.00    1.01397   0.93811   15.767
 6981.00    1.04832   0.95929   16.098
 6982.00    1.04005   0.98392   16.215
 6983.00    0.93868   0.99556   16.215
 6984.00    0.81814   0.99907   16.215
 6985.00    0.77940   1.00139   -1.000
 6986.00    0.81005   1.00077   16.215
 6987.00    0.85113   0.99905   16.215
 6988.00    0.89818   0.99674   16.215
 6989.00    0.97219   0.99145   16.215
 6990.00    1.07101   0.98459   15.656
 6991.00    1.15443   0.98592   15.026
 6992.00    1.14237   0.99474   14.788
 6993.00    1.01401   0.99924   14.919
 6994.00    0.89499   0.99818   14.960
 6995.00    0.88316   0.99392   14.705
 6996.00    0.88784   0.99417   14.816
 6997.00    0.82298   0.99805   15.664
 6998.00    0.78079   0.99976   -1.000
 6999.00    0.84243   0.99304   15.600
 7000.00    0.91683   0.97823   14.976
 7001.00    0.90788   0.96835   -2.000
 7002.00    0.85294   0.97269   -2.000
 7003.00    0.82269   0.98281   -2.000
 7004.00    0.83698   0.98286   -2.000
 7005.00    0.88948   0.97369   -2.000
 7006.00    0.96740   0.96937   -2.000
 7007.00    1.02965   0.97080   -2.000
 7008.00    1.00422   0.97497   -2.000
 7009.00    0.88128   0.98389   -2.000
 7010.00    0.75817   0.99140   -2.000
 7011.00    0.72530   0.99046   -2.000
 7012.00    0.79366   0.98504   -2.000
 7013.00    0.90715   0.98354   -2.000
 7014.00    0.96976   0.98680   -2.000
 7015.00    0.94147   0.98338   -2.000
 7016.00    0.87532   0.96860   -2.000
 7017.00    0.82574   0.94925   -2.000
 7018.00    0.80464   0.94749   -2.000
 7019.00    0.81474   0.96880   -2.000
 7020.00    0.86433   0.98801   -2.000
 7021.00    0.95173   0.99600   -2.000
 7022.00    1.05680   0.99623   -2.000
 7023.00    1.13791   0.98627   -2.000
 7024.00    1.14308   0.96986   -2.000
 7025.00    1.06045   0.95971   -2.000
 7026.00    0.93350   0.96493   -2.000
 7027.00    0.83480   0.97394   -2.000
 7028.00    0.83285   0.97982   -2.000
 7029.00    0.91212   0.98316   -2.000
 7030.00    0.97921   0.98578   -2.000
 7031.00    0.98977   0.98987   -2.000
 7032.00    0.97163   0.99238   -2.000
 7033.00    0.94758   0.99021   -2.000
 7034.00    0.92019   0.98559   -2.000
 7035.00    0.90854   0.98249   -2.000
 7036.00    0.93902   0.98319   -2.000
 7037.00    0.98414   0.98664   -2.000
 7038.00    0.98013   0.98176   -2.000
 7039.00    0.92667   0.96572   -2.000
 7040.00    0.88494   0.96548   -2.000
 7041.00    0.89671   0.98763   -2.000
 7042.00    0.96055   1.00812   -2.000
 7043.00    1.02988   1.01757   -2.000
 7044.00    1.04980   1.01672   -2.000
 7045.00    1.04186   1.00636   -2.000
 7046.00    1.06270   0.99282   -2.000
 7047.00    1.07082   0.99218   -2.000
 7048.00    0.98699   1.00352   -2.000
 7049.00    0.88000   1.01399   -2.000
 7050.00    0.88781   1.01755   -2.000
 7051.00    0.98632   1.01501   -2.000
 7052.00    1.04572   1.00721   -2.000
 7053.00    1.02283   0.98897   -2.000
 7054.00    0.96464   0.96777   -2.000
 7055.00    0.94636   0.95976   -2.000
 7056.00    1.00834   0.96376   -2.000
 7057.00    1.07428   0.97147   -2.000
 7058.00    1.03790   0.97823   -2.000
 7059.00    0.91837   0.97802   -2.000
 7060.00    0.81262   0.96903   -2.000
 7061.00    0.78547   0.96090   -2.000
 7062.00    0.83831   0.96014   -2.000
 7063.00    0.89413   0.96655   -2.000
 7064.00    0.89339   0.97315   -2.000
 7065.00    0.91533   0.97946   -2.000
 7066.00    1.03176   0.98180   -2.000
 7067.00    1.11456   0.97371   -2.000
 7068.00    1.02118   0.95672   -2.000
 7069.00    0.83503   0.94187   -2.000
 7070.00    0.72532   0.94503   -2.000
 7071.00    0.75552   0.96151   -2.000
 7072.00    0.87797   0.97493   -2.000
 7073.00    0.96139   0.97869   -2.000
 7074.00    0.91627   0.97698   -2.000
 7075.00    0.81050   0.97907   -2.000
 7076.00    0.76729   0.97898   -2.000
 7077.00    0.85174   0.97424   -2.000
 7078.00    1.03089   0.97446   -2.000
 7079.00    1.16285   0.97800   -2.000
 7080.00    1.15014   0.97983   -2.000
 7081.00    1.05857   0.98320   -2.000
 7082.00    0.98563   0.98333   -2.000
 7083.00    0.95072   0.97565   -2.000
 7084.00    0.94426   0.96028   -2.000
 7085.00    0.96914   0.93871   -2.000
 7086.00    1.01825   0.92859   -2.000
 7087.00    1.05859   0.93369   -2.000
 7088.00    1.05101   0.93906   -2.000
 7089.00    0.97187   0.94100   -2.000
 7090.00    0.86061   0.94040   -2.000
 7091.00    0.82564   0.93480   -2.000
 7092.00    0.89048   0.93220   -2.000
 7093.00    0.93204   0.93422   -2.000
 7094.00    0.88489   0.93335   -2.000
 7095.00    0.83345   0.93374   -2.000
 7096.00    0.84046   0.93402   -2.000
 7097.00    0.87002   0.93476   -2.000
 7098.00    0.90221   0.93869   -2.000
 7099.00    0.97397   0.94254   -2.000
 7100.00    1.07264   0.95120   -2.000
 7101.00    1.11287   0.95551   -2.000
 7102.00    1.07938   0.95403   -2.000
 7103.00    1.05802   0.95189   -2.000
 7104.00    1.07450   0.95176   -2.000
 7105.00    1.05688   0.95726   -2.000
 7106.00    0.98141   0.96338   -2.000
 7107.00    0.90989   0.95930   -2.000
 7108.00    0.89200   0.95199   -2.000
 7109.00    0.92575   0.94811   -2.000
 7110.00    0.96004   0.94740   -2.000
 7111.00    0.92815   0.94294   -2.000
 7112.00    0.85522   0.93332   -2.000
 7113.00    0.84413   0.92986   -2.000
 7114.00    0.90754   0.93671   -2.000
 7115.00    0.96034   0.94490   -2.000
 7116.00    0.97018   0.94850   -2.000
 7117.00    0.97446   0.94833   -2.000
 7118.00    0.98993   0.94997   -2.000
 7119.00    0.99979   0.94872   -2.000
 7120.00    0.99410   0.94585   -2.000
 7121.00    0.97891   0.94635   -2.000
 7122.00    0.96922   0.94225   -2.000
 7123.00    0.97361   0.93696   -2.000
 7124.00    0.96260   0.94254   -2.000
 7125.00    0.89749   0.95189   -2.000
 7126.00    0.81279   0.95332   -2.000
 7127.00    0.78086   0.94592   -2.000
 7128.00    0.79473   0.94339   -2.000
 7129.00    0.79912   0.94981   -2.000
 7130.00    0.80641   0.94636   -2.000
 7131.00    0.86293   0.93340   -2.000
 7132.00    0.93828   0.92574   -2.000
 7133.00    0.97178   0.93328   -2.000
 7134.00    0.99478   0.94470   -2.000
 7135.00    1.06347   0.95498   -2.000
 7136.00    1.10757   0.96177   -2.000
 7137.00    1.02847   0.96325   -2.000
 7138.00    0.89772   0.96764   -2.000
 7139.00    0.84580   0.96706   -2.000
 7140.00    0.84435   0.96078   -2.000
 7141.00    0.81012   0.95762   -2.000
 7142.00    0.80107   0.96085   -2.000
 7143.00    0.91039   0.96430   -2.000
 7144.00    1.08427   0.96420   -2.000
 7145.00    1.20294   0.95994   -2.000
 7146.00    1.22378   0.95543   -2.000
 7147.00    1.23525   0.95567   -2.000
 7148.00    1.47699   0.94566   -2.000
 7149.00    2.00769   0.92782   -2.000
 7150.00    2.35502   0.92932   -2.000
 7151.00    2.09151   0.94161   -2.000
 7152.00    1.48520   0.95094   -2.000
 7153.00    1.04699   0.95978   -2.000
 7154.00    0.98164   0.96724   -2.000
 7155.00    1.22956   0.96670   -2.000
 7156.00    1.57323   0.96153   -2.000
 7157.00    1.74252   0.95873   -2.000
 7158.00    1.52651   0.96649   -2.000
 7159.00    0.97229   0.97115   -2.000
 7160.00    0.50755   0.96294   -2.000
 7161.00    0.50545   0.95577   -2.000
 7162.00    0.92250   0.95704   -2.000
 7163.00    1.45383   0.96167   -2.000
 7164.00    1.71963   0.95372   -2.000
 7165.00    1.57013   0.93108   -2.000
 7166.00    1.25791   0.91611   -2.000
 7167.00    1.05466   0.92462   -2.000
 7168.00    0.98573   0.94533   -2.000
 7169.00    0.97940   0.96019   -2.000
 7170.00    0.98237   0.96530   -2.000
 7171.00    0.97041   0.96592   -2.000
 7172.00    0.94722   0.96478   -2.000
 7173.00    0.92002   0.97068   -2.000
 7174.00    0.89071   0.97211   -2.000
 7175.00    0.89102   0.96920   -2.000
 7176.00    0.97967   0.96248   -2.000
 7177.00    1.11620   0.94816   -2.000
 7178.00    1.14214   0.94868   -2.000
 7179.00    1.03745   0.96206   -2.000
 7180.00    0.98910   0.96475   -2.000
 7181.00    1.07632   0.94652   -2.000
 7182.00    1.19086   0.92776   -2.000
 7183.00    1.38498   0.92906   -2.000
 7184.00    1.90173   0.95005   -2.000
 7185.00    2.61176   0.96262   -2.000
 7186.00    2.96899   0.96046   -2.000
 7187.00    2.82703   0.95166   -2.000
 7188.00    2.54175   0.93134   -2.000
 7189.00    2.07121   0.92186   -2.000
 7190.00    0.99359   0.92883   -2.000
 7191.00   -0.17207   0.93996   -2.000
 7192.00   -0.12541   0.94677   -2.000
 7193.00    1.04527   0.94371   -2.000
 7194.00    1.84014   0.93875   -2.000
 7195.00    1.69193   0.93909   -2.000
 7196.00    1.26208   0.95127   -2.000
 7197.00    0.97536   0.95481   -2.000
 7198.00    0.75284   0.94701   -2.000
 7199.00    0.57672   0.94695   -2.000
 7200.00    0.57074   0.95799   -2.000
 7201.00    0.76008   0.96039   -2.000
 7202.00    1.03425   0.95222   -2.000
 7203.00    1.22782   0.94914   -2.000
 7204.00    1.22435   0.95589   -2.000
 7205.00    1.14536   0.96700   -2.000
 7206.00    1.21675   0.97220   -2.000
 7207.00    1.36938   0.95355   -2.000
 7208.00    1.34165   0.92464   -2.000
 7209.00    1.09513   0.91927   -2.000
 7210.00    0.82443   0.93359   -2.000
 7211.00    0.78422   0.95170   -2.000
 7212.00    1.09902   0.96487   -2.000
 7213.00    1.48429   0.96674   -2.000
 7214.00    1.52001   0.95903   -2.000
 7215.00    1.23182   0.94835   -2.000
 7216.00    0.95449   0.94395   -2.000
 7217.00    0.91434   0.94684   -2.000
 7218.00    1.15945   0.95708   -2.000
