###################################################################
## OUTPUT of StarlightChains_v04.for    [Cid@UFSC - 01/Apr/2007] ##
###################################################################

## Some input info
2000L.txt                                [arq_obs]
Base.CB07.vall.4m                        [arq_base]
Masks.EmLines.NEW.gm                     [arq_masks]
StCv04.C11.config                        [arq_config]
   66                                    [N_base]
    0                                    [N_YAV_components = # of components with extra extinction!]
    0                                    [i_FitPowerLaw (1/0 = Yes/No)]
-9.99                                    [alpha_PowerLaw]
CCM                                      [red_law_option]
 1.458241                                [q_norm = A(l_norm)/A(V)]

## (Re)Sampling Parameters
 3741.00                                 [l_ini (A)]
 7218.00                                 [l_fin (A)]
    1.00                                 [dl    (A)]     (OBS: dl_cushion =    50.00 A)

## Normalization info
 4020.00                                 [l_norm (A) - for base]
 4010.00                                 [llow_norm (A) - window for f_obs]
 4060.00                                 [lupp_norm (A) - window for f_obs]
3.984262E-17                             [fobs_norm (in input units)]

## S/N
 3691.00                                 [llow_SN (A) - window for S/N]
 7268.00                                 [lupp_SN (A) - window for S/N]
   2.040                                 [S/N in S/N window]
   3.359                                 [S/N in norm. window]
  10.000                                 [S/N_err in S/N window]
  16.464                                 [S/N_err in norm. window]
  1.0000                                 [fscale_chi2]

## etc...
    -2007251                             [idum_orig]
  2367                                   [NOl_eff]
  1203                                   [Nl_eff]
  1164    NSIGMA                         [Ntot_cliped & clip_method]
   571410                                [Nglobal_steps]
   7                                     [N_chains]
  11                                     [NEX0s_base = N_base in EX0s-fits]
 0   0   1       44   2.0   5.522E+01    [Clip-Bug, RC-Crash & Burn-In warning-flags, n_censored_weights, wei_nsig_threshold & wei_limit]
    10      9.845      9.350      0.495  [idt_all, wdt_TotTime, wdt_UsrTime & wdt_SysTime (sec)]

## Synthesis Results - Best model ##

 2.85934E+00                             [chi2/Nl_eff]
    14.43019                             [adev (%)]

    75.64062                             [sum-of-x (%)]
 1.59127E-17                             [Flux_tot (units of input spectrum!)]
 4.82305E-14                             [Mini_tot (???)]
 2.97274E-14                             [Mcor_tot (???)]

 -12.37                                  [v0_min  (km/s)]
 122.46                                  [vd_min  (km/s)]
-0.4755                                  [AV_min  (mag)]
 0.0000                                  [YAV_min (mag)]

# j     x_j(%)      Mini_j(%)     Mcor_j(%)     age_j(yr)     Z_j      (L/M)_j    YAV?  Mstars   component_j        a/Fe...       SSP_chi2r SSP_adev(%)   SSP_AV   SSP_x(%)
  1      0.0000     0.0000E+00    0.0000E+00    1.000000E+06  0.00400  1.094E-02    0   1.0000   age020_m42            0.0000     3.6658E+00    15.9284   2.0975    60.4337
  2      0.0000     0.0000E+00    0.0000E+00    3.160000E+06  0.00400  4.007E-02    0   0.9999   age045_m42            0.0000     3.3141E+00    15.3594   1.3497    65.3503
  3      0.0000     0.0000E+00    0.0000E+00    5.010000E+06  0.00400  2.539E-02    0   0.9488   age055_m42            0.0000     3.4534E+00    15.6039   1.6749    63.5503
  4      0.0000     0.0000E+00    0.0000E+00    6.610000E+06  0.00400  2.620E-02    0   0.9220   age061_m42            0.0000     3.2800E+00    15.2980   1.2684    65.7397
  5      0.0000     0.0000E+00    0.0000E+00    1.000000E+07  0.00400  1.322E-02    0   0.8862   age070_m42            0.0000     3.3093E+00    15.2713   0.9739    67.5194
  6      0.0000     0.0000E+00    0.0000E+00    1.445000E+07  0.00400  7.883E-03    0   0.8571   age078_m42            0.0000     3.3951E+00    15.4265   1.3090    65.5354
  7      0.0000     0.0000E+00    0.0000E+00    2.512000E+07  0.00400  5.251E-03    0   0.8174   age090_m42            0.0000     3.3109E+00    15.2697   0.8404    68.0119
  8      0.0000     0.0000E+00    0.0000E+00    4.000000E+07  0.00400  3.649E-03    0   0.7851   age104_m42            0.0000     3.2382E+00    15.1505   0.6089    68.7394
  9      0.0000     0.0000E+00    0.0000E+00    5.500000E+07  0.00400  3.098E-03    0   0.7629   age110_m42            0.0000     3.1683E+00    15.0322   0.7650    68.6891
 10      0.0000     0.0000E+00    0.0000E+00    1.015200E+08  0.00400  2.228E-03    0   0.7207   age116_m42            0.0000     3.1337E+00    14.9675   0.7865    68.7995
 11      0.0000     0.0000E+00    0.0000E+00    2.861200E+08  0.00400  1.093E-03    0   0.6648   age125_m42            0.0000     3.0631E+00    14.7928   0.2047    71.3007
 12      0.0000     0.0000E+00    0.0000E+00    5.088000E+08  0.00400  6.597E-04    0   0.6365   age130_m42            0.0000     3.0097E+00    14.6983   0.1974    71.8510
 13      0.0000     0.0000E+00    0.0000E+00    1.434000E+09  0.00400  2.132E-04    0   0.5798   age139_m42            0.0000     2.9444E+00    14.6448  -0.7752    73.3798
 14      0.0000     0.0000E+00    0.0000E+00    4.250000E+09  0.00400  5.895E-05    0   0.5377   age158_m42            0.0000     3.1807E+00    15.1439  -1.0000    64.5959
 15      0.0000     0.0000E+00    0.0000E+00    7.500000E+09  0.00400  3.510E-05    0   0.5212   age171_m42            0.0000     3.5519E+00    15.7335  -1.0000    59.2702
 16      0.0000     0.0000E+00    0.0000E+00    1.300000E+10  0.00400  2.005E-05    0   0.5034   age193_m42            0.0000     4.0406E+00    16.4826  -1.0000    54.8414
 17      0.0000     0.0000E+00    0.0000E+00    1.800000E+10  0.00400  1.525E-05    0   0.4967   age213_m42            0.0000     4.1154E+00    16.6133  -1.0000    54.0347
 18      0.0000     0.0000E+00    0.0000E+00    1.000000E+06  0.00800  1.238E-02    0   1.0000   age020_m52            0.0000     3.6671E+00    15.9309   2.0938    60.5546
 19      0.0000     0.0000E+00    0.0000E+00    3.160000E+06  0.00800  3.074E-02    0   0.9966   age045_m52            0.0000     3.6469E+00    15.9205   2.0162    61.1305
 20      0.0000     0.0000E+00    0.0000E+00    5.010000E+06  0.00800  2.668E-02    0   0.9443   age055_m52            0.0000     3.4934E+00    15.6719   1.7613    62.8717
 21      0.0000     0.0000E+00    0.0000E+00    6.610000E+06  0.00800  2.136E-02    0   0.9177   age061_m52            0.0000     3.2786E+00    15.2308   0.4770    68.2385
 22      0.0000     0.0000E+00    0.0000E+00    1.000000E+07  0.00800  1.215E-02    0   0.8827   age070_m52            0.0000     3.3742E+00    15.3557   1.1537    67.3290
 23      0.0000     0.0000E+00    0.0000E+00    1.445000E+07  0.00800  8.717E-03    0   0.8552   age078_m52            0.0000     3.3586E+00    15.3587   1.2720    66.5256
 24      0.0000     0.0000E+00    0.0000E+00    2.512000E+07  0.00800  5.592E-03    0   0.8162   age090_m52            0.0000     3.2760E+00    15.1984   0.9016    68.9094
 25      0.0000     0.0000E+00    0.0000E+00    4.000000E+07  0.00800  3.896E-03    0   0.7841   age104_m52            0.0000     3.1920E+00    15.0513   0.8133    69.5017
 26      0.0004     8.8090E-05    1.0327E-04    1.015200E+08  0.00800  2.148E-03    0   0.7226   age116_m52            0.0000     3.1149E+00    14.9314   0.7531    69.3854
 27      0.0000     0.0000E+00    0.0000E+00    2.861200E+08  0.00800  9.925E-04    0   0.6683   age125_m52            0.0000     2.9670E+00    14.6058   0.2602    72.6185
 28     66.1239     9.1824E+01    9.1443E+01    9.047900E+08  0.00800  3.141E-04    0   0.6138   age135_m52            0.0000     2.8597E+00    14.4283  -0.5339    75.5922
 29      0.0000     0.0000E+00    0.0000E+00    1.434000E+09  0.00800  1.719E-04    0   0.5853   age139_m52            0.0000     2.9773E+00    14.7139  -1.0000    70.6812
 30      0.0000     0.0000E+00    0.0000E+00    2.500000E+09  0.00800  7.872E-05    0   0.5600   age150_m52            0.0000     3.4506E+00    15.5573  -1.0000    61.4886
 31      0.0000     0.0000E+00    0.0000E+00    4.250000E+09  0.00800  4.336E-05    0   0.5426   age158_m52            0.0000     3.5102E+00    15.6478  -1.0000    60.5063
 32      0.0000     0.0000E+00    0.0000E+00    6.250000E+09  0.00800  3.159E-05    0   0.5319   age166_m52            0.0000     4.1113E+00    16.5601  -1.0000    55.3962
 33      0.0000     0.0000E+00    0.0000E+00    1.300000E+10  0.00800  1.361E-05    0   0.5073   age193_m52            0.0000     6.1159E+00    19.7120  -1.0000    44.3231
 34      0.0000     0.0000E+00    0.0000E+00    1.800000E+10  0.00800  9.886E-06    0   0.4990   age213_m52            0.0000     6.6616E+00    20.4382  -1.0000    41.9192
 35      0.0000     0.0000E+00    0.0000E+00    1.000000E+06  0.02000  1.544E-02    0   1.0000   age020_m62            0.0000     3.6789E+00    15.9516   2.0910    60.6633
 36      0.0000     0.0000E+00    0.0000E+00    3.160000E+06  0.02000  3.762E-02    0   0.9858   age045_m62            0.0000     3.6726E+00    15.9638   2.0281    61.2612
 37      0.0000     0.0000E+00    0.0000E+00    5.010000E+06  0.02000  3.296E-02    0   0.9342   age055_m62            0.0000     3.3742E+00    15.4866   1.6311    64.4894
 38      0.0000     0.0000E+00    0.0000E+00    8.710000E+06  0.02000  1.154E-02    0   0.8861   age067_m62            0.0000     3.8759E+00    16.0614   0.5858    69.7182
 39      0.0000     0.0000E+00    0.0000E+00    1.445000E+07  0.02000  7.663E-03    0   0.8472   age078_m62            0.0000     3.4253E+00    15.4093   0.7919    69.1381
 40      0.0000     0.0000E+00    0.0000E+00    2.512000E+07  0.02000  4.532E-03    0   0.8099   age090_m62            0.0000     3.4328E+00    15.4277   0.7805    69.0579
 41      0.0000     0.0000E+00    0.0000E+00    5.500000E+07  0.02000  2.733E-03    0   0.7595   age110_m62            0.0000     3.2149E+00    15.1012   0.7966    68.9793
 42      0.0000     0.0000E+00    0.0000E+00    1.609000E+08  0.02000  1.369E-03    0   0.6985   age120_m62            0.0000     3.0569E+00    14.7722   0.6277    71.2112
 43      0.0000     0.0000E+00    0.0000E+00    2.861200E+08  0.02000  9.013E-04    0   0.6714   age125_m62            0.0000     2.9822E+00    14.6358   0.3726    73.4693
 44      9.4062     8.1599E+00    8.5377E+00    5.088000E+08  0.02000  5.028E-04    0   0.6449   age130_m62            0.0000     2.8981E+00    14.5109  -0.0004    75.3506
 45      0.0000     0.0000E+00    0.0000E+00    9.047900E+08  0.02000  2.428E-04    0   0.6179   age135_m62            0.0000     2.9143E+00    14.5884  -0.5743    74.5071
 46      0.0000     0.0000E+00    0.0000E+00    1.434000E+09  0.02000  1.263E-04    0   0.5908   age139_m62            0.0000     3.0101E+00    14.8301  -1.0000    72.8274
 47      0.0000     0.0000E+00    0.0000E+00    2.500000E+09  0.02000  5.985E-05    0   0.5673   age150_m62            0.0000     3.5422E+00    15.6986  -1.0000    61.7590
 48      0.0000     0.0000E+00    0.0000E+00    4.250000E+09  0.02000  3.271E-05    0   0.5468   age158_m62            0.0000     4.5397E+00    17.2378  -1.0000    53.5555
 49      0.0000     0.0000E+00    0.0000E+00    1.000000E+10  0.02000  1.360E-05    0   0.5167   age181_m62            0.0000     6.0863E+00    19.4959  -1.0000    45.4133
 50      0.0000     0.0000E+00    0.0000E+00    1.800000E+10  0.02000  7.124E-06    0   0.5013   age213_m62            0.0000     7.1533E+00    20.9130  -1.0000    40.7788
 51      0.0000     0.0000E+00    0.0000E+00    1.000000E+06  0.05000  2.592E-02    0   0.9998   age020_m72            0.0000     3.7285E+00    16.0150   2.0856    60.5850
 52      0.0000     0.0000E+00    0.0000E+00    3.160000E+06  0.05000  4.845E-02    0   0.9577   age045_m72            0.0000     3.5635E+00    15.8232   1.9047    62.2822
 53      0.0000     0.0000E+00    0.0000E+00    5.010000E+06  0.05000  3.072E-02    0   0.9147   age055_m72            0.0000     3.4567E+00    15.4929   1.3977    65.9073
 54      0.0000     0.0000E+00    0.0000E+00    6.610000E+06  0.05000  1.455E-02    0   0.8877   age061_m72            0.0000     4.3140E+00    16.7828   0.6261    70.5981
 55      0.0000     0.0000E+00    0.0000E+00    1.000000E+07  0.05000  9.074E-03    0   0.8524   age070_m72            0.0000     3.5189E+00    15.6272   1.5845    65.6817
 56      0.0000     0.0000E+00    0.0000E+00    2.512000E+07  0.05000  4.250E-03    0   0.7902   age090_m72            0.0000     3.3424E+00    15.3198   1.2689    67.3670
 57      0.1102     1.5566E-02    1.9240E-02    4.000000E+07  0.05000  3.087E-03    0   0.7618   age104_m72            0.0000     3.2958E+00    15.2338   1.0318    68.7984
 58      0.0000     0.0000E+00    0.0000E+00    1.015200E+08  0.05000  1.700E-03    0   0.7096   age116_m72            0.0000     3.0956E+00    14.8376   0.7701    70.8916
 59      0.0000     0.0000E+00    0.0000E+00    2.861200E+08  0.05000  7.384E-04    0   0.6633   age125_m72            0.0000     2.9239E+00    14.5579   0.2416    74.4825
 60      0.0000     0.0000E+00    0.0000E+00    5.088000E+08  0.05000  3.819E-04    0   0.6372   age130_m72            0.0000     2.9022E+00    14.5526  -0.2404    75.3928
 61      0.0000     0.0000E+00    0.0000E+00    9.047900E+08  0.05000  1.676E-04    0   0.6110   age135_m72            0.0000     3.0773E+00    14.9958  -0.9117    73.2932
 62      0.0000     0.0000E+00    0.0000E+00    1.434000E+09  0.05000  8.837E-05    0   0.5874   age139_m72            0.0000     3.5641E+00    15.7277  -1.0000    62.6679
 63      0.0000     0.0000E+00    0.0000E+00    2.500000E+09  0.05000  4.233E-05    0   0.5598   age150_m72            0.0000     4.5590E+00    17.2544  -1.0000    54.0192
 64      0.0000     0.0000E+00    0.0000E+00    6.250000E+09  0.05000  1.435E-05    0   0.5249   age166_m72            0.0000     6.5539E+00    20.1423  -1.0000    43.2001
 65      0.0000     0.0000E+00    0.0000E+00    1.300000E+10  0.05000  6.513E-06    0   0.5036   age193_m72            0.0000     8.0353E+00    22.0453  -1.0000    38.1102
 66      0.0000     0.0000E+00    0.0000E+00    1.800000E+10  0.05000  4.527E-06    0   0.4945   age213_m72            0.0000     8.9356E+00    23.1521  -1.0000    35.1463


## Synthesis Results - Average & Chains ##

# j      x_j: min, <> & last-chain-values for 1 ...  7 chains
  1      0.0000      0.0549      0.0000      0.0000      0.0000      0.0000      0.0000      0.0000      0.0000
  2      0.0000      0.1159      0.0000      0.0000      0.0000      0.0000      0.0000      0.0000      0.0000
  3      0.0000      0.0975      0.2657      0.0000      0.0000      0.0000      0.0000      0.0000      0.0000
  4      0.0000      0.1846      0.0000      0.0000      0.0000      1.1093      0.0000      0.0000      0.0000
  5      0.0000      0.1387      1.4898      0.0000      1.0420      0.0000      0.4740      0.0000      0.0274
  6      0.0000      0.0990      0.0000      0.0000      0.2118      0.0000      0.0000      0.0000      0.7783
  7      0.0000      0.1004      0.0000      0.0000      0.0643      0.0000      0.0000      0.0000      0.0000
  8      0.0000      0.2791      0.2586      0.0000      0.0000      0.0000      0.0016      0.6414      0.0000
  9      0.0000      0.4325      0.0000      0.4711      0.0000      0.0000      0.0000      0.0000      3.8522
 10      0.0000      0.2384      0.0000      0.0000      0.0000      0.0000      0.0000      0.0000      0.0000
 11      0.0000      0.6144      0.0000      0.1895      0.0000      0.0000      0.0000      1.1825      0.0000
 12      0.0000      1.0300      0.4874      0.4061      0.0000      0.0000      0.0000      0.0000      0.6913
 13      0.0000      0.7524      0.0789      0.0464      0.0000      0.0000      0.0000      0.1049      0.2811
 14      0.0000      0.4812      0.0000      0.0000      1.0170      0.0000      0.0000      0.0000      0.0000
 15      0.0000      0.2888      0.0000      0.0000      0.0000      0.0301      0.0000      0.0000      1.5018
 16      0.0000      0.2319      0.0000      0.0169      0.2230      0.0000      0.0000      1.3053      0.0000
 17      0.0000      0.3926      0.0000      0.0000      0.6297      0.4481      0.0000      0.0000      0.0000
 18      0.0000      0.1062      0.0000      0.0000      0.0000      0.0000      0.0180      0.0593      0.0000
 19      0.0000      0.0630      0.0000      0.0000      0.1932      0.0000      0.0000      0.4123      0.0000
 20      0.0000      0.0648      0.0000      0.1662      0.0000      0.0000      0.0000      0.0000      0.0000
 21      0.0000      0.1115      0.0000      0.0000      0.0000      0.0000      0.0000      0.0000      0.0000
 22      0.0000      0.1322      0.0000      0.0000      0.0000      0.0000      0.0124      0.0000      0.0000
 23      0.0000      0.2277      0.0000      0.0000      0.0000      0.0000      0.0000      0.0000      0.0000
 24      0.0000      0.1160      0.0000      0.0000      0.0000      0.0000      0.0000      0.0000      0.0000
 25      0.0000      0.2908      0.0000      0.0000      0.0000      0.0000      0.0000      0.0000      0.0000
 26      0.0004      0.2900      0.0000      0.0000      0.0000      0.0000      1.0732      0.0000      0.0000
 27      0.0000      0.8910      0.0000      2.7476      0.9619      0.0000      2.4371      2.3165      0.3299
 28     66.1239     30.6534     41.6685     37.2577     42.5332     35.8956     37.0830     33.4877     40.3252
 29      0.0000      0.7717      0.0000      0.0000      1.5260      1.2964      0.0000      0.0000      0.4570
 30      0.0000      0.4116      0.0000      0.0000      0.0000      0.3241      0.1214      0.0000      0.8997
 31      0.0000      0.5073      1.0884      0.0000      0.0000      0.0000      0.0000      0.0000      0.0000
 32      0.0000      0.2488      0.0000      0.1401      0.0000      1.1758      0.2937      0.0000      0.0000
 33      0.0000      0.0829      0.4865      0.0000      0.0000      0.0000      0.0000      0.0000      0.0000
 34      0.0000      0.2180      0.0000      0.0000      0.0000      0.6255      0.5403      0.7499      0.6356
 35      0.0000      0.0439      0.0913      0.0000      0.0000      0.0000      0.0000      0.0000      0.0000
 36      0.0000      0.0407      0.0000      0.0000      0.8854      0.0000      0.0000      0.0000      0.0000
 37      0.0000      0.1081      0.0000      0.0000      0.0000      0.1045      0.0000      0.0000      0.0000
 38      0.0000      0.2189      0.0000      0.0000      0.0000      0.0000      0.0000      0.0000      0.0000
 39      0.0000      0.1904      0.0000      1.7746      0.0000      0.0000      0.0000      0.0000      0.1824
 40      0.0000      0.0868      0.0000      0.0000      0.0000      0.0000      0.0000      0.0050      0.0000
 41      0.0000      0.1644      0.0000      0.0000      0.0000      0.0000      0.0000      0.4893      0.0000
 42      0.0000      0.4865      0.1543      0.0000      0.0000      0.0000      0.0224      0.0000      0.0000
 43      0.0000      0.5827      0.0000      0.0000      0.1381      0.4905      0.0000      3.2624      0.3291
 44      9.4062      9.6810     11.5077      7.7340      6.3547     15.4261     22.5288      8.8121     10.9964
 45      0.0000      7.1466      5.5162      8.3871      7.1423      6.9139      2.7385      1.5727      5.8992
 46      0.0000      1.1321      0.0000      1.7078      0.0000      1.2002      1.4490      2.2555      0.0000
 47      0.0000      0.3682      0.0000      0.0000      0.8238      0.1499      0.0000      0.0000      0.4365
 48      0.0000      0.1187      0.0000      0.0000      0.0000      0.0000      0.0000      0.0000      0.0000
 49      0.0000      0.3290      0.0000      0.7206      0.0000      0.0000      1.2892      0.9693      0.5388
 50      0.0000      0.0896      0.0000      0.0000      0.0000      0.0000      0.6230      0.0000      0.1097
 51      0.0000      0.0390      0.0000      0.0000      0.0000      0.0000      0.0000      0.0000      0.0000
 52      0.0000      0.0740      0.0000      0.0000      0.0000      0.0000      0.0000      0.0000      0.0000
 53      0.0000      0.1587      0.0000      0.0000      0.0375      0.0000      0.0000      0.0000      0.0000
 54      0.0000      0.2648      0.0000      0.0000      0.0000      0.9132      0.0000      0.0000      0.0000
 55      0.0000      0.1059      0.0000      0.0000      0.0000      0.0000      0.0000      0.0000      0.0000
 56      0.0000      0.2007      0.6099      0.0000      0.0000      0.0000      0.1251      0.0000      0.1265
 57      0.1102      0.4954      0.0000      0.4996      0.0000      1.6110      0.6542      0.8897      0.0000
 58      0.0000      0.1852      0.0000      0.0000      0.0000      0.0000      0.0000      0.0229      0.4869
 59      0.0000      2.3131      1.7938      5.1926      0.5307      3.6706      0.0000      2.0503      5.0334
 60      0.0000      7.4949      9.6753      6.3324      9.1655      3.7258      3.9678     12.2907      0.0000
 61      0.0000      0.9813      0.0000      0.0000      1.0106      0.7258      0.0000      0.0000      1.0505
 62      0.0000      0.3139      0.0000      1.1364      0.0000      0.0000      0.1236      1.5998      0.0627
 63      0.0000      0.1418      0.0000      0.0000      0.0000      0.0000      0.0000      0.8155      0.0000
 64      0.0000      0.3160      0.0000      0.0000      0.0000      0.0000      0.0000      0.0000      0.0000
 65      0.0000      0.1681      0.8292      0.5604      0.0000      0.0000      0.0000      0.0000      0.0000
 66      0.0000      0.0517      0.0000      0.0000      0.0000      0.0000      0.0954      0.0000      0.0000

# j      m_j: min, <> & last-chain-values for 1 ...  7 chains
  1  0.0000E+00  2.1301E-03  0.0000E+00  0.0000E+00  0.0000E+00  0.0000E+00  0.0000E+00  0.0000E+00  0.0000E+00
  2  0.0000E+00  1.2284E-03  0.0000E+00  0.0000E+00  0.0000E+00  0.0000E+00  0.0000E+00  0.0000E+00  0.0000E+00
  3  0.0000E+00  1.5477E-03  4.4143E-03  0.0000E+00  0.0000E+00  0.0000E+00  0.0000E+00  0.0000E+00  0.0000E+00
  4  0.0000E+00  2.7590E-03  0.0000E+00  0.0000E+00  0.0000E+00  1.9450E-02  0.0000E+00  0.0000E+00  0.0000E+00
  5  0.0000E+00  3.9472E-03  4.4407E-02  0.0000E+00  3.9203E-02  0.0000E+00  1.2168E-02  0.0000E+00  8.5646E-04
  6  0.0000E+00  4.5692E-03  0.0000E+00  0.0000E+00  1.2925E-02  0.0000E+00  0.0000E+00  0.0000E+00  3.9444E-02
  7  0.0000E+00  6.6371E-03  0.0000E+00  0.0000E+00  5.6194E-03  0.0000E+00  0.0000E+00  0.0000E+00  0.0000E+00
  8  0.0000E+00  2.5498E-02  2.4740E-02  0.0000E+00  0.0000E+00  0.0000E+00  1.3259E-04  5.5639E-02  0.0000E+00
  9  0.0000E+00  4.5231E-02  0.0000E+00  5.4911E-02  0.0000E+00  0.0000E+00  0.0000E+00  0.0000E+00  4.4218E-01
 10  0.0000E+00  3.2755E-02  0.0000E+00  0.0000E+00  0.0000E+00  0.0000E+00  0.0000E+00  0.0000E+00  0.0000E+00
 11  0.0000E+00  1.5869E-01  0.0000E+00  5.4561E-02  0.0000E+00  0.0000E+00  0.0000E+00  2.8999E-01  0.0000E+00
 12  0.0000E+00  4.2202E-01  2.0908E-01  1.8548E-01  0.0000E+00  0.0000E+00  0.0000E+00  0.0000E+00  3.1092E-01
 13  0.0000E+00  8.6894E-01  9.5457E-02  5.9793E-02  0.0000E+00  0.0000E+00  0.0000E+00  1.1497E-01  3.5629E-01
 14  0.0000E+00  1.8640E+00  0.0000E+00  0.0000E+00  5.2063E+00  0.0000E+00  0.0000E+00  0.0000E+00  0.0000E+00
 15  0.0000E+00  1.8212E+00  0.0000E+00  0.0000E+00  0.0000E+00  2.2280E-01  0.0000E+00  0.0000E+00  1.0395E+01
 16  0.0000E+00  2.4729E+00  0.0000E+00  2.0111E-01  3.1428E+00  0.0000E+00  0.0000E+00  1.3213E+01  0.0000E+00
 17  0.0000E+00  5.4301E+00  0.0000E+00  0.0000E+00  1.1512E+01  7.2722E+00  0.0000E+00  0.0000E+00  0.0000E+00
 18  0.0000E+00  3.6433E-03  0.0000E+00  0.0000E+00  0.0000E+00  0.0000E+00  5.5738E-04  1.9298E-03  0.0000E+00
 19  0.0000E+00  8.6754E-04  0.0000E+00  0.0000E+00  3.5146E-03  0.0000E+00  0.0000E+00  5.3890E-03  0.0000E+00
 20  0.0000E+00  9.7343E-04  0.0000E+00  2.7849E-03  0.0000E+00  0.0000E+00  0.0000E+00  0.0000E+00  0.0000E+00
 21  0.0000E+00  2.0338E-03  0.0000E+00  0.0000E+00  0.0000E+00  0.0000E+00  0.0000E+00  0.0000E+00  0.0000E+00
 22  0.0000E+00  4.0797E-03  0.0000E+00  0.0000E+00  0.0000E+00  0.0000E+00  3.4605E-04  0.0000E+00  0.0000E+00
 23  0.0000E+00  9.4881E-03  0.0000E+00  0.0000E+00  0.0000E+00  0.0000E+00  0.0000E+00  0.0000E+00  0.0000E+00
 24  0.0000E+00  7.1879E-03  0.0000E+00  0.0000E+00  0.0000E+00  0.0000E+00  0.0000E+00  0.0000E+00  0.0000E+00
 25  0.0000E+00  2.4852E-02  0.0000E+00  0.0000E+00  0.0000E+00  0.0000E+00  0.0000E+00  0.0000E+00  0.0000E+00
 26  1.0327E-04  4.1433E-02  0.0000E+00  0.0000E+00  0.0000E+00  0.0000E+00  1.3826E-01  0.0000E+00  0.0000E+00
 27  0.0000E+00  2.5478E-01  0.0000E+00  8.7574E-01  3.6354E-01  0.0000E+00  6.2849E-01  6.2888E-01  1.0354E-01
 28  9.1443E+01  2.5439E+01  3.6206E+01  3.4463E+01  4.6650E+01  3.4948E+01  2.7753E+01  2.6384E+01  3.6731E+01
 29  0.0000E+00  1.1159E+00  0.0000E+00  0.0000E+00  2.9162E+00  2.1993E+00  0.0000E+00  0.0000E+00  7.2532E-01
 30  0.0000E+00  1.2433E+00  0.0000E+00  0.0000E+00  0.0000E+00  1.1488E+00  3.3080E-01  0.0000E+00  2.9832E+00
 31  0.0000E+00  2.6961E+00  6.0561E+00  0.0000E+00  0.0000E+00  0.0000E+00  0.0000E+00  0.0000E+00  0.0000E+00
 32  0.0000E+00  1.7789E+00  0.0000E+00  1.1165E+00  0.0000E+00  9.8632E+00  1.8942E+00  0.0000E+00  0.0000E+00
 33  0.0000E+00  1.3119E+00  8.0636E+00  0.0000E+00  0.0000E+00  0.0000E+00  0.0000E+00  0.0000E+00  0.0000E+00
 34  0.0000E+00  4.6734E+00  0.0000E+00  0.0000E+00  0.0000E+00  1.5730E+01  1.0445E+01  1.5261E+01  1.4955E+01
 35  0.0000E+00  1.2083E-03  2.6281E-03  0.0000E+00  0.0000E+00  0.0000E+00  0.0000E+00  0.0000E+00  0.0000E+00
 36  0.0000E+00  4.5309E-04  0.0000E+00  0.0000E+00  1.3021E-02  0.0000E+00  0.0000E+00  0.0000E+00  0.0000E+00
 37  0.0000E+00  1.3007E-03  0.0000E+00  0.0000E+00  0.0000E+00  1.4761E-03  0.0000E+00  0.0000E+00  0.0000E+00
 38  0.0000E+00  7.1388E-03  0.0000E+00  0.0000E+00  0.0000E+00  0.0000E+00  0.0000E+00  0.0000E+00  0.0000E+00
 39  0.0000E+00  8.9381E-03  0.0000E+00  9.2869E-02  0.0000E+00  0.0000E+00  0.0000E+00  0.0000E+00  9.4020E-03
 40  0.0000E+00  6.5890E-03  0.0000E+00  0.0000E+00  0.0000E+00  0.0000E+00  0.0000E+00  3.6168E-04  0.0000E+00
 41  0.0000E+00  1.9406E-02  0.0000E+00  0.0000E+00  0.0000E+00  0.0000E+00  0.0000E+00  5.4821E-02  0.0000E+00
 42  0.0000E+00  1.0541E-01  3.5003E-02  0.0000E+00  0.0000E+00  0.0000E+00  4.3841E-03  0.0000E+00  0.0000E+00
 43  0.0000E+00  1.8435E-01  0.0000E+00  0.0000E+00  5.7742E-02  1.8206E-01  0.0000E+00  9.7981E-01  1.1429E-01
 44  8.5377E+00  5.2733E+00  6.5630E+00  4.6955E+00  4.5746E+00  9.8576E+00  1.1067E+01  4.5569E+00  6.5743E+00
 45  0.0000E+00  7.7238E+00  6.2420E+00  1.0103E+01  1.0202E+01  8.7663E+00  2.6691E+00  1.6137E+00  6.9979E+00
 46  0.0000E+00  2.2489E+00  0.0000E+00  3.7815E+00  0.0000E+00  2.7972E+00  2.5959E+00  4.2537E+00  0.0000E+00
 47  0.0000E+00  1.4822E+00  0.0000E+00  0.0000E+00  4.3826E+00  7.0806E-01  0.0000E+00  0.0000E+00  1.9285E+00
 48  0.0000E+00  8.4262E-01  0.0000E+00  0.0000E+00  0.0000E+00  0.0000E+00  0.0000E+00  0.0000E+00  0.0000E+00
 49  0.0000E+00  5.3082E+00  0.0000E+00  1.2959E+01  0.0000E+00  0.0000E+00  1.8759E+01  1.4847E+01  9.5417E+00
 50  0.0000E+00  2.6767E+00  0.0000E+00  0.0000E+00  0.0000E+00  0.0000E+00  1.6790E+01  0.0000E+00  3.5981E+00
 51  0.0000E+00  6.3890E-04  0.0000E+00  0.0000E+00  0.0000E+00  0.0000E+00  0.0000E+00  0.0000E+00  0.0000E+00
 52  0.0000E+00  6.2114E-04  0.0000E+00  0.0000E+00  0.0000E+00  0.0000E+00  0.0000E+00  0.0000E+00  0.0000E+00
 53  0.0000E+00  2.0061E-03  0.0000E+00  0.0000E+00  6.2656E-04  0.0000E+00  0.0000E+00  0.0000E+00  0.0000E+00
 54  0.0000E+00  6.8604E-03  0.0000E+00  0.0000E+00  0.0000E+00  2.7757E-02  0.0000E+00  0.0000E+00  0.0000E+00
 55  0.0000E+00  4.2263E-03  0.0000E+00  0.0000E+00  0.0000E+00  0.0000E+00  0.0000E+00  0.0000E+00  0.0000E+00
 56  0.0000E+00  1.5850E-02  5.0421E-02  0.0000E+00  0.0000E+00  0.0000E+00  8.9089E-03  0.0000E+00  1.0962E-02
 57  1.9240E-02  5.1918E-02  0.0000E+00  5.8357E-02  0.0000E+00  1.9807E-01  6.1832E-02  8.8519E-02  0.0000E+00
 58  0.0000E+00  3.2838E-02  0.0000E+00  0.0000E+00  0.0000E+00  0.0000E+00  0.0000E+00  3.8581E-03  9.4733E-02
 59  0.0000E+00  8.8241E-01  7.1647E-01  2.2079E+00  2.6759E-01  1.6428E+00  0.0000E+00  7.4257E-01  2.1076E+00
 60  0.0000E+00  5.3107E+00  7.1780E+00  5.0012E+00  8.5831E+00  3.0972E+00  2.5354E+00  8.2680E+00  0.0000E+00
 61  0.0000E+00  1.5192E+00  0.0000E+00  0.0000E+00  2.0678E+00  1.3183E+00  0.0000E+00  0.0000E+00  1.7850E+00
 62  0.0000E+00  8.8602E-01  0.0000E+00  3.5755E+00  0.0000E+00  0.0000E+00  3.1466E-01  4.2874E+00  1.9429E-01
 63  0.0000E+00  7.9656E-01  0.0000E+00  0.0000E+00  0.0000E+00  0.0000E+00  0.0000E+00  4.3481E+00  0.0000E+00
 64  0.0000E+00  4.9090E+00  0.0000E+00  0.0000E+00  0.0000E+00  0.0000E+00  0.0000E+00  0.0000E+00  0.0000E+00
 65  0.0000E+00  5.5204E+00  2.8509E+01  2.0511E+01  0.0000E+00  0.0000E+00  0.0000E+00  0.0000E+00  0.0000E+00
 66  0.0000E+00  2.3982E+00  0.0000E+00  0.0000E+00  0.0000E+00  0.0000E+00  3.9921E+00  0.0000E+00  0.0000E+00

# AV, chi2 & Mass for <> & i_chain = 1 ...  7 solutions
AV      -0.4755     -0.4503     -0.4621     -0.4485     -0.4568     -0.4491     -0.4512     -0.4748     -0.4476
chi2 2.8593E+00  2.8805E+00  2.8693E+00  2.8715E+00  2.8742E+00  2.8716E+00  2.8679E+00  2.8748E+00  2.8735E+00
Mass 2.9727E-14  5.1243E-14  4.8173E-14  4.6087E-14  3.8437E-14  4.3748E-14  5.6751E-14  5.2225E-14  4.6856E-14
 -12.37                                  [v0_min (km/s) before EX0s...]
 122.46                                  [vd_min (km/s) before EX0s...]


## Synthetic spectrum (Best Model) ##l_obs f_obs f_syn wei
 3478    [Nl_obs]
 3741.00    0.77641   0.41154    0.000
 3742.00    0.91275   0.40471    0.000
 3743.00    0.69340   0.38868    0.000
 3744.00    0.33068   0.36859    0.000
 3745.00   -0.00557   0.34668   -2.000
 3746.00   -0.29101   0.32196   -2.000
 3747.00   -0.48918   0.29479   -2.000
 3748.00   -0.52892   0.27016   -2.000
 3749.00   -0.45659   0.25705   -2.000
 3750.00   -0.40333   0.26345   -2.000
 3751.00   -0.27387   0.28960   -2.000
 3752.00    0.20823   0.32783   -1.000
 3753.00    0.98522   0.36782   -1.000
 3754.00    1.62087   0.40069   -1.000
 3755.00    1.72288   0.41996   -1.000
 3756.00    1.14859   0.42370   -1.000
 3757.00    0.19062   0.41707   -1.000
 3758.00   -0.56928   0.40986   -2.000
 3759.00   -0.82790   0.40959   -2.000
 3760.00   -0.63563   0.41599   -2.000
 3761.00   -0.14243   0.42326   -2.000
 3762.00    0.50144   0.42650   19.943
 3763.00    1.20950   0.42410   -1.000
 3764.00    1.92290   0.41573   -1.000
 3765.00    2.48485   0.40150   -1.000
 3766.00    2.70531   0.38206   -1.000
 3767.00    2.58117   0.35913   -1.000
 3768.00    2.28182   0.33639   -1.000
 3769.00    1.99851   0.31902   -1.000
 3770.00    1.85624   0.31250   -1.000
 3771.00    1.80708   0.32059   -1.000
 3772.00    1.70519   0.34185   -1.000
 3773.00    1.50016   0.36966   -1.000
 3774.00    1.23693   0.39756   -1.000
 3775.00    0.97858   0.42343   -1.000
 3776.00    0.76254   0.44806   -1.000
 3777.00    0.55375   0.47218   18.059
 3778.00    0.33734   0.49534   -1.000
 3779.00    0.28333   0.51615   -1.000
 3780.00    0.57848   0.53300   17.287
 3781.00    1.11262   0.54482   -1.000
 3782.00    1.59577   0.55153   -1.000
 3783.00    1.82255   0.55258   -1.000
 3784.00    1.72768   0.54605   -1.000
 3785.00    1.40411   0.53093   -1.000
 3786.00    1.06249   0.50978   -1.000
 3787.00    0.95838   0.48853   -1.000
 3788.00    1.18321   0.47213   -1.000
 3789.00    1.42493   0.46103   -1.000
 3790.00    1.36757   0.45200   -1.000
 3791.00    1.21214   0.44041   -1.000
 3792.00    1.26611   0.42199   -1.000
 3793.00    1.39098   0.39558   -1.000
 3794.00    1.34609   0.36384   -1.000
 3795.00    1.23578   0.33099   -1.000
 3796.00    1.18245   0.30190   -1.000
 3797.00    0.95132   0.28280   -1.000
 3798.00    0.42180   0.28055   -1.000
 3799.00    0.06579   0.29857   -1.000
 3800.00    0.29768   0.33326   33.594
 3801.00    0.82807   0.37541   -1.000
 3802.00    1.21832   0.41548   -1.000
 3803.00    1.43499   0.44736   -1.000
 3804.00    1.52693   0.46874   -1.000
 3805.00    1.32367   0.48151   -1.000
 3806.00    0.76980   0.49180   -1.000
 3807.00    0.19667   0.50592   -1.000
 3808.00   -0.02871   0.52590   -2.000
 3809.00    0.18992   0.54713   -1.000
 3810.00    0.69166   0.56105   14.458
 3811.00    1.12476   0.56166   -1.000
 3812.00    1.24458   0.54978   -1.000
 3813.00    1.11132   0.53235   -1.000
 3814.00    0.91949   0.51868   -1.000
 3815.00    0.84928   0.51513   -1.000
 3816.00    0.94979   0.52055   -1.000
 3817.00    1.09175   0.52784   -1.000
 3818.00    1.14181   0.52921   -1.000
 3819.00    1.06896   0.52256   -1.000
 3820.00    0.88966   0.51262   -1.000
 3821.00    0.64116   0.50403   15.597
 3822.00    0.44304   0.49565   22.571
 3823.00    0.48224   0.48297   20.736
 3824.00    0.73137   0.46483   -1.000
 3825.00    0.88317   0.44530   -1.000
 3826.00    0.82854   0.42853   -1.000
 3827.00    0.81180   0.41442   -1.000
 3828.00    0.92673   0.40045   -1.000
 3829.00    0.94775   0.38396   -1.000
 3830.00    0.75695   0.36272   -1.000
 3831.00    0.50157   0.33592   -1.000
 3832.00    0.35761   0.30543   27.963
 3833.00    0.39095   0.27671   -1.000
 3834.00    0.44981   0.25665   -1.000
 3835.00    0.24541   0.24953   40.748
 3836.00   -0.15349   0.25558   -2.000
 3837.00   -0.29772   0.27189   -2.000
 3838.00   -0.04648   0.29460   -2.000
 3839.00    0.31150   0.32183   32.103
 3840.00    0.60753   0.35327   -1.000
 3841.00    0.89898   0.38768   -1.000
 3842.00    1.11674   0.42205   -1.000
 3843.00    1.04147   0.45230   -1.000
 3844.00    0.63959   0.47623   -1.000
 3845.00    0.13640   0.49495   -1.000
 3846.00   -0.11682   0.51016   -2.000
 3847.00    0.17565   0.52205    0.000
 3848.00    0.86188   0.53047    0.000
 3849.00    1.43070   0.53726    0.000
 3850.00    1.58720   0.54583    0.000
 3851.00    1.37001   0.55709    0.000
 3852.00    1.00880   0.56719    0.000
 3853.00    0.78347   0.57123    0.000
 3854.00    0.77725   0.56877    0.000
 3855.00    0.88730   0.56369    0.000
 3856.00    1.00546   0.55944    0.000
 3857.00    1.06513   0.55710    0.000
 3858.00    1.04317   0.55689    0.000
 3859.00    0.94392   0.56013    0.000
 3860.00    0.76605   0.56895    0.000
 3861.00    0.54639   0.58228    0.000
 3862.00    0.45903   0.59486    0.000
 3863.00    0.65780   0.60183    0.000
 3864.00    0.93812   0.60260    0.000
 3865.00    0.95474   0.60033    0.000
 3866.00    0.74466   0.59854    0.000
 3867.00    0.57014   0.59796    0.000
 3868.00    0.46870   0.59565    0.000
 3869.00    0.35435   0.58775    0.000
 3870.00    0.31931   0.57338    0.000
 3871.00    0.50178   0.55658    0.000
 3872.00    0.79760   0.54399    0.000
 3873.00    0.98609   0.53954    0.000
 3874.00    0.99304   0.54059    0.000
 3875.00    0.88927   0.53888    0.000
 3876.00    0.82226   0.52782    0.000
 3877.00    0.89621   0.50902    0.000
 3878.00    1.02698   0.49019    0.000
 3879.00    1.05158   0.47719    0.000
 3880.00    0.90041   0.46877    0.000
 3881.00    0.62190   0.45926   -1.000
 3882.00    0.37515   0.44505   26.656
 3883.00    0.29190   0.42536   -1.000
 3884.00    0.32233   0.39951   31.024
 3885.00    0.37123   0.36764   26.938
 3886.00    0.46580   0.33345   -1.000
 3887.00    0.65473   0.30453   -1.000
 3888.00    0.88271   0.28884   -1.000
 3889.00    1.04139   0.29111   -1.000
 3890.00    1.04455   0.31069   -1.000
 3891.00    0.92811   0.34107   -1.000
 3892.00    0.91383   0.37326   -1.000
 3893.00    1.12538   0.40113   -1.000
 3894.00    1.34613   0.42387   -1.000
 3895.00    1.32146   0.44368   -1.000
 3896.00    1.04263   0.46210   -1.000
 3897.00    0.68475   0.47889   -1.000
 3898.00    0.50645   0.49374   19.745
 3899.00    0.61536   0.50803   16.251
 3900.00    0.81581   0.52290   -1.000
 3901.00    0.87926   0.53679   -1.000
 3902.00    0.75631   0.54660   -1.000
 3903.00    0.52217   0.55093   19.151
 3904.00    0.30942   0.55266   -1.000
 3905.00    0.18959   0.55703   -1.000
 3906.00    0.11308   0.56818   -1.000
 3907.00    0.05004   0.58678   -1.000
 3908.00    0.06435   0.60885   -1.000
 3909.00    0.16578   0.62850   -1.000
 3910.00    0.24761   0.64162   -1.000
 3911.00    0.29850   0.64681   -1.000
 3912.00    0.47776   0.64514   20.931
 3913.00    0.79512   0.63943   12.577
 3914.00    0.98957   0.63297   -1.000
 3915.00    0.89368   0.62760   -1.000
 3916.00    0.60286   0.62267   16.588
 3917.00    0.28886   0.61685   -1.000
 3918.00    0.09189   0.61032   -1.000
 3919.00    0.09597   0.60458   -1.000
 3920.00    0.30638   0.60149   -1.000
 3921.00    0.59626   0.60199   16.771
 3922.00    0.75453   0.60489   13.253
 3923.00    0.79873   0.60678   12.520
 3924.00    0.99142   0.60357   -1.000
 3925.00    1.32427   0.59211   -1.000
 3926.00    1.44850   0.57133   -1.000
 3927.00    1.27785   0.54223   -1.000
 3928.00    1.09646   0.50587   -1.000
 3929.00    1.03226   0.46240   -1.000
 3930.00    0.96300   0.41195   -1.000
 3931.00    0.91856   0.35746   -1.000
 3932.00    1.08048   0.30833   -1.000
 3933.00    1.27917   0.27900   -1.000
 3934.00    1.07227   0.28119   -1.000
 3935.00    0.55537   0.31545   -1.000
 3936.00    0.32546   0.37030   30.726
 3937.00    0.54874   0.43016   18.223
 3938.00    0.87357   0.48355   -1.000
 3939.00    1.04119   0.52498   -1.000
 3940.00    1.03464   0.55270   -1.000
 3941.00    0.96910   0.56735   -1.000
 3942.00    0.98559   0.57274   -1.000
 3943.00    1.06388   0.57537   -1.000
 3944.00    1.07224   0.58064   -1.000
 3945.00    1.01407   0.58916   -1.000
 3946.00    0.99006   0.59708   -1.000
 3947.00    0.96091   0.60060   -1.000
 3948.00    0.80497   0.60008   -1.000
 3949.00    0.57542   0.59856   17.379
 3950.00    0.46237   0.59758   21.628
 3951.00    0.58251   0.59658   17.167
 3952.00    0.91483   0.59488   -1.000
 3953.00    1.27056   0.59174   -1.000
 3954.00    1.42275   0.58546   -1.000
 3955.00    1.36292   0.57483   -1.000
 3956.00    1.22518   0.56174   -1.000
 3957.00    1.05514   0.54974   -1.000
 3958.00    0.83585   0.53877   -1.000
 3959.00    0.60919   0.52402   16.415
 3960.00    0.47068   0.50139    0.000
 3961.00    0.52026   0.47200    0.000
 3962.00    0.76895   0.44017    0.000
 3963.00    1.01387   0.40802    0.000
 3964.00    1.01991   0.37332    0.000
 3965.00    0.81581   0.33308    0.000
 3966.00    0.56485   0.28812    0.000
 3967.00    0.31884   0.24480    0.000
 3968.00    0.07748   0.21285    0.000
 3969.00   -0.08802   0.20064   -2.000
 3970.00   -0.12340   0.21093   -2.000
 3971.00   -0.11659   0.23989   -2.000
 3972.00   -0.12662   0.27976   -2.000
 3973.00    0.02678   0.32299    0.000
 3974.00    0.46378   0.36452    0.000
 3975.00    0.89069   0.40227    0.000
 3976.00    0.98569   0.43637    0.000
 3977.00    0.85669   0.46790    0.000
 3978.00    0.77144   0.49716    0.000
 3979.00    0.81622   0.52247    0.000
 3980.00    0.91578   0.54151    0.000
 3981.00    0.90482   0.55399   -1.000
 3982.00    0.69866   0.56263   14.313
 3983.00    0.43286   0.57141   23.102
 3984.00    0.25597   0.58255   -1.000
 3985.00    0.14022   0.59571   -1.000
 3986.00    0.02685   0.60950   -1.000
 3987.00   -0.03893   0.62254   -2.000
 3988.00    0.02239   0.63380   -1.000
 3989.00    0.25371   0.64312   -1.000
 3990.00    0.63642   0.65163   15.713
 3991.00    1.07437   0.66060   -1.000
 3992.00    1.39126   0.66909   -1.000
 3993.00    1.36930   0.67422   -1.000
 3994.00    1.04286   0.67372   -1.000
 3995.00    0.82933   0.66836   12.058
 3996.00    0.95387   0.66219   -1.000
 3997.00    1.12235   0.66060   -1.000
 3998.00    1.05467   0.66666   -1.000
 3999.00    0.81658   0.67865   12.246
 4000.00    0.59562   0.69112   16.789
 4001.00    0.53185   0.69868   18.802
 4002.00    0.62413   0.69841   16.022
 4003.00    0.72490   0.69026   13.795
 4004.00    0.80037   0.67795   12.494
 4005.00    1.01287   0.66896   -1.000
 4006.00    1.36401   0.67006   -1.000
 4007.00    1.57590   0.68143   -1.000
 4008.00    1.48663   0.69661   -1.000
 4009.00    1.21974   0.70860   -1.000
 4010.00    0.99366   0.71473   -1.000
 4011.00    0.98649   0.71638   -1.000
 4012.00    1.17130   0.71632   -1.000
 4013.00    1.31054   0.71676   -1.000
 4014.00    1.25639   0.71844   -1.000
 4015.00    1.06436   0.72075   -1.000
 4016.00    0.90244   0.72324   11.081
 4017.00    0.95323   0.72667   10.491
 4018.00    1.19610   0.73174   -1.000
 4019.00    1.39681   0.73703   -1.000
 4020.00    1.38922   0.73935   -1.000
 4021.00    1.17096   0.73685   -1.000
 4022.00    0.85241   0.73080   11.731
 4023.00    0.59319   0.72469   16.858
 4024.00    0.45906   0.72241   -1.000
 4025.00    0.41858   0.72586   -1.000
 4026.00    0.48758   0.73251   -1.000
 4027.00    0.72392   0.73564   13.814
 4028.00    1.07000   0.72895   -1.000
 4029.00    1.36487   0.71195   -1.000
 4030.00    1.51897   0.69082   -1.000
 4031.00    1.53606   0.67422   -1.000
 4032.00    1.43056   0.66802   -1.000
 4033.00    1.22423   0.67325   -1.000
 4034.00    0.99710   0.68762   -1.000
 4035.00    0.85544   0.70731   11.690
 4036.00    0.82140   0.72752   12.174
 4037.00    0.83815   0.74313   11.931
 4038.00    0.84823   0.75063   11.789
 4039.00    0.81301   0.75015   12.300
 4040.00    0.71389   0.74484   14.008
 4041.00    0.57836   0.73717   17.290
 4042.00    0.53050   0.72589   18.850
 4043.00    0.69668   0.70849   14.354
 4044.00    1.00000   0.68758   -1.000
 4045.00    1.24064   0.67246   -1.000
 4046.00    1.32885   0.67199   -1.000
 4047.00    1.30449   0.68611   -1.000
 4048.00    1.28440   0.70607   -1.000
 4049.00    1.35548   0.72209   -1.000
 4050.00    1.41512   0.72914   -1.000
 4051.00    1.31427   0.72703   -1.000
 4052.00    1.13029   0.71852   -1.000
 4053.00    1.03779   0.70766   -1.000
 4054.00    1.03920   0.69802   -1.000
 4055.00    1.02152   0.69128   -1.000
 4056.00    0.90657   0.68755   -1.000
 4057.00    0.71031   0.68719   14.078
 4058.00    0.58536   0.69081   17.084
 4059.00    0.66443   0.69651   15.051
 4060.00    0.85048   0.69871   11.758
 4061.00    0.95255   0.69225   -1.000
 4062.00    0.89812   0.67836   -1.000
 4063.00    0.76570   0.66486   13.060
 4064.00    0.77130   0.65915   12.965
 4065.00    0.99046   0.66208   -1.000
 4066.00    1.07691   0.66958   -1.000
 4067.00    0.78729   0.67780   12.702
 4068.00    0.54020   0.68401   18.512
 4069.00    0.70642   0.68508   14.156
 4070.00    0.86706   0.67967   11.533
 4071.00    0.62121   0.67132   16.098
 4072.00    0.40289   0.66553   -1.000
 4073.00    0.71308   0.66261   14.024
 4074.00    1.34974   0.65674   -1.000
 4075.00    1.82982   0.64314   -1.000
 4076.00    1.85500   0.62496   -1.000
 4077.00    1.47008   0.61200   -1.000
 4078.00    1.10738   0.61239   -1.000
 4079.00    1.06019   0.62540   -1.000
 4080.00    1.10159   0.64224   -1.000
 4081.00    0.99068   0.65290   -1.000
 4082.00    0.85421   0.65283   11.707
 4083.00    0.85161   0.64466   -1.000
 4084.00    0.92462   0.63482   -1.000
 4085.00    0.96559   0.62885   -1.000
 4086.00    0.94319   0.62835   -1.000
 4087.00    0.85188   0.63078   -1.000
 4088.00    0.68502   0.63162   14.598
 4089.00    0.51867   0.62746   19.280
 4090.00    0.52777   0.61769   18.947
 4091.00    0.74104   0.60393   13.495
 4092.00    0.94174   0.58793    0.000
 4093.00    0.98559   0.56997    0.000
 4094.00    0.95444   0.54901    0.000
 4095.00    0.94369   0.52462    0.000
 4096.00    0.95283   0.49761    0.000
 4097.00    0.96517   0.46867    0.000
 4098.00    0.99196   0.43745    0.000
 4099.00    1.06445   0.40428    0.000
 4100.00    1.20715   0.37338    0.000
 4101.00    1.33707   0.35320    0.000
 4102.00    1.27598   0.35160    0.000
 4103.00    1.01979   0.36970    0.000
 4104.00    0.77868   0.40107    0.000
 4105.00    0.61890   0.43625    0.000
 4106.00    0.40191   0.46779    0.000
 4107.00    0.17717   0.49233    0.000
 4108.00    0.21296   0.51017    0.000
 4109.00    0.48328   0.52376    0.000
 4110.00    0.62192   0.53651    0.000
 4111.00    0.49931   0.55110    0.000
 4112.00    0.32783   0.56834    0.000
 4113.00    0.26421   0.58700   -1.000
 4114.00    0.30925   0.60441   -1.000
 4115.00    0.45637   0.61766   21.912
 4116.00    0.70576   0.62471   14.169
 4117.00    0.94824   0.62577   -1.000
 4118.00    1.00858   0.62386   -1.000
 4119.00    0.88243   0.62311   -1.000
 4120.00    0.72147   0.62557   13.861
 4121.00    0.58730   0.63067   17.027
 4122.00    0.44433   0.63706   -1.000
 4123.00    0.33377   0.64369   -1.000
 4124.00    0.36363   0.64901   -1.000
 4125.00    0.56031   0.65082   17.847
 4126.00    0.85241   0.64815   -1.000
 4127.00    1.12795   0.64271   -1.000
 4128.00    1.28622   0.63751   -1.000
 4129.00    1.32085   0.63387   -1.000
 4130.00    1.29736   0.63095   -1.000
 4131.00    1.26122   0.62845   -1.000
 4132.00    1.21949   0.62874   -1.000
 4133.00    1.14782   0.63497   -1.000
 4134.00    1.03125   0.64776   -1.000
 4135.00    0.93787   0.66452   -1.000
 4136.00    0.94483   0.68120   -1.000
 4137.00    0.97664   0.69511   -1.000
 4138.00    0.90645   0.70488   11.032
 4139.00    0.78741   0.70866   12.700
 4140.00    0.75293   0.70421   13.281
 4141.00    0.77971   0.69115   12.825
 4142.00    0.76416   0.67377   13.086
 4143.00    0.70973   0.66040   14.090
 4144.00    0.68242   0.65773   14.654
 4145.00    0.69645   0.66546   14.359
 4146.00    0.73959   0.67720   13.521
 4147.00    0.83348   0.68620   11.998
 4148.00    0.98793   0.68958   -1.000
 4149.00    1.12898   0.68869   -1.000
 4150.00    1.16542   0.68616   -1.000
 4151.00    1.08960   0.68287   -1.000
 4152.00    0.96175   0.67838   -1.000
 4153.00    0.87011   0.67271   11.493
 4154.00    0.87999   0.66754   -1.000
 4155.00    0.98020   0.66523   -1.000
 4156.00    1.10641   0.66693   -1.000
 4157.00    1.18255   0.67233   -1.000
 4158.00    1.21603   0.67975   -1.000
 4159.00    1.37593   0.68715   -1.000
 4160.00    1.74416   0.69317   -1.000
 4161.00    2.07556   0.69789   -1.000
 4162.00    2.11388   0.70191   -1.000
 4163.00    1.91105   0.70485   -1.000
 4164.00    1.63214   0.70565   -1.000
 4165.00    1.34883   0.70349   -1.000
 4166.00    1.10338   0.69905   -1.000
 4167.00    0.97072   0.69431   -1.000
 4168.00    0.95007   0.68976   -1.000
 4169.00    0.89135   0.68264   11.219
 4170.00    0.70146   0.66988   14.256
 4171.00    0.49549   0.65270   20.182
 4172.00    0.40916   0.63726   -1.000
 4173.00    0.45317   0.62990   22.067
 4174.00    0.58875   0.63140   16.985
 4175.00    0.78757   0.63705   12.697
 4176.00    1.00340   0.64164   -1.000
 4177.00    1.16018   0.64402   -1.000
 4178.00    1.22585   0.64672   -1.000
 4179.00    1.24967   0.65179   -1.000
 4180.00    1.27710   0.65818   -1.000
 4181.00    1.29853   0.66351   -1.000
 4182.00    1.28129   0.66722   -1.000
 4183.00    1.19467   0.67008   -1.000
 4184.00    1.03137   0.67196   -1.000
 4185.00    0.82378   0.67155   12.139
 4186.00    0.66808   0.66837   14.968
 4187.00    0.69938   0.66530   14.298
 4188.00    0.89826   0.66620   -1.000
 4189.00    1.04516   0.67199   -1.000
 4190.00    0.99679   0.68052   -1.000
 4191.00    0.81260   0.68921   12.306
 4192.00    0.68394   0.69594   14.621
 4193.00    0.82809   0.69806   12.076
 4194.00    1.18868   0.69305   -1.000
 4195.00    1.41524   0.68111   -1.000
 4196.00    1.33941   0.66583   -1.000
 4197.00    1.11747   0.65189   -1.000
 4198.00    0.96534   0.64314   -1.000
 4199.00    1.01803   0.64087   -1.000
 4200.00    1.22861   0.64315   -1.000
 4201.00    1.39136   0.64715   -1.000
 4202.00    1.35996   0.65186   -1.000
 4203.00    1.13197   0.65746   -1.000
 4204.00    0.85308   0.66436   11.722
 4205.00    0.73286   0.67239   13.645
 4206.00    0.77739   0.68011   12.864
 4207.00    0.81849   0.68589   12.218
 4208.00    0.87636   0.68907   11.411
 4209.00    1.11684   0.69048   -1.000
 4210.00    1.39351   0.69184   -1.000
 4211.00    1.34658   0.69319   -1.000
 4212.00    1.05424   0.69182   -1.000
 4213.00    0.94838   0.68501   -1.000
 4214.00    1.10237   0.67367   -1.000
 4215.00    1.22587   0.66359   -1.000
 4216.00    1.14284   0.66149   -1.000
 4217.00    0.89560   0.66864   -1.000
 4218.00    0.68600   0.68040   14.577
 4219.00    0.71226   0.69055   14.040
 4220.00    0.84460   0.69464   11.840
 4221.00    0.79357   0.69051   12.601
 4222.00    0.62611   0.67750   15.972
 4223.00    0.61699   0.65638   16.208
 4224.00    0.71845   0.63051   13.919
 4225.00    0.70605   0.60709   14.163
 4226.00    0.67106   0.59545   14.902
 4227.00    0.84248   0.60232   -1.000
 4228.00    1.08465   0.62550   -1.000
 4229.00    1.09130   0.65367   -1.000
 4230.00    0.88832   0.67444   -1.000
 4231.00    0.72208   0.68113   13.849
 4232.00    0.71995   0.67534   13.890
 4233.00    0.86577   0.66467   11.550
 4234.00    1.05700   0.65586   -1.000
 4235.00    1.18082   0.65124   -1.000
 4236.00    1.21378   0.65066   -1.000
 4237.00    1.19204   0.65264   -1.000
 4238.00    1.14740   0.65601   -1.000
 4239.00    1.12308   0.66110   -1.000
 4240.00    1.20138   0.66804   -1.000
 4241.00    1.39718   0.67586   -1.000
 4242.00    1.52774   0.68287   -1.000
 4243.00    1.42394   0.68727   -1.000
 4244.00    1.20103   0.68688   -1.000
 4245.00    1.06173   0.68060   -1.000
 4246.00    1.02817   0.66989   -1.000
 4247.00    1.02085   0.65839   -1.000
 4248.00    0.98493   0.64966   -1.000
 4249.00    0.91101   0.64506   -1.000
 4250.00    0.83708   0.64465   11.946
 4251.00    0.77991   0.64767   12.822
 4252.00    0.67592   0.65192   14.795
 4253.00    0.50873   0.65563   19.657
 4254.00    0.41971   0.65916   -1.000
 4255.00    0.49903   0.66333   20.039
 4256.00    0.60653   0.66691   16.487
 4257.00    0.62045   0.66617   16.117
 4258.00    0.64914   0.65925   15.405
 4259.00    0.81461   0.64933   12.276
 4260.00    1.06368   0.64320   -1.000
 4261.00    1.25104   0.64659   -1.000
 4262.00    1.23828   0.65935   -1.000
 4263.00    1.05356   0.67596   -1.000
 4264.00    0.96142   0.68988   -1.000
 4265.00    1.09505   0.69675   -1.000
 4266.00    1.23579   0.69500   -1.000
 4267.00    1.19744   0.68541   -1.000
 4268.00    1.06736   0.66976   -1.000
 4269.00    0.94710   0.65044   -1.000
 4270.00    0.79951   0.63065   12.508
 4271.00    0.63843   0.61467   15.664
 4272.00    0.61082   0.60656   16.371
 4273.00    0.73592   0.60734   13.589
 4274.00    0.80710   0.61577   12.390
 4275.00    0.74993   0.62979   13.335
 4276.00    0.76241   0.64573   13.116
 4277.00    0.94183   0.65909   -1.000
 4278.00    1.13131   0.66626   -1.000
 4279.00    1.20463   0.66604   -1.000
 4280.00    1.18953   0.66083   -1.000
 4281.00    1.12522   0.65442   -1.000
 4282.00    1.01086   0.64931   -1.000
 4283.00    0.90608   0.64634   -1.000
 4284.00    0.92195   0.64427   -1.000
 4285.00    0.97354   0.64100   -1.000
 4286.00    0.78894   0.63463   12.675
 4287.00    0.40039   0.62414   -1.000
 4288.00    0.20030   0.61127   -1.000
 4289.00    0.33790   0.60098   -1.000
 4290.00    0.58012   0.59887   17.238
 4291.00    0.71626   0.60578   13.961
 4292.00    0.70686   0.61656   14.147
 4293.00    0.64220   0.62440   15.572
 4294.00    0.66400   0.62578   15.060
 4295.00    0.76308   0.62082   13.105
 4296.00    0.78619   0.61027   12.720
 4297.00    0.68064   0.59490   14.692
 4298.00    0.53672   0.57611   18.632
 4299.00    0.46655   0.55773   21.434
 4300.00    0.53084   0.54499   18.838
 4301.00    0.64506   0.54010   15.503
 4302.00    0.65588   0.54212   15.247
 4303.00    0.61979   0.54829   -2.000
 4304.00    0.73924   0.55388   -2.000
 4305.00    0.99491   0.55515   -2.000
 4306.00    1.18593   0.55127   -2.000
 4307.00    1.27198   0.54466   -2.000
 4308.00    1.32818   0.54061   -2.000
 4309.00    1.23819   0.54283   -2.000
 4310.00    0.82518   0.55055   -2.000
 4311.00    0.30050   0.55999   -2.000
 4312.00    0.07780   0.56818   -2.000
 4313.00    0.16848   0.57577   -2.000
 4314.00    0.28722   0.58604   -2.000
 4315.00    0.33179   0.60102   -2.000
 4316.00    0.36273   0.61779   -2.000
 4317.00    0.37377   0.63034   -2.000
 4318.00    0.33903   0.63468   -2.000
 4319.00    0.37561   0.63047   -1.000
 4320.00    0.60200   0.61992   16.611
 4321.00    0.85062   0.60549   -1.000
 4322.00    0.87370   0.58737   -1.000
 4323.00    0.75745   0.56597   13.202
 4324.00    0.75078   0.54513   -1.000
 4325.00    0.88873   0.53112   -1.000
 4326.00    1.02901   0.52904   -1.000
 4327.00    1.00497   0.53735   -1.000
 4328.00    0.77829   0.54876   -1.000
 4329.00    0.60513   0.55590   16.525
 4330.00    0.73333   0.55559    0.000
 4331.00    0.97867   0.54955    0.000
 4332.00    1.01513   0.54031    0.000
 4333.00    0.81529   0.52840    0.000
 4334.00    0.53287   0.51219    0.000
 4335.00    0.29052   0.48891    0.000
 4336.00    0.20412   0.45713    0.000
 4337.00    0.42112   0.41938    0.000
 4338.00    0.86408   0.38211    0.000
 4339.00    0.99513   0.35336    0.000
 4340.00    0.49499   0.34058    0.000
 4341.00   -0.06034   0.34696   -2.000
 4342.00   -0.03228   0.36885   -2.000
 4343.00    0.41119   0.39902    0.000
 4344.00    0.79174   0.43100    0.000
 4345.00    0.88382   0.46045    0.000
 4346.00    0.73050   0.48559    0.000
 4347.00    0.58159   0.50586    0.000
 4348.00    0.60440   0.51980    0.000
 4349.00    0.66686   0.52576    0.000
 4350.00    0.63417   0.52464    0.000
 4351.00    0.60557   0.52155   16.513
 4352.00    0.69458   0.52346   14.397
 4353.00    0.85101   0.53372   -1.000
 4354.00    0.95380   0.55013   -1.000
 4355.00    0.90366   0.56784   -1.000
 4356.00    0.71391   0.58226   14.007
 4357.00    0.54808   0.59164   18.246
 4358.00    0.55075   0.59770   18.157
 4359.00    0.73040   0.60371   13.691
 4360.00    0.97137   0.61184   -1.000
 4361.00    1.08046   0.62183   -1.000
 4362.00    0.99728   0.63190   -1.000
 4363.00    0.88092   0.64021   -1.000
 4364.00    0.84733   0.64507   11.802
 4365.00    0.83635   0.64517   11.957
 4366.00    0.76473   0.64073   13.076
 4367.00    0.61744   0.63404   16.196
 4368.00    0.44802   0.62871   -1.000
 4369.00    0.35502   0.62678   -1.000
 4370.00    0.37450   0.62742   -1.000
 4371.00    0.44051   0.62773   -1.000
 4372.00    0.45960   0.62463   21.758
 4373.00    0.36489   0.61809   -1.000
 4374.00    0.18865   0.61230   -1.000
 4375.00    0.06207   0.61281   -1.000
 4376.00    0.07399   0.62147   -1.000
 4377.00    0.21444   0.63467   -1.000
 4378.00    0.40371   0.64594   -1.000
 4379.00    0.53087   0.64930   18.837
 4380.00    0.54964   0.64191   18.194
 4381.00    0.49880   0.62438   20.048
 4382.00    0.43658   0.60085   22.905
 4383.00    0.40827   0.57983   -1.000
 4384.00    0.42287   0.57013   23.648
 4385.00    0.45648   0.57473   21.907
 4386.00    0.49026   0.58941   20.397
 4387.00    0.52573   0.60614   19.021
 4388.00    0.59036   0.61895   16.939
 4389.00    0.72085   0.62631   13.873
 4390.00    0.90923   0.63002   -1.000
 4391.00    1.10211   0.63240   -1.000
 4392.00    1.24581   0.63362   -1.000
 4393.00    1.29708   0.63330   -1.000
 4394.00    1.21576   0.63296   -1.000
 4395.00    0.98989   0.63511   -1.000
 4396.00    0.70322   0.63984   14.220
 4397.00    0.49817   0.64390   20.073
 4398.00    0.44338   0.64398   -1.000
 4399.00    0.51146   0.63965   19.552
 4400.00    0.60817   0.63384   16.443
 4401.00    0.63773   0.62981   15.681
 4402.00    0.62681   0.62720   15.954
 4403.00    0.66576   0.62390   15.020
 4404.00    0.73040   0.62053   13.691
 4405.00    0.75697   0.61959   13.211
 4406.00    0.86060   0.62207   -1.000
 4407.00    1.17440   0.62753   -1.000
 4408.00    1.47249   0.63551   -1.000
 4409.00    1.40516   0.64501   -1.000
 4410.00    1.04335   0.65423   -1.000
 4411.00    0.71907   0.66061   13.907
 4412.00    0.58315   0.66085   17.148
 4413.00    0.60763   0.65302   16.457
 4414.00    0.71969   0.64010   13.895
 4415.00    0.86336   0.62900   -1.000
 4416.00    1.05569   0.62528   -1.000
 4417.00    1.29678   0.63049   -1.000
 4418.00    1.43398   0.64190   -1.000
 4419.00    1.32950   0.65322   -1.000
 4420.00    1.11145   0.65892   -1.000
 4421.00    0.97588   0.65803   -1.000
 4422.00    0.88619   0.65363   -1.000
 4423.00    0.74079   0.64982   13.499
 4424.00    0.62598   0.64840   15.975
 4425.00    0.64043   0.64897   15.615
 4426.00    0.65894   0.65023   15.176
 4427.00    0.53919   0.65104   18.546
 4428.00    0.38009   0.65111   -1.000
 4429.00    0.35481   0.65002   -1.000
 4430.00    0.49774   0.64811   20.091
 4431.00    0.73977   0.64540   13.518
 4432.00    0.97111   0.64078   -1.000
 4433.00    1.07447   0.63482   -1.000
 4434.00    0.96162   0.63026   -1.000
 4435.00    0.67238   0.63090   14.873
 4436.00    0.43922   0.63877   -1.000
 4437.00    0.42361   0.65101   -1.000
 4438.00    0.50038   0.66163   19.985
 4439.00    0.53346   0.66491   18.746
 4440.00    0.60211   0.65875   16.608
 4441.00    0.75386   0.64640   13.265
 4442.00    0.82414   0.63443   12.134
 4443.00    0.75440   0.62915   13.256
 4444.00    0.79012   0.63297   12.656
 4445.00    0.99159   0.64265   -1.000
 4446.00    0.95842   0.65246   -1.000
 4447.00    0.57569   0.65886   17.371
 4448.00    0.41660   0.66087   -1.000
 4449.00    0.75441   0.65911   13.255
 4450.00    1.02897   0.65562   -1.000
 4451.00    0.87907   0.65098   -1.000
 4452.00    0.69975   0.64372   14.291
 4453.00    0.81217   0.63343   12.313
 4454.00    1.01521   0.62210   -1.000
 4455.00    1.07943   0.61331   -1.000
 4456.00    1.02089   0.60926   -1.000
 4457.00    0.92872   0.60903   -1.000
 4458.00    0.85812   0.61035   -1.000
 4459.00    0.81629   0.61162   -1.000
 4460.00    0.76792   0.61254   13.022
 4461.00    0.68759   0.61464    0.000
 4462.00    0.58482   0.61953    0.000
 4463.00    0.49517   0.62571    0.000
 4464.00    0.46448   0.63059    0.000
 4465.00    0.50119   0.63283    0.000
 4466.00    0.56817   0.63184    0.000
 4467.00    0.64048   0.62872    0.000
 4468.00    0.72033   0.62603    0.000
 4469.00    0.79525   0.62657    0.000
 4470.00    0.83470   0.63160    0.000
 4471.00    0.84400   0.64010    0.000
 4472.00    0.85688   0.65007    0.000
 4473.00    0.83321   0.65888    0.000
 4474.00    0.68788   0.66460    0.000
 4475.00    0.51747   0.66730    0.000
 4476.00    0.55576   0.66738    0.000
 4477.00    0.77080   0.66335    0.000
 4478.00    0.87365   0.65324    0.000
 4479.00    0.76535   0.63771    0.000
 4480.00    0.59384   0.62129    0.000
 4481.00    0.49224   0.61148    0.000
 4482.00    0.50006   0.61363   19.998
 4483.00    0.57370   0.62605   17.431
 4484.00    0.62132   0.64224   16.095
 4485.00    0.58532   0.65486   17.085
 4486.00    0.48109   0.65896   20.786
 4487.00    0.43318   0.65444   -1.000
 4488.00    0.58160   0.64538   17.194
 4489.00    0.84102   0.63741   11.890
 4490.00    0.98712   0.63411   -1.000
 4491.00    0.98670   0.63538   -1.000
 4492.00    0.96164   0.63843   -1.000
 4493.00    0.94206   0.64020   -1.000
 4494.00    0.86465   0.64063   -1.000
 4495.00    0.68622   0.64186   14.573
 4496.00    0.44533   0.64536   -1.000
 4497.00    0.32782   0.65084   -1.000
 4498.00    0.50712   0.65597   19.719
 4499.00    0.83197   0.65866   12.020
 4500.00    1.01040   0.65944   -1.000
 4501.00    1.03552   0.66143   -1.000
 4502.00    1.06223   0.66693   -1.000
 4503.00    1.07402   0.67460   -1.000
 4504.00    0.98087   0.68126   -1.000
 4505.00    0.86213   0.68414   11.599
 4506.00    0.85067   0.68253   11.755
 4507.00    0.90109   0.67865   11.098
 4508.00    0.89207   0.67575   11.210
 4509.00    0.82331   0.67502   12.146
 4510.00    0.75992   0.67505   13.159
 4511.00    0.71718   0.67368   13.943
 4512.00    0.69383   0.66976   14.413
 4513.00    0.73106   0.66372   13.679
 4514.00    0.82429   0.65753   12.132
 4515.00    0.81768   0.65342   12.230
 4516.00    0.61782   0.65179   16.186
 4517.00    0.44300   0.65163   -1.000
 4518.00    0.53231   0.65212   18.786
 4519.00    0.79513   0.65214   12.577
 4520.00    0.99754   0.65075   -1.000
 4521.00    1.01287   0.64746   -1.000
 4522.00    0.88416   0.64254   -1.000
 4523.00    0.83716   0.63708   11.945
 4524.00    1.00315   0.63094   -1.000
 4525.00    1.17337   0.62378   -1.000
 4526.00    1.10785   0.61617   -1.000
 4527.00    0.83422   0.60889   -1.000
 4528.00    0.51751   0.60377   19.323
 4529.00    0.31404   0.60234   -1.000
 4530.00    0.31010   0.60382   -1.000
 4531.00    0.48015   0.60611   20.827
 4532.00    0.69304   0.60693   14.429
 4533.00    0.74882   0.60647   13.354
 4534.00    0.61207   0.60822   16.338
 4535.00    0.54141   0.61505   18.470
 4536.00    0.70813   0.62659   14.122
 4537.00    0.94840   0.63869   -1.000
 4538.00    1.05995   0.64650   -1.000
 4539.00    1.01352   0.64846   -1.000
 4540.00    0.88895   0.64646   -1.000
 4541.00    0.80867   0.64398   12.366
 4542.00    0.84375   0.64281   11.852
 4543.00    0.95867   0.64191   -1.000
 4544.00    1.03082   0.63994   -1.000
 4545.00    0.90916   0.63640   -1.000
 4546.00    0.66827   0.63088   14.964
 4547.00    0.65325   0.62345   15.308
 4548.00    0.93677   0.61543   -1.000
 4549.00    1.13816   0.61000   -1.000
 4550.00    1.04937   0.60929    0.000
 4551.00    0.88045   0.61111    0.000
 4552.00    0.82235   0.61235    0.000
 4553.00    0.84989   0.61157    0.000
 4554.00    0.85377   0.60974    0.000
 4555.00    0.73977   0.61037    0.000
 4556.00    0.56703   0.61566    0.000
 4557.00    0.53077   0.62426    0.000
 4558.00    0.64001   0.63373    0.000
 4559.00    0.68122   0.64192    0.000
 4560.00    0.62311   0.64678    0.000
 4561.00    0.67517   0.64716    0.000
 4562.00    0.88211   0.64317    0.000
 4563.00    1.04307   0.63708    0.000
 4564.00    0.99347   0.63282    0.000
 4565.00    0.72462   0.63327    0.000
 4566.00    0.42320   0.63854    0.000
 4567.00    0.36151   0.64538    0.000
 4568.00    0.51330   0.64963    0.000
 4569.00    0.58239   0.64918    0.000
 4570.00    0.47958   0.64448    0.000
 4571.00    0.37939   0.63935    0.000
 4572.00    0.44029   0.63792    0.000
 4573.00    0.68956   0.64011    0.000
 4574.00    0.94914   0.64352    0.000
 4575.00    0.95666   0.64603    0.000
 4576.00    0.72902   0.64591    0.000
 4577.00    0.51858   0.64262    0.000
 4578.00    0.46065   0.63666    0.000
 4579.00    0.52543   0.62906    0.000
 4580.00    0.62457   0.62136    0.000
 4581.00    0.67820   0.61493    0.000
 4582.00    0.70194   0.61035    0.000
 4583.00    0.75869   0.60821    0.000
 4584.00    0.81541   0.60888    0.000
 4585.00    0.79548   0.61171    0.000
 4586.00    0.74572   0.61606    0.000
 4587.00    0.76742   0.62091    0.000
 4588.00    0.81977   0.62473    0.000
 4589.00    0.80197   0.62659    0.000
 4590.00    0.77131   0.62617    0.000
 4591.00    0.84755   0.62423    0.000
 4592.00    0.97804   0.62258    0.000
 4593.00    1.01865   0.62217    0.000
 4594.00    0.93683   0.62278    0.000
 4595.00    0.79414   0.62433    0.000
 4596.00    0.66251   0.62626    0.000
 4597.00    0.59523   0.62777    0.000
 4598.00    0.60361   0.62851    0.000
 4599.00    0.65550   0.62814    0.000
 4600.00    0.68220   0.62730    0.000
 4601.00    0.64184   0.62722    0.000
 4602.00    0.59958   0.62816    0.000
 4603.00    0.64871   0.62984    0.000
 4604.00    0.79409   0.63207    0.000
 4605.00    0.95710   0.63500    0.000
 4606.00    1.00944   0.63901    0.000
 4607.00    0.89643   0.64392    0.000
 4608.00    0.76363   0.64860    0.000
 4609.00    0.76310   0.65121    0.000
 4610.00    0.83247   0.65097    0.000
 4611.00    0.86488   0.64866    0.000
 4612.00    0.90272   0.64557    0.000
 4613.00    0.97576   0.64301    0.000
 4614.00    0.93875   0.64127    0.000
 4615.00    0.72148   0.63936    0.000
 4616.00    0.55385   0.63714    0.000
 4617.00    0.62538   0.63480    0.000
 4618.00    0.77761   0.63269    0.000
 4619.00    0.77295   0.63260    0.000
 4620.00    0.55807   0.63512    0.000
 4621.00    0.27847   0.63874    0.000
 4622.00    0.23195   0.64211    0.000
 4623.00    0.52261   0.64409    0.000
 4624.00    0.83988   0.64378    0.000
 4625.00    0.89737   0.64178    0.000
 4626.00    0.75490   0.63931    0.000
 4627.00    0.61736   0.63663    0.000
 4628.00    0.65187   0.63409    0.000
 4629.00    0.84365   0.63291    0.000
 4630.00    0.95397   0.63322    0.000
 4631.00    0.85721   0.63324    0.000
 4632.00    0.71872   0.63175    0.000
 4633.00    0.69332   0.62907    0.000
 4634.00    0.74914   0.62603    0.000
 4635.00    0.79372   0.62341    0.000
 4636.00    0.76310   0.62146    0.000
 4637.00    0.66387   0.62032    0.000
 4638.00    0.57717   0.62030    0.000
 4639.00    0.56319   0.62153    0.000
 4640.00    0.61403   0.62400    0.000
 4641.00    0.68131   0.62663    0.000
 4642.00    0.70653   0.62737    0.000
 4643.00    0.69082   0.62509    0.000
 4644.00    0.71005   0.61963    0.000
 4645.00    0.82871   0.61198    0.000
 4646.00    1.04959   0.60500    0.000
 4647.00    1.27579   0.60162    0.000
 4648.00    1.34668   0.60292    0.000
 4649.00    1.24822   0.60799    0.000
 4650.00    1.13902   0.61417    0.000
 4651.00    1.10577   0.61886    0.000
 4652.00    1.09899   0.62067    0.000
 4653.00    1.06531   0.61935    0.000
 4654.00    0.99455   0.61674    0.000
 4655.00    0.90173   0.61561    0.000
 4656.00    0.81657   0.61781    0.000
 4657.00    0.77194   0.62378    0.000
 4658.00    0.78965   0.63154    0.000
 4659.00    0.84923   0.63753    0.000
 4660.00    0.89379   0.63916    0.000
 4661.00    0.87841   0.63580    0.000
 4662.00    0.79579   0.62854    0.000
 4663.00    0.70394   0.61930    0.000
 4664.00    0.69729   0.60910    0.000
 4665.00    0.80767   0.59791    0.000
 4666.00    0.98061   0.58728    0.000
 4667.00    1.09010   0.58063    0.000
 4668.00    1.02154   0.58011    0.000
 4669.00    0.85905   0.58523    0.000
 4670.00    0.80041   0.59373    0.000
 4671.00    0.85193   0.60231    0.000
 4672.00    0.86359   0.60885    0.000
 4673.00    0.77055   0.61353    0.000
 4674.00    0.62679   0.61713    0.000
 4675.00    0.55501   0.61975    0.000
 4676.00    0.65238   0.62043    0.000
 4677.00    0.82956   0.61829    0.000
 4678.00    0.90871   0.61405    0.000
 4679.00    0.87069   0.60951    0.000
 4680.00    0.82578   0.60638    0.000
 4681.00    0.87031   0.60589    0.000
 4682.00    1.02375   0.60815    0.000
 4683.00    1.17195   0.61165    0.000
 4684.00    1.16975   0.61473    0.000
 4685.00    1.02205   0.61660    0.000
 4686.00    0.83025   0.61691    0.000
 4687.00    0.66164   0.61596    0.000
 4688.00    0.56164   0.61446    0.000
 4689.00    0.59855   0.61288    0.000
 4690.00    0.79257   0.61165    0.000
 4691.00    1.01293   0.61166    0.000
 4692.00    1.09369   0.61320    0.000
 4693.00    1.00667   0.61561    0.000
 4694.00    0.82226   0.61785    0.000
 4695.00    0.62788   0.61856    0.000
 4696.00    0.49693   0.61643    0.000
 4697.00    0.46220   0.61141    0.000
 4698.00    0.49923   0.60517    0.000
 4699.00    0.51862   0.59949    0.000
 4700.00    0.46865   0.59481    0.000
 4701.00    0.43900   0.59113    0.000
 4702.00    0.52408   0.58908    0.000
 4703.00    0.67493   0.58950    0.000
 4704.00    0.79118   0.59169    0.000
 4705.00    0.82843   0.59366    0.000
 4706.00    0.79751   0.59418    0.000
 4707.00    0.74859   0.59366    0.000
 4708.00    0.71830   0.59360    0.000
 4709.00    0.68850   0.59544    0.000
 4710.00    0.64248   0.59919    0.000
 4711.00    0.60973   0.60297    0.000
 4712.00    0.60174   0.60498    0.000
 4713.00    0.56805   0.60515    0.000
 4714.00    0.49951   0.60532    0.000
 4715.00    0.49272   0.60729    0.000
 4716.00    0.59188   0.61098    0.000
 4717.00    0.68926   0.61532    0.000
 4718.00    0.69903   0.61938    0.000
 4719.00    0.66907   0.62213    0.000
 4720.00    0.65220   0.62309    0.000
 4721.00    0.62451   0.62290    0.000
 4722.00    0.56065   0.62247    0.000
 4723.00    0.48147   0.62202    0.000
 4724.00    0.42516   0.62067    0.000
 4725.00    0.42260   0.61689    0.000
 4726.00    0.46793   0.61001    0.000
 4727.00    0.51413   0.60157    0.000
 4728.00    0.54168   0.59415    0.000
 4729.00    0.58602   0.58942    0.000
 4730.00    0.67676   0.58809    0.000
 4731.00    0.79917   0.59018    0.000
 4732.00    0.87058   0.59417    0.000
 4733.00    0.77225   0.59797    0.000
 4734.00    0.55009   0.60042    0.000
 4735.00    0.44223   0.60093    0.000
 4736.00    0.56604   0.60057    0.000
 4737.00    0.80886   0.60132    0.000
 4738.00    0.98744   0.60315    0.000
 4739.00    0.96212   0.60499    0.000
 4740.00    0.79947   0.60657    0.000
 4741.00    0.73933   0.60803    0.000
 4742.00    0.81690   0.60938    0.000
 4743.00    0.82280   0.61059    0.000
 4744.00    0.70336   0.61164    0.000
 4745.00    0.62289   0.61273    0.000
 4746.00    0.65027   0.61364    0.000
 4747.00    0.70722   0.61403    0.000
 4748.00    0.77286   0.61413    0.000
 4749.00    0.89197   0.61395    0.000
 4750.00    0.98242   0.61271    0.000
 4751.00    0.87971   0.61006    0.000
 4752.00    0.65008   0.60641    0.000
 4753.00    0.54493   0.60234    0.000
 4754.00    0.60510   0.59881    0.000
 4755.00    0.65610   0.59671    0.000
 4756.00    0.60793   0.59653    0.000
 4757.00    0.50348   0.59779    0.000
 4758.00    0.42497   0.59909    0.000
 4759.00    0.43579   0.59872    0.000
 4760.00    0.50435   0.59534    0.000
 4761.00    0.55220   0.58910   18.109
 4762.00    0.60529   0.58200   16.521
 4763.00    0.73964   0.57593   13.520
 4764.00    0.88790   0.57200   -1.000
 4765.00    0.90618   0.57107   -1.000
 4766.00    0.80104   0.57338   -1.000
 4767.00    0.69178   0.57778   14.456
 4768.00    0.63994   0.58266   15.626
 4769.00    0.64250   0.58659   15.564
 4770.00    0.68465   0.58872   14.606
 4771.00    0.73666   0.58984   13.575
 4772.00    0.73281   0.59168   13.646
 4773.00    0.63727   0.59486   15.692
 4774.00    0.55647   0.59847   17.970
 4775.00    0.61844   0.60143   16.170
 4776.00    0.75257   0.60326   13.288
 4777.00    0.80846   0.60338   -1.000
 4778.00    0.78963   0.60169   12.664
 4779.00    0.77011   0.59921   12.985
 4780.00    0.72443   0.59678   13.804
 4781.00    0.62171   0.59420   16.085
 4782.00    0.58227   0.59146   17.174
 4783.00    0.72856   0.58927   13.726
 4784.00    0.96504   0.58746   -1.000
 4785.00    1.08684   0.58524   -1.000
 4786.00    0.96177   0.58325   -1.000
 4787.00    0.63692   0.58220   15.701
 4788.00    0.41662   0.58191   -1.000
 4789.00    0.54746   0.58298   18.266
 4790.00    0.86658   0.58592   -1.000
 4791.00    1.06951   0.59016   -1.000
 4792.00    1.04529   0.59532   -1.000
 4793.00    0.86061   0.60064   -1.000
 4794.00    0.69251   0.60447   14.440
 4795.00    0.66047   0.60546   15.141
 4796.00    0.68335   0.60334   14.634
 4797.00    0.66573   0.59884   15.021
 4798.00    0.66962   0.59364   14.934
 4799.00    0.74006   0.58993   13.512
 4800.00    0.75718   0.58893   13.207
 4801.00    0.64921   0.58994   15.403
 4802.00    0.56018   0.59092   17.851
 4803.00    0.62294   0.59022   16.053
 4804.00    0.77751   0.58781   12.862
 4805.00    0.90027   0.58495   -1.000
 4806.00    0.92035   0.58262   -1.000
 4807.00    0.85508   0.58141   -1.000
 4808.00    0.81188   0.58154   -1.000
 4809.00    0.85190   0.58255   -1.000
 4810.00    0.91525   0.58363   -1.000
 4811.00    0.97348   0.58459   -1.000
 4812.00    1.10642   0.58564   -1.000
 4813.00    1.31077   0.58701   -1.000
 4814.00    1.41381   0.58876   -1.000
 4815.00    1.31917   0.59066   -1.000
 4816.00    1.12891   0.59235   -1.000
 4817.00    0.95746   0.59344   -1.000
 4818.00    0.83110   0.59345   -1.000
 4819.00    0.75573   0.59166   13.232
 4820.00    0.74620   0.58760   13.401
 4821.00    0.76986   0.58120   12.989
 4822.00    0.74038   0.57333   13.506
 4823.00    0.63602   0.56691   15.723
 4824.00    0.53449   0.56451   18.709
 4825.00    0.49526   0.56560   20.191
 4826.00    0.50894   0.56793   19.649
 4827.00    0.52864   0.56954   18.916
 4828.00    0.50635   0.56942   19.749
 4829.00    0.47890   0.56768   20.881
 4830.00    0.55514   0.56497   18.014
 4831.00    0.72086   0.56223   13.872
 4832.00    0.82692   0.56054   -1.000
 4833.00    0.84629   0.55986   -1.000
 4834.00    0.89873   0.55917   -1.000
 4835.00    0.97626   0.55787   -1.000
 4836.00    0.92649   0.55585   -1.000
 4837.00    0.74572   0.55263   -1.000
 4838.00    0.59875   0.54821   16.701
 4839.00    0.54582   0.54365   18.321
 4840.00    0.51375   0.53993   19.465
 4841.00    0.49159   0.53704   20.342
 4842.00    0.54334   0.53466   18.405
 4843.00    0.66092   0.53289   15.130
 4844.00    0.76102   0.53116   -1.000
 4845.00    0.80103   0.52824   -1.000
 4846.00    0.79395   0.52337   -1.000
 4847.00    0.75796   0.51698   -1.000
 4848.00    0.70208   0.51045    0.000
 4849.00    0.62618   0.50469    0.000
 4850.00    0.53130   0.49900    0.000
 4851.00    0.44374   0.49227    0.000
 4852.00    0.40319   0.48357    0.000
 4853.00    0.42280   0.47203    0.000
 4854.00    0.48568   0.45796    0.000
 4855.00    0.55897   0.44297    0.000
 4856.00    0.63034   0.42728    0.000
 4857.00    0.77355   0.40926    0.000
 4858.00    1.09291   0.38796    0.000
 4859.00    1.58929   0.36513    0.000
 4860.00    2.14423   0.34603    0.000
 4861.00    2.54419   0.33775    0.000
 4862.00    2.57912   0.34313    0.000
 4863.00    2.20669   0.35928    0.000
 4864.00    1.56473   0.38154    0.000
 4865.00    0.93471   0.40498    0.000
 4866.00    0.57855   0.42529    0.000
 4867.00    0.49492   0.44047    0.000
 4868.00    0.52354   0.45057    0.000
 4869.00    0.56321   0.45594    0.000
 4870.00    0.57463   0.45820    0.000
 4871.00    0.53702   0.46103    0.000
 4872.00    0.46439   0.46683    0.000
 4873.00    0.43082   0.47493    0.000
 4874.00    0.48297   0.48379    0.000
 4875.00    0.52927   0.49259   18.894
 4876.00    0.46972   0.50085   21.289
 4877.00    0.36761   0.50851   27.203
 4878.00    0.33165   0.51597   -1.000
 4879.00    0.35553   0.52233   -1.000
 4880.00    0.37892   0.52610   26.391
 4881.00    0.37757   0.52745   -1.000
 4882.00    0.36457   0.52717   -1.000
 4883.00    0.37807   0.52563   26.450
 4884.00    0.44631   0.52357   22.406
 4885.00    0.55267   0.52203   18.094
 4886.00    0.63471   0.52135   15.755
 4887.00    0.59749   0.52099   16.737
 4888.00    0.42584   0.52026   23.483
 4889.00    0.26894   0.51916   -1.000
 4890.00    0.25679   0.51942   -1.000
 4891.00    0.34369   0.52421   -1.000
 4892.00    0.43506   0.53416   22.985
 4893.00    0.50233   0.54685   19.907
 4894.00    0.54791   0.55932   18.251
 4895.00    0.57065   0.56891   17.524
 4896.00    0.57129   0.57406   17.504
 4897.00    0.55800   0.57475   17.921
 4898.00    0.54247   0.57203   18.434
 4899.00    0.53863   0.56784   18.566
 4900.00    0.57569   0.56429   17.370
 4901.00    0.69427   0.56198   14.404
 4902.00    0.85954   0.56089   -1.000
 4903.00    0.93203   0.56182   -1.000
 4904.00    0.84923   0.56482   -1.000
 4905.00    0.71591   0.56815   13.968
 4906.00    0.64355   0.56958   15.539
 4907.00    0.65825   0.56804   15.192
 4908.00    0.74868   0.56367   13.357
 4909.00    0.89057   0.55816   -1.000
 4910.00    1.01514   0.55440   -1.000
 4911.00    1.01849   0.55436   -1.000
 4912.00    0.89911   0.55759   -1.000
 4913.00    0.79121   0.56229   -1.000
 4914.00    0.77905   0.56609   -1.000
 4915.00    0.82984   0.56612   -1.000
 4916.00    0.91528   0.56044   -1.000
 4917.00    1.04400   0.54941   -1.000
 4918.00    1.14722   0.53602   -1.000
 4919.00    1.08734   0.52454   -1.000
 4920.00    0.90447   0.51859   -1.000
 4921.00    0.82064   0.51890   -1.000
 4922.00    0.84410   0.52336   -1.000
 4923.00    0.74181   0.53015   -1.000
 4924.00    0.53496   0.53891   18.693
 4925.00    0.53512   0.54883   18.687
 4926.00    0.79393   0.55837   -1.000
 4927.00    1.03619   0.56660   -1.000
 4928.00    1.11881   0.57266   -1.000
 4929.00    1.11157   0.57525   -1.000
 4930.00    1.03792   0.57396   -1.000
 4931.00    0.85105   0.56926   -1.000
 4932.00    0.62416   0.56232   16.022
 4933.00    0.52786   0.55576   18.944
 4934.00    0.59347   0.55169   16.850
 4935.00    0.70179   0.54926   14.249
 4936.00    0.74821   0.54685   -1.000
 4937.00    0.69854   0.54458   14.316
 4938.00    0.60777   0.54413   16.453
 4939.00    0.57479   0.54708   17.398
 4940.00    0.62073   0.55317    0.000
 4941.00    0.68322   0.56054    0.000
 4942.00    0.67847   0.56745    0.000
 4943.00    0.56153   0.57245    0.000
 4944.00    0.42221   0.57471    0.000
 4945.00    0.40241   0.57517    0.000
 4946.00    0.47826   0.57561    0.000
 4947.00    0.52695   0.57661    0.000
 4948.00    0.55519   0.57776    0.000
 4949.00    0.65262   0.57866    0.000
 4950.00    0.81267   0.57862    0.000
 4951.00    0.95205   0.57665    0.000
 4952.00    1.01304   0.57234    0.000
 4953.00    1.00361   0.56578    0.000
 4954.00    1.02855   0.55703    0.000
 4955.00    1.18070   0.54624    0.000
 4956.00    1.35998   0.53559    0.000
 4957.00    1.41351   0.52992    0.000
 4958.00    1.39657   0.53190    0.000
 4959.00    1.44585   0.53931    0.000
 4960.00    1.53175   0.54832    0.000
 4961.00    1.52258   0.55593    0.000
 4962.00    1.33395   0.56015    0.000
 4963.00    1.00579   0.56020    0.000
 4964.00    0.76279   0.55697    0.000
 4965.00    0.77756   0.55263    0.000
 4966.00    0.87371   0.54898    0.000
 4967.00    0.81988   0.54672    0.000
 4968.00    0.71906   0.54626    0.000
 4969.00    0.74388   0.54766    0.000
 4970.00    0.78938   0.55056    0.000
 4971.00    0.70913   0.55431    0.000
 4972.00    0.60717   0.55816    0.000
 4973.00    0.63570   0.56143    0.000
 4974.00    0.75603   0.56322    0.000
 4975.00    0.85357   0.56284    0.000
 4976.00    0.87801   0.56004    0.000
 4977.00    0.83118   0.55496    0.000
 4978.00    0.74203   0.54820    0.000
 4979.00    0.66287   0.54013    0.000
 4980.00    0.65997   0.53071    0.000
 4981.00    0.73815   0.52082    0.000
 4982.00    0.79195   0.51304    0.000
 4983.00    0.75491   0.50995    0.000
 4984.00    0.70964   0.51240    0.000
 4985.00    0.73194   0.51953    0.000
 4986.00    0.77409   0.52893    0.000
 4987.00    0.77964   0.53724    0.000
 4988.00    0.76815   0.54227    0.000
 4989.00    0.76963   0.54397    0.000
 4990.00    0.77581   0.54379    0.000
 4991.00    0.76162   0.54348    0.000
 4992.00    0.70664   0.54376    0.000
 4993.00    0.62481   0.54476    0.000
 4994.00    0.57053   0.54628    0.000
 4995.00    0.55970   0.54725    0.000
 4996.00    0.53970   0.54653    0.000
 4997.00    0.50658   0.54362    0.000
 4998.00    0.54705   0.53849    0.000
 4999.00    0.67667   0.53198    0.000
 5000.00    0.78635   0.52563    0.000
 5001.00    0.85355   0.52076    0.000
 5002.00    1.02203   0.51753    0.000
 5003.00    1.41847   0.51494    0.000
 5004.00    2.05196   0.51227    0.000
 5005.00    2.79880   0.51048    0.000
 5006.00    3.42614   0.51140    0.000
 5007.00    3.72332   0.51523    0.000
 5008.00    3.57926   0.51997    0.000
 5009.00    3.04802   0.52308    0.000
 5010.00    2.34241   0.52285    0.000
 5011.00    1.69198   0.51908    0.000
 5012.00    1.26218   0.51344    0.000
 5013.00    1.07950   0.50824    0.000
 5014.00    1.03389   0.50499    0.000
 5015.00    0.99473   0.50339    0.000
 5016.00    0.87598   0.50219    0.000
 5017.00    0.70360   0.50120    0.000
 5018.00    0.58809   0.50157    0.000
 5019.00    0.55724   0.50372    0.000
 5020.00    0.54294   0.50700    0.000
 5021.00    0.52109   0.51099    0.000
 5022.00    0.52555   0.51558    0.000
 5023.00    0.55162   0.52009    0.000
 5024.00    0.55549   0.52345    0.000
 5025.00    0.53794   0.52518    0.000
 5026.00    0.54466   0.52557    0.000
 5027.00    0.60030   0.52599    0.000
 5028.00    0.69481   0.52758    0.000
 5029.00    0.79674   0.53027   -1.000
 5030.00    0.86641   0.53374   -1.000
 5031.00    0.87871   0.53734   -1.000
 5032.00    0.83028   0.53962   -1.000
 5033.00    0.74234   0.53897   -1.000
 5034.00    0.65876   0.53501   15.180
 5035.00    0.63907   0.52911   15.648
 5036.00    0.71466   0.52274   -1.000
 5037.00    0.80431   0.51596   -1.000
 5038.00    0.79041   0.50853   -1.000
 5039.00    0.70269   0.50136   -1.000
 5040.00    0.65424   0.49686   15.285
 5041.00    0.65105   0.49790   15.360
 5042.00    0.63203   0.50501   15.822
 5043.00    0.60584   0.51577   16.506
 5044.00    0.61235   0.52682   16.330
 5045.00    0.61609   0.53489   16.231
 5046.00    0.55852   0.53763   17.904
 5047.00    0.47109   0.53497   21.228
 5048.00    0.43243   0.52923   23.125
 5049.00    0.47302   0.52338   21.141
 5050.00    0.56686   0.51954   17.641
 5051.00    0.64509   0.51889   15.502
 5052.00    0.65697   0.52155   15.221
 5053.00    0.64726   0.52615   15.450
 5054.00    0.66964   0.53101   14.933
 5055.00    0.66364   0.53526   15.068
 5056.00    0.57107   0.53888   17.511
 5057.00    0.49599   0.54201   20.162
 5058.00    0.57083   0.54459   17.518
 5059.00    0.77277   0.54654   -1.000
 5060.00    0.97627   0.54745   -1.000
 5061.00    1.04757   0.54643   -1.000
 5062.00    0.95470   0.54274   -1.000
 5063.00    0.85922   0.53667   -1.000
 5064.00    0.90000   0.53006   -1.000
 5065.00    0.97361   0.52498   -1.000
 5066.00    0.93661   0.52201   -1.000
 5067.00    0.81946   0.52093   -1.000
 5068.00    0.71331   0.52136   -1.000
 5069.00    0.64499   0.52232   15.504
 5070.00    0.60127   0.52245   16.632
 5071.00    0.56313   0.52164   17.758
 5072.00    0.52864   0.52087   18.917
 5073.00    0.52530   0.52049   19.037
 5074.00    0.56737   0.52011   17.625
 5075.00    0.62463   0.51939   16.010
 5076.00    0.66335   0.51764   15.075
 5077.00    0.67786   0.51379   14.752
 5078.00    0.67006   0.50804   14.924
 5079.00    0.63446   0.50267   15.761
 5080.00    0.57299   0.50005   17.452
 5081.00    0.50581   0.50070   19.770
 5082.00    0.46790   0.50398   21.372
 5083.00    0.49915   0.50905   20.034
 5084.00    0.59827   0.51475   16.715
 5085.00    0.70359   0.51967   -1.000
 5086.00    0.75683   0.52317   -1.000
 5087.00    0.74462   0.52563   -1.000
 5088.00    0.70544   0.52757   -1.000
 5089.00    0.71340   0.52926   -1.000
 5090.00    0.77450   0.53105   -1.000
 5091.00    0.79927   0.53307   -1.000
 5092.00    0.76207   0.53467   -1.000
 5093.00    0.74933   0.53473   -1.000
 5094.00    0.77392   0.53231   -1.000
 5095.00    0.72289   0.52717   -1.000
 5096.00    0.55980   0.52013   17.864
 5097.00    0.39013   0.51297   25.633
 5098.00    0.30959   0.50793   -1.000
 5099.00    0.33474   0.50670   -1.000
 5100.00    0.41319   0.50914   24.202
 5101.00    0.45597   0.51347   21.931
 5102.00    0.44285   0.51755   22.581
 5103.00    0.43838   0.51989   22.811
 5104.00    0.48656   0.51993   20.552
 5105.00    0.57381   0.51788   17.427
 5106.00    0.64854   0.51467   15.419
 5107.00    0.65025   0.51170   15.379
 5108.00    0.58118   0.50996   17.206
 5109.00    0.51270   0.50992   19.505
 5110.00    0.52260   0.51193   19.135
 5111.00    0.64979   0.51552   15.390
 5112.00    0.82378   0.51969   -1.000
 5113.00    0.90317   0.52368   -1.000
 5114.00    0.85212   0.52710   -1.000
 5115.00    0.74366   0.52992   -1.000
 5116.00    0.61828   0.53204   16.174
 5117.00    0.47601   0.53294   21.008
 5118.00    0.36486   0.53198   -1.000
 5119.00    0.35813   0.52881   -1.000
 5120.00    0.43680   0.52362   22.894
 5121.00    0.51177   0.51708   19.540
 5122.00    0.55072   0.51017   18.158
 5123.00    0.57708   0.50424   17.329
 5124.00    0.59567   0.50030   16.788
 5125.00    0.59628   0.49847   16.771
 5126.00    0.59919   0.49818   16.689
 5127.00    0.63882   0.49878   15.654
 5128.00    0.70952   0.50000   -1.000
 5129.00    0.77568   0.50186   -1.000
 5130.00    0.81445   0.50426   -1.000
 5131.00    0.82759   0.50677   -1.000
 5132.00    0.84572   0.50902   -1.000
 5133.00    0.89369   0.51085   -1.000
 5134.00    0.93003   0.51176   -1.000
 5135.00    0.88801   0.51079   -1.000
 5136.00    0.76264   0.50767   -1.000
 5137.00    0.60042   0.50322   16.655
 5138.00    0.45791   0.49886   21.838
 5139.00    0.38666   0.49603   25.863
 5140.00    0.41954   0.49479   23.835
 5141.00    0.54963   0.49445   18.194
 5142.00    0.70523   0.49500   -1.000
 5143.00    0.79630   0.49620   -1.000
 5144.00    0.78352   0.49720   -1.000
 5145.00    0.67502   0.49756   -1.000
 5146.00    0.51013   0.49759   19.603
 5147.00    0.36456   0.49778   27.430
 5148.00    0.35250   0.49819   -1.000
 5149.00    0.52360   0.49828   19.098
 5150.00    0.74982   0.49773   -1.000
 5151.00    0.86552   0.49680   -1.000
 5152.00    0.83979   0.49607   -1.000
 5153.00    0.73762   0.49651   -1.000
 5154.00    0.65066   0.49898   15.369
 5155.00    0.62091   0.50341   16.105
 5156.00    0.58096   0.50881   17.213
 5157.00    0.48617   0.51368   20.569
 5158.00    0.43716   0.51685   22.875
 5159.00    0.53158   0.51773   18.812
 5160.00    0.72077   0.51605   -1.000
 5161.00    0.88045   0.51188   -1.000
 5162.00    0.89532   0.50532   -1.000
 5163.00    0.74964   0.49562   -1.000
 5164.00    0.57850   0.48187   17.286
 5165.00    0.49272   0.46469   20.295
 5166.00    0.44982   0.44708   22.231
 5167.00    0.39304   0.43317   25.443
 5168.00    0.35624   0.42544   28.071
 5169.00    0.38097   0.42295   26.249
 5170.00    0.45346   0.42298   22.053
 5171.00    0.53240   0.42460   18.783
 5172.00    0.57429   0.42960   -1.000
 5173.00    0.55379   0.43938   18.057
 5174.00    0.47851   0.45276   20.898
 5175.00    0.40214   0.46700   24.867
 5176.00    0.41470   0.47927   24.114
 5177.00    0.53563   0.48732   18.670
 5178.00    0.67146   0.48974   -1.000
 5179.00    0.74607   0.48611   -1.000
 5180.00    0.76571   0.47690   -1.000
 5181.00    0.75221   0.46366   -1.000
 5182.00    0.70912   0.45011   -1.000
 5183.00    0.64655   0.44157   -1.000
 5184.00    0.59318   0.44130   16.858
 5185.00    0.58707   0.44823   17.034
 5186.00    0.65968   0.45862   -1.000
 5187.00    0.78561   0.46854   -1.000
 5188.00    0.87800   0.47553   -1.000
 5189.00    0.87172   0.47835   -1.000
 5190.00    0.76510   0.47714    0.000
 5191.00    0.63330   0.47408    0.000
 5192.00    0.59247   0.47172    0.000
 5193.00    0.64107   0.47099    0.000
 5194.00    0.64972   0.47181    0.000
 5195.00    0.56503   0.47410    0.000
 5196.00    0.45883   0.47767    0.000
 5197.00    0.41690   0.48205    0.000
 5198.00    0.48180   0.48648    0.000
 5199.00    0.60509   0.48989    0.000
 5200.00    0.67544   0.49119    0.000
 5201.00    0.65955   0.48969    0.000
 5202.00    0.61864   0.48519    0.000
 5203.00    0.61382   0.47814    0.000
 5204.00    0.66734   0.47007    0.000
 5205.00    0.74097   0.46305    0.000
 5206.00    0.76830   0.45847    0.000
 5207.00    0.75958   0.45708    0.000
 5208.00    0.78190   0.45944    0.000
 5209.00    0.83011   0.46531    0.000
 5210.00    0.83580   0.47342    0.000
 5211.00    0.77691   0.48189   -1.000
 5212.00    0.68991   0.48852   -1.000
 5213.00    0.62955   0.49178   15.884
 5214.00    0.63125   0.49179   15.842
 5215.00    0.65155   0.49035   15.348
 5216.00    0.61421   0.48982   16.281
 5217.00    0.53628   0.49156   18.647
 5218.00    0.49425   0.49531   20.233
 5219.00    0.49971   0.49960   20.012
 5220.00    0.51342   0.50257   19.477
 5221.00    0.52294   0.50252   19.123
 5222.00    0.54271   0.49842   18.426
 5223.00    0.58525   0.49025   17.087
 5224.00    0.64998   0.47932   -1.000
 5225.00    0.71387   0.46848   -1.000
 5226.00    0.74410   0.46156   -1.000
 5227.00    0.72213   0.46096   -1.000
 5228.00    0.64907   0.46590   -1.000
 5229.00    0.54705   0.47332   18.280
 5230.00    0.44605   0.47975   22.419
 5231.00    0.36403   0.48291   27.470
 5232.00    0.31225   0.48311   -1.000
 5233.00    0.30584   0.48248   -1.000
 5234.00    0.34168   0.48318   -1.000
 5235.00    0.36969   0.48617   27.050
 5236.00    0.35521   0.49085   28.152
 5237.00    0.35924   0.49593   27.836
 5238.00    0.44927   0.50023   22.259
 5239.00    0.58097   0.50313   17.213
 5240.00    0.67123   0.50459   14.898
 5241.00    0.69923   0.50496   -1.000
 5242.00    0.67948   0.50487   -1.000
 5243.00    0.61972   0.50456   16.136
 5244.00    0.53675   0.50344   18.631
 5245.00    0.47574   0.50095   21.020
 5246.00    0.47981   0.49745   20.841
 5247.00    0.55667   0.49380   17.964
 5248.00    0.67782   0.49062   -1.000
 5249.00    0.78415   0.48843   -1.000
 5250.00    0.81980   0.48764   -1.000
 5251.00    0.76393   0.48807   -1.000
 5252.00    0.63731   0.48909   15.691
 5253.00    0.50094   0.49033   19.962
 5254.00    0.41441   0.49215   24.131
 5255.00    0.40142   0.49507   24.911
 5256.00    0.45659   0.49874   21.901
 5257.00    0.55447   0.50184   18.035
 5258.00    0.66102   0.50260   15.128
 5259.00    0.74137   0.49954   -1.000
 5260.00    0.75585   0.49213   -1.000
 5261.00    0.66584   0.48118   -1.000
 5262.00    0.49805   0.46856   20.078
 5263.00    0.36942   0.45659   27.069
 5264.00    0.35528   0.44727   28.147
 5265.00    0.41527   0.44170   24.081
 5266.00    0.48625   0.43930   20.566
 5267.00    0.54034   0.43808   18.507
 5268.00    0.56408   0.43718   17.728
 5269.00    0.54713   0.43794   18.277
 5270.00    0.49922   0.44156   20.031
 5271.00    0.45271   0.44748   22.089
 5272.00    0.42359   0.45414   23.608
 5273.00    0.39917   0.46020   25.052
 5274.00    0.38415   0.46547   26.031
 5275.00    0.41359   0.47104   24.178
 5276.00    0.49864   0.47742   20.055
 5277.00    0.60415   0.48362   16.552
 5278.00    0.67125   0.48803   -1.000
 5279.00    0.64398   0.48950   15.528
 5280.00    0.53551   0.48806   18.674
 5281.00    0.43361   0.48499   23.062
 5282.00    0.40476   0.48242   24.706
 5283.00    0.45445   0.48257   22.005
 5284.00    0.53528   0.48636   18.682
 5285.00    0.57212   0.49280   17.479
 5286.00    0.53966   0.49988   18.530
 5287.00    0.47732   0.50591   20.950
 5288.00    0.43685   0.51011   22.891
 5289.00    0.45438   0.51240   22.008
 5290.00    0.52382   0.51301   19.091
 5291.00    0.60010   0.51217   16.664
 5292.00    0.63808   0.51003   15.672
 5293.00    0.61258   0.50647   16.324
 5294.00    0.53862   0.50114   18.566
 5295.00    0.46296   0.49416   21.600
 5296.00    0.42227   0.48684   23.682
 5297.00    0.43364   0.48126   23.061
 5298.00    0.50297   0.47882   19.882
 5299.00    0.62024   0.47948   16.123
 5300.00    0.74170   0.48239   -1.000
 5301.00    0.80416   0.48675   -1.000
 5302.00    0.77137   0.49182   -1.000
 5303.00    0.65789   0.49674   15.200
 5304.00    0.55417   0.50074   18.045
 5305.00    0.56599   0.50341   17.668
 5306.00    0.67017   0.50496   14.922
 5307.00    0.75352   0.50600   -1.000
 5308.00    0.76415   0.50692   -1.000
 5309.00    0.72179   0.50764   -1.000
 5310.00    0.67057   0.50780   14.913
 5311.00    0.64795   0.50697   15.433
 5312.00    0.64570   0.50494   15.487
 5313.00    0.63235   0.50177   15.814
 5314.00    0.60705   0.49778   16.473
 5315.00    0.58937   0.49391   16.967
 5316.00    0.58400   0.49144   17.123
 5317.00    0.57768   0.49088   17.310
 5318.00    0.54561   0.49179   18.328
 5319.00    0.47953   0.49311   20.854
 5320.00    0.42658   0.49357   23.442
 5321.00    0.42980   0.49209   23.266
 5322.00    0.43542   0.48830   22.966
 5323.00    0.37810   0.48275   26.448
 5324.00    0.31577   0.47602   -1.000
 5325.00    0.33733   0.46816   29.644
 5326.00    0.41638   0.45971   24.016
 5327.00    0.47121   0.45302   21.222
 5328.00    0.46705   0.45084   21.411
 5329.00    0.41570   0.45412   24.056
 5330.00    0.35691   0.46160   28.018
 5331.00    0.32568   0.47082   -1.000
 5332.00    0.31868   0.47941   -1.000
 5333.00    0.32131   0.48579   -1.000
 5334.00    0.34044   0.48924   -1.000
 5335.00    0.38551   0.48984   25.940
 5336.00    0.44630   0.48815   22.407
 5337.00    0.50918   0.48480   19.640
 5338.00    0.57440   0.48069   17.409
 5339.00    0.64189   0.47732   -1.000
 5340.00    0.69796   0.47615   -1.000
 5341.00    0.73428   0.47750   -1.000
 5342.00    0.76255   0.48051   -1.000
 5343.00    0.77880   0.48370   -1.000
 5344.00    0.73697   0.48587   -1.000
 5345.00    0.60182   0.48667   16.616
 5346.00    0.39429   0.48638   25.362
 5347.00    0.18682   0.48568   -1.000
 5348.00    0.08464   0.48567   -1.000
 5349.00    0.13044   0.48719   -1.000
 5350.00    0.24882   0.49022   -1.000
 5351.00    0.36201   0.49416   27.624
 5352.00    0.46746   0.49846   21.392
 5353.00    0.57926   0.50268   17.263
 5354.00    0.68472   0.50641   -1.000
 5355.00    0.74715   0.50936   -1.000
 5356.00    0.71931   0.51130   -1.000
 5357.00    0.60570   0.51196   16.510
 5358.00    0.48660   0.51106   20.551
 5359.00    0.43365   0.50841   23.060
 5360.00    0.46227   0.50412   21.632
 5361.00    0.55173   0.49878   18.125
 5362.00    0.66186   0.49326   -1.000
 5363.00    0.75529   0.48826   -1.000
 5364.00    0.80668   0.48430   -1.000
 5365.00    0.79050   0.48122   -1.000
 5366.00    0.68678   0.47838   -1.000
 5367.00    0.53748   0.47497   18.605
 5368.00    0.44776   0.47069   22.333
 5369.00    0.46929   0.46646   21.309
 5370.00    0.56124   0.46420   17.818
 5371.00    0.65567   0.46557   -1.000
 5372.00    0.69746   0.47070   -1.000
 5373.00    0.68483   0.47827   -1.000
 5374.00    0.66949   0.48612   -1.000
 5375.00    0.69422   0.49233   -1.000
 5376.00    0.76569   0.49599   -1.000
 5377.00    0.84794   0.49708   -1.000
 5378.00    0.87433   0.49609   -1.000
 5379.00    0.79565   0.49387   -1.000
 5380.00    0.61053   0.49124   16.379
 5381.00    0.40599   0.48892   24.631
 5382.00    0.31085   0.48765   -1.000
 5383.00    0.31117   0.48778   -1.000
 5384.00    0.27469   0.48891   -1.000
 5385.00    0.19815   0.49023   -1.000
 5386.00    0.20163   0.49089   -1.000
 5387.00    0.29811   0.49024   -1.000
 5388.00    0.38737   0.48822   25.815
 5389.00    0.42163   0.48533   23.718
 5390.00    0.42625   0.48215   23.461
 5391.00    0.43327   0.47916   23.080
 5392.00    0.45507   0.47653   21.975
 5393.00    0.46528   0.47405   21.493
 5394.00    0.42862   0.47130   -2.000
 5395.00    0.37841   0.46842   -2.000
 5396.00    0.38607   0.46639   -2.000
 5397.00    0.45560   0.46601   -2.000
 5398.00    0.53605   0.46715   -2.000
 5399.00    0.59726   0.46910   -2.000
 5400.00    0.63009   0.47063   -2.000
 5401.00    0.61581   0.47025   -2.000
 5402.00    0.55028   0.46722   -2.000
 5403.00    0.49830   0.46231   -2.000
 5404.00    0.52848   0.45736   -2.000
 5405.00    0.58266   0.45419   -2.000
 5406.00    0.56406   0.45349   -2.000
 5407.00    0.52249   0.45468   -2.000
 5408.00    0.56152   0.45696   -2.000
 5409.00    0.64028   0.46003   -1.000
 5410.00    0.64742   0.46377   -1.000
 5411.00    0.56369   0.46785   17.740
 5412.00    0.44085   0.47180   22.683
 5413.00    0.33232   0.47532   -1.000
 5414.00    0.27161   0.47846   -1.000
 5415.00    0.25728   0.48123   -1.000
 5416.00    0.26454   0.48347   -1.000
 5417.00    0.26494   0.48492   -1.000
 5418.00    0.24861   0.48539   -1.000
 5419.00    0.24637   0.48487   -1.000
 5420.00    0.28929   0.48357   -1.000
 5421.00    0.35911   0.48156   27.847
 5422.00    0.42141   0.47924   23.730
 5423.00    0.46890   0.47752   21.326
 5424.00    0.49915   0.47698   20.034
 5425.00    0.48773   0.47724   20.503
 5426.00    0.41961   0.47712   23.832
 5427.00    0.32216   0.47552   -1.000
 5428.00    0.23438   0.47266   -1.000
 5429.00    0.17458   0.46960   -1.000
 5430.00    0.15811   0.46697   -1.000
 5431.00    0.21231   0.46500   -1.000
 5432.00    0.33120   0.46377   -1.000
 5433.00    0.44187   0.46341   22.631
 5434.00    0.48327   0.46441   20.692
 5435.00    0.47207   0.46728   21.183
 5436.00    0.46347   0.47207   21.576
 5437.00    0.50804   0.47811   19.684
 5438.00    0.59749   0.48420   16.737
 5439.00    0.63979   0.48915   15.630
 5440.00    0.57501   0.49208   17.391
 5441.00    0.45234   0.49246   22.107
 5442.00    0.34880   0.48996   -1.000
 5443.00    0.30770   0.48468   -1.000
 5444.00    0.33785   0.47754   -1.000
 5445.00    0.41730   0.47049   23.963
 5446.00    0.50476   0.46576   19.811
 5447.00    0.55441   0.46446   18.037
 5448.00    0.56111   0.46619   17.822
 5449.00    0.57328   0.46944   17.444
 5450.00    0.60955   0.47222   16.406
 5451.00    0.62252   0.47292   16.064
 5452.00    0.57062   0.47085   17.525
 5453.00    0.46017   0.46672   21.731
 5454.00    0.34944   0.46258   28.617
 5455.00    0.32497   0.46052   -1.000
 5456.00    0.38124   0.46130   26.230
 5457.00    0.39805   0.46425   25.123
 5458.00    0.31584   0.46769   -1.000
 5459.00    0.19648   0.46986   -1.000
 5460.00    0.11589   0.46980   -1.000
 5461.00    0.10971   0.46794   -1.000
 5462.00    0.15771   0.46577   -1.000
 5463.00    0.20070   0.46452   -1.000
 5464.00    0.23036   0.46467   -1.000
 5465.00    0.29883   0.46614   -1.000
 5466.00    0.41524   0.46830   24.082
 5467.00    0.52512   0.47028   19.043
 5468.00    0.58298   0.47145   17.153
 5469.00    0.57695   0.47157   17.333
 5470.00    0.51780   0.47055   19.312
 5471.00    0.43291   0.46838   23.100
 5472.00    0.36013   0.46526   27.768
 5473.00    0.33397   0.46128   29.943
 5474.00    0.35015   0.45667   28.559
 5475.00    0.36658   0.45245   27.279
 5476.00    0.33914   0.44996   29.486
 5477.00    0.24824   0.44970   -1.000
 5478.00    0.13988   0.45121   -1.000
 5479.00    0.09991   0.45364   -1.000
 5480.00    0.15594   0.45637   -1.000
 5481.00    0.26818   0.45917   -1.000
 5482.00    0.37538   0.46208   26.640
 5483.00    0.43387   0.46502   23.048
 5484.00    0.47882   0.46741   20.885
 5485.00    0.57972   0.46870   17.250
 5486.00    0.70812   0.46889   -1.000
 5487.00    0.77361   0.46848   -1.000
 5488.00    0.76690   0.46805   -1.000
 5489.00    0.74514   0.46806   -1.000
 5490.00    0.73626   0.46849   -1.000
 5491.00    0.73466   0.46899   -1.000
 5492.00    0.73301   0.46930   -1.000
 5493.00    0.72975   0.46926   -1.000
 5494.00    0.73048   0.46872   -1.000
 5495.00    0.73766   0.46773   -1.000
 5496.00    0.73288   0.46670   -1.000
 5497.00    0.69540   0.46586   -1.000
 5498.00    0.63755   0.46501   -1.000
 5499.00    0.58581   0.46389   17.070
 5500.00    0.54179   0.46250   18.457
 5501.00    0.49698   0.46108   20.122
 5502.00    0.46385   0.45984   21.559
 5503.00    0.46110   0.45886   21.687
 5504.00    0.48579   0.45810   20.585
 5505.00    0.51962   0.45768   -2.000
 5506.00    0.54308   0.45769   -2.000
 5507.00    0.53395   0.45798   -2.000
 5508.00    0.46795   0.45829   -2.000
 5509.00    0.39788   0.45823   -2.000
 5510.00    0.53534   0.45756   -2.000
 5511.00    1.01138   0.45658   -2.000
 5512.00    1.59449   0.45596   -2.000
 5513.00    1.89217   0.45635   -2.000
 5514.00    1.62800   0.45806   -2.000
 5515.00    0.78107   0.46095   -2.000
 5516.00   -0.31375   0.46452   -2.000
 5517.00   -1.16615   0.46805   -2.000
 5518.00   -1.37045   0.47089   -2.000
 5519.00   -0.85932   0.47269   -2.000
 5520.00   -0.08490   0.47338   -2.000
 5521.00    0.43759   0.47301   -2.000
 5522.00    0.56281   0.47161   -2.000
 5523.00    0.41021   0.46908   -2.000
 5524.00    0.21680   0.46542   -2.000
 5525.00    0.15323   0.46091   -2.000
 5526.00    0.19289   0.45646   -2.000
 5527.00    0.25017   0.45341   -2.000
 5528.00    0.29752   0.45269   -1.000
 5529.00    0.34227   0.45418   29.217
 5530.00    0.39932   0.45694   25.043
 5531.00    0.46834   0.45963   21.352
 5532.00    0.52204   0.46126   19.156
 5533.00    0.53362   0.46175   18.740
 5534.00    0.49681   0.46182   20.129
 5535.00    0.42744   0.46222   23.395
 5536.00    0.36004   0.46338   27.775
 5537.00    0.32472   0.46526   -1.000
 5538.00    0.33276   0.46742   -1.000
 5539.00    0.37830   0.46917   26.434
 5540.00    0.44282   0.46995   22.583
 5541.00    0.51145   0.46960   19.552
 5542.00    0.57785   0.46842   17.305
 5543.00    0.62013   0.46703   16.126
 5544.00    0.60030   0.46607   16.658
 5545.00    0.52920   0.46607   18.896
 5546.00    0.47917   0.46710   20.869
 5547.00    0.48184   0.46879   20.754
 5548.00    0.49622   0.47058   20.152
 5549.00    0.49824   0.47184   20.071
 5550.00    0.50888   0.47214   19.651
 5551.00    0.52834   0.47138   18.927
 5552.00    0.52353   0.46987   19.101
 5553.00    0.50032   0.46820   19.987
 5554.00    0.51382   0.46684   19.462
 5555.00    0.58642   0.46604   17.053
 5556.00    0.68350   0.46576   -1.000
 5557.00    0.74927   0.46576   -1.000
 5558.00    0.73903   0.46566   -1.000
 5559.00    0.68098   0.46518   -1.000
 5560.00    0.66109   0.46416   -1.000
 5561.00    0.69817   0.46264   -1.000
 5562.00    0.73411   0.46083   -1.000
 5563.00    0.74251   0.45898   -1.000
 5564.00    0.74301   0.45735   -1.000
 5565.00    0.73472   0.45610   -1.000
 5566.00    0.69400   0.45520   -1.000
 5567.00    0.62883   0.45457   -1.000
 5568.00    0.57873   0.45419   17.279
 5569.00    0.56943   0.45390   17.561
 5570.00    0.59870   0.45358   16.703
 5571.00    0.63484   0.45342   -1.000
 5572.00    0.64130   0.45366   -1.000
 5573.00    0.63703   0.45432   -1.000
 5574.00    0.67659   0.45542   -1.000
 5575.00    0.76765   0.45687   -1.000
 5576.00    0.86699   0.45841   -1.000
 5577.00    0.91715   0.45981   -1.000
 5578.00    0.87649   0.46087   -1.000
 5579.00    0.76335   0.46137   -1.000
 5580.00    0.63864   0.46121   -1.000
 5581.00    0.55089   0.46034   18.152
 5582.00    0.51509   0.45856   19.414
 5583.00    0.49616   0.45558   20.155
 5584.00    0.45131   0.45124   22.158
 5585.00    0.41045   0.44590   24.364
 5586.00    0.42450   0.44049   23.557
 5587.00    0.45259   0.43629   22.095
 5588.00    0.41842   0.43432   23.900
 5589.00    0.33544   0.43477   29.812
 5590.00    0.28119   0.43695   -1.000
 5591.00    0.32168   0.43978   31.087
 5592.00    0.46825   0.44244   21.356
 5593.00    0.63503   0.44465   -1.000
 5594.00    0.70956   0.44628   -1.000
 5595.00    0.66204   0.44710   -1.000
 5596.00    0.53863   0.44695   18.566
 5597.00    0.42829   0.44581   23.348
 5598.00    0.41179   0.44383   24.284
 5599.00    0.50203   0.44158   19.919
 5600.00    0.65369   0.43990   -1.000
 5601.00    0.78796   0.43967   -1.000
 5602.00    0.84124   0.44143   -1.000
 5603.00    0.81655   0.44511   -1.000
 5604.00    0.75180   0.45007   -1.000
 5605.00    0.67743   0.45530   -1.000
 5606.00    0.61306   0.45977   -1.000
 5607.00    0.56826   0.46293   17.597
 5608.00    0.53762   0.46468   18.601
 5609.00    0.49851   0.46520   20.060
 5610.00    0.44076   0.46451   22.688
 5611.00    0.39149   0.46232   25.544
 5612.00    0.37306   0.45839   26.805
 5613.00    0.36704   0.45320   27.245
 5614.00    0.35941   0.44797   27.823
 5615.00    0.37787   0.44405   26.464
 5616.00    0.44513   0.44234   22.465
 5617.00    0.54001   0.44289   18.518
 5618.00    0.62165   0.44494   -1.000
 5619.00    0.65623   0.44732   -1.000
 5620.00    0.65630   0.44898   -1.000
 5621.00    0.69495   0.44932   -1.000
 5622.00    0.79877   0.44843   -1.000
 5623.00    0.88695   0.44697   -1.000
 5624.00    0.89533   0.44581   -1.000
 5625.00    0.85335   0.44569   -1.000
 5626.00    0.80739   0.44695   -1.000
 5627.00    0.76864   0.44931   -1.000
 5628.00    0.72230   0.45211   -1.000
 5629.00    0.64202   0.45461   -1.000
 5630.00    0.53035   0.45628   18.855
 5631.00    0.43233   0.45684   23.130
 5632.00    0.37790   0.45629   26.462
 5633.00    0.35755   0.45479   27.968
 5634.00    0.36978   0.45267   27.043
 5635.00    0.43813   0.45037   22.824
 5636.00    0.56490   0.44829   17.702
 5637.00    0.71275   0.44665   -1.000
 5638.00    0.83436   0.44553   -1.000
 5639.00    0.89212   0.44493   -1.000
 5640.00    0.87887   0.44480   -1.000
 5641.00    0.82023   0.44509   -1.000
 5642.00    0.74436   0.44584   -1.000
 5643.00    0.66669   0.44702   -1.000
 5644.00    0.58344   0.44849   17.140
 5645.00    0.47919   0.45002   20.869
 5646.00    0.36497   0.45131   27.399
 5647.00    0.28231   0.45219   -1.000
 5648.00    0.26168   0.45266   -1.000
 5649.00    0.30677   0.45282   -1.000
 5650.00    0.39583   0.45270   25.263
 5651.00    0.48928   0.45220   20.438
 5652.00    0.55221   0.45114   18.109
 5653.00    0.56499   0.44935   17.699
 5654.00    0.53132   0.44667   18.821
 5655.00    0.47751   0.44317   20.942
 5656.00    0.44230   0.43942   22.609
 5657.00    0.45898   0.43620   21.788
 5658.00    0.51468   0.43408   19.430
 5659.00    0.56353   0.43330   17.745
 5660.00    0.59321   0.43384   -1.000
 5661.00    0.62204   0.43534   -1.000
 5662.00    0.64386   0.43734   -1.000
 5663.00    0.63173   0.43946   -1.000
 5664.00    0.58280   0.44140   17.159
 5665.00    0.52287   0.44291   19.125
 5666.00    0.48979   0.44388   20.417
 5667.00    0.51031   0.44446   19.596
 5668.00    0.55962   0.44503   17.869
 5669.00    0.58936   0.44601   16.968
 5670.00    0.60420   0.44756   -1.000
 5671.00    0.64308   0.44948   -1.000
 5672.00    0.70907   0.45139   -1.000
 5673.00    0.76604   0.45294   -1.000
 5674.00    0.76140   0.45390   -1.000
 5675.00    0.67114   0.45423   -1.000
 5676.00    0.56921   0.45398   17.568
 5677.00    0.55377   0.45324   18.058
 5678.00    0.60206   0.45198   16.610
 5679.00    0.62279   0.45019   -1.000
 5680.00    0.58265   0.44802   17.163
 5681.00    0.50661   0.44578   19.739
 5682.00    0.44373   0.44377   22.536
 5683.00    0.43299   0.44217   23.095
 5684.00    0.46218   0.44102   21.637
 5685.00    0.49180   0.44023   20.334
 5686.00    0.49773   0.43982   20.091
 5687.00    0.47634   0.43993   20.993
 5688.00    0.44235   0.44078   22.606
 5689.00    0.41522   0.44245   24.084
 5690.00    0.40236   0.44467   24.853
 5691.00    0.40177   0.44699   24.890
 5692.00    0.40834   0.44892   24.490
 5693.00    0.42036   0.45015   23.789
 5694.00    0.44520   0.45054   22.462
 5695.00    0.48615   0.45009   20.570
 5696.00    0.52865   0.44895   18.916
 5697.00    0.55870   0.44727   17.899
 5698.00    0.58295   0.44528   17.154
 5699.00    0.62039   0.44329   -1.000
 5700.00    0.68947   0.44161   -1.000
 5701.00    0.78175   0.44041   -1.000
 5702.00    0.84280   0.43957   -1.000
 5703.00    0.82069   0.43876   -1.000
 5704.00    0.71038   0.43756   -1.000
 5705.00    0.53912   0.43564   18.549
 5706.00    0.35056   0.43309   28.525
 5707.00    0.20472   0.43038   -1.000
 5708.00    0.17115   0.42817   -1.000
 5709.00    0.26650   0.42710   -1.000
 5710.00    0.41656   0.42759   24.006
 5711.00    0.54269   0.42963   18.427
 5712.00    0.62446   0.43284   -1.000
 5713.00    0.66598   0.43659   -1.000
 5714.00    0.66843   0.44019   -1.000
 5715.00    0.62606   0.44314   -1.000
 5716.00    0.52999   0.44534   18.868
 5717.00    0.40439   0.44696   24.729
 5718.00    0.31830   0.44830   -1.000
 5719.00    0.31453   0.44957   -1.000
 5720.00    0.37260   0.45078   26.838
 5721.00    0.45350   0.45176   22.051
 5722.00    0.52748   0.45224   18.958
 5723.00    0.57559   0.45206   17.374
 5724.00    0.58812   0.45124   17.003
 5725.00    0.55642   0.45004   17.972
 5726.00    0.47477   0.44880   21.063
 5727.00    0.37189   0.44780   26.889
 5728.00    0.31080   0.44716   -1.000
 5729.00    0.31409   0.44686   -1.000
 5730.00    0.34150   0.44681   29.283
 5731.00    0.35201   0.44703   28.408
 5732.00    0.33551   0.44751   29.805
 5733.00    0.32223   0.44820   -1.000
 5734.00    0.36762   0.44887   27.202
 5735.00    0.47785   0.44929   20.927
 5736.00    0.59769   0.44933   16.731
 5737.00    0.68222   0.44904   -1.000
 5738.00    0.71944   0.44860   -1.000
 5739.00    0.70703   0.44816   -1.000
 5740.00    0.64628   0.44784    0.000
 5741.00    0.55176   0.44773    0.000
 5742.00    0.44966   0.44781    0.000
 5743.00    0.36126   0.44797    0.000
 5744.00    0.29972   0.44802    0.000
 5745.00    0.27787   0.44778    0.000
 5746.00    0.30398   0.44721    0.000
 5747.00    0.36223   0.44640    0.000
 5748.00    0.42091   0.44547    0.000
 5749.00    0.47124   0.44443    0.000
 5750.00    0.52331   0.44318    0.000
 5751.00    0.56590   0.44170    0.000
 5752.00    0.57609   0.44031    0.000
 5753.00    0.57106   0.43953    0.000
 5754.00    0.59413   0.43979    0.000
 5755.00    0.64896   0.44103    0.000
 5756.00    0.70483   0.44263    0.000
 5757.00    0.74572   0.44372    0.000
 5758.00    0.77071   0.44365    0.000
 5759.00    0.76943   0.44233    0.000
 5760.00    0.72638   0.44028    0.000
 5761.00    0.64106   0.43837    0.000
 5762.00    0.53087   0.43744    0.000
 5763.00    0.42756   0.43790    0.000
 5764.00    0.35898   0.43956    0.000
 5765.00    0.31728   0.44180    0.000
 5766.00    0.27560   0.44386    0.000
 5767.00    0.22836   0.44521    0.000
 5768.00    0.19355   0.44569    0.000
 5769.00    0.20326   0.44544    0.000
 5770.00    0.28275   0.44471    0.000
 5771.00    0.42001   0.44380    0.000
 5772.00    0.57253   0.44294    0.000
 5773.00    0.68630   0.44230    0.000
 5774.00    0.71849   0.44187    0.000
 5775.00    0.66594   0.44150    0.000
 5776.00    0.56456   0.44083    0.000
 5777.00    0.48001   0.43945    0.000
 5778.00    0.46386   0.43713    0.000
 5779.00    0.49996   0.43401    0.000
 5780.00    0.54139   0.43056    0.000
 5781.00    0.56547   0.42747    0.000
 5782.00    0.56823   0.42537    0.000
 5783.00    0.54931   0.42457    0.000
 5784.00    0.50847   0.42507    0.000
 5785.00    0.44481   0.42665    0.000
 5786.00    0.37329   0.42887    0.000
 5787.00    0.33831   0.43122    0.000
 5788.00    0.36069   0.43323    0.000
 5789.00    0.38771   0.43470    0.000
 5790.00    0.36495   0.43574    0.000
 5791.00    0.30807   0.43667    0.000
 5792.00    0.25996   0.43774    0.000
 5793.00    0.24410   0.43894    0.000
 5794.00    0.26393   0.44005    0.000
 5795.00    0.30708   0.44089    0.000
 5796.00    0.35640   0.44149    0.000
 5797.00    0.39832   0.44214    0.000
 5798.00    0.41558   0.44313    0.000
 5799.00    0.38557   0.44448    0.000
 5800.00    0.31728   0.44584    0.000
 5801.00    0.27082   0.44670    0.000
 5802.00    0.28573   0.44673    0.000
 5803.00    0.33360   0.44598    0.000
 5804.00    0.36739   0.44484    0.000
 5805.00    0.36128   0.44385    0.000
 5806.00    0.32818   0.44334    0.000
 5807.00    0.31949   0.44338    0.000
 5808.00    0.35728   0.44379    0.000
 5809.00    0.40124   0.44426    0.000
 5810.00    0.41235   0.44446    0.000
 5811.00    0.38820   0.44418    0.000
 5812.00    0.33597   0.44335    0.000
 5813.00    0.25916   0.44214    0.000
 5814.00    0.17623   0.44089    0.000
 5815.00    0.12327   0.44008    0.000
 5816.00    0.11310   0.44005    0.000
 5817.00    0.12624   0.44087    0.000
 5818.00    0.17219   0.44226    0.000
 5819.00    0.30574   0.44376   -2.000
 5820.00    0.55887   0.44496   -2.000
 5821.00    0.90109   0.44565   -2.000
 5822.00    1.21088   0.44586   -2.000
 5823.00    1.30380   0.44577   -2.000
 5824.00    1.09858   0.44557   -2.000
 5825.00    0.67941   0.44540   -2.000
 5826.00    0.25611   0.44532   -2.000
 5827.00    0.07955   0.44532   -2.000
 5828.00    0.19533   0.44538   -2.000
 5829.00    0.41223   0.44543   -2.000
 5830.00    0.53135   0.44540   -2.000
 5831.00    0.45195   0.44526   -2.000
 5832.00    0.23333   0.44499   -2.000
 5833.00    0.05379   0.44464   -2.000
 5834.00    0.01263   0.44425   -2.000
 5835.00    0.08842   0.44388   -2.000
 5836.00    0.21651   0.44361   -2.000
 5837.00    0.33074   0.44349   -2.000
 5838.00    0.40932   0.44359   -2.000
 5839.00    0.46686   0.44390    0.000
 5840.00    0.49534   0.44432    0.000
 5841.00    0.47095   0.44465    0.000
 5842.00    0.41552   0.44463    0.000
 5843.00    0.38445   0.44404    0.000
 5844.00    0.39512   0.44287    0.000
 5845.00    0.42928   0.44125    0.000
 5846.00    0.48240   0.43943    0.000
 5847.00    0.55976   0.43765    0.000
 5848.00    0.64039   0.43598    0.000
 5849.00    0.68191   0.43435    0.000
 5850.00    0.64973   0.43256    0.000
 5851.00    0.54299   0.43052    0.000
 5852.00    0.43193   0.42825    0.000
 5853.00    0.40455   0.42591    0.000
 5854.00    0.45043   0.42365    0.000
 5855.00    0.49432   0.42160    0.000
 5856.00    0.50066   0.41999    0.000
 5857.00    0.48504   0.41912    0.000
 5858.00    0.49708   0.41921    0.000
 5859.00    0.57004   0.42025    0.000
 5860.00    0.64562   0.42191    0.000
 5861.00    0.63962   0.42374    0.000
 5862.00    0.56364   0.42536    0.000
 5863.00    0.48290   0.42664    0.000
 5864.00    0.42360   0.42761    0.000
 5865.00    0.38399   0.42841    0.000
 5866.00    0.37006   0.42918    0.000
 5867.00    0.38867   0.43006    0.000
 5868.00    0.43160   0.43101    0.000
 5869.00    0.48335   0.43189    0.000
 5870.00    0.53444   0.43251    0.000
 5871.00    0.58322   0.43277    0.000
 5872.00    0.63543   0.43268    0.000
 5873.00    0.69425   0.43232    0.000
 5874.00    0.74917   0.43175    0.000
 5875.00    0.78406   0.43095    0.000
 5876.00    0.78836   0.42993    0.000
 5877.00    0.76426   0.42869    0.000
 5878.00    0.73131   0.42736    0.000
 5879.00    0.70392   0.42608    0.000
 5880.00    0.67027   0.42494    0.000
 5881.00    0.61645   0.42391    0.000
 5882.00    0.55125   0.42279    0.000
 5883.00    0.49587   0.42113    0.000
 5884.00    0.47101   0.41828    0.000
 5885.00    0.48302   0.41351    0.000
 5886.00    0.51429   0.40632    0.000
 5887.00    0.53779   0.39701    0.000
 5888.00    0.53207   0.38701    0.000
 5889.00    0.49774   0.37854    0.000
 5890.00    0.46544   0.37346    0.000
 5891.00    0.45957   0.37219    0.000
 5892.00    0.47351   0.37346    0.000
 5893.00    0.49643   0.37534    0.000
 5894.00    0.53183   0.37670    0.000
 5895.00    0.58112   0.37787    0.000
 5896.00    0.63357   0.38015    0.000
 5897.00    0.68113   0.38453    0.000
 5898.00    0.72696   0.39090    0.000
 5899.00    0.77516   0.39819    0.000
 5900.00    0.82253   0.40504    0.000
 5901.00    0.85031   0.41049   -1.000
 5902.00    0.82573   0.41426   -1.000
 5903.00    0.73687   0.41651   -1.000
 5904.00    0.61151   0.41771   -1.000
 5905.00    0.50929   0.41832   19.635
 5906.00    0.49939   0.41871   20.024
 5907.00    0.57238   0.41907   -1.000
 5908.00    0.62422   0.41936   -1.000
 5909.00    0.59648   0.41940   -1.000
 5910.00    0.52700   0.41896   18.975
 5911.00    0.46109   0.41793   21.688
 5912.00    0.41184   0.41640   24.281
 5913.00    0.37521   0.41472   26.652
 5914.00    0.34159   0.41336   29.275
 5915.00    0.31270   0.41273   31.980
 5916.00    0.30370   0.41295   32.927
 5917.00    0.32378   0.41382   30.885
 5918.00    0.36743   0.41500   27.216
 5919.00    0.41199   0.41616   24.272
 5920.00    0.42510   0.41710   23.524
 5921.00    0.39377   0.41781   25.396
 5922.00    0.33108   0.41836   30.204
 5923.00    0.26300   0.41880   -1.000
 5924.00    0.21835   0.41908   -1.000
 5925.00    0.21253   0.41902   -1.000
 5926.00    0.24281   0.41850   -1.000
 5927.00    0.29086   0.41757   -1.000
 5928.00    0.33040   0.41648   30.266
 5929.00    0.34637   0.41561   28.871
 5930.00    0.33915   0.41523   29.486
 5931.00    0.32018   0.41535   31.233
 5932.00    0.30203   0.41582   33.109
 5933.00    0.27678   0.41643   -1.000
 5934.00    0.22567   0.41710   -1.000
 5935.00    0.15673   0.41782   -1.000
 5936.00    0.10319   0.41852   -1.000
 5937.00    0.09710   0.41901   -1.000
 5938.00    0.15639   0.41909   -1.000
 5939.00    0.27088   0.41870   -1.000
 5940.00    0.40687   0.41801   24.578
 5941.00    0.52398   0.41736   19.085
 5942.00    0.58843   0.41702   -1.000
 5943.00    0.59206   0.41700   -1.000
 5944.00    0.55431   0.41708   18.041
 5945.00    0.51752   0.41690   19.323
 5946.00    0.52200   0.41628   19.157
 5947.00    0.56336   0.41531   -1.000
 5948.00    0.60576   0.41427   -1.000
 5949.00    0.61864   0.41343   -1.000
 5950.00    0.59092   0.41292   -1.000
 5951.00    0.54261   0.41269   18.430
 5952.00    0.51048   0.41260   19.590
 5953.00    0.52157   0.41256   19.173
 5954.00    0.57352   0.41254   -1.000
 5955.00    0.61415   0.41260   -1.000
 5956.00    0.58829   0.41287   -1.000
 5957.00    0.50663   0.41348   19.738
 5958.00    0.41893   0.41451   23.870
 5959.00    0.36414   0.41586   27.462
 5960.00    0.35696   0.41725   28.014
 5961.00    0.38136   0.41836   26.222
 5962.00    0.41935   0.41894   23.846
 5963.00    0.48472   0.41897   20.630
 5964.00    0.58716   0.41864   -1.000
 5965.00    0.68844   0.41827   -1.000
 5966.00    0.73674   0.41814   -1.000
 5967.00    0.71022   0.41839   -1.000
 5968.00    0.61484   0.41896   -1.000
 5969.00    0.47664   0.41964   20.980
 5970.00    0.33327   0.42014   30.006
 5971.00    0.22491   0.42020   -1.000
 5972.00    0.17994   0.41963   -1.000
 5973.00    0.20163   0.41841   -1.000
 5974.00    0.26553   0.41672   -1.000
 5975.00    0.32296   0.41491   30.964
 5976.00    0.34552   0.41342   28.942
 5977.00    0.35877   0.41258   27.873
 5978.00    0.39589   0.41240   25.260
 5979.00    0.45866   0.41261   21.803
 5980.00    0.53193   0.41271   18.800
 5981.00    0.59808   0.41231   -1.000
 5982.00    0.64268   0.41135   -1.000
 5983.00    0.65735   0.41014   -1.000
 5984.00    0.63529   0.40917   -1.000
 5985.00    0.57007   0.40887   -1.000
 5986.00    0.47089   0.40932   21.236
 5987.00    0.37012   0.41033   27.018
 5988.00    0.30441   0.41158   32.851
 5989.00    0.29942   0.41281   33.398
 5990.00    0.35455   0.41394   28.205
 5991.00    0.43700   0.41501   22.883
 5992.00    0.50013   0.41599   19.995
 5993.00    0.50140   0.41679   19.944
 5994.00    0.43970   0.41717   22.743
 5995.00    0.36627   0.41699   27.302
 5996.00    0.33285   0.41629   30.044
 5997.00    0.36113   0.41530   27.691
 5998.00    0.43218   0.41428   23.139
 5999.00    0.49322   0.41340   20.275
 6000.00    0.51237   0.41267   19.517
 6001.00    0.49916   0.41204   20.034
 6002.00    0.47611   0.41143   21.004
 6003.00    0.46329   0.41079   21.585
 6004.00    0.47078   0.41005   21.241
 6005.00    0.49582   0.40920   20.168
 6006.00    0.52427   0.40837   19.074
 6007.00    0.53700   0.40781   18.622
 6008.00    0.53127   0.40772   18.823
 6009.00    0.52086   0.40813   19.199
 6010.00    0.50559   0.40878   19.779
 6011.00    0.47137   0.40933   21.215
 6012.00    0.42988   0.40955   23.263
 6013.00    0.41807   0.40945   23.919
 6014.00    0.44948   0.40915   22.248
 6015.00    0.50502   0.40877   19.801
 6016.00    0.55725   0.40833   -1.000
 6017.00    0.58500   0.40777   -1.000
 6018.00    0.59213   0.40710   -1.000
 6019.00    0.60044   0.40637   -1.000
 6020.00    0.61375   0.40576   -1.000
 6021.00    0.61441   0.40545   -1.000
 6022.00    0.58251   0.40558   -1.000
 6023.00    0.51265   0.40619   19.507
 6024.00    0.44132   0.40723   22.659
 6025.00    0.42429   0.40860   23.569
 6026.00    0.46539   0.41016   21.487
 6027.00    0.51954   0.41175   19.248
 6028.00    0.54117   0.41325   18.478
 6029.00    0.50571   0.41457   19.774
 6030.00    0.43007   0.41564   23.252
 6031.00    0.36016   0.41647   27.766
 6032.00    0.33507   0.41706   29.845
 6033.00    0.36889   0.41741   27.108
 6034.00    0.43137   0.41756   23.182
 6035.00    0.47558   0.41749   21.027
 6036.00    0.49621   0.41724   20.153
 6037.00    0.51457   0.41683   19.434
 6038.00    0.53200   0.41631   18.797
 6039.00    0.53307   0.41578   18.759
 6040.00    0.50590   0.41537   19.767
 6041.00    0.45083   0.41522   22.181
 6042.00    0.38780   0.41540   25.787
 6043.00    0.34268   0.41586   29.182
 6044.00    0.32458   0.41648   30.809
 6045.00    0.32898   0.41709   30.397
 6046.00    0.34765   0.41758   28.764
 6047.00    0.37220   0.41788   26.868
 6048.00    0.39702   0.41793   25.188
 6049.00    0.42236   0.41767   23.677
 6050.00    0.45701   0.41705   21.881
 6051.00    0.50776   0.41607   19.694
 6052.00    0.56604   0.41482   -1.000
 6053.00    0.61504   0.41349   -1.000
 6054.00    0.64087   0.41233   -1.000
 6055.00    0.63755   0.41155   -1.000
 6056.00    0.61058   0.41126   -1.000
 6057.00    0.56630   0.41143   -1.000
 6058.00    0.50095   0.41183   19.962
 6059.00    0.41361   0.41214   24.177
 6060.00    0.32037   0.41206   31.214
 6061.00    0.24770   0.41140   -1.000
 6062.00    0.22211   0.41025   -1.000
 6063.00    0.24515   0.40894   -1.000
 6064.00    0.27555   0.40799   -1.000
 6065.00    0.27806   0.40786   -1.000
 6066.00    0.26540   0.40873   -1.000
 6067.00    0.26418   0.41044   -1.000
 6068.00    0.28341   0.41253   -1.000
 6069.00    0.32237   0.41452   31.020
 6070.00    0.37818   0.41606   26.443
 6071.00    0.43841   0.41704   22.810
 6072.00    0.47936   0.41745   20.861
 6073.00    0.49924   0.41731   20.030
 6074.00    0.53497   0.41661   18.693
 6075.00    0.60237   0.41536   -1.000
 6076.00    0.66013   0.41362   -1.000
 6077.00    0.65940   0.41162   -1.000
 6078.00    0.58184   0.40963   -1.000
 6079.00    0.45763   0.40793   21.852
 6080.00    0.36406   0.40668   27.468
 6081.00    0.35494   0.40589   28.173
 6082.00    0.42065   0.40547   23.772
 6083.00    0.50957   0.40534   19.624
 6084.00    0.55133   0.40544   -1.000
 6085.00    0.50744   0.40569   19.707
 6086.00    0.39466   0.40598   25.338
 6087.00    0.26157   0.40618   -1.000
 6088.00    0.16864   0.40619   -1.000
 6089.00    0.15591   0.40604   -1.000
 6090.00    0.22711   0.40588   -1.000
 6091.00    0.35115   0.40594   28.478
 6092.00    0.47240   0.40638   21.168
 6093.00    0.55088   0.40722   -1.000
 6094.00    0.57785   0.40828   -1.000
 6095.00    0.56363   0.40930   -1.000
 6096.00    0.52787   0.40995   18.944
 6097.00    0.48313   0.40993   20.698
 6098.00    0.43093   0.40902   23.206
 6099.00    0.37252   0.40714   26.844
 6100.00    0.31226   0.40451   32.024
 6101.00    0.25440   0.40174   -1.000
 6102.00    0.20374   0.39969   -1.000
 6103.00    0.17220   0.39902   -1.000
 6104.00    0.17869   0.39988   -1.000
 6105.00    0.24143   0.40184   -1.000
 6106.00    0.36595   0.40418   27.326
 6107.00    0.51777   0.40625   19.314
 6108.00    0.63503   0.40776   -1.000
 6109.00    0.69024   0.40873   -1.000
 6110.00    0.69892   0.40933   -1.000
 6111.00    0.69058   0.40973   -1.000
 6112.00    0.69306   0.41001   -1.000
 6113.00    0.71445   0.41016   -1.000
 6114.00    0.74398   0.41008   -1.000
 6115.00    0.76667   0.40966   -1.000
 6116.00    0.76723   0.40878   -1.000
 6117.00    0.73037   0.40735   -1.000
 6118.00    0.64978   0.40534   -1.000
 6119.00    0.54757   0.40288   -1.000
 6120.00    0.46105   0.40038   21.690
 6121.00    0.40473   0.39841   24.708
 6122.00    0.37702   0.39749   26.524
 6123.00    0.39037   0.39779   25.617
 6124.00    0.45075   0.39900   22.185
 6125.00    0.50713   0.40057   19.719
 6126.00    0.49468   0.40202   20.215
 6127.00    0.43205   0.40314   23.145
 6128.00    0.39041   0.40397   25.614
 6129.00    0.40616   0.40457   24.621
 6130.00    0.46998   0.40484   21.277
 6131.00    0.53672   0.40449   -1.000
 6132.00    0.55792   0.40315   -1.000
 6133.00    0.53005   0.40062   18.866
 6134.00    0.47713   0.39712   20.959
 6135.00    0.41338   0.39337   24.191
 6136.00    0.35746   0.39033   27.975
 6137.00    0.35846   0.38883   27.897
 6138.00    0.44944   0.38910   22.250
 6139.00    0.58107   0.39078   -1.000
 6140.00    0.67096   0.39317   -1.000
 6141.00    0.68028   0.39570   -1.000
 6142.00    0.61717   0.39806   -1.000
 6143.00    0.52580   0.40012   19.019
 6144.00    0.45172   0.40167   22.138
 6145.00    0.40374   0.40246   24.768
 6146.00    0.37697   0.40233   26.527
 6147.00    0.38265   0.40142   26.134
 6148.00    0.43178   0.40016   23.160
 6149.00    0.51395   0.39902   19.457
 6150.00    0.59838   0.39832   -1.000
 6151.00    0.64025   0.39807   -1.000
 6152.00    0.61413   0.39800   -1.000
 6153.00    0.54290   0.39778   -1.000
 6154.00    0.46538   0.39713   21.488
 6155.00    0.40370   0.39584   24.771
 6156.00    0.36535   0.39380   27.371
 6157.00    0.34831   0.39087   28.710
 6158.00    0.34827   0.38699   28.713
 6159.00    0.36437   0.38235   27.445
 6160.00    0.39869   0.37753   25.082
 6161.00    0.45432   0.37340   22.011
 6162.00    0.52565   0.37083   -1.000
 6163.00    0.59287   0.37024   -1.000
 6164.00    0.63549   0.37133   -1.000
 6165.00    0.64277   0.37328   -1.000
 6166.00    0.61468   0.37514   -1.000
 6167.00    0.56187   0.37632   -1.000
 6168.00    0.50362   0.37685   -1.000
 6169.00    0.46364   0.37720   21.569
 6170.00    0.45139   0.37788   22.154
 6171.00    0.45350   0.37911   22.051
 6172.00    0.45274   0.38073   22.088
 6173.00    0.44103   0.38237   22.674
 6174.00    0.42596   0.38373   23.476
 6175.00    0.42934   0.38475   23.292
 6176.00    0.46114   0.38553   21.685
 6177.00    0.50757   0.38625   19.702
 6178.00    0.54364   0.38700   -1.000
 6179.00    0.54419   0.38779   -1.000
 6180.00    0.50311   0.38851   19.876
 6181.00    0.43962   0.38902   22.747
 6182.00    0.38384   0.38917   26.053
 6183.00    0.36568   0.38880   27.346
 6184.00    0.39780   0.38783   25.139
 6185.00    0.46983   0.38631   21.284
 6186.00    0.55667   0.38433   -1.000
 6187.00    0.62536   0.38208   -1.000
 6188.00    0.64761   0.37976   -1.000
 6189.00    0.60932   0.37766   -1.000
 6190.00    0.52620   0.37613   -1.000
 6191.00    0.43833   0.37554   22.814
 6192.00    0.37008   0.37608   27.021
 6193.00    0.32065   0.37761   31.187
 6194.00    0.28221   0.37966   35.435
 6195.00    0.24968   0.38164   -1.000
 6196.00    0.23065   0.38306   -1.000
 6197.00    0.23933   0.38376   -1.000
 6198.00    0.26870   0.38389   -1.000
 6199.00    0.29189   0.38382   34.260
 6200.00    0.29148   0.38391   34.308
 6201.00    0.26817   0.38439   -1.000
 6202.00    0.23956   0.38522   -1.000
 6203.00    0.22956   0.38622   -1.000
 6204.00    0.24222   0.38715   -1.000
 6205.00    0.26269   0.38783   -1.000
 6206.00    0.27690   0.38818   -1.000
 6207.00    0.27874   0.38813   -1.000
 6208.00    0.27419   0.38762   -1.000
 6209.00    0.27464   0.38654   -1.000
 6210.00    0.28006   0.38488   35.707
 6211.00    0.28128   0.38268   35.552
 6212.00    0.27360   0.38020   -1.000
 6213.00    0.26692   0.37779   -1.000
 6214.00    0.29866   0.37584   33.483
 6215.00    0.39711   0.37459   25.182
 6216.00    0.50824   0.37404   -1.000
 6217.00    0.54062   0.37400   -1.000
 6218.00    0.47339   0.37421   21.124
 6219.00    0.35669   0.37454   28.035
 6220.00    0.27470   0.37494   36.404
 6221.00    0.28900   0.37542   34.602
 6222.00    0.35942   0.37593   27.823
 6223.00    0.40154   0.37635   24.904
 6224.00    0.39751   0.37651   25.156
 6225.00    0.38839   0.37626   25.747
 6226.00    0.43381   0.37547   -2.000
 6227.00    0.57486   0.37413   -2.000
 6228.00    0.78994   0.37241   -2.000
 6229.00    0.99857   0.37070   -2.000
 6230.00    1.08062   0.36953   -2.000
 6231.00    0.96437   0.36936   -2.000
 6232.00    0.73105   0.37032   -2.000
 6233.00    0.52640   0.37206   -2.000
 6234.00    0.43437   0.37392   -2.000
 6235.00    0.46043   0.37524   -2.000
 6236.00    0.53524   0.37560   -2.000
 6237.00    0.58117   0.37501   -2.000
 6238.00    0.58430   0.37380   -1.000
 6239.00    0.56906   0.37240   -1.000
 6240.00    0.56159   0.37111   -1.000
 6241.00    0.57434   0.37004   -1.000
 6242.00    0.59574   0.36917   -1.000
 6243.00    0.60826   0.36851   -1.000
 6244.00    0.60606   0.36814   -1.000
 6245.00    0.58750   0.36822   -1.000
 6246.00    0.54835   0.36883   -1.000
 6247.00    0.49717   0.36981   -1.000
 6248.00    0.46485   0.37083   21.512
 6249.00    0.46523   0.37141   21.495
 6250.00    0.46653   0.37123   21.435
 6251.00    0.43547   0.37026   22.964
 6252.00    0.37312   0.36876   26.801
 6253.00    0.30606   0.36717   32.673
 6254.00    0.27375   0.36587   36.530
 6255.00    0.29941   0.36508   33.399
 6256.00    0.37222   0.36486   26.866
 6257.00    0.46692   0.36525   21.417
 6258.00    0.55734   0.36630   -1.000
 6259.00    0.61050   0.36799   -1.000
 6260.00    0.58809   0.37016   -1.000
 6261.00    0.48269   0.37252   20.717
 6262.00    0.33630   0.37470   29.736
 6263.00    0.21542   0.37644   -1.000
 6264.00    0.18693   0.37761   -1.000
 6265.00    0.26984   0.37829   -1.000
 6266.00    0.41658   0.37860   24.005
 6267.00    0.55658   0.37870   -1.000
 6268.00    0.62923   0.37869   -1.000
 6269.00    0.62698   0.37867   -1.000
 6270.00    0.60062   0.37874   -1.000
 6271.00    0.58188   0.37893   -1.000
 6272.00    0.55676   0.37919   -1.000
 6273.00    0.51870   0.37940   -1.000
 6274.00    0.48820   0.37937   20.483
 6275.00    0.48806   0.37900   20.489
 6276.00    0.52774   0.37826   -1.000
 6277.00    0.58691   0.37728   -1.000
 6278.00    0.62050   0.37626   -1.000
 6279.00    0.60435   0.37546   -1.000
 6280.00    0.54907   0.37510    0.000
 6281.00    0.48307   0.37530    0.000
 6282.00    0.44193   0.37603    0.000
 6283.00    0.45528   0.37711    0.000
 6284.00    0.53279   0.37833    0.000
 6285.00    0.63470   0.37950    0.000
 6286.00    0.68741   0.38046    0.000
 6287.00    0.66269   0.38111    0.000
 6288.00    0.59299   0.38136    0.000
 6289.00    0.53821   0.38119    0.000
 6290.00    0.55652   0.38064    0.000
 6291.00    0.65308   0.37983    0.000
 6292.00    0.77498   0.37890    0.000
 6293.00    0.83991   0.37790    0.000
 6294.00    0.78009   0.37684    0.000
 6295.00    0.63157   0.37572    0.000
 6296.00    0.50581   0.37456    0.000
 6297.00    0.46338   0.37342    0.000
 6298.00    0.49743   0.37240    0.000
 6299.00    0.57087   0.37157    0.000
 6300.00    0.63891   0.37106    0.000
 6301.00    0.67787   0.37102    0.000
 6302.00    0.68526   0.37159    0.000
 6303.00    0.66597   0.37280    0.000
 6304.00    0.63011   0.37448    0.000
 6305.00    0.59455   0.37634    0.000
 6306.00    0.57700   0.37802    0.000
 6307.00    0.58423   0.37924    0.000
 6308.00    0.61146   0.37985    0.000
 6309.00    0.64575   0.37986    0.000
 6310.00    0.67188   0.37934    0.000
 6311.00    0.68118   0.37845    0.000
 6312.00    0.67178   0.37729    0.000
 6313.00    0.64612   0.37596    0.000
 6314.00    0.60713   0.37456    0.000
 6315.00    0.55313   0.37322    0.000
 6316.00    0.48373   0.37215    0.000
 6317.00    0.40901   0.37155    0.000
 6318.00    0.33867   0.37157    0.000
 6319.00    0.26594   0.37223    0.000
 6320.00    0.18673   0.37343    0.000
 6321.00    0.12684   0.37494   -1.000
 6322.00    0.11685   0.37654   -1.000
 6323.00    0.15630   0.37803   -1.000
 6324.00    0.22245   0.37927   -1.000
 6325.00    0.28756   0.38019   34.775
 6326.00    0.33231   0.38077   30.093
 6327.00    0.35831   0.38104   27.909
 6328.00    0.38078   0.38106   26.262
 6329.00    0.41732   0.38091   23.962
 6330.00    0.46990   0.38060   21.281
 6331.00    0.51047   0.38005   -1.000
 6332.00    0.51865   0.37915   -1.000
 6333.00    0.51719   0.37788   -1.000
 6334.00    0.53095   0.37638   -1.000
 6335.00    0.54699   0.37500   -1.000
 6336.00    0.54008   0.37414   -1.000
 6337.00    0.49961   0.37405   -1.000
 6338.00    0.43455   0.37466   23.012
 6339.00    0.37229   0.37559   26.861
 6340.00    0.32994   0.37638   30.309
 6341.00    0.29510   0.37663   33.887
 6342.00    0.26453   0.37627   -1.000
 6343.00    0.26946   0.37546   37.111
 6344.00    0.32646   0.37459   30.631
 6345.00    0.40406   0.37405   24.749
 6346.00    0.45913   0.37409   21.780
 6347.00    0.46713   0.37473   21.407
 6348.00    0.43855   0.37577   22.802
 6349.00    0.42032   0.37685   23.792
 6350.00    0.43936   0.37761   22.760
 6351.00    0.47216   0.37778   21.179
 6352.00    0.48470   0.37727   20.631
 6353.00    0.46028   0.37617   21.726
 6354.00    0.41023   0.37465   24.377
 6355.00    0.37245   0.37294   26.849
 6356.00    0.37278   0.37116   26.826
 6357.00    0.40678   0.36942   24.583
 6358.00    0.45865   0.36779   21.803
 6359.00    0.51323   0.36638   -1.000
 6360.00    0.56322   0.36537   -1.000
 6361.00    0.61082   0.36490   -1.000
 6362.00    0.65976   0.36510   -1.000
 6363.00    0.70854   0.36599   -1.000
 6364.00    0.73865   0.36745   -1.000
 6365.00    0.71750   0.36926   -1.000
 6366.00    0.63289   0.37111   -1.000
 6367.00    0.50563   0.37273   -1.000
 6368.00    0.37885   0.37398   26.396
 6369.00    0.30332   0.37491   32.968
 6370.00    0.30092   0.37569   33.232
 6371.00    0.35443   0.37649   28.215
 6372.00    0.42410   0.37741   23.580
 6373.00    0.46589   0.37834   21.464
 6374.00    0.47102   0.37908   21.231
 6375.00    0.46572   0.37942   21.472
 6376.00    0.46492   0.37926   21.509
 6377.00    0.46149   0.37867   21.669
 6378.00    0.44295   0.37785   22.576
 6379.00    0.40258   0.37704   24.840
 6380.00    0.35575   0.37641   28.110
 6381.00    0.33206   0.37604   30.115
 6382.00    0.34004   0.37589   29.409
 6383.00    0.36367   0.37589   27.498
 6384.00    0.38104   0.37602   26.244
 6385.00    0.37473   0.37625   26.686
 6386.00    0.34431   0.37652   29.043
 6387.00    0.30464   0.37673   32.826
 6388.00    0.27362   0.37668   36.548
 6389.00    0.26744   0.37619   -1.000
 6390.00    0.29679   0.37524   33.694
 6391.00    0.36210   0.37401   27.617
 6392.00    0.44560   0.37285   22.442
 6393.00    0.51860   0.37209   -1.000
 6394.00    0.56013   0.37191   -1.000
 6395.00    0.56362   0.37211   -1.000
 6396.00    0.54174   0.37233   -1.000
 6397.00    0.51715   0.37221   -1.000
 6398.00    0.50365   0.37176   -1.000
 6399.00    0.50371   0.37132   -1.000
 6400.00    0.51099   0.37136   -1.000
 6401.00    0.51793   0.37217   -1.000
 6402.00    0.52739   0.37358   -1.000
 6403.00    0.54301   0.37511   -1.000
 6404.00    0.55144   0.37619   -1.000
 6405.00    0.53654   0.37651   -1.000
 6406.00    0.50503   0.37610   -1.000
 6407.00    0.47640   0.37523   20.991
 6408.00    0.46221   0.37425   21.635
 6409.00    0.46311   0.37340   21.593
 6410.00    0.46939   0.37278   21.304
 6411.00    0.46873   0.37241   21.334
 6412.00    0.45642   0.37223   21.910
 6413.00    0.43403   0.37218   23.040
 6414.00    0.40592   0.37213   24.636
 6415.00    0.37643   0.37192   26.565
 6416.00    0.34724   0.37141   28.799
 6417.00    0.31971   0.37060   31.278
 6418.00    0.29793   0.36965   33.565
 6419.00    0.28745   0.36888   34.789
 6420.00    0.29323   0.36867   34.103
 6421.00    0.31521   0.36926   31.725
 6422.00    0.34382   0.37064   29.085
 6423.00    0.35892   0.37251   27.862
 6424.00    0.33249   0.37439   30.076
 6425.00    0.26267   0.37578   -1.000
 6426.00    0.20015   0.37635   -1.000
 6427.00    0.19476   0.37600   -1.000
 6428.00    0.24770   0.37486   -1.000
 6429.00    0.33353   0.37333   29.982
 6430.00    0.42363   0.37191   23.606
 6431.00    0.49843   0.37103   -1.000
 6432.00    0.55408   0.37088   -1.000
 6433.00    0.58730   0.37130   -1.000
 6434.00    0.58595   0.37188   -1.000
 6435.00    0.54945   0.37220   -1.000
 6436.00    0.50125   0.37206   -1.000
 6437.00    0.46553   0.37165   21.481
 6438.00    0.45028   0.37140   22.208
 6439.00    0.44846   0.37177   22.299
 6440.00    0.44251   0.37297   22.599
 6441.00    0.42467   0.37483   23.547
 6442.00    0.40715   0.37684   24.561
 6443.00    0.40506   0.37839   24.687
 6444.00    0.42460   0.37901   23.552
 6445.00    0.45643   0.37845   21.909
 6446.00    0.47602   0.37675   21.007
 6447.00    0.46386   0.37421   21.558
 6448.00    0.41761   0.37140   23.946
 6449.00    0.35657   0.36895   28.045
 6450.00    0.31573   0.36736   31.673
 6451.00    0.30711   0.36677   32.561
 6452.00    0.30799   0.36693   32.468
 6453.00    0.29600   0.36740   33.784
 6454.00    0.26779   0.36781   37.342
 6455.00    0.24545   0.36810   -1.000
 6456.00    0.26682   0.36841   37.479
 6457.00    0.33572   0.36882   29.786
 6458.00    0.41238   0.36921   24.249
 6459.00    0.46038   0.36935   21.721
 6460.00    0.46645   0.36904   21.438
 6461.00    0.44063   0.36842   22.695
 6462.00    0.40783   0.36792   24.520
 6463.00    0.37925   0.36799   26.367
 6464.00    0.35142   0.36884   28.456
 6465.00    0.33841   0.37027   29.550
 6466.00    0.36825   0.37177   27.156
 6467.00    0.43486   0.37282   22.996
 6468.00    0.49699   0.37316   -1.000
 6469.00    0.52368   0.37280   -1.000
 6470.00    0.50957   0.37198   -1.000
 6471.00    0.47578   0.37106   21.018
 6472.00    0.45471   0.37031   21.992
 6473.00    0.44887   0.36987   22.278
 6474.00    0.43899   0.36973   22.780
 6475.00    0.43568   0.36978   22.952
 6476.00    0.46931   0.36985   21.308
 6477.00    0.53005   0.36971   -1.000
 6478.00    0.57015   0.36916   -1.000
 6479.00    0.54652   0.36813   -1.000
 6480.00    0.44428   0.36677   22.508
 6481.00    0.30448   0.36537   32.843
 6482.00    0.19835   0.36430   -1.000
 6483.00    0.15934   0.36381   -1.000
 6484.00    0.18503   0.36394   -1.000
 6485.00    0.27156   0.36444   36.824
 6486.00    0.40633   0.36491   24.610
 6487.00    0.54088   0.36489   -1.000
 6488.00    0.61529   0.36400   -1.000
 6489.00    0.61240   0.36198   -1.000
 6490.00    0.55470   0.35876   -1.000
 6491.00    0.47979   0.35449   -1.000
 6492.00    0.42212   0.34963   23.690
 6493.00    0.39060   0.34483   25.602
 6494.00    0.37489   0.34090   26.675
 6495.00    0.36198   0.33857   27.626
 6496.00    0.34702   0.33824   28.816
 6497.00    0.34463   0.33984   29.017
 6498.00    0.37175   0.34295   26.900
 6499.00    0.42139   0.34691   23.731
 6500.00    0.47429   0.35108   -1.000
 6501.00    0.51995   0.35494   -1.000
 6502.00    0.55537   0.35819   -1.000
 6503.00    0.57948   0.36069   -1.000
 6504.00    0.59089   0.36245   -1.000
 6505.00    0.58622   0.36354   -1.000
 6506.00    0.56164   0.36409   -1.000
 6507.00    0.51513   0.36425   -1.000
 6508.00    0.44781   0.36419   22.331
 6509.00    0.36539   0.36398   27.368
 6510.00    0.27998   0.36359   35.717
 6511.00    0.21124   0.36295   -1.000
 6512.00    0.17886   0.36196   -1.000
 6513.00    0.19383   0.36061   -1.000
 6514.00    0.24906   0.35904   -1.000
 6515.00    0.31477   0.35752   31.770
 6516.00    0.37502   0.35635   26.665
 6517.00    0.45648   0.35582   21.907
 6518.00    0.57430   0.35603   -1.000
 6519.00    0.68711   0.35685   -1.000
 6520.00    0.74471   0.35802   -1.000
 6521.00    0.73133   0.35922   -1.000
 6522.00    0.66278   0.36015   -1.000
 6523.00    0.57726   0.36066   -1.000
 6524.00    0.50046   0.36076   -1.000
 6525.00    0.42378   0.36054   23.597
 6526.00    0.33889   0.36014   29.508
 6527.00    0.26183   0.35969   38.193
 6528.00    0.21628   0.35925    0.000
 6529.00    0.21860   0.35881    0.000
 6530.00    0.26293   0.35834    0.000
 6531.00    0.31675   0.35786    0.000
 6532.00    0.35236   0.35745    0.000
 6533.00    0.36547   0.35719    0.000
 6534.00    0.36635   0.35711    0.000
 6535.00    0.37223   0.35720    0.000
 6536.00    0.39799   0.35735    0.000
 6537.00    0.44772   0.35739    0.000
 6538.00    0.49751   0.35716    0.000
 6539.00    0.49858   0.35650    0.000
 6540.00    0.43941   0.35530    0.000
 6541.00    0.36663   0.35351    0.000
 6542.00    0.32963   0.35119    0.000
 6543.00    0.35081   0.34849    0.000
 6544.00    0.41824   0.34569    0.000
 6545.00    0.49215   0.34305    0.000
 6546.00    0.54476   0.34077    0.000
 6547.00    0.57325   0.33889    0.000
 6548.00    0.57924   0.33724    0.000
 6549.00    0.56196   0.33555    0.000
 6550.00    0.52680   0.33356    0.000
 6551.00    0.48758   0.33112    0.000
 6552.00    0.46133   0.32816    0.000
 6553.00    0.46384   0.32472    0.000
 6554.00    0.50147   0.32080    0.000
 6555.00    0.57352   0.31627    0.000
 6556.00    0.68998   0.31077    0.000
 6557.00    0.88861   0.30383    0.000
 6558.00    1.26774   0.29512    0.000
 6559.00    1.95640   0.28487    0.000
 6560.00    2.99332   0.27411    0.000
 6561.00    4.27060   0.26465    0.000
 6562.00    5.48625   0.25861    0.000
 6563.00    6.23156   0.25757    0.000
 6564.00    6.26334   0.26190    0.000
 6565.00    5.57577   0.27043    0.000
 6566.00    4.38384   0.28110    0.000
 6567.00    3.04429   0.29175    0.000
 6568.00    1.87321   0.30074    0.000
 6569.00    1.06818   0.30742    0.000
 6570.00    0.63953   0.31207    0.000
 6571.00    0.45743   0.31541    0.000
 6572.00    0.39258   0.31807    0.000
 6573.00    0.35981   0.32055    0.000
 6574.00    0.33909   0.32312    0.000
 6575.00    0.35050   0.32588    0.000
 6576.00    0.39552   0.32872    0.000
 6577.00    0.45698   0.33146    0.000
 6578.00    0.52261   0.33387    0.000
 6579.00    0.59310   0.33586    0.000
 6580.00    0.68720   0.33743    0.000
 6581.00    0.82200   0.33870    0.000
 6582.00    0.97821   0.33983    0.000
 6583.00    1.11267   0.34088    0.000
 6584.00    1.18935   0.34190    0.000
 6585.00    1.18088   0.34286    0.000
 6586.00    1.06428   0.34368    0.000
 6587.00    0.84633   0.34425    0.000
 6588.00    0.59913   0.34440    0.000
 6589.00    0.40787   0.34401    0.000
 6590.00    0.29111   0.34306    0.000
 6591.00    0.23159   0.34174    0.000
 6592.00    0.23183   0.34044    0.000
 6593.00    0.29290   0.33959    0.000
 6594.00    0.37949   0.33951    0.000
 6595.00    0.44598   0.34024    0.000
 6596.00    0.47345   0.34158    0.000
 6597.00    0.46580   0.34321    0.000
 6598.00    0.43895   0.34481    0.000
 6599.00    0.40728   0.34616    0.000
 6600.00    0.37093   0.34717    0.000
 6601.00    0.33019   0.34778    0.000
 6602.00    0.30033   0.34794    0.000
 6603.00    0.29070   0.34765    0.000
 6604.00    0.28522   0.34696    0.000
 6605.00    0.27495   0.34605    0.000
 6606.00    0.28747   0.34520    0.000
 6607.00    0.34955   0.34463    0.000
 6608.00    0.45156   0.34451    0.000
 6609.00    0.55856   0.34489   -1.000
 6610.00    0.62552   0.34568   -1.000
 6611.00    0.62301   0.34672   -1.000
 6612.00    0.55707   0.34781   -1.000
 6613.00    0.46332   0.34881   -1.000
 6614.00    0.39638   0.34964   25.228
 6615.00    0.39428   0.35026   25.362
 6616.00    0.45307   0.35072   22.072
 6617.00    0.53563   0.35106   -1.000
 6618.00    0.58607   0.35126   -1.000
 6619.00    0.57574   0.35122   -1.000
 6620.00    0.52829   0.35090   -1.000
 6621.00    0.47920   0.35030   -1.000
 6622.00    0.44678   0.34946   22.382
 6623.00    0.42329   0.34850   23.624
 6624.00    0.37797   0.34757   26.457
 6625.00    0.30161   0.34683   33.156
 6626.00    0.22568   0.34631   -1.000
 6627.00    0.18102   0.34598   -1.000
 6628.00    0.17558   0.34568   -1.000
 6629.00    0.20377   0.34524   -1.000
 6630.00    0.25228   0.34457   39.639
 6631.00    0.30158   0.34371   33.159
 6632.00    0.33046   0.34287   30.261
 6633.00    0.33432   0.34226   29.912
 6634.00    0.33002   0.34209   30.301
 6635.00    0.33844   0.34241   29.548
 6636.00    0.37273   0.34312   26.829
 6637.00    0.42460   0.34399   23.551
 6638.00    0.46635   0.34475   -1.000
 6639.00    0.48309   0.34518   -1.000
 6640.00    0.48267   0.34520   -1.000
 6641.00    0.48102   0.34491   -1.000
 6642.00    0.49240   0.34449   -1.000
 6643.00    0.51568   0.34415   -1.000
 6644.00    0.53484   0.34401   -1.000
 6645.00    0.53797   0.34409   -1.000
 6646.00    0.52575   0.34431   -1.000
 6647.00    0.51612   0.34455   -1.000
 6648.00    0.53498   0.34467   -1.000
 6649.00    0.58320   0.34453   -1.000
 6650.00    0.63342   0.34418   -1.000
 6651.00    0.65317   0.34372   -1.000
 6652.00    0.62329   0.34327   -1.000
 6653.00    0.56827   0.34288   -1.000
 6654.00    0.53703   0.34257   -1.000
 6655.00    0.52881   0.34232   -1.000
 6656.00    0.49979   0.34205   -1.000
 6657.00    0.43246   0.34169   23.124
 6658.00    0.34776   0.34116   28.755
 6659.00    0.28857   0.34046   34.653
 6660.00    0.29141   0.33962   34.316
 6661.00    0.33269   0.33875   30.058
 6662.00    0.35089   0.33800   28.499
 6663.00    0.32248   0.33753   31.010
 6664.00    0.26881   0.33747   37.201
 6665.00    0.23361   0.33786   -1.000
 6666.00    0.25522   0.33861   39.182
 6667.00    0.32242   0.33963   31.016
 6668.00    0.38707   0.34074   25.835
 6669.00    0.40550   0.34176   24.661
 6670.00    0.35956   0.34261   27.812
 6671.00    0.27878   0.34316   35.870
 6672.00    0.22091   0.34329   -1.000
 6673.00    0.23102   0.34287   -1.000
 6674.00    0.32101   0.34186   31.151
 6675.00    0.44930   0.34036   22.257
 6676.00    0.54774   0.33860   -1.000
 6677.00    0.56945   0.33689   -1.000
 6678.00    0.50883   0.33557   -1.000
 6679.00    0.41757   0.33484   23.948
 6680.00    0.36240   0.33475   27.594
 6681.00    0.36333   0.33520   27.523
 6682.00    0.40341   0.33597   24.789
 6683.00    0.45398   0.33675   -1.000
 6684.00    0.48911   0.33735   -1.000
 6685.00    0.49896   0.33775   -1.000
 6686.00    0.48128   0.33798   -1.000
 6687.00    0.43040   0.33808   23.234
 6688.00    0.35358   0.33807   28.282
 6689.00    0.28892   0.33802   34.612
 6690.00    0.27416   0.33793   36.475
 6691.00    0.31062   0.33776   32.193
 6692.00    0.36741   0.33747   27.217
 6693.00    0.39358   0.33705   25.408
 6694.00    0.35888   0.33655   27.865
 6695.00    0.28984   0.33610   34.502
 6696.00    0.23223   0.33580    0.000
 6697.00    0.21213   0.33575    0.000
 6698.00    0.23616   0.33593    0.000
 6699.00    0.29490   0.33628    0.000
 6700.00    0.36394   0.33664    0.000
 6701.00    0.40779   0.33687    0.000
 6702.00    0.40717   0.33690    0.000
 6703.00    0.37841   0.33677    0.000
 6704.00    0.34887   0.33660    0.000
 6705.00    0.33554   0.33648    0.000
 6706.00    0.33799   0.33645    0.000
 6707.00    0.33814   0.33647    0.000
 6708.00    0.32912   0.33642    0.000
 6709.00    0.33158   0.33614    0.000
 6710.00    0.36346   0.33553    0.000
 6711.00    0.42286   0.33454    0.000
 6712.00    0.51364   0.33320    0.000
 6713.00    0.65830   0.33159    0.000
 6714.00    0.87202   0.32987    0.000
 6715.00    1.14255   0.32827    0.000
 6716.00    1.40992   0.32703    0.000
 6717.00    1.57103   0.32636    0.000
 6718.00    1.56625   0.32635    0.000
 6719.00    1.41813   0.32691    0.000
 6720.00    1.18070   0.32784    0.000
 6721.00    0.90934   0.32890    0.000
 6722.00    0.65189   0.32982    0.000
 6723.00    0.44517   0.33047    0.000
 6724.00    0.31754   0.33086    0.000
 6725.00    0.28944   0.33112    0.000
 6726.00    0.36976   0.33136    0.000
 6727.00    0.55087   0.33161    0.000
 6728.00    0.79551   0.33189    0.000
 6729.00    1.04047   0.33221    0.000
 6730.00    1.23321   0.33251    0.000
 6731.00    1.34530   0.33273    0.000
 6732.00    1.36505   0.33281    0.000
 6733.00    1.29260   0.33277    0.000
 6734.00    1.13320   0.33258    0.000
 6735.00    0.90416   0.33227    0.000
 6736.00    0.66590   0.33183    0.000
 6737.00    0.50663   0.33132    0.000
 6738.00    0.45777   0.33078    0.000
 6739.00    0.48135   0.33026    0.000
 6740.00    0.51987   0.32983    0.000
 6741.00    0.52540   0.32951    0.000
 6742.00    0.49527   0.32928    0.000
 6743.00    0.46452   0.32906    0.000
 6744.00    0.45461   0.32876    0.000
 6745.00    0.46109   0.32833    0.000
 6746.00    0.46087   0.32779    0.000
 6747.00    0.42668   0.32720    0.000
 6748.00    0.35718   0.32662    0.000
 6749.00    0.28238   0.32620    0.000
 6750.00    0.25624   0.32606    0.000
 6751.00    0.32264   0.32628    0.000
 6752.00    0.44416   0.32683    0.000
 6753.00    0.53121   0.32763   -1.000
 6754.00    0.54061   0.32855   -1.000
 6755.00    0.48547   0.32949   -1.000
 6756.00    0.40897   0.33040   24.452
 6757.00    0.35769   0.33124   27.957
 6758.00    0.34174   0.33194   29.262
 6759.00    0.34567   0.33249   28.929
 6760.00    0.36350   0.33286   27.510
 6761.00    0.39480   0.33301   25.330
 6762.00    0.42630   0.33290   23.457
 6763.00    0.44202   0.33255   22.624
 6764.00    0.44513   0.33199   -1.000
 6765.00    0.45027   0.33130   -1.000
 6766.00    0.46524   0.33058   -1.000
 6767.00    0.49294   0.32994   -1.000
 6768.00    0.53811   0.32950   -1.000
 6769.00    0.59341   0.32936   -1.000
 6770.00    0.61998   0.32956   -1.000
 6771.00    0.58057   0.33007   -1.000
 6772.00    0.48859   0.33076   -1.000
 6773.00    0.39513   0.33156   25.308
 6774.00    0.36003   0.33240   27.775
 6775.00    0.40754   0.33315   24.537
 6776.00    0.48002   0.33365   -1.000
 6777.00    0.50293   0.33377   -1.000
 6778.00    0.46745   0.33344   -1.000
 6779.00    0.40859   0.33269   24.474
 6780.00    0.36740   0.33157   27.218
 6781.00    0.36615   0.33022   27.312
 6782.00    0.38840   0.32880   25.747
 6783.00    0.40978   0.32752   24.404
 6784.00    0.43050   0.32657   23.229
 6785.00    0.46030   0.32609   -1.000
 6786.00    0.49933   0.32606   -1.000
 6787.00    0.52695   0.32637   -1.000
 6788.00    0.49810   0.32683   -1.000
 6789.00    0.39376   0.32726   25.396
 6790.00    0.26257   0.32755   38.085
 6791.00    0.18713   0.32764   -1.000
 6792.00    0.24366   0.32758   41.040
 6793.00    0.42784   0.32748   23.373
 6794.00    0.61311   0.32742   -1.000
 6795.00    0.67910   0.32747   -1.000
 6796.00    0.60907   0.32765   -1.000
 6797.00    0.45472   0.32795   -1.000
 6798.00    0.29885   0.32831   33.462
 6799.00    0.20856   0.32865   -1.000
 6800.00    0.20536   0.32894   -1.000
 6801.00    0.27582   0.32914   36.256
 6802.00    0.38267   0.32924   26.132
 6803.00    0.48405   0.32925   -1.000
 6804.00    0.54743   0.32919   -1.000
 6805.00    0.56117   0.32909   -1.000
 6806.00    0.53801   0.32899   -1.000
 6807.00    0.49706   0.32894   -1.000
 6808.00    0.45372   0.32892   -1.000
 6809.00    0.42237   0.32888   23.676
 6810.00    0.41559   0.32882   24.062
 6811.00    0.43113   0.32870   23.195
 6812.00    0.44999   0.32851   -1.000
 6813.00    0.45970   0.32832   -1.000
 6814.00    0.46368   0.32815   -1.000
 6815.00    0.47022   0.32804   -1.000
 6816.00    0.48414   0.32800   -1.000
 6817.00    0.49473   0.32807   -1.000
 6818.00    0.47988   0.32825   -1.000
 6819.00    0.44490   0.32848   -1.000
 6820.00    0.42603   0.32873   23.473
 6821.00    0.43943   0.32898   -1.000
 6822.00    0.46887   0.32924   -1.000
 6823.00    0.49802   0.32949   -1.000
 6824.00    0.52053   0.32965   -1.000
 6825.00    0.52983   0.32964   -1.000
 6826.00    0.51963   0.32947   -1.000
 6827.00    0.49788   0.32925   -1.000
 6828.00    0.48386   0.32908   -1.000
 6829.00    0.48324   0.32904   -1.000
 6830.00    0.48466   0.32917   -1.000
 6831.00    0.47492   0.32945   -1.000
 6832.00    0.44817   0.32978   -1.000
 6833.00    0.41808   0.32998   23.919
 6834.00    0.40928   0.32991   24.433
 6835.00    0.42486   0.32953   23.537
 6836.00    0.44606   0.32883   -1.000
 6837.00    0.45579   0.32781   -1.000
 6838.00    0.44467   0.32658   -1.000
 6839.00    0.40979   0.32534   24.403
 6840.00    0.35689   0.32435   28.019
 6841.00    0.30620   0.32381   32.658
 6842.00    0.28774   0.32383   34.754
 6843.00    0.32749   0.32436   30.535
 6844.00    0.43149   0.32525   -1.000
 6845.00    0.55989   0.32624   -1.000
 6846.00    0.64886   0.32708   -1.000
 6847.00    0.66586   0.32759   -1.000
 6848.00    0.61715   0.32771   -1.000
 6849.00    0.53876   0.32748   -1.000
 6850.00    0.47704   0.32701   -1.000
 6851.00    0.45635   0.32635   -1.000
 6852.00    0.47110   0.32557   -1.000
 6853.00    0.48427   0.32474   -1.000
 6854.00    0.46160   0.32396   -1.000
 6855.00    0.42676   0.32332   23.433
 6856.00    0.42603   0.32289   23.473
 6857.00    0.45920   0.32273   -1.000
 6858.00    0.49529   0.32289   -1.000
 6859.00    0.51278   0.32325   -1.000
 6860.00    0.49928   0.32366   -1.000
 6861.00    0.44361   0.32410   -1.000
 6862.00    0.35558   0.32451   28.123
 6863.00    0.29093   0.32482   34.373
 6864.00    0.29758   0.32501   33.605
 6865.00    0.34475   0.32504   29.007
 6866.00    0.36921   0.32484   27.085
 6867.00    0.34431   0.32442   29.044
 6868.00    0.28997   0.32393   34.486
 6869.00    0.26995   0.32358   37.044
 6870.00    0.32905   0.32344   30.390
 6871.00    0.42770   0.32355   23.381
 6872.00    0.49777   0.32390   -1.000
 6873.00    0.50964   0.32444   -1.000
 6874.00    0.46836   0.32509   -1.000
 6875.00    0.40066   0.32583   24.959
 6876.00    0.33138   0.32651   30.176
 6877.00    0.26363   0.32697   37.932
 6878.00    0.19929   0.32714   -1.000
 6879.00    0.15741   0.32701   -1.000
 6880.00    0.15444   0.32664   -1.000
 6881.00    0.18649   0.32615   -1.000
 6882.00    0.23967   0.32573   41.723
 6883.00    0.29984   0.32553   33.352
 6884.00    0.34981   0.32568   28.587
 6885.00    0.36948   0.32619   27.065
 6886.00    0.35705   0.32696   28.007
 6887.00    0.34012   0.32779   29.402
 6888.00    0.33669   0.32854   29.701
 6889.00    0.33203   0.32919   30.118
 6890.00    0.31891   0.32969   31.357
 6891.00    0.32187   0.33001   31.069
 6892.00    0.36635   0.33018   27.296
 6893.00    0.45415   0.33023   -1.000
 6894.00    0.54425   0.33026   -1.000
 6895.00    0.55819   0.33027   -1.000
 6896.00    0.47786   0.33029   -1.000
 6897.00    0.38509   0.33035   25.968
 6898.00    0.35495   0.33046   28.173
 6899.00    0.39672   0.33059   25.207
 6900.00    0.47101   0.33073   -1.000
 6901.00    0.51307   0.33088   -1.000
 6902.00    0.49562   0.33105   -1.000
 6903.00    0.44957   0.33128   -1.000
 6904.00    0.40998   0.33156   24.391
 6905.00    0.39094   0.33186   25.579
 6906.00    0.39547   0.33212   25.286
 6907.00    0.41844   0.33228   23.898
 6908.00    0.43785   0.33228   22.839
 6909.00    0.42206   0.33207   23.693
 6910.00    0.37475   0.33161   26.684
 6911.00    0.33986   0.33092   29.424
 6912.00    0.34706   0.33010   28.813
 6913.00    0.39265   0.32931   25.468
 6914.00    0.45123   0.32868   -1.000
 6915.00    0.48832   0.32828   -1.000
 6916.00    0.48722   0.32814   -1.000
 6917.00    0.45470   0.32827   -1.000
 6918.00    0.40728   0.32858   24.553
 6919.00    0.36175   0.32888   27.644
 6920.00    0.32089   0.32904   31.163
 6921.00    0.27783   0.32898   35.994
 6922.00    0.24238   0.32872   41.257
 6923.00    0.23862   0.32835   41.908
 6924.00    0.27443   0.32799   36.439
 6925.00    0.33519   0.32774   29.834
 6926.00    0.39161   0.32771   25.536
 6927.00    0.41718   0.32790   23.970
 6928.00    0.42582   0.32824   23.484
 6929.00    0.45809   0.32854   -1.000
 6930.00    0.52328   0.32867   -1.000
 6931.00    0.59428   0.32863   -1.000
 6932.00    0.63061   0.32853   -1.000
 6933.00    0.60134   0.32847   -1.000
 6934.00    0.52208   0.32851   -1.000
 6935.00    0.43567   0.32868   -1.000
 6936.00    0.35503   0.32901   28.166
 6937.00    0.27483   0.32938   36.386
 6938.00    0.21854   0.32966   -1.000
 6939.00    0.22071   0.32981   -1.000
 6940.00    0.27549   0.32982   36.299
 6941.00    0.34485   0.32968   28.998
 6942.00    0.39220   0.32941   25.497
 6943.00    0.39838   0.32907   25.102
 6944.00    0.37767   0.32877   26.478
 6945.00    0.36221   0.32865   27.608
 6946.00    0.37175   0.32875   26.900
 6947.00    0.40508   0.32903   24.686
 6948.00    0.43561   0.32941   -1.000
 6949.00    0.43238   0.32968   -1.000
 6950.00    0.39212   0.32969   25.502
 6951.00    0.33741   0.32949   29.638
 6952.00    0.30594   0.32923   32.687
 6953.00    0.32680   0.32906   30.600
 6954.00    0.39166   0.32915   25.532
 6955.00    0.46917   0.32952   -1.000
 6956.00    0.52923   0.33006   -1.000
 6957.00    0.55384   0.33069   -1.000
 6958.00    0.54631   0.33132   -1.000
 6959.00    0.52539   0.33188   -1.000
 6960.00    0.51568   0.33230   -1.000
 6961.00    0.53142   0.33264   -1.000
 6962.00    0.56055   0.33294   -1.000
 6963.00    0.57563   0.33323   -1.000
 6964.00    0.54938   0.33353   -1.000
 6965.00    0.47970   0.33383   -1.000
 6966.00    0.40890   0.33416   24.456
 6967.00    0.37949   0.33447   26.351
 6968.00    0.39236   0.33474   25.487
 6969.00    0.42947   0.33492   23.285
 6970.00    0.47724   0.33490   -1.000
 6971.00    0.51832   0.33454   -1.000
 6972.00    0.52545   0.33383   -1.000
 6973.00    0.48455   0.33278   -1.000
 6974.00    0.41278   0.33147   24.226
 6975.00    0.34594   0.33000   28.906
 6976.00    0.32280   0.32855   30.979
 6977.00    0.34958   0.32741   28.606
 6978.00    0.38083   0.32687   26.258
 6979.00    0.37013   0.32709   27.018
 6980.00    0.30753   0.32803   32.517
 6981.00    0.21980   0.32956   -1.000
 6982.00    0.16210   0.33133   -1.000
 6983.00    0.17324   0.33282   -1.000
 6984.00    0.24894   0.33374   40.170
 6985.00    0.35647   0.33407   28.053
 6986.00    0.44903   0.33395   -1.000
 6987.00    0.49131   0.33357   -1.000
 6988.00    0.47443   0.33311   -1.000
 6989.00    0.41669   0.33272   23.999
 6990.00    0.35850   0.33247   27.894
 6991.00    0.33627   0.33240   29.738
 6992.00    0.36653   0.33249   27.283
 6993.00    0.43721   0.33259   -1.000
 6994.00    0.50897   0.33254   -1.000
 6995.00    0.54124   0.33230   -1.000
 6996.00    0.50974   0.33189   -1.000
 6997.00    0.42726   0.33138   23.405
 6998.00    0.34323   0.33081   29.135
 6999.00    0.30187   0.33017   33.126
 7000.00    0.31855   0.32949   31.393
 7001.00    0.35976   0.32885   -2.000
 7002.00    0.35856   0.32838   -2.000
 7003.00    0.30231   0.32810   -2.000
 7004.00    0.24659   0.32793   -2.000
 7005.00    0.23963   0.32787   -2.000
 7006.00    0.29458   0.32804   -2.000
 7007.00    0.39438   0.32851   -2.000
 7008.00    0.49969   0.32916   -2.000
 7009.00    0.56819   0.32976   -2.000
 7010.00    0.57008   0.33012   -2.000
 7011.00    0.51459   0.33011   -2.000
 7012.00    0.44652   0.32974   -2.000
 7013.00    0.41070   0.32914   -2.000
 7014.00    0.43120   0.32854   -2.000
 7015.00    0.48541   0.32811   -2.000
 7016.00    0.52053   0.32793   -2.000
 7017.00    0.51647   0.32805   -2.000
 7018.00    0.49237   0.32852   -2.000
 7019.00    0.47804   0.32926   -2.000
 7020.00    0.49850   0.32990   -2.000
 7021.00    0.55540   0.33005   -2.000
 7022.00    0.62463   0.32969   -2.000
 7023.00    0.66236   0.32910   -2.000
 7024.00    0.63122   0.32851   -2.000
 7025.00    0.55252   0.32819   -2.000
 7026.00    0.48100   0.32828   -2.000
 7027.00    0.42973   0.32875   -2.000
 7028.00    0.37928   0.32937   -2.000
 7029.00    0.32752   0.32994   -2.000
 7030.00    0.29244   0.33039   -2.000
 7031.00    0.29744   0.33068   -2.000
 7032.00    0.35079   0.33075   -2.000
 7033.00    0.41584   0.33058   -2.000
 7034.00    0.44514   0.33028   -2.000
 7035.00    0.44554   0.33003   -2.000
 7036.00    0.45087   0.33000   -2.000
 7037.00    0.46065   0.33030   -2.000
 7038.00    0.45427   0.33099   -2.000
 7039.00    0.42785   0.33198   -2.000
 7040.00    0.39318   0.33323   -2.000
 7041.00    0.36707   0.33476   -2.000
 7042.00    0.35895   0.33628   -2.000
 7043.00    0.35700   0.33739   -2.000
 7044.00    0.34539   0.33800   -2.000
 7045.00    0.32860   0.33824   -2.000
 7046.00    0.31436   0.33814   -2.000
 7047.00    0.29015   0.33771   -2.000
 7048.00    0.24968   0.33685   -2.000
 7049.00    0.22552   0.33536   -2.000
 7050.00    0.25080   0.33308   -2.000
 7051.00    0.31276   0.33008   -2.000
 7052.00    0.37340   0.32660   -2.000
 7053.00    0.39973   0.32294   -2.000
 7054.00    0.38794   0.31941   -2.000
 7055.00    0.38020   0.31631   -2.000
 7056.00    0.40931   0.31388   -2.000
 7057.00    0.44721   0.31215   -2.000
 7058.00    0.45892   0.31106   -2.000
 7059.00    0.45465   0.31038   -2.000
 7060.00    0.45860   0.30993   -2.000
 7061.00    0.47631   0.30965   -2.000
 7062.00    0.49148   0.30957   -2.000
 7063.00    0.47027   0.30964   -2.000
 7064.00    0.40238   0.30971   -2.000
 7065.00    0.32811   0.30970   -2.000
 7066.00    0.28875   0.30964   -2.000
 7067.00    0.28781   0.30960   -2.000
 7068.00    0.30224   0.30972   -2.000
 7069.00    0.29771   0.31016   -2.000
 7070.00    0.26316   0.31094   -2.000
 7071.00    0.22946   0.31199   -2.000
 7072.00    0.23429   0.31311   -2.000
 7073.00    0.29404   0.31405   -2.000
 7074.00    0.38152   0.31474   -2.000
 7075.00    0.42718   0.31522   -2.000
 7076.00    0.40676   0.31553   -2.000
 7077.00    0.37797   0.31563   -2.000
 7078.00    0.38195   0.31548   -2.000
 7079.00    0.39719   0.31502   -2.000
 7080.00    0.40829   0.31420   -2.000
 7081.00    0.43372   0.31293   -2.000
 7082.00    0.46668   0.31119   -2.000
 7083.00    0.46081   0.30902   -2.000
 7084.00    0.41650   0.30651   -2.000
 7085.00    0.40204   0.30389   -2.000
 7086.00    0.44997   0.30140   -2.000
 7087.00    0.52106   0.29924   -2.000
 7088.00    0.56707   0.29745   -2.000
 7089.00    0.56329   0.29595   -2.000
 7090.00    0.52109   0.29485   -2.000
 7091.00    0.48042   0.29421   -2.000
 7092.00    0.46068   0.29392   -2.000
 7093.00    0.44740   0.29390   -2.000
 7094.00    0.41849   0.29410   -2.000
 7095.00    0.35985   0.29444   -2.000
 7096.00    0.28304   0.29499   -2.000
 7097.00    0.22245   0.29573   -2.000
 7098.00    0.20392   0.29662   -2.000
 7099.00    0.23560   0.29761   -2.000
 7100.00    0.31490   0.29861   -2.000
 7101.00    0.42559   0.29952   -2.000
 7102.00    0.52237   0.30022   -2.000
 7103.00    0.54982   0.30076   -2.000
 7104.00    0.51009   0.30115   -2.000
 7105.00    0.45576   0.30140   -2.000
 7106.00    0.41407   0.30142   -2.000
 7107.00    0.37861   0.30122   -2.000
 7108.00    0.34533   0.30080   -2.000
 7109.00    0.31896   0.30031   -2.000
 7110.00    0.30393   0.29988   -2.000
 7111.00    0.30228   0.29957   -2.000
 7112.00    0.31428   0.29947   -2.000
 7113.00    0.33892   0.29966   -2.000
 7114.00    0.37440   0.30020   -2.000
 7115.00    0.41432   0.30092   -2.000
 7116.00    0.43974   0.30163   -2.000
 7117.00    0.42880   0.30222   -2.000
 7118.00    0.37977   0.30266   -2.000
 7119.00    0.31103   0.30293   -2.000
 7120.00    0.25118   0.30292   -2.000
 7121.00    0.22551   0.30261   -2.000
 7122.00    0.23521   0.30201   -2.000
 7123.00    0.26241   0.30118   -2.000
 7124.00    0.28651   0.30016   -2.000
 7125.00    0.29714   0.29905   -2.000
 7126.00    0.30955   0.29782   -2.000
 7127.00    0.33383   0.29657   -2.000
 7128.00    0.32532   0.29555   -2.000
 7129.00    0.24764   0.29496   -2.000
 7130.00    0.17460   0.29474   -2.000
 7131.00    0.19953   0.29481   -2.000
 7132.00    0.28690   0.29519   -2.000
 7133.00    0.34470   0.29590   -2.000
 7134.00    0.35127   0.29681   -2.000
 7135.00    0.33600   0.29768   -2.000
 7136.00    0.33006   0.29838   -2.000
 7137.00    0.34666   0.29884   -2.000
 7138.00    0.36649   0.29912   -2.000
 7139.00    0.36745   0.29929   -2.000
 7140.00    0.36044   0.29937   -2.000
 7141.00    0.36917   0.29941   -2.000
 7142.00    0.40142   0.29939   -2.000
 7143.00    0.43318   0.29917   -2.000
 7144.00    0.40382   0.29874   -2.000
 7145.00    0.31965   0.29820   -2.000
 7146.00    0.33822   0.29766   -2.000
 7147.00    0.52492   0.29728   -2.000
 7148.00    0.64223   0.29722   -2.000
 7149.00    0.50835   0.29750   -2.000
 7150.00    0.31263   0.29821   -2.000
 7151.00    0.26395   0.29939   -2.000
 7152.00    0.28266   0.30071   -2.000
 7153.00    0.25341   0.30184   -2.000
 7154.00    0.23969   0.30264   -2.000
 7155.00    0.31292   0.30305   -2.000
 7156.00    0.41458   0.30306   -2.000
 7157.00    0.46132   0.30277   -2.000
 7158.00    0.43142   0.30225   -2.000
 7159.00    0.35056   0.30142   -2.000
 7160.00    0.27225   0.30025   -2.000
 7161.00    0.24290   0.29896   -2.000
 7162.00    0.27683   0.29780   -2.000
 7163.00    0.34818   0.29687   -2.000
 7164.00    0.39547   0.29621   -2.000
 7165.00    0.37894   0.29586   -2.000
 7166.00    0.31208   0.29597   -2.000
 7167.00    0.23301   0.29669   -2.000
 7168.00    0.18219   0.29788   -2.000
 7169.00    0.18072   0.29913   -2.000
 7170.00    0.21774   0.30012   -2.000
 7171.00    0.24780   0.30078   -2.000
 7172.00    0.20845   0.30119   -2.000
 7173.00    0.11360   0.30141   -2.000
 7174.00    0.06945   0.30136   -2.000
 7175.00    0.11845   0.30101   -2.000
 7176.00    0.18936   0.30040   -2.000
 7177.00    0.22518   0.29969   -2.000
 7178.00    0.23324   0.29906   -2.000
 7179.00    0.23530   0.29861   -2.000
 7180.00    0.24237   0.29826   -2.000
 7181.00    0.24798   0.29794   -2.000
 7182.00    0.23639   0.29772   -2.000
 7183.00    0.22397   0.29767   -2.000
 7184.00    0.25551   0.29775   -2.000
 7185.00    0.32915   0.29777   -2.000
 7186.00    0.38499   0.29763   -2.000
 7187.00    0.36726   0.29738   -2.000
 7188.00    0.26134   0.29721   -2.000
 7189.00    0.13796   0.29731   -2.000
 7190.00    0.12404   0.29784   -2.000
 7191.00    0.26449   0.29863   -2.000
 7192.00    0.49725   0.29942   -2.000
 7193.00    0.71701   0.30004   -2.000
 7194.00    0.80937   0.30046   -2.000
 7195.00    0.68994   0.30076   -2.000
 7196.00    0.34415   0.30097   -2.000
 7197.00   -0.09909   0.30105   -2.000
 7198.00   -0.41729   0.30099   -2.000
 7199.00   -0.47554   0.30098   -2.000
 7200.00   -0.27263   0.30108   -2.000
 7201.00    0.06932   0.30112   -2.000
 7202.00    0.36350   0.30088   -2.000
 7203.00    0.48688   0.30041   -2.000
 7204.00    0.41545   0.29988   -2.000
 7205.00    0.22996   0.29945   -2.000
 7206.00    0.06495   0.29913   -2.000
 7207.00   -0.00028   0.29888   -2.000
 7208.00    0.04453   0.29882   -2.000
 7209.00    0.16215   0.29921   -2.000
 7210.00    0.28879   0.30011   -2.000
 7211.00    0.36630   0.30122   -2.000
 7212.00    0.37208   0.30222   -2.000
 7213.00    0.35855   0.30297   -2.000
 7214.00    0.38534   0.30344   -2.000
 7215.00    0.39395   0.30375   -2.000
 7216.00    0.29897   0.30404   -2.000
 7217.00    0.16933   0.30433   -2.000
 7218.00    0.13016   0.30456   -2.000
