###################################################################
## OUTPUT of StarlightChains_v04.for    [Cid@UFSC - 01/Apr/2007] ##
###################################################################

## Some input info
2003dr.txt                               [arq_obs]
Base.CB07.vall.4m                        [arq_base]
Masks.EmLines.NEW.gm                     [arq_masks]
StCv04.C11.config                        [arq_config]
   66                                    [N_base]
    0                                    [N_YAV_components = # of components with extra extinction!]
    0                                    [i_FitPowerLaw (1/0 = Yes/No)]
-9.99                                    [alpha_PowerLaw]
CCM                                      [red_law_option]
 1.458241                                [q_norm = A(l_norm)/A(V)]

## (Re)Sampling Parameters
 3741.00                                 [l_ini (A)]
 7218.00                                 [l_fin (A)]
    1.00                                 [dl    (A)]     (OBS: dl_cushion =    50.00 A)

## Normalization info
 4020.00                                 [l_norm (A) - for base]
 4010.00                                 [llow_norm (A) - window for f_obs]
 4060.00                                 [lupp_norm (A) - window for f_obs]
1.099821E-17                             [fobs_norm (in input units)]

## S/N
 3691.00                                 [llow_SN (A) - window for S/N]
 7268.00                                 [lupp_SN (A) - window for S/N]
   2.048                                 [S/N in S/N window]
   3.573                                 [S/N in norm. window]
  10.000                                 [S/N_err in S/N window]
  17.444                                 [S/N_err in norm. window]
  1.0000                                 [fscale_chi2]

## etc...
    -2007272                             [idum_orig]
  2330                                   [NOl_eff]
  1185                                   [Nl_eff]
  1145    NSIGMA                         [Ntot_cliped & clip_method]
  1008840                                [Nglobal_steps]
   7                                     [N_chains]
  21                                     [NEX0s_base = N_base in EX0s-fits]
 0   0   1       22   2.0   8.617E+01    [Clip-Bug, RC-Crash & Burn-In warning-flags, n_censored_weights, wei_nsig_threshold & wei_limit]
    12     11.930     11.436      0.494  [idt_all, wdt_TotTime, wdt_UsrTime & wdt_SysTime (sec)]

## Synthesis Results - Best model ##

 2.72841E+00                             [chi2/Nl_eff]
    13.99222                             [adev (%)]

    71.76028                             [sum-of-x (%)]
 2.64234E-18                             [Flux_tot (units of input spectrum!)]
 5.42192E-14                             [Mini_tot (???)]
 2.80404E-14                             [Mcor_tot (???)]

  39.79                                  [v0_min  (km/s)]
 110.15                                  [vd_min  (km/s)]
-0.8147                                  [AV_min  (mag)]
 0.0000                                  [YAV_min (mag)]

# j     x_j(%)      Mini_j(%)     Mcor_j(%)     age_j(yr)     Z_j      (L/M)_j    YAV?  Mstars   component_j        a/Fe...       SSP_chi2r SSP_adev(%)   SSP_AV   SSP_x(%)
  1      0.0000     0.0000E+00    0.0000E+00    1.000000E+06  0.00400  1.094E-02    0   1.0000   age020_m42            0.0000     3.2962E+00    15.1091   2.0185    59.4073
  2      0.0000     0.0000E+00    0.0000E+00    3.160000E+06  0.00400  4.007E-02    0   0.9999   age045_m42            0.0000     3.1113E+00    14.7959   1.3150    62.9915
  3      0.0000     0.0000E+00    0.0000E+00    5.010000E+06  0.00400  2.539E-02    0   0.9488   age055_m42            0.0000     3.1873E+00    14.9343   1.6266    61.6553
  4      0.0000     0.0000E+00    0.0000E+00    6.610000E+06  0.00400  2.620E-02    0   0.9220   age061_m42            0.0000     3.0920E+00    14.7566   1.2410    63.2061
  5      0.0000     0.0000E+00    0.0000E+00    1.000000E+07  0.00400  1.322E-02    0   0.8862   age070_m42            0.0000     3.0887E+00    14.7713   0.9519    65.1025
  6      0.0000     0.0000E+00    0.0000E+00    1.445000E+07  0.00400  7.883E-03    0   0.8571   age078_m42            0.0000     3.1405E+00    14.8464   1.2766    63.4421
  7      0.0000     0.0000E+00    0.0000E+00    2.512000E+07  0.00400  5.251E-03    0   0.8174   age090_m42            0.0000     3.0899E+00    14.7696   0.8221    65.5395
  8      0.0000     0.0000E+00    0.0000E+00    4.000000E+07  0.00400  3.649E-03    0   0.7851   age104_m42            0.0000     3.0434E+00    14.6818   0.5956    66.0510
  9      0.0000     0.0000E+00    0.0000E+00    5.500000E+07  0.00400  3.098E-03    0   0.7629   age110_m42            0.0000     3.0097E+00    14.6040   0.7563    65.7143
 10      0.0000     4.6076E-07    6.4209E-07    1.015200E+08  0.00400  2.228E-03    0   0.7207   age116_m42            0.0000     2.9969E+00    14.5727   0.7814    65.6303
 11      0.0000     0.0000E+00    0.0000E+00    2.861200E+08  0.00400  1.093E-03    0   0.6648   age125_m42            0.0000     2.9586E+00    14.5038   0.2182    67.6860
 12      0.0000     0.0000E+00    0.0000E+00    5.088000E+08  0.00400  6.597E-04    0   0.6365   age130_m42            0.0000     2.9125E+00    14.4043   0.2111    68.0394
 13      0.0000     0.0000E+00    0.0000E+00    1.434000E+09  0.00400  2.132E-04    0   0.5798   age139_m42            0.0000     2.7996E+00    14.1596  -0.7694    69.7191
 14      0.0000     0.0000E+00    0.0000E+00    4.250000E+09  0.00400  5.895E-05    0   0.5377   age158_m42            0.0000     2.9600E+00    14.4238  -1.0000    61.7294
 15      0.0000     0.0000E+00    0.0000E+00    7.500000E+09  0.00400  3.510E-05    0   0.5212   age171_m42            0.0000     3.3128E+00    15.0045  -1.0000    56.8734
 16      0.0000     0.0000E+00    0.0000E+00    1.300000E+10  0.00400  2.005E-05    0   0.5034   age193_m42            0.0000     3.7782E+00    15.7970  -1.0000    52.8245
 17      0.0000     0.0000E+00    0.0000E+00    1.800000E+10  0.00400  1.525E-05    0   0.4967   age213_m42            0.0000     3.8543E+00    15.9346  -1.0000    52.0849
 18      0.0000     0.0000E+00    0.0000E+00    1.000000E+06  0.00800  1.238E-02    0   1.0000   age020_m52            0.0000     3.2931E+00    15.0994   2.0148    59.5258
 19      0.0000     0.0000E+00    0.0000E+00    3.160000E+06  0.00800  3.074E-02    0   0.9966   age045_m52            0.0000     3.2791E+00    15.0703   1.9394    60.0219
 20      0.0000     0.0000E+00    0.0000E+00    5.010000E+06  0.00800  2.668E-02    0   0.9443   age055_m52            0.0000     3.1936E+00    14.9215   1.7042    61.2326
 21      0.0000     0.0000E+00    0.0000E+00    6.610000E+06  0.00800  2.136E-02    0   0.9177   age061_m52            0.0000     3.0082E+00    14.5694   0.4423    66.1474
 22      0.0000     0.0000E+00    0.0000E+00    1.000000E+07  0.00800  1.215E-02    0   0.8827   age070_m52            0.0000     3.1204E+00    14.8182   1.1292    65.1134
 23      0.0000     0.0000E+00    0.0000E+00    1.445000E+07  0.00800  8.717E-03    0   0.8552   age078_m52            0.0000     3.1067E+00    14.7843   1.2424    64.3431
 24      0.0000     0.0000E+00    0.0000E+00    2.512000E+07  0.00800  5.592E-03    0   0.8162   age090_m52            0.0000     3.0643E+00    14.7374   0.8866    66.3422
 25      0.0082     1.4323E-04    2.1715E-04    4.000000E+07  0.00800  3.896E-03    0   0.7841   age104_m52            0.0000     3.0142E+00    14.6365   0.8053    66.6504
 26      0.0000     0.0000E+00    0.0000E+00    1.015200E+08  0.00800  2.148E-03    0   0.7226   age116_m52            0.0000     2.9699E+00    14.5212   0.7489    66.2622
 27      0.0000     0.0000E+00    0.0000E+00    2.861200E+08  0.00800  9.925E-04    0   0.6683   age125_m52            0.0000     2.8750E+00    14.3360   0.2744    68.7596
 28      0.0000     0.0000E+00    0.0000E+00    9.047900E+08  0.00800  3.141E-04    0   0.6138   age135_m52            0.0000     2.7746E+00    14.1097  -0.5166    71.3517
 29      6.7157     2.6532E+00    3.0027E+00    1.434000E+09  0.00800  1.719E-04    0   0.5853   age139_m52            0.0000     2.7902E+00    14.1250  -1.0000    67.4984
 30      0.0000     0.0000E+00    0.0000E+00    2.500000E+09  0.00800  7.872E-05    0   0.5600   age150_m52            0.0000     3.2128E+00    14.8530  -1.0000    58.9586
 31      0.0000     0.0000E+00    0.0000E+00    4.250000E+09  0.00800  4.336E-05    0   0.5426   age158_m52            0.0000     3.2684E+00    14.9362  -1.0000    58.0302
 32      0.0000     0.0000E+00    0.0000E+00    6.250000E+09  0.00800  3.159E-05    0   0.5319   age166_m52            0.0000     3.8448E+00    15.8899  -1.0000    53.3465
 33      0.0000     0.0000E+00    0.0000E+00    1.300000E+10  0.00800  1.361E-05    0   0.5073   age193_m52            0.0000     5.7768E+00    19.1830  -1.0000    43.1588
 34      0.0000     0.0000E+00    0.0000E+00    1.800000E+10  0.00800  9.886E-06    0   0.4990   age213_m52            0.0000     6.3079E+00    19.9376  -1.0000    40.8826
 35      0.0000     0.0000E+00    0.0000E+00    1.000000E+06  0.02000  1.544E-02    0   1.0000   age020_m62            0.0000     3.3008E+00    15.1098   2.0103    59.6777
 36      0.0000     0.0000E+00    0.0000E+00    3.160000E+06  0.02000  3.762E-02    0   0.9858   age045_m62            0.0000     3.3000E+00    15.1060   1.9504    60.1799
 37      0.0000     0.0000E+00    0.0000E+00    5.010000E+06  0.02000  3.296E-02    0   0.9342   age055_m62            0.0000     3.1423E+00    14.8420   1.5882    62.3577
 38      0.0000     0.0000E+00    0.0000E+00    8.710000E+06  0.02000  1.154E-02    0   0.8861   age067_m62            0.0000     3.4832E+00    15.4955   0.5620    68.2047
 39      0.0000     0.0000E+00    0.0000E+00    1.445000E+07  0.02000  7.663E-03    0   0.8472   age078_m62            0.0000     3.1492E+00    14.8995   0.7723    66.9733
 40      0.0000     0.0000E+00    0.0000E+00    2.512000E+07  0.02000  4.532E-03    0   0.8099   age090_m62            0.0000     3.1689E+00    14.9504   0.7678    66.7628
 41      0.0000     0.0000E+00    0.0000E+00    5.500000E+07  0.02000  2.733E-03    0   0.7595   age110_m62            0.0000     3.0155E+00    14.6471   0.7837    66.2954
 42      0.0017     8.5718E-05    1.1577E-04    1.609000E+08  0.02000  1.369E-03    0   0.6985   age120_m62            0.0000     2.9335E+00    14.4658   0.6326    67.7127
 43      0.0000     0.0000E+00    0.0000E+00    2.861200E+08  0.02000  9.013E-04    0   0.6714   age125_m62            0.0000     2.8826E+00    14.3447   0.3843    69.5590
 44      0.0000     0.0000E+00    0.0000E+00    5.088000E+08  0.02000  5.028E-04    0   0.6449   age130_m62            0.0000     2.8296E+00    14.2084   0.0148    71.0339
 45      0.0000     0.0000E+00    0.0000E+00    9.047900E+08  0.02000  2.428E-04    0   0.6179   age135_m62            0.0000     2.7540E+00    14.0464  -0.5755    70.7795
 46      0.0000     0.0000E+00    0.0000E+00    1.434000E+09  0.02000  1.263E-04    0   0.5908   age139_m62            0.0000     2.7740E+00    14.1126  -1.0000    69.2691
 47      0.0000     0.0000E+00    0.0000E+00    2.500000E+09  0.02000  5.985E-05    0   0.5673   age150_m62            0.0000     3.2853E+00    14.9653  -1.0000    59.1630
 48      0.0000     0.0000E+00    0.0000E+00    4.250000E+09  0.02000  3.271E-05    0   0.5468   age158_m62            0.0000     4.2454E+00    16.5499  -1.0000    51.5996
 49      0.0000     0.0000E+00    0.0000E+00    1.000000E+10  0.02000  1.360E-05    0   0.5167   age181_m62            0.0000     5.7367E+00    18.9343  -1.0000    44.0914
 50      0.0012     1.1854E-02    1.1490E-02    1.800000E+10  0.02000  7.124E-06    0   0.5013   age213_m62            0.0000     6.7816E+00    20.4282  -1.0000    39.7598
 51      0.0000     0.0000E+00    0.0000E+00    1.000000E+06  0.05000  2.592E-02    0   0.9998   age020_m72            0.0000     3.3190E+00    15.1310   2.0015    59.7185
 52      0.0000     0.0000E+00    0.0000E+00    3.160000E+06  0.05000  4.845E-02    0   0.9577   age045_m72            0.0000     3.2438E+00    15.0143   1.8389    60.8306
 53      0.0000     0.0000E+00    0.0000E+00    5.010000E+06  0.05000  3.072E-02    0   0.9147   age055_m72            0.0000     3.1642E+00    14.8863   1.3694    63.9125
 54      0.0000     0.0000E+00    0.0000E+00    6.610000E+06  0.05000  1.455E-02    0   0.8877   age061_m72            0.0000     3.8139E+00    16.0396   0.6347    68.7189
 55      0.0000     0.0000E+00    0.0000E+00    1.000000E+07  0.05000  9.074E-03    0   0.8524   age070_m72            0.0000     3.2257E+00    15.0500   1.5735    63.3602
 56      0.0000     0.0000E+00    0.0000E+00    2.512000E+07  0.05000  4.250E-03    0   0.7902   age090_m72            0.0000     3.1321E+00    14.8621   1.2661    64.6699
 57      0.0000     0.0000E+00    0.0000E+00    4.000000E+07  0.05000  3.087E-03    0   0.7618   age104_m72            0.0000     3.1167E+00    14.8367   1.0377    65.8429
 58      8.5509     3.4160E-01    4.6870E-01    1.015200E+08  0.05000  1.700E-03    0   0.7096   age116_m72            0.0000     2.9716E+00    14.5515   0.7746    67.5421
 59      5.5281     5.0843E-01    6.5210E-01    2.861200E+08  0.05000  7.384E-04    0   0.6633   age125_m72            0.0000     2.8296E+00    14.2232   0.2552    70.3705
 60     25.2733     4.4943E+00    5.5374E+00    5.088000E+08  0.05000  3.819E-04    0   0.6372   age130_m72            0.0000     2.7631E+00    14.0372  -0.2368    71.4025
 61     15.8209     6.4107E+00    7.5739E+00    9.047900E+08  0.05000  1.676E-04    0   0.6110   age135_m72            0.0000     2.7898E+00    14.1278  -0.9378    70.2161
 62      3.6404     2.7977E+00    3.1776E+00    1.434000E+09  0.05000  8.837E-05    0   0.5874   age139_m72            0.0000     3.2812E+00    14.9694  -1.0000    60.0360
 63      0.0000     0.0000E+00    0.0000E+00    2.500000E+09  0.05000  4.233E-05    0   0.5598   age150_m72            0.0000     4.2654E+00    16.5693  -1.0000    52.0234
 64      0.0000     0.0000E+00    0.0000E+00    6.250000E+09  0.05000  1.435E-05    0   0.5249   age166_m72            0.0000     6.2097E+00    19.6574  -1.0000    42.0269
 65      2.3011     2.3994E+01    2.3364E+01    1.300000E+10  0.05000  6.513E-06    0   0.5036   age193_m72            0.0000     7.6782E+00    21.6788  -1.0000    37.2836
 66      3.9188     5.8788E+01    5.6212E+01    1.800000E+10  0.05000  4.527E-06    0   0.4945   age213_m72            0.0000     8.5675E+00    22.8488  -1.0000    34.5052


## Synthesis Results - Average & Chains ##

# j      x_j: min, <> & last-chain-values for 1 ...  7 chains
  1      0.0000      0.0901      0.0000      0.0000      0.0000      0.0000      0.0000      0.1786      0.0000
  2      0.0000      0.1417      0.0000      0.0000      0.9887      0.0000      0.0000      0.4914      0.0000
  3      0.0000      0.1087      0.0000      0.5603      0.0000      0.0559      0.0000      0.0000      0.0000
  4      0.0000      0.1351      0.0000      0.0000      0.0000      0.0000      0.2896      1.1164      0.0000
  5      0.0000      0.3065      0.9188      0.3930      0.0000      0.3731      0.0000      0.0000      0.0000
  6      0.0000      0.4014      0.0000      0.0000      0.0000      0.0000      0.0036      0.0000      0.0000
  7      0.0000      0.3673      0.0000      0.0000      0.0000      0.0000      0.4052      0.0000      0.9678
  8      0.0000      0.2970      1.4710      0.0000      0.0000      0.0000      0.0000      0.0000      0.0000
  9      0.0000      0.2010      0.0000      0.6211      0.0000      0.2721      0.0000      0.0000      0.0000
 10      0.0000      0.2433      0.0000      0.2012      1.3644      0.0000      0.4833      0.0000      0.0000
 11      0.0000      0.3695      0.0000      0.0000      0.2444      0.1751      0.4632      0.0000      0.0000
 12      0.0000      0.6387      0.0000      0.0000      0.0000      0.0000      2.3351      0.0000      0.5891
 13      0.0000      1.2917      0.0000      0.0000      0.0000      0.0000      0.0000      0.0000      0.0000
 14      0.0000      0.6187      0.0000      0.8248      1.0844      0.2593      0.0000      0.0000      0.0000
 15      0.0000      0.3854      0.0000      0.5116      0.1740      0.0000      0.0000      0.1730      0.0000
 16      0.0000      0.5819      0.0000      0.4384      0.0000      0.0000      0.0000      0.0000      0.0000
 17      0.0000      0.3528      0.2263      0.0000      0.0000      0.0000      0.0000      0.9991      0.0000
 18      0.0000      0.0872      0.0000      0.0000      0.2466      0.0000      0.0000      0.0000      0.0000
 19      0.0000      0.1598      0.5196      0.0000      0.0000      0.0000      0.0000      0.0000      0.0000
 20      0.0000      0.2863      0.7824      0.0000      0.0000      0.0000      0.0000      0.0000      0.0000
 21      0.0000      0.2271      0.0000      0.0000      0.0000      1.7762      0.0000      0.0675      1.1567
 22      0.0000      0.2086      0.1973      0.0000      0.0000      0.0000      0.1008      0.0000      0.3595
 23      0.0000      0.2464      0.0000      0.0000      0.0000      0.0000      0.0000      0.0000      0.0000
 24      0.0000      0.3432      0.4850      0.1908      0.0000      0.0000      0.1100      0.5226      0.0000
 25      0.0082      0.3180      1.4111      0.2948      0.0000      0.0000      1.6180      0.0000      1.0566
 26      0.0000      0.3270      0.8473      0.0000      0.3004      0.0000      0.0000      0.8505      0.0000
 27      0.0000      0.8299      0.6480      0.0000      0.8505      1.3447      1.9623      0.6199      0.0000
 28      0.0000      2.2090      0.0000      0.9157      0.0000      1.9294      4.5602      0.0000      0.6200
 29      6.7157      4.0684      0.0000      0.0000      3.6882      2.2581      3.8857      2.5385      3.9562
 30      0.0000      1.5131      0.0000      0.0000      1.5668      0.1379      1.0120      4.5568      1.4910
 31      0.0000      0.9051      1.0412      3.7774      0.0000      0.0000      0.0000      0.7564      1.0116
 32      0.0000      0.6902      2.7626      0.5290      0.0000      0.0000      0.0000      0.0000      0.0000
 33      0.0000      0.2682      0.0974      0.9653      0.0000      0.1374      0.9212      0.0000      1.3428
 34      0.0000      0.2461      0.0000      0.7518      0.0000      0.0000      0.0000      0.8287      0.0000
 35      0.0000      0.1234      0.4619      0.0000      0.0000      0.0000      0.0000      0.0000      0.0000
 36      0.0000      0.1432      0.0000      0.6351      0.0000      0.2979      0.0000      0.0000      0.1561
 37      0.0000      0.2645      0.3611      0.0985      0.0000      0.0000      0.0000      0.0000      2.2694
 38      0.0000      0.1895      0.6200      1.5151      0.0000      0.0874      0.0000      0.0000      0.0000
 39      0.0000      0.1667      0.1078      0.0000      0.0000      0.0000      0.0000      0.1472      0.0000
 40      0.0000      0.4232      0.0000      0.0000      0.0000      1.1782      0.0000      0.0000      1.4431
 41      0.0000      0.1804      0.2628      0.0000      0.0000      0.1505      0.0000      0.0000      0.0000
 42      0.0017      0.7209      0.0000      0.6217      0.0000      2.6047      0.8368      2.2983      2.7197
 43      0.0000      0.4523      1.3217      0.0000      0.0000      0.1907      0.0000      0.7603      0.0000
 44      0.0000      0.7005      1.1040      0.0000      0.0000      0.0796      0.0000      2.4198      0.6471
 45      0.0000      2.3551      0.0000      0.4008      7.6537      0.0000      0.0000      3.2580      1.9605
 46      0.0000      2.6823      0.0000      2.4054      3.1813      2.4103      0.9917      3.7546      2.5182
 47      0.0000      1.0797      0.4694      0.8943      0.8239      0.1575      2.8775      0.0000      0.0000
 48      0.0000      0.5773      1.3914      0.4076      0.0000      2.5625      0.2983      0.2505      0.0000
 49      0.0000      0.2711      0.0000      0.3191      0.0000      0.0000      0.0000      0.0000      0.0000
 50      0.0012      0.8110      1.0886      0.0000      0.8627      1.1201      2.1835      1.2298      1.0761
 51      0.0000      0.1354      0.0000      0.5454      0.0000      0.0000      0.0000      0.1096      0.0000
 52      0.0000      0.1572      0.0000      0.0000      0.6211      0.0000      0.0000      0.0000      0.3095
 53      0.0000      0.1842      0.0000      0.0000      0.0000      0.0000      0.0000      1.2867      0.0000
 54      0.0000      0.2195      1.0912      0.2452      0.0000      0.0000      0.0052      0.0000      0.0000
 55      0.0000      0.2486      0.0000      0.0000      0.0000      0.0000      0.0000      0.0000      0.5425
 56      0.0000      0.2882      0.0000      0.0000      0.0000      0.6769      0.0000      0.0713      0.0000
 57      0.0000      0.2840      0.0000      1.2706      0.0000      0.0000      0.0000      0.4999      0.0000
 58      8.5509      0.6119      0.4802      1.6008      2.2953      2.2464      2.4703      1.5709      0.6034
 59      5.5281      0.8670      0.0000      1.7988      3.1629      0.0000      0.4544      0.0000      0.8133
 60     25.2733     21.5451     31.7482     30.1033     19.2513     27.2586     26.7807     24.2571     17.6952
 61     15.8209      7.5622     10.0893      6.9484     12.1504      9.8793      6.8118      8.9271     15.4711
 62      3.6404      2.9847      1.4409      4.1807      6.8453      4.3835      5.0960      1.5576      5.1717
 63      0.0000      0.9354      1.4101      1.0425      0.0000      1.5749      0.3994      0.0395      1.0537
 64      0.0000      0.6246      0.9250      0.0000      0.0000      2.1853      0.0000      0.5509      0.0000
 65      2.3011      1.6363      2.4990      2.2122      1.0623      1.3195      1.3241      2.2950      1.9341
 66      3.9188      2.3621      3.5275      3.0835      2.8144      2.0570      2.6623      2.0764      1.8589

# j      m_j: min, <> & last-chain-values for 1 ...  7 chains
  1  0.0000E+00  1.1292E-03  0.0000E+00  0.0000E+00  0.0000E+00  0.0000E+00  0.0000E+00  2.1514E-03  0.0000E+00
  2  0.0000E+00  4.8474E-04  0.0000E+00  0.0000E+00  3.7629E-03  0.0000E+00  0.0000E+00  1.6159E-03  0.0000E+00
  3  0.0000E+00  5.5718E-04  0.0000E+00  2.5345E-03  0.0000E+00  2.9978E-04  0.0000E+00  0.0000E+00  0.0000E+00
  4  0.0000E+00  6.5193E-04  0.0000E+00  0.0000E+00  0.0000E+00  0.0000E+00  1.3369E-03  5.1769E-03  0.0000E+00
  5  0.0000E+00  2.8172E-03  6.7712E-03  3.1888E-03  0.0000E+00  3.5906E-03  0.0000E+00  0.0000E+00  0.0000E+00
  6  0.0000E+00  5.9854E-03  0.0000E+00  0.0000E+00  0.0000E+00  0.0000E+00  5.1232E-05  0.0000E+00  0.0000E+00
  7  0.0000E+00  7.8402E-03  0.0000E+00  0.0000E+00  0.0000E+00  0.0000E+00  8.2742E-03  0.0000E+00  2.2421E-02
  8  0.0000E+00  8.7624E-03  3.4796E-02  0.0000E+00  0.0000E+00  0.0000E+00  0.0000E+00  0.0000E+00  0.0000E+00
  9  0.0000E+00  6.7870E-03  0.0000E+00  1.8513E-02  0.0000E+00  9.6189E-03  0.0000E+00  0.0000E+00  0.0000E+00
 10  6.4209E-07  1.0792E-02  0.0000E+00  7.8760E-03  6.7315E-02  0.0000E+00  2.0504E-02  0.0000E+00  0.0000E+00
 11  0.0000E+00  3.0817E-02  0.0000E+00  0.0000E+00  2.2670E-02  1.5289E-02  3.6951E-02  0.0000E+00  0.0000E+00
 12  0.0000E+00  8.4514E-02  0.0000E+00  0.0000E+00  0.0000E+00  0.0000E+00  2.9551E-01  0.0000E+00  8.4594E-02
 13  0.0000E+00  4.8174E-01  0.0000E+00  0.0000E+00  0.0000E+00  0.0000E+00  0.0000E+00  0.0000E+00  0.0000E+00
 14  0.0000E+00  7.7385E-01  0.0000E+00  9.1063E-01  1.5085E+00  3.3950E-01  0.0000E+00  0.0000E+00  0.0000E+00
 15  0.0000E+00  7.8486E-01  0.0000E+00  9.1954E-01  3.9404E-01  0.0000E+00  0.0000E+00  3.3845E-01  0.0000E+00
 16  0.0000E+00  2.0035E+00  0.0000E+00  1.3322E+00  0.0000E+00  0.0000E+00  0.0000E+00  0.0000E+00  0.0000E+00
 17  0.0000E+00  1.5759E+00  8.1032E-01  0.0000E+00  0.0000E+00  0.0000E+00  0.0000E+00  4.2879E+00  0.0000E+00
 18  0.0000E+00  9.6564E-04  0.0000E+00  0.0000E+00  3.0378E-03  0.0000E+00  0.0000E+00  0.0000E+00  0.0000E+00
 19  0.0000E+00  7.1043E-04  1.8522E-03  0.0000E+00  0.0000E+00  0.0000E+00  0.0000E+00  0.0000E+00  0.0000E+00
 20  0.0000E+00  1.3898E-03  3.0444E-03  0.0000E+00  0.0000E+00  0.0000E+00  0.0000E+00  0.0000E+00  0.0000E+00
 21  0.0000E+00  1.3379E-03  0.0000E+00  0.0000E+00  0.0000E+00  1.0956E-02  0.0000E+00  3.8238E-04  7.3961E-03
 22  0.0000E+00  2.0778E-03  1.5762E-03  0.0000E+00  0.0000E+00  0.0000E+00  9.6031E-04  0.0000E+00  3.8874E-03
 23  0.0000E+00  3.3145E-03  0.0000E+00  0.0000E+00  0.0000E+00  0.0000E+00  0.0000E+00  0.0000E+00  0.0000E+00
 24  0.0000E+00  6.8705E-03  7.7822E-03  3.3710E-03  0.0000E+00  0.0000E+00  2.1050E-03  1.0052E-02  0.0000E+00
 25  2.1715E-04  8.7757E-03  3.1223E-02  7.1807E-03  0.0000E+00  0.0000E+00  4.2711E-02  0.0000E+00  3.1650E-02
 26  0.0000E+00  1.5085E-02  3.1339E-02  0.0000E+00  1.5411E-02  0.0000E+00  0.0000E+00  3.7703E-02  0.0000E+00
 27  0.0000E+00  7.6629E-02  4.7970E-02  0.0000E+00  8.7341E-02  1.2999E-01  1.7331E-01  5.5004E-02  0.0000E+00
 28  0.0000E+00  5.9198E-01  0.0000E+00  2.1660E-01  0.0000E+00  5.4128E-01  1.1688E+00  0.0000E+00  1.8031E-01
 29  3.0027E+00  1.8996E+00  0.0000E+00  0.0000E+00  1.9153E+00  1.1038E+00  1.7354E+00  1.1389E+00  2.0048E+00
 30  0.0000E+00  1.4761E+00  0.0000E+00  0.0000E+00  1.7000E+00  1.4083E-01  9.4431E-01  4.2714E+00  1.5786E+00
 31  0.0000E+00  1.5532E+00  1.4325E+00  5.7217E+00  0.0000E+00  0.0000E+00  0.0000E+00  1.2473E+00  1.8839E+00
 32  0.0000E+00  1.5936E+00  5.1140E+00  1.0781E+00  0.0000E+00  0.0000E+00  0.0000E+00  0.0000E+00  0.0000E+00
 33  0.0000E+00  1.3709E+00  3.9911E-01  4.3554E+00  0.0000E+00  7.3505E-01  4.5038E+00  0.0000E+00  7.4489E+00
 34  0.0000E+00  1.7034E+00  0.0000E+00  4.5930E+00  0.0000E+00  0.0000E+00  0.0000E+00  5.5120E+00  0.0000E+00
 35  0.0000E+00  1.0961E-03  3.2890E-03  0.0000E+00  0.0000E+00  0.0000E+00  0.0000E+00  0.0000E+00  0.0000E+00
 36  0.0000E+00  5.1455E-04  0.0000E+00  2.0143E-03  0.0000E+00  1.1206E-03  0.0000E+00  0.0000E+00  6.0893E-04
 37  0.0000E+00  1.0279E-03  1.1251E-03  3.3791E-04  0.0000E+00  0.0000E+00  0.0000E+00  0.0000E+00  9.5730E-03
 38  0.0000E+00  1.9953E-03  5.2340E-03  1.4082E-02  0.0000E+00  9.6317E-04  0.0000E+00  0.0000E+00  0.0000E+00
 39  0.0000E+00  2.5279E-03  1.3099E-03  0.0000E+00  0.0000E+00  0.0000E+00  0.0000E+00  2.1448E-03  0.0000E+00
 40  0.0000E+00  1.0372E-02  0.0000E+00  0.0000E+00  0.0000E+00  3.0227E-02  0.0000E+00  0.0000E+00  3.8383E-02
 41  0.0000E+00  6.8756E-03  8.0289E-03  0.0000E+00  0.0000E+00  6.0061E-03  0.0000E+00  0.0000E+00  0.0000E+00
 42  1.1577E-04  5.0440E-02  0.0000E+00  3.8397E-02  0.0000E+00  1.9080E-01  5.6003E-02  1.5452E-01  2.0653E-01
 43  0.0000E+00  4.6202E-02  1.0825E-01  0.0000E+00  0.0000E+00  2.0396E-02  0.0000E+00  7.4634E-02  0.0000E+00
 44  0.0000E+00  1.2321E-01  1.5568E-01  0.0000E+00  0.0000E+00  1.4660E-02  0.0000E+00  4.0897E-01  1.2352E-01
 45  0.0000E+00  8.2191E-01  0.0000E+00  1.2347E-01  2.9707E+00  0.0000E+00  0.0000E+00  1.0925E+00  7.4253E-01
 46  0.0000E+00  1.7206E+00  0.0000E+00  1.3619E+00  2.2697E+00  1.6187E+00  6.0847E-01  2.3143E+00  1.7532E+00
 47  0.0000E+00  1.4034E+00  4.8914E-01  1.0261E+00  1.1910E+00  2.1438E-01  3.5775E+00  0.0000E+00  0.0000E+00
 48  0.0000E+00  1.3234E+00  2.5571E+00  8.2476E-01  0.0000E+00  6.1498E+00  6.5399E-01  5.5184E-01  0.0000E+00
 49  0.0000E+00  1.4126E+00  0.0000E+00  1.4674E+00  0.0000E+00  0.0000E+00  0.0000E+00  0.0000E+00  0.0000E+00
 50  1.1490E-02  7.8257E+00  8.4219E+00  0.0000E+00  9.2587E+00  1.1316E+01  2.0153E+01  1.1403E+01  1.1269E+01
 51  0.0000E+00  7.1617E-04  0.0000E+00  2.5465E-03  0.0000E+00  0.0000E+00  0.0000E+00  5.5681E-04  0.0000E+00
 52  0.0000E+00  4.2622E-04  0.0000E+00  0.0000E+00  1.8724E-03  0.0000E+00  0.0000E+00  0.0000E+00  9.1063E-04
 53  0.0000E+00  7.5229E-04  0.0000E+00  0.0000E+00  0.0000E+00  0.0000E+00  0.0000E+00  5.0484E-03  0.0000E+00
 54  0.0000E+00  1.8368E-03  7.3189E-03  1.8105E-03  0.0000E+00  0.0000E+00  4.1242E-05  0.0000E+00  0.0000E+00
 55  0.0000E+00  3.2029E-03  0.0000E+00  0.0000E+00  0.0000E+00  0.0000E+00  0.0000E+00  0.0000E+00  7.5849E-03
 56  0.0000E+00  7.3489E-03  0.0000E+00  0.0000E+00  0.0000E+00  1.8070E-02  0.0000E+00  1.7465E-03  0.0000E+00
 57  0.0000E+00  9.6115E-03  0.0000E+00  3.7955E-02  0.0000E+00  0.0000E+00  0.0000E+00  1.6254E-02  0.0000E+00
 58  4.6870E-01  3.5024E-02  2.2036E-02  8.0883E-02  1.4613E-01  1.3462E-01  1.3525E-01  8.6400E-02  3.7484E-02
 59  6.5210E-01  1.0680E-01  0.0000E+00  1.9558E-01  4.3334E-01  0.0000E+00  5.3541E-02  0.0000E+00  1.0873E-01
 60  5.5374E+00  4.9297E+00  5.8238E+00  6.0797E+00  4.8990E+00  6.5295E+00  5.8609E+00  5.3331E+00  4.3941E+00
 61  7.5739E+00  3.7806E+00  4.0438E+00  3.0661E+00  6.7559E+00  5.1706E+00  3.2572E+00  4.2883E+00  8.3941E+00
 62  3.1776E+00  2.7207E+00  1.0530E+00  3.3637E+00  6.9398E+00  4.1831E+00  4.4430E+00  1.3643E+00  5.1162E+00
 63  0.0000E+00  1.6965E+00  2.0501E+00  1.6688E+00  0.0000E+00  2.9901E+00  6.9274E-01  6.8819E-02  2.0740E+00
 64  0.0000E+00  3.1332E+00  3.7197E+00  0.0000E+00  0.0000E+00  1.1476E+01  0.0000E+00  2.6553E+00  0.0000E+00
 65  2.3364E+01  1.7351E+01  2.1244E+01  2.0705E+01  1.2528E+01  1.4648E+01  1.3429E+01  2.3383E+01  2.2257E+01
 66  5.6212E+01  3.5384E+01  4.2363E+01  4.0770E+01  4.6888E+01  3.2258E+01  3.8145E+01  2.9887E+01  3.0220E+01

# AV, chi2 & Mass for <> & i_chain = 1 ...  7 solutions
AV      -0.8147     -0.8664     -0.8701     -0.8797     -0.8622     -0.8515     -0.8585     -0.8405     -0.8485
chi2 2.7284E+00  2.7392E+00  2.7364E+00  2.7367E+00  2.7350E+00  2.7354E+00  2.7344E+00  2.7360E+00  2.7371E+00
Mass 2.8040E-14  2.5050E-14  3.1092E-14  2.7879E-14  2.2650E-14  2.4411E-14  2.6470E-14  2.6993E-14  2.3644E-14
  39.79                                  [v0_min (km/s) before EX0s...]
 110.15                                  [vd_min (km/s) before EX0s...]


## Synthetic spectrum (Best Model) ##l_obs f_obs f_syn wei
 3478    [Nl_obs]
 3741.00   -1.01549   0.41203   -2.000
 3742.00   -1.31320   0.41466   -2.000
 3743.00   -1.22874   0.40394   -2.000
 3744.00   -1.17198   0.38609   -2.000
 3745.00   -1.23209   0.36456   -2.000
 3746.00   -1.29377   0.33963   -2.000
 3747.00   -1.25234   0.31143   -2.000
 3748.00   -0.97576   0.28208   -2.000
 3749.00   -0.26824   0.25833   -2.000
 3750.00    0.75059   0.25100   -1.000
 3751.00    1.30161   0.26701   -1.000
 3752.00    0.71810   0.30261   -1.000
 3753.00   -0.75278   0.34696   -2.000
 3754.00   -2.33984   0.38935   -2.000
 3755.00   -3.25012   0.42104   -2.000
 3756.00   -3.04010   0.43461   -2.000
 3757.00   -1.90263   0.42834   -2.000
 3758.00   -0.37637   0.41116   -2.000
 3759.00    0.95810   0.39788   -1.000
 3760.00    1.53013   0.39669   -1.000
 3761.00    0.86987   0.40454   -1.000
 3762.00   -0.76986   0.41386   -2.000
 3763.00   -2.04037   0.41935   -2.000
 3764.00   -2.01252   0.41896   -2.000
 3765.00   -1.34586   0.41192   -2.000
 3766.00   -0.98787   0.39731   -2.000
 3767.00   -1.07659   0.37632   -2.000
 3768.00   -1.35410   0.35356   -2.000
 3769.00   -1.56432   0.33343   -2.000
 3770.00   -1.48398   0.31970   -2.000
 3771.00   -0.94976   0.31828   -2.000
 3772.00   -0.04075   0.33271   -2.000
 3773.00    0.81788   0.35777   -1.000
 3774.00    1.09474   0.38383   -1.000
 3775.00    0.41394   0.40646   24.158
 3776.00   -0.86376   0.42789   -2.000
 3777.00   -1.47583   0.45101   -2.000
 3778.00   -0.83139   0.47561   -2.000
 3779.00    0.15195   0.49960   -1.000
 3780.00    0.63208   0.52047   15.821
 3781.00    0.77818   0.53549   -1.000
 3782.00    0.89440   0.54372   -1.000
 3783.00    0.89503   0.54683   -1.000
 3784.00    0.69767   0.54487   14.334
 3785.00    0.44972   0.53383   22.236
 3786.00    0.34077   0.51170   -1.000
 3787.00    0.46080   0.48492   21.702
 3788.00    0.67181   0.46291   -1.000
 3789.00    0.64106   0.44949   -1.000
 3790.00    0.39827   0.44283   25.109
 3791.00    0.46467   0.43828   21.521
 3792.00    0.90512   0.42939   -1.000
 3793.00    1.04164   0.41109   -1.000
 3794.00    0.60572   0.38371   -1.000
 3795.00    0.13943   0.35197   -1.000
 3796.00   -0.01226   0.32063   -2.000
 3797.00   -0.07038   0.29369   -2.000
 3798.00   -0.12306   0.27795   -2.000
 3799.00    0.08099   0.28199   -1.000
 3800.00    0.49147   0.30815   -1.000
 3801.00    0.62539   0.34899   -1.000
 3802.00    0.32879   0.39340   30.414
 3803.00   -0.01568   0.43273   -2.000
 3804.00   -0.09400   0.46132   -2.000
 3805.00    0.10541   0.47672   -1.000
 3806.00    0.44772   0.48207   22.336
 3807.00    0.72677   0.48618   -1.000
 3808.00    0.68558   0.49794   -1.000
 3809.00    0.13621   0.51853   -1.000
 3810.00   -0.62400   0.53976   -2.000
 3811.00   -0.90810   0.55057   -2.000
 3812.00   -0.58286   0.54451   -2.000
 3813.00   -0.16680   0.52433   -2.000
 3814.00    0.10582   0.50116   -1.000
 3815.00    0.45608   0.48712   21.926
 3816.00    0.94742   0.48719   -1.000
 3817.00    1.37707   0.49702   -1.000
 3818.00    1.65320   0.50590   -1.000
 3819.00    1.82337   0.50500   -1.000
 3820.00    1.74766   0.49560   -1.000
 3821.00    1.20306   0.48702   -1.000
 3822.00    0.53273   0.48407   18.771
 3823.00    0.46576   0.48028   21.470
 3824.00    0.96847   0.46726   -1.000
 3825.00    1.26442   0.44664   -1.000
 3826.00    0.92371   0.42679   -1.000
 3827.00    0.10407   0.41239   -1.000
 3828.00   -0.70837   0.40201   -2.000
 3829.00   -0.96678   0.39200   -2.000
 3830.00   -0.56388   0.37850   -2.000
 3831.00    0.17384   0.35796   -1.000
 3832.00    0.86746   0.32933   -1.000
 3833.00    1.22059   0.29699   -1.000
 3834.00    1.09178   0.26896   -1.000
 3835.00    0.51146   0.25233   -1.000
 3836.00   -0.32457   0.25043   -2.000
 3837.00   -1.08468   0.26163   -2.000
 3838.00   -1.37092   0.28079   -2.000
 3839.00   -0.92368   0.30385   -2.000
 3840.00   -0.03388   0.33027   -2.000
 3841.00    0.67673   0.36115   -1.000
 3842.00    0.94410   0.39534   -1.000
 3843.00    0.88182   0.42780   -1.000
 3844.00    0.68680   0.45353   -1.000
 3845.00    0.50877   0.47183   19.655
 3846.00    0.32311   0.48569   -1.000
 3847.00    0.03341   0.49766    0.000
 3848.00   -0.27669   0.50680   -2.000
 3849.00   -0.39409   0.51146   -2.000
 3850.00   -0.17706   0.51484   -2.000
 3851.00    0.27559   0.52266    0.000
 3852.00    0.40826   0.53463    0.000
 3853.00   -0.25794   0.54410   -2.000
 3854.00   -1.13192   0.54632   -2.000
 3855.00   -1.17833   0.54226   -2.000
 3856.00   -0.29899   0.53610   -2.000
 3857.00    0.82895   0.53141    0.000
 3858.00    1.44959   0.52804    0.000
 3859.00    1.18758   0.52551    0.000
 3860.00    0.56355   0.52782    0.000
 3861.00    0.37642   0.53845    0.000
 3862.00    0.62891   0.55366    0.000
 3863.00    0.90256   0.56611    0.000
 3864.00    1.16591   0.57197    0.000
 3865.00    1.53005   0.57237    0.000
 3866.00    1.72968   0.57095    0.000
 3867.00    1.44713   0.57110    0.000
 3868.00    0.86234   0.57286    0.000
 3869.00    0.39648   0.57216    0.000
 3870.00    0.25206   0.56400    0.000
 3871.00    0.35137   0.54733    0.000
 3872.00    0.36240   0.52781    0.000
 3873.00    0.07554   0.51559    0.000
 3874.00   -0.15486   0.51661   -2.000
 3875.00    0.04786   0.52506    0.000
 3876.00    0.37832   0.52802    0.000
 3877.00    0.36238   0.51768    0.000
 3878.00    0.05630   0.49835    0.000
 3879.00   -0.21782   0.48176   -2.000
 3880.00   -0.27264   0.47361   -2.000
 3881.00   -0.04212   0.46803   -2.000
 3882.00    0.48146   0.45767   20.770
 3883.00    1.22198   0.44161   -1.000
 3884.00    1.98649   0.42057   -1.000
 3885.00    2.49561   0.39274   -1.000
 3886.00    2.44168   0.35857   -1.000
 3887.00    1.74581   0.32435   -1.000
 3888.00    0.78021   0.29841   -1.000
 3889.00   -0.00112   0.28775   -2.000
 3890.00   -0.43907   0.29666   -2.000
 3891.00   -0.57586   0.32315   -2.000
 3892.00   -0.52297   0.35783   -2.000
 3893.00   -0.36623   0.38980   -2.000
 3894.00   -0.09674   0.41363   -2.000
 3895.00    0.30676   0.43091   -1.000
 3896.00    0.79902   0.44596   -1.000
 3897.00    1.27053   0.46043   -1.000
 3898.00    1.56302   0.47259   -1.000
 3899.00    1.54171   0.48238   -1.000
 3900.00    1.16709   0.49355   -1.000
 3901.00    0.59491   0.50838   16.809
 3902.00    0.20880   0.52250   -1.000
 3903.00    0.25463   0.52956   -1.000
 3904.00    0.58933   0.52905   16.968
 3905.00    0.98396   0.52536   -1.000
 3906.00    1.35699   0.52498   -1.000
 3907.00    1.69142   0.53457   -1.000
 3908.00    1.96940   0.55513   -1.000
 3909.00    2.21917   0.58000   -1.000
 3910.00    2.52135   0.60086   -1.000
 3911.00    2.80117   0.61302   -1.000
 3912.00    2.74875   0.61557   -1.000
 3913.00    2.24493   0.61010   -1.000
 3914.00    1.59784   0.60078   -1.000
 3915.00    1.20643   0.59201   -1.000
 3916.00    1.29937   0.58464   -1.000
 3917.00    1.72345   0.57741   -1.000
 3918.00    1.93363   0.56977   -1.000
 3919.00    1.67024   0.56202   -1.000
 3920.00    1.26780   0.55571   -1.000
 3921.00    1.06161   0.55345   -1.000
 3922.00    1.05695   0.55635   -1.000
 3923.00    1.07844   0.56208   -1.000
 3924.00    0.91290   0.56578   -1.000
 3925.00    0.57090   0.56208   17.516
 3926.00    0.34394   0.54833   -1.000
 3927.00    0.37652   0.52552   -1.000
 3928.00    0.49423   0.49576   20.234
 3929.00    0.48818   0.46061   20.484
 3930.00    0.28627   0.42095   -1.000
 3931.00    0.05140   0.37768   -1.000
 3932.00    0.13392   0.33382   -1.000
 3933.00    0.64370   0.29691   -1.000
 3934.00    1.31919   0.27859   -1.000
 3935.00    1.85903   0.28750   -1.000
 3936.00    2.08249   0.32148   -1.000
 3937.00    1.94186   0.36901   -1.000
 3938.00    1.51792   0.41768   -1.000
 3939.00    0.98501   0.45998   -1.000
 3940.00    0.54899   0.49201   18.215
 3941.00    0.26390   0.51140   -1.000
 3942.00    0.02712   0.51905   -1.000
 3943.00   -0.14636   0.52015   -2.000
 3944.00   -0.09296   0.52221   -2.000
 3945.00    0.20041   0.53101   -1.000
 3946.00    0.54423   0.54499   18.375
 3947.00    0.78347   0.55587   -1.000
 3948.00    0.86723   0.55877   -1.000
 3949.00    0.77454   0.55743   -1.000
 3950.00    0.52440   0.55738   19.069
 3951.00    0.30005   0.55918   -1.000
 3952.00    0.36112   0.56086   -1.000
 3953.00    0.62337   0.56258   16.042
 3954.00    0.72462   0.56412   13.800
 3955.00    0.67283   0.56106   14.862
 3956.00    0.80642   0.55049   -1.000
 3957.00    1.03411   0.53730   -1.000
 3958.00    0.87588   0.52776   -1.000
 3959.00    0.28737   0.52008   -1.000
 3960.00   -0.29065   0.50588   -2.000
 3961.00   -0.51363   0.48031   -2.000
 3962.00   -0.30831   0.44763   -2.000
 3963.00    0.13102   0.41488    0.000
 3964.00    0.46695   0.38330    0.000
 3965.00    0.53848   0.34859    0.000
 3966.00    0.39724   0.30734    0.000
 3967.00    0.17219   0.26194    0.000
 3968.00    0.01655   0.22064    0.000
 3969.00    0.06724   0.19388    0.000
 3970.00    0.36747   0.18899    0.000
 3971.00    0.71413   0.20654    0.000
 3972.00    0.80275   0.24057    0.000
 3973.00    0.64123   0.28254    0.000
 3974.00    0.46126   0.32601    0.000
 3975.00    0.30492   0.36770    0.000
 3976.00    0.08023   0.40606    0.000
 3977.00   -0.11687   0.44096   -2.000
 3978.00   -0.09492   0.47336   -2.000
 3979.00    0.09561   0.50272    0.000
 3980.00    0.24100   0.52584    0.000
 3981.00    0.26680   0.53946   -1.000
 3982.00    0.23015   0.54501   -1.000
 3983.00    0.18123   0.54888   -1.000
 3984.00    0.14206   0.55665   -1.000
 3985.00    0.12055   0.56892   -1.000
 3986.00    0.13369   0.58266   -1.000
 3987.00    0.24174   0.59510   -1.000
 3988.00    0.48292   0.60514   20.707
 3989.00    0.75228   0.61200   13.293
 3990.00    0.89733   0.61671   -1.000
 3991.00    0.91377   0.62255   -1.000
 3992.00    0.88014   0.63088   -1.000
 3993.00    0.79946   0.63865   12.508
 3994.00    0.68442   0.64073   14.611
 3995.00    0.72395   0.63469   13.813
 3996.00    1.06824   0.62334   -1.000
 3997.00    1.47348   0.61346   -1.000
 3998.00    1.58861   0.61252   -1.000
 3999.00    1.45257   0.62352   -1.000
 4000.00    1.31839   0.64127   -1.000
 4001.00    1.29298   0.65636   -1.000
 4002.00    1.33661   0.66277   -1.000
 4003.00    1.34004   0.65908   -1.000
 4004.00    1.22248   0.64600   -1.000
 4005.00    1.04239   0.62863   -1.000
 4006.00    0.89278   0.61809   -1.000
 4007.00    0.75170   0.62281   13.303
 4008.00    0.57712   0.63964   17.328
 4009.00    0.44242   0.65817   -1.000
 4010.00    0.41901   0.67072   -1.000
 4011.00    0.42605   0.67596   -1.000
 4012.00    0.41545   0.67648   -1.000
 4013.00    0.58739   0.67597   17.024
 4014.00    1.06787   0.67675   -1.000
 4015.00    1.54495   0.67895   -1.000
 4016.00    1.68226   0.68136   -1.000
 4017.00    1.59434   0.68333   -1.000
 4018.00    1.52436   0.68682   -1.000
 4019.00    1.46011   0.69321   -1.000
 4020.00    1.31078   0.69886   -1.000
 4021.00    1.12274   0.69853   -1.000
 4022.00    0.99371   0.69110   -1.000
 4023.00    0.96580   0.67991   -1.000
 4024.00    1.02741   0.67024   -1.000
 4025.00    1.12738   0.66775   -1.000
 4026.00    1.20380   0.67467   -1.000
 4027.00    1.21412   0.68513   -1.000
 4028.00    1.17457   0.68830   -1.000
 4029.00    1.17697   0.67668   -1.000
 4030.00    1.23247   0.65145   -1.000
 4031.00    1.16084   0.62279   -1.000
 4032.00    0.84862   0.60282   -1.000
 4033.00    0.45122   0.59755   -1.000
 4034.00    0.16786   0.60690   -1.000
 4035.00    0.05150   0.62746   -1.000
 4036.00    0.08153   0.65403   -1.000
 4037.00    0.23194   0.68003   -1.000
 4038.00    0.46747   0.69828   -1.000
 4039.00    0.73903   0.70458   13.531
 4040.00    1.00000   0.70051   -1.000
 4041.00    1.21119   0.69166   -1.000
 4042.00    1.28582   0.68162   -1.000
 4043.00    1.08268   0.66737   -1.000
 4044.00    0.64116   0.64484   15.597
 4045.00    0.28999   0.61926   -1.000
 4046.00    0.26104   0.60523   -1.000
 4047.00    0.44951   0.61269   -1.000
 4048.00    0.59386   0.63557   16.839
 4049.00    0.45325   0.65930   -1.000
 4050.00    0.12205   0.67466   -1.000
 4051.00    0.10372   0.67940   -1.000
 4052.00    0.57955   0.67460   17.255
 4053.00    1.08327   0.66349   -1.000
 4054.00    1.24922   0.65058   -1.000
 4055.00    1.19718   0.64034   -1.000
 4056.00    1.12813   0.63487   -1.000
 4057.00    1.09040   0.63317   -1.000
 4058.00    1.03653   0.63491   -1.000
 4059.00    0.89286   0.64090   -1.000
 4060.00    0.72643   0.64784   13.766
 4061.00    0.75692   0.64767   13.211
 4062.00    0.97066   0.63532   -1.000
 4063.00    1.02982   0.61608   -1.000
 4064.00    0.81245   0.60280   12.308
 4065.00    0.58200   0.60311   17.182
 4066.00    0.49383   0.61232   20.250
 4067.00    0.42723   0.62281   -1.000
 4068.00    0.33400   0.63243   -1.000
 4069.00    0.34812   0.63968   -1.000
 4070.00    0.53194   0.63973   18.799
 4071.00    0.78915   0.63119   12.672
 4072.00    0.99530   0.62143   -1.000
 4073.00    1.06473   0.61804   -1.000
 4074.00    0.98089   0.61783   -1.000
 4075.00    0.79770   0.61064   12.536
 4076.00    0.59680   0.59221   16.756
 4077.00    0.45991   0.57064   21.744
 4078.00    0.43229   0.56081   23.133
 4079.00    0.50555   0.57090   19.781
 4080.00    0.60832   0.59527   16.439
 4081.00    0.63346   0.62016   15.786
 4082.00    0.54443   0.63349   18.368
 4083.00    0.39394   0.63193   -1.000
 4084.00    0.25254   0.62152   -1.000
 4085.00    0.18918   0.61159   -1.000
 4086.00    0.29230   0.60903   -1.000
 4087.00    0.61432   0.61509   16.278
 4088.00    0.97563   0.62488   -1.000
 4089.00    1.05485   0.63105   -1.000
 4090.00    0.86199   0.62912   -1.000
 4091.00    0.71508   0.61984   13.984
 4092.00    0.71854   0.60663    0.000
 4093.00    0.71573   0.59197    0.000
 4094.00    0.62514   0.57504    0.000
 4095.00    0.50153   0.55300    0.000
 4096.00    0.41937   0.52600    0.000
 4097.00    0.41855   0.49717    0.000
 4098.00    0.45435   0.46810    0.000
 4099.00    0.45641   0.43748    0.000
 4100.00    0.51325   0.40452    0.000
 4101.00    0.78518   0.37409    0.000
 4102.00    1.16587   0.35726    0.000
 4103.00    1.36344   0.36263    0.000
 4104.00    1.31037   0.38851    0.000
 4105.00    1.16785   0.42519    0.000
 4106.00    1.09156   0.46161    0.000
 4107.00    1.14577   0.49013    0.000
 4108.00    1.24408   0.50859    0.000
 4109.00    1.23397   0.51908    0.000
 4110.00    1.10925   0.52606    0.000
 4111.00    0.98558   0.53452    0.000
 4112.00    0.94610   0.54745    0.000
 4113.00    0.99631   0.56471   -1.000
 4114.00    1.04508   0.58363   -1.000
 4115.00    0.98010   0.60039   -1.000
 4116.00    0.82223   0.61132   -1.000
 4117.00    0.69447   0.61368   14.400
 4118.00    0.70115   0.60801   14.262
 4119.00    0.87833   0.59981   -1.000
 4120.00    1.14858   0.59541   -1.000
 4121.00    1.36505   0.59595   -1.000
 4122.00    1.40815   0.59897   -1.000
 4123.00    1.25223   0.60346   -1.000
 4124.00    1.04353   0.60980   -1.000
 4125.00    0.95862   0.61593   -1.000
 4126.00    0.95157   0.61719   -1.000
 4127.00    0.86884   0.61115   -1.000
 4128.00    0.70218   0.60049   14.241
 4129.00    0.54509   0.59030   18.346
 4130.00    0.45886   0.58275   21.793
 4131.00    0.44962   0.57665   22.241
 4132.00    0.46792   0.57228   21.371
 4133.00    0.44917   0.57353   22.263
 4134.00    0.37530   0.58373   -1.000
 4135.00    0.31897   0.60173   -1.000
 4136.00    0.48075   0.62222   20.801
 4137.00    0.97589   0.63947   -1.000
 4138.00    1.55126   0.65210   -1.000
 4139.00    1.85036   0.66046   -1.000
 4140.00    1.80947   0.66188   -1.000
 4141.00    1.56404   0.65231   -1.000
 4142.00    1.26023   0.63127   -1.000
 4143.00    1.00991   0.60643   -1.000
 4144.00    0.86449   0.59108   -1.000
 4145.00    0.81820   0.59284   12.222
 4146.00    0.81850   0.60680   12.218
 4147.00    0.79810   0.62157   12.530
 4148.00    0.71388   0.62881   14.008
 4149.00    0.58867   0.62729   16.987
 4150.00    0.54493   0.62174   18.351
 4151.00    0.69648   0.61705   14.358
 4152.00    1.02608   0.61385   -1.000
 4153.00    1.37884   0.61011   -1.000
 4154.00    1.49206   0.60460   -1.000
 4155.00    1.26434   0.59919   -1.000
 4156.00    0.99092   0.59732   -1.000
 4157.00    0.95759   0.60109   -1.000
 4158.00    1.04659   0.61023   -1.000
 4159.00    1.04759   0.62138   -1.000
 4160.00    0.97461   0.63066   -1.000
 4161.00    0.92324   0.63689   -1.000
 4162.00    0.91491   0.64195   -1.000
 4163.00    0.91755   0.64693   -1.000
 4164.00    0.88162   0.65015   11.343
 4165.00    0.79316   0.65002   12.608
 4166.00    0.70811   0.64632   14.122
 4167.00    0.66978   0.64108   14.930
 4168.00    0.64871   0.63756   15.415
 4169.00    0.64026   0.63523   15.619
 4170.00    0.72839   0.62839   13.729
 4171.00    0.92809   0.61231   -1.000
 4172.00    1.08254   0.58974   -1.000
 4173.00    1.05638   0.57049   -1.000
 4174.00    0.88052   0.56311   -1.000
 4175.00    0.68927   0.56695   14.508
 4176.00    0.64635   0.57409   15.472
 4177.00    0.79828   0.57788   -1.000
 4178.00    1.00270   0.57889   -1.000
 4179.00    1.13782   0.58220   -1.000
 4180.00    1.22963   0.58990   -1.000
 4181.00    1.31321   0.59839   -1.000
 4182.00    1.34860   0.60408   -1.000
 4183.00    1.30950   0.60787   -1.000
 4184.00    1.23157   0.61186   -1.000
 4185.00    1.13782   0.61542   -1.000
 4186.00    1.00116   0.61527   -1.000
 4187.00    0.80903   0.61058   12.360
 4188.00    0.59881   0.60701   16.700
 4189.00    0.42973   0.60989   -1.000
 4190.00    0.36227   0.61799   -1.000
 4191.00    0.44097   0.62739   -1.000
 4192.00    0.66908   0.63638   14.946
 4193.00    0.92418   0.64366   -1.000
 4194.00    0.97647   0.64498   -1.000
 4195.00    0.81339   0.63636   12.294
 4196.00    0.72000   0.61933   13.889
 4197.00    0.82228   0.60008   -1.000
 4198.00    0.92823   0.58468   -1.000
 4199.00    0.89848   0.57693   -1.000
 4200.00    0.79428   0.57672   -1.000
 4201.00    0.69457   0.57962   14.397
 4202.00    0.61639   0.58236   16.224
 4203.00    0.56451   0.58594   17.715
 4204.00    0.55357   0.59194   18.065
 4205.00    0.59798   0.60089   16.723
 4206.00    0.69859   0.61236   14.314
 4207.00    0.80845   0.62379   12.369
 4208.00    0.84924   0.63203   11.775
 4209.00    0.83472   0.63572   11.980
 4210.00    0.86346   0.63673   11.581
 4211.00    0.89402   0.63844   -1.000
 4212.00    0.74248   0.64072   13.468
 4213.00    0.41133   0.63906   -1.000
 4214.00    0.14059   0.63008   -1.000
 4215.00    0.12488   0.61694   -1.000
 4216.00    0.39971   0.60931   -1.000
 4217.00    0.82596   0.61479   12.107
 4218.00    1.14436   0.63058   -1.000
 4219.00    1.17227   0.64732   -1.000
 4220.00    0.89857   0.65744   -1.000
 4221.00    0.55911   0.65784   17.886
 4222.00    0.51306   0.64754   19.491
 4223.00    0.78593   0.62659   12.724
 4224.00    1.07369   0.59661   -1.000
 4225.00    1.20940   0.56246   -1.000
 4226.00    1.23444   0.53413   -1.000
 4227.00    1.16810   0.52394   -1.000
 4228.00    0.98501   0.53888   -1.000
 4229.00    0.75333   0.57251   13.274
 4230.00    0.61392   0.60807   16.289
 4231.00    0.61209   0.63026   16.337
 4232.00    0.68557   0.63307   14.586
 4233.00    0.76181   0.62176   13.127
 4234.00    0.78849   0.60787   12.682
 4235.00    0.74125   0.59898   13.491
 4236.00    0.63568   0.59603   15.731
 4237.00    0.55057   0.59762   18.163
 4238.00    0.57604   0.60153   17.360
 4239.00    0.67848   0.60701   14.739
 4240.00    0.72717   0.61518   13.752
 4241.00    0.63321   0.62621   15.793
 4242.00    0.40426   0.63809   -1.000
 4243.00    0.18796   0.64848   -1.000
 4244.00    0.17320   0.65525   -1.000
 4245.00    0.35984   0.65515   -1.000
 4246.00    0.57877   0.64652   17.278
 4247.00    0.64349   0.63214   15.540
 4248.00    0.45955   0.61731   21.760
 4249.00    0.17225   0.60560   -1.000
 4250.00    0.04467   0.59767   -1.000
 4251.00    0.16215   0.59455   -1.000
 4252.00    0.42070   0.59650   -1.000
 4253.00    0.62204   0.60046   16.076
 4254.00    0.61422   0.60401   16.281
 4255.00    0.50582   0.60843   19.770
 4256.00    0.52171   0.61528   19.168
 4257.00    0.68282   0.62113   14.645
 4258.00    0.86316   0.61959   -1.000
 4259.00    0.98474   0.60932   -1.000
 4260.00    1.03451   0.59704   -1.000
 4261.00    1.03503   0.59312   -1.000
 4262.00    1.01747   0.60364   -1.000
 4263.00    0.98677   0.62519   -1.000
 4264.00    0.92706   0.64843   -1.000
 4265.00    0.82059   0.66497   12.186
 4266.00    0.68995   0.67053   14.494
 4267.00    0.65001   0.66440   15.384
 4268.00    0.78947   0.64851   12.667
 4269.00    0.99776   0.62567   -1.000
 4270.00    1.10017   0.59892   -1.000
 4271.00    1.07680   0.57272   -1.000
 4272.00    1.00522   0.55371   -1.000
 4273.00    0.94238   0.54707   -1.000
 4274.00    0.92080   0.55234   -1.000
 4275.00    0.96104   0.56661   -1.000
 4276.00    1.02337   0.58719   -1.000
 4277.00    0.95782   0.60953   -1.000
 4278.00    0.69441   0.62731   14.401
 4279.00    0.46182   0.63548   -1.000
 4280.00    0.49038   0.63352   20.393
 4281.00    0.64924   0.62606   15.403
 4282.00    0.69750   0.61840   14.337
 4283.00    0.61112   0.61322   16.364
 4284.00    0.49452   0.61058   20.222
 4285.00    0.43876   0.60808   -1.000
 4286.00    0.46596   0.60320   21.461
 4287.00    0.49720   0.59369   20.113
 4288.00    0.48566   0.57836   20.591
 4289.00    0.53915   0.56007   18.548
 4290.00    0.70893   0.54699   14.106
 4291.00    0.79353   0.54732   -1.000
 4292.00    0.64308   0.56044   15.550
 4293.00    0.44424   0.57672   22.510
 4294.00    0.42940   0.58614   23.288
 4295.00    0.58994   0.58630   16.951
 4296.00    0.78330   0.57964   -1.000
 4297.00    0.86531   0.56745   -1.000
 4298.00    0.81024   0.54956   -1.000
 4299.00    0.78048   0.52728   -1.000
 4300.00    0.88746   0.50664   -1.000
 4301.00    1.00693   0.49451   -1.000
 4302.00    0.98961   0.49246   -1.000
 4303.00    0.83909   0.49784   -1.000
 4304.00    0.64638   0.50625   15.471
 4305.00    0.51753   0.51210   19.322
 4306.00    0.50032   0.51173   19.987
 4307.00    0.54280   0.50555   18.423
 4308.00    0.58505   0.49851   17.093
 4309.00    0.62217   0.49813   16.073
 4310.00    0.64675   0.50816   15.462
 4311.00    0.61760   0.52516   16.192
 4312.00    0.55542   0.54147   18.005
 4313.00    0.58677   0.55257   17.042
 4314.00    0.77675   0.56124   12.874
 4315.00    1.02766   0.57442   -1.000
 4316.00    1.17635   0.59533   -1.000
 4317.00    1.08630   0.61826   -1.000
 4318.00    0.79820   0.63400   -2.000
 4319.00    0.57417   0.63772   -2.000
 4320.00    0.60077   0.63104   -2.000
 4321.00    0.82327   0.61847   -2.000
 4322.00    1.06062   0.60271   -2.000
 4323.00    1.10796   0.58216   -2.000
 4324.00    0.89591   0.55594   -2.000
 4325.00    0.55952   0.52980   -2.000
 4326.00    0.32428   0.51516   -2.000
 4327.00    0.40293   0.52010   -2.000
 4328.00    0.80040   0.54004   -2.000
 4329.00    1.26029   0.56120   -2.000
 4330.00    1.51271   0.57232   -2.000
 4331.00    1.42236   0.57245   -2.000
 4332.00    1.06811   0.56748   -2.000
 4333.00    0.72085   0.56170   -2.000
 4334.00    0.56332   0.55426    0.000
 4335.00    0.58695   0.54036    0.000
 4336.00    0.74574   0.51465    0.000
 4337.00    1.01605   0.47592    0.000
 4338.00    1.33265   0.43016    0.000
 4339.00    1.57726   0.38820    0.000
 4340.00    1.65624   0.36049    0.000
 4341.00    1.54314   0.35408    0.000
 4342.00    1.30902   0.36918    0.000
 4343.00    1.09187   0.39843    0.000
 4344.00    0.92906   0.43235    0.000
 4345.00    0.73356   0.46499    0.000
 4346.00    0.46460   0.49421    0.000
 4347.00    0.17875   0.51951    0.000
 4348.00   -0.03528   0.53978   -2.000
 4349.00   -0.09325   0.55137   -2.000
 4350.00    0.04706   0.55056    0.000
 4351.00    0.36314   0.53904   -1.000
 4352.00    0.73796   0.52686   -1.000
 4353.00    1.00241   0.52577   -1.000
 4354.00    1.10739   0.53909   -1.000
 4355.00    1.13326   0.56078   -1.000
 4356.00    1.12918   0.58180   -1.000
 4357.00    1.08574   0.59559   -1.000
 4358.00    1.01834   0.60072   -1.000
 4359.00    0.97259   0.60127   -1.000
 4360.00    0.95941   0.60395   -1.000
 4361.00    0.95158   0.61264   -1.000
 4362.00    0.93271   0.62581   -1.000
 4363.00    0.90143   0.63933   -1.000
 4364.00    0.84224   0.64986   11.873
 4365.00    0.74615   0.65458   13.402
 4366.00    0.68711   0.65106   14.554
 4367.00    0.77166   0.63962   12.959
 4368.00    0.95556   0.62536   -1.000
 4369.00    1.07903   0.61523   -1.000
 4370.00    1.07832   0.61230   -1.000
 4371.00    1.00038   0.61396   -1.000
 4372.00    0.90239   0.61400   -1.000
 4373.00    0.82717   0.60735   -1.000
 4374.00    0.80591   0.59502   12.408
 4375.00    0.84895   0.58513   -1.000
 4376.00    0.92386   0.58666   -1.000
 4377.00    0.97318   0.60081   -1.000
 4378.00    0.96411   0.61922   -1.000
 4379.00    0.89455   0.63093   -1.000
 4380.00    0.78133   0.62924   12.799
 4381.00    0.65860   0.61291   15.184
 4382.00    0.57904   0.58406   17.270
 4383.00    0.58423   0.54930   17.117
 4384.00    0.64792   0.52118   15.434
 4385.00    0.72043   0.51188   -1.000
 4386.00    0.83242   0.52367   -1.000
 4387.00    1.01697   0.54682   -1.000
 4388.00    1.13432   0.56838   -1.000
 4389.00    1.00523   0.58168   -1.000
 4390.00    0.70370   0.58777   14.211
 4391.00    0.46591   0.59114   21.463
 4392.00    0.43711   0.59441   22.877
 4393.00    0.61117   0.59660   16.362
 4394.00    0.81177   0.59684   12.319
 4395.00    0.84882   0.59773   -1.000
 4396.00    0.76904   0.60337   13.003
 4397.00    0.72347   0.61276   13.822
 4398.00    0.70093   0.61888   14.267
 4399.00    0.61795   0.61648   16.182
 4400.00    0.51450   0.60753   19.436
 4401.00    0.48678   0.59904   20.543
 4402.00    0.54630   0.59455   18.305
 4403.00    0.63381   0.59049   15.778
 4404.00    0.67263   0.58286   14.867
 4405.00    0.63395   0.57413   15.774
 4406.00    0.60896   0.57011   16.421
 4407.00    0.69533   0.57286   14.382
 4408.00    0.84022   0.58050   -1.000
 4409.00    0.94269   0.59186   -1.000
 4410.00    1.00670   0.60661   -1.000
 4411.00    1.07106   0.62193   -1.000
 4412.00    1.10306   0.63182   -1.000
 4413.00    1.05750   0.63042   -1.000
 4414.00    0.95938   0.61661   -1.000
 4415.00    0.85458   0.59673   -1.000
 4416.00    0.74428   0.58177   13.436
 4417.00    0.62599   0.57961   15.975
 4418.00    0.54334   0.59065   18.405
 4419.00    0.53016   0.60830   18.862
 4420.00    0.54783   0.62299   18.254
 4421.00    0.53440   0.62818   18.712
 4422.00    0.46404   0.62416   21.550
 4423.00    0.35447   0.61724   -1.000
 4424.00    0.26258   0.61372   -1.000
 4425.00    0.21791   0.61459   -1.000
 4426.00    0.16678   0.61714   -1.000
 4427.00    0.07289   0.61869   -1.000
 4428.00    0.00822   0.61852   -1.000
 4429.00    0.04946   0.61677   -1.000
 4430.00    0.17928   0.61363   -1.000
 4431.00    0.33098   0.61026   -1.000
 4432.00    0.43940   0.60655   -1.000
 4433.00    0.47427   0.60055   21.085
 4434.00    0.46169   0.59213   21.660
 4435.00    0.44895   0.58580   22.274
 4436.00    0.47048   0.58867   21.255
 4437.00    0.52111   0.60322   19.190
 4438.00    0.54567   0.62337   18.326
 4439.00    0.51600   0.63844   19.380
 4440.00    0.48415   0.63976   20.655
 4441.00    0.51914   0.62637   19.263
 4442.00    0.65208   0.60567   15.335
 4443.00    0.84660   0.58930   -1.000
 4444.00    0.99475   0.58639   -1.000
 4445.00    1.02871   0.59769   -1.000
 4446.00    0.98879   0.61551   -1.000
 4447.00    0.93995   0.63027   -1.000
 4448.00    0.91002   0.63739   -1.000
 4449.00    0.88073   0.63742   -1.000
 4450.00    0.79758   0.63326   12.538
 4451.00    0.65725   0.62772   15.215
 4452.00    0.54496   0.62099   18.350
 4453.00    0.51738   0.61107   19.328
 4454.00    0.53949   0.59686   18.536
 4455.00    0.55386   0.58126   18.055
 4456.00    0.52903   0.57003   18.902
 4457.00    0.48421   0.56563   20.652
 4458.00    0.48501   0.56547   20.618
 4459.00    0.54800   0.56527   18.248
 4460.00    0.60772   0.56355   16.455
 4461.00    0.63018   0.56226    0.000
 4462.00    0.65365   0.56495    0.000
 4463.00    0.67330   0.57340    0.000
 4464.00    0.60990   0.58465    0.000
 4465.00    0.46277   0.59373    0.000
 4466.00    0.35725   0.59717    0.000
 4467.00    0.39268   0.59491    0.000
 4468.00    0.56738   0.58969    0.000
 4469.00    0.78879   0.58521    0.000
 4470.00    0.91129   0.58557    0.000
 4471.00    0.87383   0.59295    0.000
 4472.00    0.74259   0.60635    0.000
 4473.00    0.61912   0.62199    0.000
 4474.00    0.58339   0.63568    0.000
 4475.00    0.63465   0.64528    0.000
 4476.00    0.69282   0.65110    0.000
 4477.00    0.70404   0.65324    0.000
 4478.00    0.68087   0.64894    0.000
 4479.00    0.68402   0.63482    0.000
 4480.00    0.77826   0.61220    0.000
 4481.00    0.90046   0.58970    0.000
 4482.00    0.89314   0.57883   -1.000
 4483.00    0.80663   0.58543   12.397
 4484.00    0.88180   0.60512   -1.000
 4485.00    1.09531   0.62716   -1.000
 4486.00    1.14943   0.64113   -1.000
 4487.00    0.99383   0.64189   -1.000
 4488.00    0.87252   0.63105   -1.000
 4489.00    0.87628   0.61572   -1.000
 4490.00    0.87629   0.60455   -1.000
 4491.00    0.80042   0.60210   12.493
 4492.00    0.69553   0.60594   14.378
 4493.00    0.63585   0.60947   15.727
 4494.00    0.66088   0.60830   15.131
 4495.00    0.68432   0.60474   14.613
 4496.00    0.56080   0.60431   17.832
 4497.00    0.34899   0.61031   -1.000
 4498.00    0.27128   0.62072   -1.000
 4499.00    0.39348   0.62998   -1.000
 4500.00    0.60210   0.63460   16.609
 4501.00    0.78874   0.63632   12.678
 4502.00    0.89456   0.64099   -1.000
 4503.00    0.89131   0.65182   11.219
 4504.00    0.78918   0.66531   12.671
 4505.00    0.66797   0.67457   14.971
 4506.00    0.63167   0.67520   15.831
 4507.00    0.68305   0.66892   14.640
 4508.00    0.73975   0.66141   13.518
 4509.00    0.74387   0.65756   13.443
 4510.00    0.68777   0.65793   14.540
 4511.00    0.61117   0.65885   16.362
 4512.00    0.57436   0.65602   17.411
 4513.00    0.60252   0.64830   16.597
 4514.00    0.68201   0.63817   14.663
 4515.00    0.77905   0.62964   12.836
 4516.00    0.84884   0.62521   11.781
 4517.00    0.84627   0.62450   11.817
 4518.00    0.75428   0.62601   13.258
 4519.00    0.63229   0.62856   15.815
 4520.00    0.55945   0.63073   17.875
 4521.00    0.51275   0.63090   19.503
 4522.00    0.42256   0.62706   -1.000
 4523.00    0.31371   0.61950   -1.000
 4524.00    0.26130   0.61006   -1.000
 4525.00    0.26873   0.59949   -1.000
 4526.00    0.30674   0.58794   -1.000
 4527.00    0.41381   0.57566   -1.000
 4528.00    0.61869   0.56485   16.163
 4529.00    0.79175   0.55878   -1.000
 4530.00    0.78518   0.55906   -1.000
 4531.00    0.68818   0.56377   14.531
 4532.00    0.69642   0.56875   14.359
 4533.00    0.84942   0.57007   -1.000
 4534.00    1.05427   0.56913   -1.000
 4535.00    1.18568   0.57187   -1.000
 4536.00    1.16637   0.58327   -1.000
 4537.00    1.05619   0.60174   -1.000
 4538.00    0.96584   0.61878   -1.000
 4539.00    0.92064   0.62676   -1.000
 4540.00    0.89321   0.62493   -1.000
 4541.00    0.87198   0.61900   -1.000
 4542.00    0.85272   0.61526   -1.000
 4543.00    0.81713   0.61492   12.238
 4544.00    0.75740   0.61507   13.203
 4545.00    0.70715   0.61332   14.141
 4546.00    0.69140   0.60934   14.464
 4547.00    0.66519   0.60335   15.033
 4548.00    0.57389   0.59536   17.425
 4549.00    0.43281   0.58658   23.105
 4550.00    0.32161   0.58089    0.000
 4551.00    0.35625   0.58051    0.000
 4552.00    0.54919   0.58259    0.000
 4553.00    0.68064   0.58276    0.000
 4554.00    0.57788   0.57961    0.000
 4555.00    0.40576   0.57741    0.000
 4556.00    0.38593   0.58157    0.000
 4557.00    0.48766   0.59303    0.000
 4558.00    0.57380   0.60777    0.000
 4559.00    0.57779   0.62089    0.000
 4560.00    0.50996   0.62939    0.000
 4561.00    0.44190   0.63234    0.000
 4562.00    0.44355   0.62930    0.000
 4563.00    0.52619   0.62051    0.000
 4564.00    0.65260   0.60973    0.000
 4565.00    0.75632   0.60313    0.000
 4566.00    0.79476   0.60532    0.000
 4567.00    0.78774   0.61552    0.000
 4568.00    0.75389   0.62728    0.000
 4569.00    0.66523   0.63363    0.000
 4570.00    0.54819   0.63159    0.000
 4571.00    0.54575   0.62380    0.000
 4572.00    0.71744   0.61717    0.000
 4573.00    0.90333   0.61662    0.000
 4574.00    0.95066   0.62114    0.000
 4575.00    0.88217   0.62633    0.000
 4576.00    0.78286   0.62809    0.000
 4577.00    0.70825   0.62530    0.000
 4578.00    0.69538   0.61847    0.000
 4579.00    0.76728   0.60826    0.000
 4580.00    0.87967   0.59666    0.000
 4581.00    0.90649   0.58665    0.000
 4582.00    0.79567   0.58024    0.000
 4583.00    0.65251   0.57756    0.000
 4584.00    0.58591   0.57807    0.000
 4585.00    0.60823   0.58150    0.000
 4586.00    0.66358   0.58761    0.000
 4587.00    0.66721   0.59576    0.000
 4588.00    0.61259   0.60386    0.000
 4589.00    0.60460   0.60947    0.000
 4590.00    0.67308   0.61047    0.000
 4591.00    0.69718   0.60663    0.000
 4592.00    0.61317   0.60030    0.000
 4593.00    0.51189   0.59485    0.000
 4594.00    0.50416   0.59209    0.000
 4595.00    0.63602   0.59182    0.000
 4596.00    0.85330   0.59317    0.000
 4597.00    1.01050   0.59523    0.000
 4598.00    1.00402   0.59742    0.000
 4599.00    0.83731   0.59881    0.000
 4600.00    0.59830   0.59862    0.000
 4601.00    0.42150   0.59785    0.000
 4602.00    0.37059   0.59765    0.000
 4603.00    0.40280   0.59829    0.000
 4604.00    0.46616   0.59956    0.000
 4605.00    0.53979   0.60151    0.000
 4606.00    0.60504   0.60610    0.000
 4607.00    0.63769   0.61466    0.000
 4608.00    0.63345   0.62596    0.000
 4609.00    0.61022   0.63599    0.000
 4610.00    0.57108   0.64051    0.000
 4611.00    0.50241   0.63860    0.000
 4612.00    0.42891   0.63289    0.000
 4613.00    0.40829   0.62724    0.000
 4614.00    0.42582   0.62435    0.000
 4615.00    0.39545   0.62386    0.000
 4616.00    0.31637   0.62373    0.000
 4617.00    0.28706   0.62260    0.000
 4618.00    0.34149   0.61983    0.000
 4619.00    0.41999   0.61701    0.000
 4620.00    0.48019   0.61667    0.000
 4621.00    0.52977   0.61965    0.000
 4622.00    0.60004   0.62461    0.000
 4623.00    0.71246   0.62887    0.000
 4624.00    0.80427   0.63007    0.000
 4625.00    0.76290   0.62814    0.000
 4626.00    0.60667   0.62457    0.000
 4627.00    0.48120   0.62061    0.000
 4628.00    0.47532   0.61699    0.000
 4629.00    0.57264   0.61454    0.000
 4630.00    0.68136   0.61433    0.000
 4631.00    0.69300   0.61588    0.000
 4632.00    0.61701   0.61659    0.000
 4633.00    0.55501   0.61406    0.000
 4634.00    0.52881   0.60851    0.000
 4635.00    0.48666   0.60251    0.000
 4636.00    0.44459   0.59810    0.000
 4637.00    0.47255   0.59498    0.000
 4638.00    0.56362   0.59263    0.000
 4639.00    0.64546   0.59144    0.000
 4640.00    0.69063   0.59244    0.000
 4641.00    0.71783   0.59586    0.000
 4642.00    0.72871   0.59940    0.000
 4643.00    0.70537   0.59991    0.000
 4644.00    0.64020   0.59519    0.000
 4645.00    0.54847   0.58513    0.000
 4646.00    0.47917   0.57269    0.000
 4647.00    0.48013   0.56279    0.000
 4648.00    0.52132   0.55954    0.000
 4649.00    0.53385   0.56452    0.000
 4650.00    0.52277   0.57550    0.000
 4651.00    0.53843   0.58752    0.000
 4652.00    0.57377   0.59615    0.000
 4653.00    0.58273   0.59872    0.000
 4654.00    0.55522   0.59519    0.000
 4655.00    0.51482   0.58909    0.000
 4656.00    0.48649   0.58526    0.000
 4657.00    0.49040   0.58811    0.000
 4658.00    0.54094   0.59840    0.000
 4659.00    0.62276   0.61160    0.000
 4660.00    0.65309   0.62123    0.000
 4661.00    0.55914   0.62243    0.000
 4662.00    0.41410   0.61494    0.000
 4663.00    0.35720   0.60222    0.000
 4664.00    0.42886   0.58783    0.000
 4665.00    0.59478   0.57265    0.000
 4666.00    0.82443   0.55645    0.000
 4667.00    1.06695   0.54158    0.000
 4668.00    1.20096   0.53313    0.000
 4669.00    1.12512   0.53512    0.000
 4670.00    0.89766   0.54674    0.000
 4671.00    0.66167   0.56230    0.000
 4672.00    0.50962   0.57552    0.000
 4673.00    0.46483   0.58409    0.000
 4674.00    0.48631   0.58931    0.000
 4675.00    0.52861   0.59338    0.000
 4676.00    0.61468   0.59679    0.000
 4677.00    0.75450   0.59743    0.000
 4678.00    0.83697   0.59362    0.000
 4679.00    0.76016   0.58635    0.000
 4680.00    0.60127   0.57882    0.000
 4681.00    0.49643   0.57452    0.000
 4682.00    0.47475   0.57504    0.000
 4683.00    0.49742   0.57947    0.000
 4684.00    0.52694   0.58523    0.000
 4685.00    0.54469   0.58984    0.000
 4686.00    0.56036   0.59182    0.000
 4687.00    0.58982   0.59116    0.000
 4688.00    0.63080   0.58917    0.000
 4689.00    0.67294   0.58679    0.000
 4690.00    0.71063   0.58442    0.000
 4691.00    0.73930   0.58264    0.000
 4692.00    0.75102   0.58235    0.000
 4693.00    0.74187   0.58419    0.000
 4694.00    0.71940   0.58812    0.000
 4695.00    0.69954   0.59239    0.000
 4696.00    0.69916   0.59407    0.000
 4697.00    0.69789   0.59099    0.000
 4698.00    0.61617   0.58331    0.000
 4699.00    0.43923   0.57386    0.000
 4700.00    0.30973   0.56567    0.000
 4701.00    0.34134   0.55999    0.000
 4702.00    0.46573   0.55654    0.000
 4703.00    0.57205   0.55511    0.000
 4704.00    0.63043   0.55628    0.000
 4705.00    0.65757   0.55918    0.000
 4706.00    0.67938   0.56137    0.000
 4707.00    0.71251   0.56096    0.000
 4708.00    0.75271   0.55894    0.000
 4709.00    0.78281   0.55858    0.000
 4710.00    0.78205   0.56225    0.000
 4711.00    0.74611   0.56865    0.000
 4712.00    0.69874   0.57380    0.000
 4713.00    0.67185   0.57506    0.000
 4714.00    0.68643   0.57323    0.000
 4715.00    0.72314   0.57259    0.000
 4716.00    0.71500   0.57664    0.000
 4717.00    0.62900   0.58511    0.000
 4718.00    0.51021   0.59522    0.000
 4719.00    0.41145   0.60369    0.000
 4720.00    0.35060   0.60881    0.000
 4721.00    0.33790   0.61068    0.000
 4722.00    0.38933   0.61035    0.000
 4723.00    0.49590   0.60949    0.000
 4724.00    0.61102   0.60880    0.000
 4725.00    0.68775   0.60663    0.000
 4726.00    0.70437   0.60016    0.000
 4727.00    0.68231   0.58816    0.000
 4728.00    0.67969   0.57338    0.000
 4729.00    0.70704   0.56067    0.000
 4730.00    0.70088   0.55367    0.000
 4731.00    0.62571   0.55332    0.000
 4732.00    0.51790   0.55809    0.000
 4733.00    0.43010   0.56512    0.000
 4734.00    0.39792   0.57170    0.000
 4735.00    0.42264   0.57586    0.000
 4736.00    0.47309   0.57709    0.000
 4737.00    0.53146   0.57774    0.000
 4738.00    0.60421   0.57991    0.000
 4739.00    0.67285   0.58322    0.000
 4740.00    0.68697   0.58636    0.000
 4741.00    0.63294   0.58810    0.000
 4742.00    0.55443   0.58888    0.000
 4743.00    0.50782   0.58995    0.000
 4744.00    0.53321   0.59144    0.000
 4745.00    0.61789   0.59300    0.000
 4746.00    0.70505   0.59473    0.000
 4747.00    0.78402   0.59638    0.000
 4748.00    0.89014   0.59770    0.000
 4749.00    0.96913   0.59826    0.000
 4750.00    0.88474   0.59742    0.000
 4751.00    0.63687   0.59472    0.000
 4752.00    0.38815   0.59001    0.000
 4753.00    0.26922   0.58382    0.000
 4754.00    0.30942   0.57758    0.000
 4755.00    0.44854   0.57313    0.000
 4756.00    0.57525   0.57145    0.000
 4757.00    0.63377   0.57276    0.000
 4758.00    0.64292   0.57601    0.000
 4759.00    0.64066   0.57912    0.000
 4760.00    0.65828   0.57942    0.000
 4761.00    0.69909   0.57485   14.304
 4762.00    0.73586   0.56588   13.590
 4763.00    0.72300   0.55515   13.831
 4764.00    0.62808   0.54570   15.922
 4765.00    0.50780   0.53999   19.693
 4766.00    0.47298   0.53931   21.143
 4767.00    0.53300   0.54379   18.762
 4768.00    0.60408   0.55216   16.554
 4769.00    0.64820   0.56167   15.427
 4770.00    0.68421   0.56893   14.615
 4771.00    0.71751   0.57235   13.937
 4772.00    0.73643   0.57368   13.579
 4773.00    0.74981   0.57574   13.337
 4774.00    0.77414   0.58008   12.918
 4775.00    0.78084   0.58560   12.807
 4776.00    0.72462   0.59018   13.800
 4777.00    0.63729   0.59266   15.691
 4778.00    0.59750   0.59258   16.736
 4779.00    0.61395   0.59032   16.288
 4780.00    0.63537   0.58653   15.739
 4781.00    0.63034   0.58173   15.865
 4782.00    0.59811   0.57641   16.719
 4783.00    0.55339   0.57119   18.071
 4784.00    0.52131   0.56687   19.183
 4785.00    0.53319   0.56351   18.755
 4786.00    0.60207   0.56093   16.609
 4787.00    0.67864   0.55949   14.735
 4788.00    0.69384   0.55897   14.412
 4789.00    0.65383   0.55961   15.295
 4790.00    0.61526   0.56216   16.253
 4791.00    0.60706   0.56675   16.473
 4792.00    0.63412   0.57375   15.770
 4793.00    0.70850   0.58289   14.114
 4794.00    0.82384   0.59199   -1.000
 4795.00    0.90516   0.59805   -1.000
 4796.00    0.87359   0.59875   -1.000
 4797.00    0.76374   0.59378   13.093
 4798.00    0.66751   0.58529   14.981
 4799.00    0.61454   0.57720   16.272
 4800.00    0.58600   0.57300   17.065
 4801.00    0.56564   0.57387   17.679
 4802.00    0.54582   0.57780   18.321
 4803.00    0.52506   0.58087   19.046
 4804.00    0.51827   0.57997   19.295
 4805.00    0.56867   0.57517   17.585
 4806.00    0.69212   0.56916   14.448
 4807.00    0.80341   0.56443   -1.000
 4808.00    0.82080   0.56244   -1.000
 4809.00    0.81291   0.56302   -1.000
 4810.00    0.87645   0.56497   -1.000
 4811.00    0.95818   0.56732   -1.000
 4812.00    0.95709   0.56948   -1.000
 4813.00    0.87893   0.57149   -1.000
 4814.00    0.78906   0.57392   -1.000
 4815.00    0.73018   0.57716   13.695
 4816.00    0.70568   0.58117   14.171
 4817.00    0.67599   0.58542   14.793
 4818.00    0.61997   0.58910   16.130
 4819.00    0.59775   0.59109   16.730
 4820.00    0.64940   0.58978   15.399
 4821.00    0.68541   0.58404   14.590
 4822.00    0.61326   0.57390   16.306
 4823.00    0.47753   0.56166   20.941
 4824.00    0.36762   0.55229   -1.000
 4825.00    0.30975   0.54916   -1.000
 4826.00    0.29470   0.55173   -1.000
 4827.00    0.31637   0.55649   -1.000
 4828.00    0.37114   0.55940   -1.000
 4829.00    0.45337   0.55918   22.057
 4830.00    0.55091   0.55687   18.152
 4831.00    0.64080   0.55370   15.606
 4832.00    0.68634   0.55117   14.570
 4833.00    0.64193   0.55054   15.578
 4834.00    0.52029   0.55177   19.220
 4835.00    0.43694   0.55371   22.887
 4836.00    0.47707   0.55461   20.961
 4837.00    0.59000   0.55335   16.949
 4838.00    0.68805   0.54965   14.534
 4839.00    0.73303   0.54442   -1.000
 4840.00    0.71812   0.53927   -1.000
 4841.00    0.64786   0.53559   15.435
 4842.00    0.53279   0.53377   18.769
 4843.00    0.38859   0.53355   25.734
 4844.00    0.25287   0.53455   -1.000
 4845.00    0.19030   0.53554   -1.000
 4846.00    0.23819   0.53473   -1.000
 4847.00    0.37030   0.53068   -1.000
 4848.00    0.52367   0.52381    0.000
 4849.00    0.62565   0.51701    0.000
 4850.00    0.63913   0.51256    0.000
 4851.00    0.58651   0.50960    0.000
 4852.00    0.51253   0.50534    0.000
 4853.00    0.46000   0.49682    0.000
 4854.00    0.47680   0.48316    0.000
 4855.00    0.61314   0.46684    0.000
 4856.00    0.87315   0.45136    0.000
 4857.00    1.19713   0.43732    0.000
 4858.00    1.53038   0.42207    0.000
 4859.00    1.85479   0.40259    0.000
 4860.00    2.13113   0.37953    0.000
 4861.00    2.27488   0.35947    0.000
 4862.00    2.21167   0.35117    0.000
 4863.00    1.91900   0.35791    0.000
 4864.00    1.47859   0.37641    0.000
 4865.00    1.06845   0.40035    0.000
 4866.00    0.78550   0.42344    0.000
 4867.00    0.58218   0.44218    0.000
 4868.00    0.41063   0.45513    0.000
 4869.00    0.28551   0.46154    0.000
 4870.00    0.22861   0.46155    0.000
 4871.00    0.23780   0.45807    0.000
 4872.00    0.27542   0.45635    0.000
 4873.00    0.28278   0.45990    0.000
 4874.00    0.26509   0.46863    0.000
 4875.00    0.30025   0.47990   -1.000
 4876.00    0.41390   0.49100   24.160
 4877.00    0.54913   0.50111   18.210
 4878.00    0.66923   0.51072   14.942
 4879.00    0.78521   0.51970   -1.000
 4880.00    0.88925   0.52575   -1.000
 4881.00    0.93897   0.52727   -1.000
 4882.00    0.90396   0.52491   -1.000
 4883.00    0.78984   0.52002   -1.000
 4884.00    0.65648   0.51418   15.233
 4885.00    0.59671   0.50876   16.759
 4886.00    0.63799   0.50469   15.674
 4887.00    0.72896   0.50252   -1.000
 4888.00    0.81841   0.50145   -1.000
 4889.00    0.87709   0.49987   -1.000
 4890.00    0.87435   0.49722   -1.000
 4891.00    0.78592   0.49641   -1.000
 4892.00    0.64365   0.50237   15.537
 4893.00    0.53049   0.51636   18.851
 4894.00    0.51364   0.53543   19.469
 4895.00    0.60525   0.55400   16.522
 4896.00    0.71318   0.56665   14.022
 4897.00    0.69820   0.57166   14.322
 4898.00    0.57839   0.56990   17.289
 4899.00    0.50640   0.56342   19.747
 4900.00    0.53594   0.55564   18.659
 4901.00    0.60171   0.54951   16.619
 4902.00    0.65047   0.54587   15.373
 4903.00    0.66639   0.54499   15.006
 4904.00    0.63951   0.54708   15.637
 4905.00    0.57099   0.55150   17.513
 4906.00    0.50731   0.55612   19.712
 4907.00    0.51113   0.55751   19.565
 4908.00    0.57048   0.55335   17.529
 4909.00    0.61415   0.54428   16.283
 4910.00    0.60132   0.53423   16.630
 4911.00    0.54384   0.52821   18.388
 4912.00    0.50481   0.52877   19.809
 4913.00    0.54910   0.53498   18.212
 4914.00    0.63849   0.54356   15.662
 4915.00    0.67035   0.55000   14.918
 4916.00    0.60890   0.54990   16.423
 4917.00    0.48951   0.54071   20.428
 4918.00    0.36721   0.52325   27.232
 4919.00    0.29185   0.50246   -1.000
 4920.00    0.28128   0.48547   -1.000
 4921.00    0.32697   0.47779   -1.000
 4922.00    0.41462   0.47996   24.119
 4923.00    0.51956   0.48805   19.247
 4924.00    0.59192   0.49841   16.894
 4925.00    0.59119   0.51012   16.915
 4926.00    0.55066   0.52333   18.160
 4927.00    0.53253   0.53731   18.778
 4928.00    0.53198   0.55047   18.798
 4929.00    0.51375   0.56032   19.465
 4930.00    0.49947   0.56474   20.021
 4931.00    0.52353   0.56333   19.101
 4932.00    0.54037   0.55636   18.506
 4933.00    0.47660   0.54569   20.982
 4934.00    0.33583   0.53556   -1.000
 4935.00    0.19308   0.52850   -1.000
 4936.00    0.15679   0.52348   -1.000
 4937.00    0.28025   0.51853   -1.000
 4938.00    0.44871   0.51337   22.286
 4939.00    0.51371   0.51102   19.466
 4940.00    0.50097   0.51532    0.000
 4941.00    0.51802   0.52613    0.000
 4942.00    0.58859   0.53951    0.000
 4943.00    0.67275   0.55106    0.000
 4944.00    0.72613   0.55783    0.000
 4945.00    0.74137   0.55972    0.000
 4946.00    0.78524   0.55935    0.000
 4947.00    0.90901   0.55931    0.000
 4948.00    1.03742   0.56063    0.000
 4949.00    1.05858   0.56300    0.000
 4950.00    0.94747   0.56516    0.000
 4951.00    0.75549   0.56574    0.000
 4952.00    0.57934   0.56388    0.000
 4953.00    0.52707   0.55933    0.000
 4954.00    0.68006   0.55175    0.000
 4955.00    1.04501   0.54075    0.000
 4956.00    1.51278   0.52659    0.000
 4957.00    1.92988   0.51250    0.000
 4958.00    2.18060   0.50516    0.000
 4959.00    2.20940   0.50850    0.000
 4960.00    2.03284   0.52024    0.000
 4961.00    1.70901   0.53442    0.000
 4962.00    1.30593   0.54482    0.000
 4963.00    0.90559   0.54862    0.000
 4964.00    0.60456   0.54623    0.000
 4965.00    0.45568   0.53976    0.000
 4966.00    0.42102   0.53229    0.000
 4967.00    0.43948   0.52632    0.000
 4968.00    0.48843   0.52339    0.000
 4969.00    0.55567   0.52398    0.000
 4970.00    0.61315   0.52725    0.000
 4971.00    0.63629   0.53245    0.000
 4972.00    0.62158   0.53865    0.000
 4973.00    0.58314   0.54458    0.000
 4974.00    0.54693   0.54905    0.000
 4975.00    0.53573   0.55066    0.000
 4976.00    0.55694   0.54876    0.000
 4977.00    0.59871   0.54346    0.000
 4978.00    0.62935   0.53518    0.000
 4979.00    0.61152   0.52493    0.000
 4980.00    0.51987   0.51314    0.000
 4981.00    0.39261   0.49972    0.000
 4982.00    0.34608   0.48596    0.000
 4983.00    0.42552   0.47537    0.000
 4984.00    0.52601   0.47160    0.000
 4985.00    0.56182   0.47607    0.000
 4986.00    0.56752   0.48738    0.000
 4987.00    0.59856   0.50131    0.000
 4988.00    0.66466   0.51287    0.000
 4989.00    0.73900   0.51946    0.000
 4990.00    0.77368   0.52103    0.000
 4991.00    0.74548   0.51966    0.000
 4992.00    0.67762   0.51825    0.000
 4993.00    0.60761   0.51790    0.000
 4994.00    0.56626   0.51906    0.000
 4995.00    0.56924   0.52153    0.000
 4996.00    0.61175   0.52347    0.000
 4997.00    0.66345   0.52331    0.000
 4998.00    0.67794   0.51968    0.000
 4999.00    0.65429   0.51215    0.000
 5000.00    0.66487   0.50280    0.000
 5001.00    0.83132   0.49429    0.000
 5002.00    1.29209   0.48820    0.000
 5003.00    2.11123   0.48439    0.000
 5004.00    3.22253   0.48108    0.000
 5005.00    4.37917   0.47725    0.000
 5006.00    5.19615   0.47467    0.000
 5007.00    5.43837   0.47634    0.000
 5008.00    5.11960   0.48270    0.000
 5009.00    4.34862   0.49048    0.000
 5010.00    3.27339   0.49513    0.000
 5011.00    2.14602   0.49346    0.000
 5012.00    1.28334   0.48578    0.000
 5013.00    0.79732   0.47600    0.000
 5014.00    0.55033   0.46819    0.000
 5015.00    0.42009   0.46460    0.000
 5016.00    0.38621   0.46444    0.000
 5017.00    0.44487   0.46508    0.000
 5018.00    0.57063   0.46568    0.000
 5019.00    0.70391   0.46717    0.000
 5020.00    0.76527   0.47018    0.000
 5021.00    0.71970   0.47447    0.000
 5022.00    0.59434   0.47959    0.000
 5023.00    0.45820   0.48530    0.000
 5024.00    0.39082   0.49097    0.000
 5025.00    0.40584   0.49549    0.000
 5026.00    0.45156   0.49781    0.000
 5027.00    0.49429   0.49772    0.000
 5028.00    0.53359   0.49752    0.000
 5029.00    0.56425   0.49960   17.723
 5030.00    0.57379   0.50429   17.428
 5031.00    0.57115   0.51088   17.508
 5032.00    0.58534   0.51734   17.084
 5033.00    0.63674   0.52096   15.705
 5034.00    0.72789   0.51973   -1.000
 5035.00    0.84218   0.51330   -1.000
 5036.00    0.94437   0.50395   -1.000
 5037.00    0.98362   0.49429   -1.000
 5038.00    0.91784   0.48449   -1.000
 5039.00    0.77210   0.47412   -1.000
 5040.00    0.62288   0.46389   -1.000
 5041.00    0.52086   0.45717   19.199
 5042.00    0.47638   0.45907   20.992
 5043.00    0.47351   0.47069   21.119
 5044.00    0.48682   0.48810   20.542
 5045.00    0.51092   0.50542   19.572
 5046.00    0.55574   0.51654   17.994
 5047.00    0.61983   0.51824   16.133
 5048.00    0.68195   0.51178   -1.000
 5049.00    0.69742   0.50146   -1.000
 5050.00    0.62706   0.49206   15.947
 5051.00    0.49785   0.48690   20.086
 5052.00    0.38689   0.48727   25.847
 5053.00    0.36210   0.49239   27.617
 5054.00    0.45187   0.49983   22.130
 5055.00    0.61225   0.50720   16.333
 5056.00    0.76358   0.51327   -1.000
 5057.00    0.87080   0.51810   -1.000
 5058.00    0.93515   0.52225   -1.000
 5059.00    0.95100   0.52606   -1.000
 5060.00    0.90979   0.52942   -1.000
 5061.00    0.82107   0.53114   -1.000
 5062.00    0.71364   0.52945   -1.000
 5063.00    0.62989   0.52335   15.876
 5064.00    0.60167   0.51340   16.620
 5065.00    0.61338   0.50273   16.303
 5066.00    0.62377   0.49480   16.032
 5067.00    0.61074   0.49060   16.374
 5068.00    0.57483   0.48976   17.396
 5069.00    0.53287   0.49122   18.766
 5070.00    0.50500   0.49311   19.802
 5071.00    0.49733   0.49370   20.108
 5072.00    0.50875   0.49308   19.656
 5073.00    0.54421   0.49239   18.375
 5074.00    0.60761   0.49193   16.458
 5075.00    0.68912   0.49150   -1.000
 5076.00    0.76173   0.49073   -1.000
 5077.00    0.78117   0.48805   -1.000
 5078.00    0.72535   0.48167   -1.000
 5079.00    0.64226   0.47222   -1.000
 5080.00    0.60028   0.46331   16.659
 5081.00    0.61813   0.45839   -1.000
 5082.00    0.66973   0.45873   -1.000
 5083.00    0.70369   0.46365   -1.000
 5084.00    0.68678   0.47129   -1.000
 5085.00    0.64839   0.47929   -1.000
 5086.00    0.62504   0.48599   15.999
 5087.00    0.59498   0.49103   16.807
 5088.00    0.52931   0.49490   18.893
 5089.00    0.45338   0.49813   22.057
 5090.00    0.40720   0.50121   24.558
 5091.00    0.39710   0.50464   25.183
 5092.00    0.40926   0.50826   24.434
 5093.00    0.42945   0.51085   23.286
 5094.00    0.45182   0.51077   22.133
 5095.00    0.48386   0.50675   20.667
 5096.00    0.52610   0.49851   19.008
 5097.00    0.55516   0.48735   18.013
 5098.00    0.55697   0.47612   17.954
 5099.00    0.55477   0.46840   18.026
 5100.00    0.56148   0.46695   17.810
 5101.00    0.54112   0.47140   18.480
 5102.00    0.47513   0.47870   21.047
 5103.00    0.41598   0.48524   24.039
 5104.00    0.41624   0.48846   24.025
 5105.00    0.46781   0.48782   21.376
 5106.00    0.53189   0.48425   18.801
 5107.00    0.57044   0.47929   17.530
 5108.00    0.57117   0.47489   17.508
 5109.00    0.56080   0.47227   17.832
 5110.00    0.56659   0.47215   17.649
 5111.00    0.58841   0.47531   16.995
 5112.00    0.61883   0.48079   16.160
 5113.00    0.65658   0.48697   -1.000
 5114.00    0.68336   0.49303   -1.000
 5115.00    0.65559   0.49823   15.253
 5116.00    0.56900   0.50243   17.575
 5117.00    0.49227   0.50574   20.314
 5118.00    0.48341   0.50721   20.686
 5119.00    0.53571   0.50572   18.667
 5120.00    0.60691   0.50079   16.477
 5121.00    0.64647   0.49268   -1.000
 5122.00    0.63284   0.48247   -1.000
 5123.00    0.58870   0.47187   16.987
 5124.00    0.53400   0.46313   18.727
 5125.00    0.46299   0.45773   21.599
 5126.00    0.38275   0.45542   26.126
 5127.00    0.32994   0.45523   30.308
 5128.00    0.33200   0.45614   30.121
 5129.00    0.38543   0.45774   25.945
 5130.00    0.46303   0.46051   21.597
 5131.00    0.52431   0.46471   19.073
 5132.00    0.54638   0.46965   18.302
 5133.00    0.53696   0.47444   18.623
 5134.00    0.51698   0.47853   19.343
 5135.00    0.50749   0.48087   19.705
 5136.00    0.51234   0.48001   19.518
 5137.00    0.51465   0.47607   19.431
 5138.00    0.50062   0.47042   19.975
 5139.00    0.47077   0.46487   21.242
 5140.00    0.43708   0.46173   22.879
 5141.00    0.41917   0.46076   23.856
 5142.00    0.43402   0.46026   23.041
 5143.00    0.48514   0.46049   20.612
 5144.00    0.53763   0.46105   18.600
 5145.00    0.53028   0.46067   18.858
 5146.00    0.46860   0.45976   21.340
 5147.00    0.43378   0.45889   23.053
 5148.00    0.46258   0.45834   21.618
 5149.00    0.51472   0.45850   19.428
 5150.00    0.54028   0.45872   18.509
 5151.00    0.51301   0.45809   19.493
 5152.00    0.45139   0.45662   22.154
 5153.00    0.40733   0.45514   24.550
 5154.00    0.39888   0.45554   25.070
 5155.00    0.40158   0.45945   24.902
 5156.00    0.40456   0.46650   24.718
 5157.00    0.42163   0.47496   23.718
 5158.00    0.46018   0.48249   21.731
 5159.00    0.51029   0.48708   19.597
 5160.00    0.54511   0.48810   18.345
 5161.00    0.53386   0.48539   18.731
 5162.00    0.48075   0.47925   20.801
 5163.00    0.42591   0.47025   23.479
 5164.00    0.41087   0.45746   24.339
 5165.00    0.45453   0.43991   22.001
 5166.00    0.51670   0.41907   19.353
 5167.00    0.52236   0.39880   -1.000
 5168.00    0.45856   0.38409   21.807
 5169.00    0.38324   0.37788   26.093
 5170.00    0.37181   0.37811   26.895
 5171.00    0.46849   0.38008   21.345
 5172.00    0.60259   0.38223   -1.000
 5173.00    0.64122   0.38765   -1.000
 5174.00    0.57562   0.39921   -1.000
 5175.00    0.50643   0.41609   19.746
 5176.00    0.48917   0.43472   20.443
 5177.00    0.51548   0.45054   19.400
 5178.00    0.56224   0.45982   17.786
 5179.00    0.60483   0.46125   -1.000
 5180.00    0.61908   0.45537   -1.000
 5181.00    0.58600   0.44289   -1.000
 5182.00    0.50139   0.42544   19.945
 5183.00    0.38613   0.40802   25.898
 5184.00    0.30148   0.39820   33.170
 5185.00    0.30464   0.40032   32.826
 5186.00    0.35350   0.41245   28.289
 5187.00    0.35435   0.42912   28.221
 5188.00    0.29503   0.44413   -1.000
 5189.00    0.23231   0.45339   -1.000
 5190.00    0.21469   0.45559    0.000
 5191.00    0.26465   0.45138    0.000
 5192.00    0.37451   0.44463    0.000
 5193.00    0.50951   0.43965    0.000
 5194.00    0.61566   0.43760    0.000
 5195.00    0.64974   0.43868    0.000
 5196.00    0.62715   0.44301    0.000
 5197.00    0.59562   0.44905    0.000
 5198.00    0.57777   0.45545    0.000
 5199.00    0.57548   0.46179    0.000
 5200.00    0.59273   0.46664    0.000
 5201.00    0.63052   0.46817    0.000
 5202.00    0.67391   0.46550    0.000
 5203.00    0.70576   0.45836    0.000
 5204.00    0.72990   0.44720    0.000
 5205.00    0.76053   0.43442    0.000
 5206.00    0.80113   0.42364    0.000
 5207.00    0.84014   0.41679    0.000
 5208.00    0.85037   0.41471    0.000
 5209.00    0.81004   0.41857    0.000
 5210.00    0.73122   0.42779    0.000
 5211.00    0.65189   0.44003   -1.000
 5212.00    0.61788   0.45293   -1.000
 5213.00    0.64403   0.46310   -1.000
 5214.00    0.67191   0.46770   -1.000
 5215.00    0.63472   0.46703   -1.000
 5216.00    0.54238   0.46439   18.437
 5217.00    0.45174   0.46365   22.136
 5218.00    0.41615   0.46685   24.030
 5219.00    0.45250   0.47336   22.099
 5220.00    0.51442   0.48044   19.439
 5221.00    0.55024   0.48489   18.174
 5222.00    0.56861   0.48412   17.587
 5223.00    0.59991   0.47694   16.669
 5224.00    0.64635   0.46403   -1.000
 5225.00    0.67974   0.44781   -1.000
 5226.00    0.64959   0.43253   -1.000
 5227.00    0.53754   0.42398   18.603
 5228.00    0.40672   0.42571   24.587
 5229.00    0.33851   0.43540   29.541
 5230.00    0.36488   0.44771   27.406
 5231.00    0.46193   0.45741   21.648
 5232.00    0.55676   0.46062   17.961
 5233.00    0.59485   0.45845   16.811
 5234.00    0.59659   0.45583   16.762
 5235.00    0.60269   0.45633   16.592
 5236.00    0.62215   0.46118   -1.000
 5237.00    0.64349   0.46909   -1.000
 5238.00    0.65004   0.47713   -1.000
 5239.00    0.63590   0.48319   15.726
 5240.00    0.61584   0.48678   16.238
 5241.00    0.60260   0.48845   16.595
 5242.00    0.59057   0.48898   16.933
 5243.00    0.57858   0.48916   17.284
 5244.00    0.58489   0.48902   17.097
 5245.00    0.61639   0.48702   16.223
 5246.00    0.64746   0.48190   -1.000
 5247.00    0.64367   0.47484   -1.000
 5248.00    0.58310   0.46786   17.150
 5249.00    0.47577   0.46191   21.019
 5250.00    0.37044   0.45801   26.995
 5251.00    0.31218   0.45725   -1.000
 5252.00    0.31302   0.45876   -1.000
 5253.00    0.35486   0.46079   28.180
 5254.00    0.39840   0.46289   25.101
 5255.00    0.42184   0.46589   23.706
 5256.00    0.44060   0.47088   22.696
 5257.00    0.47608   0.47746   21.005
 5258.00    0.53287   0.48350   18.766
 5259.00    0.58454   0.48608   17.107
 5260.00    0.57880   0.48236   17.277
 5261.00    0.51352   0.47143   19.474
 5262.00    0.46122   0.45503   21.682
 5263.00    0.45867   0.43655   21.802
 5264.00    0.46259   0.41956   21.618
 5265.00    0.45201   0.40680   22.124
 5266.00    0.46878   0.39974   21.332
 5267.00    0.52967   0.39750   -1.000
 5268.00    0.59027   0.39656   -1.000
 5269.00    0.60240   0.39519   -1.000
 5270.00    0.54711   0.39624   -1.000
 5271.00    0.44698   0.40202   22.373
 5272.00    0.35866   0.41125   27.882
 5273.00    0.31285   0.42179   31.964
 5274.00    0.29602   0.43149   -1.000
 5275.00    0.29723   0.43901   -1.000
 5276.00    0.32465   0.44623   30.802
 5277.00    0.38108   0.45509   26.241
 5278.00    0.45204   0.46387   22.122
 5279.00    0.50354   0.46967   19.859
 5280.00    0.49741   0.47067   20.104
 5281.00    0.45502   0.46692   21.977
 5282.00    0.45362   0.46086   22.045
 5283.00    0.51007   0.45625   19.605
 5284.00    0.56377   0.45661   17.738
 5285.00    0.58978   0.46330   16.956
 5286.00    0.61905   0.47405   16.154
 5287.00    0.65059   0.48508   -1.000
 5288.00    0.63995   0.49387   15.626
 5289.00    0.57632   0.49940   17.351
 5290.00    0.49717   0.50187   20.114
 5291.00    0.44106   0.50198   22.672
 5292.00    0.42689   0.50019   23.425
 5293.00    0.44201   0.49658   22.624
 5294.00    0.45642   0.49093   21.910
 5295.00    0.47827   0.48280   20.909
 5296.00    0.54433   0.47233   18.371
 5297.00    0.63608   0.46140   -1.000
 5298.00    0.68617   0.45334   -1.000
 5299.00    0.67504   0.45043   -1.000
 5300.00    0.63867   0.45225   -1.000
 5301.00    0.60560   0.45718   16.512
 5302.00    0.58374   0.46411   17.131
 5303.00    0.57615   0.47198   17.357
 5304.00    0.58234   0.47966   17.172
 5305.00    0.58961   0.48608   16.960
 5306.00    0.58058   0.49038   17.224
 5307.00    0.55806   0.49258   17.919
 5308.00    0.54218   0.49378   18.444
 5309.00    0.54654   0.49500   18.297
 5310.00    0.57245   0.49625   17.469
 5311.00    0.60994   0.49679   16.395
 5312.00    0.63446   0.49573   15.761
 5313.00    0.59991   0.49266   16.669
 5314.00    0.47471   0.48809   21.066
 5315.00    0.32361   0.48270   -1.000
 5316.00    0.25995   0.47748   -1.000
 5317.00    0.30335   0.47418   -1.000
 5318.00    0.38594   0.47348   25.911
 5319.00    0.43324   0.47446   23.082
 5320.00    0.40177   0.47582   24.890
 5321.00    0.31740   0.47604   -1.000
 5322.00    0.24805   0.47344   -1.000
 5323.00    0.23515   0.46748   -1.000
 5324.00    0.28422   0.45915   -1.000
 5325.00    0.37393   0.44984   26.743
 5326.00    0.46540   0.43948   21.487
 5327.00    0.51649   0.42802   19.362
 5328.00    0.50510   0.41874   19.798
 5329.00    0.46389   0.41632   21.557
 5330.00    0.44913   0.42206   22.265
 5331.00    0.47767   0.43350   20.935
 5332.00    0.53129   0.44699   18.822
 5333.00    0.58260   0.45907   17.164
 5334.00    0.61016   0.46766   16.389
 5335.00    0.61483   0.47231   16.265
 5336.00    0.60936   0.47347   16.411
 5337.00    0.59857   0.47180   16.706
 5338.00    0.58399   0.46759   17.124
 5339.00    0.57507   0.46133   17.389
 5340.00    0.58167   0.45529   17.192
 5341.00    0.60093   0.45269   16.641
 5342.00    0.61998   0.45452   -1.000
 5343.00    0.62249   0.45903   -1.000
 5344.00    0.59143   0.46371   16.908
 5345.00    0.51323   0.46636   19.485
 5346.00    0.40480   0.46634   24.703
 5347.00    0.34352   0.46465   29.110
 5348.00    0.39376   0.46257   25.396
 5349.00    0.51415   0.46189   19.450
 5350.00    0.62589   0.46423   -1.000
 5351.00    0.70797   0.46937   -1.000
 5352.00    0.76860   0.47597   -1.000
 5353.00    0.79823   0.48308   -1.000
 5354.00    0.77317   0.49009   -1.000
 5355.00    0.66948   0.49614   -1.000
 5356.00    0.51005   0.50065   19.606
 5357.00    0.40579   0.50352   24.643
 5358.00    0.44116   0.50447   22.668
 5359.00    0.55440   0.50309   18.038
 5360.00    0.63039   0.49924   15.863
 5361.00    0.61190   0.49312   16.343
 5362.00    0.52056   0.48569   19.210
 5363.00    0.45717   0.47831   21.874
 5364.00    0.49154   0.47182   20.344
 5365.00    0.56529   0.46667   17.690
 5366.00    0.59799   0.46280   16.723
 5367.00    0.59032   0.45909   16.940
 5368.00    0.57281   0.45422   17.458
 5369.00    0.55302   0.44765   18.083
 5370.00    0.53287   0.44054   18.766
 5371.00    0.52550   0.43632   19.029
 5372.00    0.53470   0.43826   18.702
 5373.00    0.53884   0.44655   18.558
 5374.00    0.51329   0.45843   19.482
 5375.00    0.45071   0.47014   22.187
 5376.00    0.36692   0.47854   27.254
 5377.00    0.30056   0.48258   -1.000
 5378.00    0.28133   0.48328   -1.000
 5379.00    0.30869   0.48175   -1.000
 5380.00    0.37792   0.47882   26.461
 5381.00    0.49538   0.47547   20.187
 5382.00    0.63957   0.47246   -1.000
 5383.00    0.74106   0.47062   -1.000
 5384.00    0.74722   0.47085   -1.000
 5385.00    0.66564   0.47271   -1.000
 5386.00    0.54389   0.47455   18.386
 5387.00    0.44821   0.47502   22.311
 5388.00    0.42511   0.47327   23.523
 5389.00    0.47808   0.46916   20.917
 5390.00    0.57657   0.46384   17.344
 5391.00    0.66829   0.45871   -1.000
 5392.00    0.71268   0.45445   -1.000
 5393.00    0.70043   0.45109   -1.000
 5394.00    0.64775   0.44817   -1.000
 5395.00    0.58562   0.44471   -1.000
 5396.00    0.52132   0.44041   19.182
 5397.00    0.42968   0.43701   23.273
 5398.00    0.32451   0.43680   30.816
 5399.00    0.27994   0.43958   -1.000
 5400.00    0.33173   0.44351   30.145
 5401.00    0.43405   0.44676   23.039
 5402.00    0.51522   0.44701   19.409
 5403.00    0.51775   0.44249   19.314
 5404.00    0.44524   0.43426   22.460
 5405.00    0.36772   0.42573   27.194
 5406.00    0.33849   0.42031   29.543
 5407.00    0.35979   0.41936   27.794
 5408.00    0.41334   0.42176   24.193
 5409.00    0.47755   0.42562   20.940
 5410.00    0.53630   0.43039   18.646
 5411.00    0.57971   0.43637   -1.000
 5412.00    0.59189   0.44316   -1.000
 5413.00    0.55004   0.44978   -2.000
 5414.00    0.44335   0.45559   -2.000
 5415.00    0.28472   0.46060   -2.000
 5416.00    0.12475   0.46491   -2.000
 5417.00    0.03463   0.46816   -2.000
 5418.00    0.02121   0.46982   -2.000
 5419.00    0.02243   0.46960   -2.000
 5420.00    0.01485   0.46773   -2.000
 5421.00    0.03214   0.46503   -2.000
 5422.00    0.08276   0.46212   -2.000
 5423.00    0.13644   0.45913   -2.000
 5424.00    0.18390   0.45695   -2.000
 5425.00    0.24370   0.45687   -2.000
 5426.00    0.31312   0.45834   -2.000
 5427.00    0.36416   0.45906   -2.000
 5428.00    0.38567   0.45687   25.929
 5429.00    0.39020   0.45184   25.628
 5430.00    0.39123   0.44644   25.560
 5431.00    0.39120   0.44237   25.563
 5432.00    0.36881   0.43932   27.114
 5433.00    0.29712   0.43703   -1.000
 5434.00    0.20532   0.43586   -1.000
 5435.00    0.16275   0.43652   -1.000
 5436.00    0.18282   0.44017   -1.000
 5437.00    0.22149   0.44744   -1.000
 5438.00    0.24887   0.45731   -1.000
 5439.00    0.26696   0.46750   -1.000
 5440.00    0.30175   0.47576   -1.000
 5441.00    0.38057   0.48067   26.276
 5442.00    0.48211   0.48153   20.742
 5443.00    0.55237   0.47803   18.104
 5444.00    0.57484   0.47026   17.396
 5445.00    0.57373   0.45944   17.430
 5446.00    0.57911   0.44856   17.268
 5447.00    0.60149   0.44165   -1.000
 5448.00    0.59566   0.44111   -1.000
 5449.00    0.50271   0.44585   19.892
 5450.00    0.35903   0.45263   27.853
 5451.00    0.26733   0.45796   -1.000
 5452.00    0.28311   0.45922   -1.000
 5453.00    0.39458   0.45565   25.343
 5454.00    0.53528   0.44868   18.682
 5455.00    0.62666   0.44174   -1.000
 5456.00    0.65530   0.43872   -1.000
 5457.00    0.65212   0.44110   -1.000
 5458.00    0.62315   0.44699   -1.000
 5459.00    0.56379   0.45306   17.737
 5460.00    0.50932   0.45642   19.634
 5461.00    0.50466   0.45571   19.815
 5462.00    0.53463   0.45182   18.704
 5463.00    0.55197   0.44756   18.117
 5464.00    0.54761   0.44564   18.261
 5465.00    0.54621   0.44644   18.308
 5466.00    0.57662   0.44888   17.342
 5467.00    0.64947   0.45196   -1.000
 5468.00    0.73045   0.45447   -1.000
 5469.00    0.76912   0.45529   -1.000
 5470.00    0.75029   0.45436   -1.000
 5471.00    0.68731   0.45220   -1.000
 5472.00    0.59906   0.44878   -1.000
 5473.00    0.50566   0.44402   19.776
 5474.00    0.42692   0.43839   23.424
 5475.00    0.37513   0.43210   26.657
 5476.00    0.34596   0.42594   28.905
 5477.00    0.33044   0.42238   30.263
 5478.00    0.33269   0.42296   30.058
 5479.00    0.36111   0.42620   27.693
 5480.00    0.41341   0.42980   24.189
 5481.00    0.47943   0.43304   20.858
 5482.00    0.54642   0.43638   18.301
 5483.00    0.59208   0.44029   -1.000
 5484.00    0.57741   0.44473   17.319
 5485.00    0.48230   0.44871   20.734
 5486.00    0.34686   0.45058   28.830
 5487.00    0.23595   0.44997   -1.000
 5488.00    0.19136   0.44832   -1.000
 5489.00    0.21763   0.44711   -1.000
 5490.00    0.27533   0.44697   -1.000
 5491.00    0.31999   0.44790   31.251
 5492.00    0.34363   0.44903   29.101
 5493.00    0.35591   0.44949   28.097
 5494.00    0.36040   0.44936   27.747
 5495.00    0.36249   0.44889   27.587
 5496.00    0.37780   0.44796   26.469
 5497.00    0.40836   0.44707   24.488
 5498.00    0.42161   0.44711   23.719
 5499.00    0.38478   0.44758   25.989
 5500.00    0.29884   0.44698   -1.000
 5501.00    0.18876   0.44490   -1.000
 5502.00    0.09049   0.44221   -1.000
 5503.00    0.04034   0.43966   -1.000
 5504.00    0.06357   0.43744   -1.000
 5505.00    0.15072   0.43555   -1.000
 5506.00    0.24416   0.43428   -1.000
 5507.00    0.29620   0.43417   -1.000
 5508.00    0.31456   0.43501   31.791
 5509.00    0.32417   0.43575   30.848
 5510.00    0.33386   0.43560   29.953
 5511.00    0.33939   0.43420   29.465
 5512.00    0.32987   0.43193   30.315
 5513.00    0.30537   0.43015   32.747
 5514.00    0.28550   0.43021   -1.000
 5515.00    0.27625   0.43257   -1.000
 5516.00    0.25120   0.43692   -1.000
 5517.00    0.19619   0.44256   -1.000
 5518.00    0.13810   0.44837   -1.000
 5519.00    0.11577   0.45305   -1.000
 5520.00    0.15607   0.45590   -1.000
 5521.00    0.25685   0.45698   -1.000
 5522.00    0.38240   0.45659   26.151
 5523.00    0.50246   0.45483   19.902
 5524.00    0.61083   0.45165   -2.000
 5525.00    0.68261   0.44702   -2.000
 5526.00    0.66434   0.44119   -2.000
 5527.00    0.57910   0.43516   -2.000
 5528.00    0.52418   0.43087   -2.000
 5529.00    0.29065   0.43010   -2.000
 5530.00   -0.69993   0.43267   -2.000
 5531.00   -2.50940   0.43665   -2.000
 5532.00   -4.55738   0.44001   -2.000
 5533.00   -7.63117   0.44157   -2.000
 5534.00  -13.78590   0.44121   -2.000
 5535.00  -20.16013   0.44018   -2.000
 5536.00  -18.32946   0.44009   -2.000
 5537.00   -7.41575   0.44145   -2.000
 5538.00    2.34425   0.44400   -2.000
 5539.00    4.83124   0.44726   -2.000
 5540.00    3.65453   0.45031   -2.000
 5541.00    2.60842   0.45197   -2.000
 5542.00    1.72535   0.45167   -2.000
 5543.00    0.69483   0.44996   -2.000
 5544.00    0.18495   0.44795   -2.000
 5545.00    0.39660   0.44662   -2.000
 5546.00    0.66582   0.44671   -2.000
 5547.00    0.59456   0.44868   -2.000
 5548.00    0.39717   0.45204   25.178
 5549.00    0.28312   0.45551   -1.000
 5550.00    0.24190   0.45796   -1.000
 5551.00    0.23797   0.45877   -1.000
 5552.00    0.27520   0.45769   -1.000
 5553.00    0.33130   0.45512   30.184
 5554.00    0.35595   0.45213   28.094
 5555.00    0.35845   0.44978   27.898
 5556.00    0.40784   0.44840   24.519
 5557.00    0.51817   0.44775   19.299
 5558.00    0.63179   0.44751   -1.000
 5559.00    0.70527   0.44726   -1.000
 5560.00    0.73421   0.44646   -1.000
 5561.00    0.73314   0.44481   -1.000
 5562.00    0.72052   0.44249   -1.000
 5563.00    0.69482   0.44003   -1.000
 5564.00    0.64182   0.43777   -1.000
 5565.00    0.57971   0.43569   -1.000
 5566.00    0.55108   0.43394   18.146
 5567.00    0.55758   0.43274   17.935
 5568.00    0.56268   0.43200   17.772
 5569.00    0.55622   0.43166   17.978
 5570.00    0.55759   0.43188   17.934
 5571.00    0.57186   0.43235   -1.000
 5572.00    0.58433   0.43254   -1.000
 5573.00    0.57999   0.43300   -1.000
 5574.00    0.55126   0.43440   18.140
 5575.00    0.50352   0.43633   19.860
 5576.00    0.45374   0.43836   22.039
 5577.00    0.42327   0.44048   23.625
 5578.00    0.42718   0.44234   23.410
 5579.00    0.45377   0.44356   22.038
 5580.00    0.47251   0.44405   21.164
 5581.00    0.46362   0.44365   21.569
 5582.00    0.42354   0.44222   23.611
 5583.00    0.36075   0.43961   27.720
 5584.00    0.29542   0.43532   -1.000
 5585.00    0.25963   0.42889   -1.000
 5586.00    0.27613   0.42078   -1.000
 5587.00    0.31528   0.41262   31.718
 5588.00    0.32427   0.40647   30.838
 5589.00    0.30371   0.40382   32.927
 5590.00    0.29323   0.40496   34.103
 5591.00    0.31225   0.40871   32.025
 5592.00    0.35410   0.41327   28.241
 5593.00    0.39826   0.41742   25.109
 5594.00    0.42769   0.42104   23.381
 5595.00    0.45491   0.42460   21.982
 5596.00    0.50321   0.42760   19.872
 5597.00    0.56555   0.42876   -1.000
 5598.00    0.61331   0.42762   -1.000
 5599.00    0.62432   0.42481   -1.000
 5600.00    0.59496   0.42115   -1.000
 5601.00    0.55084   0.41773   -1.000
 5602.00    0.52319   0.41626   19.113
 5603.00    0.50966   0.41823   19.621
 5604.00    0.49315   0.42374   20.278
 5605.00    0.48025   0.43143   20.823
 5606.00    0.49363   0.43939   20.258
 5607.00    0.55113   0.44594   18.144
 5608.00    0.65215   0.45019   -1.000
 5609.00    0.76345   0.45220   -1.000
 5610.00    0.83628   0.45257   -1.000
 5611.00    0.83437   0.45169   -1.000
 5612.00    0.75905   0.44915   -1.000
 5613.00    0.67366   0.44402   -1.000
 5614.00    0.64049   0.43611   -1.000
 5615.00    0.63769   0.42737   -1.000
 5616.00    0.61165   0.42097   -1.000
 5617.00    0.55610   0.41855   -1.000
 5618.00    0.50246   0.41954   19.902
 5619.00    0.49308   0.42250   20.281
 5620.00    0.54170   0.42602   18.461
 5621.00    0.59503   0.42864   -1.000
 5622.00    0.59723   0.42911   -1.000
 5623.00    0.56567   0.42703   -1.000
 5624.00    0.55094   0.42348   18.151
 5625.00    0.58116   0.42060   -1.000
 5626.00    0.64000   0.42004   -1.000
 5627.00    0.65556   0.42219   -1.000
 5628.00    0.57602   0.42659   -1.000
 5629.00    0.44402   0.43216   22.522
 5630.00    0.33429   0.43730   29.914
 5631.00    0.28371   0.44069   -1.000
 5632.00    0.29349   0.44182   -1.000
 5633.00    0.33942   0.44081   29.462
 5634.00    0.39194   0.43815   25.514
 5635.00    0.43406   0.43454   23.038
 5636.00    0.46011   0.43071   21.734
 5637.00    0.47274   0.42739   21.153
 5638.00    0.47892   0.42517   20.880
 5639.00    0.48555   0.42397   20.595
 5640.00    0.49035   0.42326   20.394
 5641.00    0.47674   0.42286   20.976
 5642.00    0.43628   0.42304   22.921
 5643.00    0.38583   0.42393   25.918
 5644.00    0.35426   0.42543   28.228
 5645.00    0.36702   0.42742   27.247
 5646.00    0.41562   0.42956   24.060
 5647.00    0.44374   0.43136   22.536
 5648.00    0.41584   0.43243   24.048
 5649.00    0.36053   0.43288   27.737
 5650.00    0.30472   0.43319   32.817
 5651.00    0.23239   0.43367   -1.000
 5652.00    0.14662   0.43389   -1.000
 5653.00    0.10548   0.43307   -1.000
 5654.00    0.15574   0.43078   -1.000
 5655.00    0.28712   0.42725   -1.000
 5656.00    0.43813   0.42267   22.824
 5657.00    0.51594   0.41707   19.382
 5658.00    0.48759   0.41163   20.509
 5659.00    0.42188   0.40827   23.703
 5660.00    0.39214   0.40755   25.501
 5661.00    0.41851   0.40853   23.894
 5662.00    0.49081   0.41053   20.374
 5663.00    0.58577   0.41360   -1.000
 5664.00    0.67832   0.41735   -1.000
 5665.00    0.74632   0.42078   -1.000
 5666.00    0.76345   0.42307   -1.000
 5667.00    0.70420   0.42410   -1.000
 5668.00    0.59123   0.42440   -1.000
 5669.00    0.50416   0.42478   19.835
 5670.00    0.49425   0.42598   20.233
 5671.00    0.54618   0.42844   18.309
 5672.00    0.61126   0.43198   -1.000
 5673.00    0.63592   0.43570   -1.000
 5674.00    0.61207   0.43856   -1.000
 5675.00    0.58547   0.44026   -1.000
 5676.00    0.58480   0.44098   -1.000
 5677.00    0.59708   0.44077   -1.000
 5678.00    0.60877   0.43956   -1.000
 5679.00    0.62058   0.43750   -1.000
 5680.00    0.62818   0.43466   -1.000
 5681.00    0.61696   0.43101   -1.000
 5682.00    0.57594   0.42699   -1.000
 5683.00    0.50717   0.42362   19.717
 5684.00    0.43820   0.42149   22.821
 5685.00    0.41153   0.42024   24.299
 5686.00    0.42635   0.41926   23.455
 5687.00    0.43496   0.41854   22.991
 5688.00    0.41472   0.41868   24.113
 5689.00    0.38571   0.42025   25.926
 5690.00    0.37362   0.42331   26.765
 5691.00    0.39290   0.42732   25.452
 5692.00    0.43794   0.43138   22.834
 5693.00    0.48700   0.43446   20.534
 5694.00    0.52491   0.43602   19.051
 5695.00    0.54917   0.43615   18.209
 5696.00    0.56389   0.43507   17.734
 5697.00    0.57593   0.43284   -1.000
 5698.00    0.58980   0.42967   -1.000
 5699.00    0.60564   0.42601   -1.000
 5700.00    0.61829   0.42223   -1.000
 5701.00    0.61840   0.41887   -1.000
 5702.00    0.59675   0.41665   -1.000
 5703.00    0.55183   0.41571   -1.000
 5704.00    0.50711   0.41525   19.720
 5705.00    0.49818   0.41406   20.073
 5706.00    0.52550   0.41148   19.029
 5707.00    0.55494   0.40767   -1.000
 5708.00    0.55420   0.40339   -1.000
 5709.00    0.50759   0.39991   19.701
 5710.00    0.42748   0.39837   23.393
 5711.00    0.35302   0.39921   28.327
 5712.00    0.33918   0.40253   29.483
 5713.00    0.42475   0.40786   23.543
 5714.00    0.56575   0.41402   -1.000
 5715.00    0.66281   0.41989   -1.000
 5716.00    0.65983   0.42478   -1.000
 5717.00    0.56314   0.42841   -1.000
 5718.00    0.43078   0.43109   23.214
 5719.00    0.33605   0.43330   29.758
 5720.00    0.29674   0.43542   -1.000
 5721.00    0.29180   0.43759   -1.000
 5722.00    0.32623   0.43959   30.653
 5723.00    0.41496   0.44096   24.099
 5724.00    0.52427   0.44123   19.074
 5725.00    0.59190   0.44015   -1.000
 5726.00    0.58874   0.43793   -1.000
 5727.00    0.53134   0.43538   18.820
 5728.00    0.48078   0.43340   20.800
 5729.00    0.49697   0.43215   20.122
 5730.00    0.55953   0.43120   17.872
 5731.00    0.60440   0.43047   -1.000
 5732.00    0.61162   0.43044   -1.000
 5733.00    0.59990   0.43136   -1.000
 5734.00    0.59061   0.43289   -1.000
 5735.00    0.58939   0.43440   -1.000
 5736.00    0.56825   0.43534   17.598
 5737.00    0.50146   0.43549   19.942
 5738.00    0.42394   0.43503   23.589
 5739.00    0.38672   0.43428   25.858
 5740.00    0.37772   0.43350    0.000
 5741.00    0.35910   0.43281    0.000
 5742.00    0.33845   0.43229    0.000
 5743.00    0.34061   0.43217    0.000
 5744.00    0.35454   0.43258    0.000
 5745.00    0.35557   0.43311    0.000
 5746.00    0.34605   0.43301    0.000
 5747.00    0.34978   0.43192    0.000
 5748.00    0.39538   0.43034    0.000
 5749.00    0.48808   0.42901    0.000
 5750.00    0.57964   0.42790    0.000
 5751.00    0.62036   0.42634    0.000
 5752.00    0.62523   0.42387    0.000
 5753.00    0.63080   0.42106    0.000
 5754.00    0.63504   0.41933    0.000
 5755.00    0.62063   0.41981    0.000
 5756.00    0.58895   0.42241    0.000
 5757.00    0.54442   0.42583    0.000
 5758.00    0.47507   0.42831    0.000
 5759.00    0.38229   0.42852    0.000
 5760.00    0.31152   0.42623    0.000
 5761.00    0.30264   0.42246    0.000
 5762.00    0.33758   0.41911    0.000
 5763.00    0.37866   0.41807    0.000
 5764.00    0.41187   0.42004    0.000
 5765.00    0.43401   0.42414    0.000
 5766.00    0.43662   0.42882    0.000
 5767.00    0.41466   0.43270    0.000
 5768.00    0.37579   0.43494    0.000
 5769.00    0.33622   0.43538    0.000
 5770.00    0.31459   0.43439    0.000
 5771.00    0.31762   0.43254    0.000
 5772.00    0.33040   0.43050    0.000
 5773.00    0.34196   0.42875    0.000
 5774.00    0.36484   0.42759    0.000
 5775.00    0.40578   0.42712    0.000
 5776.00    0.44391   0.42710    0.000
 5777.00    0.46606   0.42676    0.000
 5778.00    0.49122   0.42512    0.000
 5779.00    0.52319   0.42147    0.000
 5780.00    0.51936   0.41587    0.000
 5781.00    0.44892   0.40948    0.000
 5782.00    0.33539   0.40387    0.000
 5783.00    0.22913   0.39995    0.000
 5784.00    0.18102   0.39799    0.000
 5785.00    0.21516   0.39816    0.000
 5786.00    0.31474   0.40054    0.000
 5787.00    0.45251   0.40453    0.000
 5788.00    0.60838   0.40905    0.000
 5789.00    0.74148   0.41296    0.000
 5790.00    0.78230   0.41563    0.000
 5791.00    0.70534   0.41739    0.000
 5792.00    0.56767   0.41895    0.000
 5793.00    0.45223   0.42077    0.000
 5794.00    0.42591   0.42280    0.000
 5795.00    0.50996   0.42445    0.000
 5796.00    0.66676   0.42507    0.000
 5797.00    0.81997   0.42485    0.000
 5798.00    0.88016   0.42483    0.000
 5799.00    0.81808   0.42597    0.000
 5800.00    0.69255   0.42823    0.000
 5801.00    0.57812   0.43076    0.000
 5802.00    0.51956   0.43234    0.000
 5803.00    0.50723   0.43208    0.000
 5804.00    0.48283   0.43009    0.000
 5805.00    0.42787   0.42735    0.000
 5806.00    0.39052   0.42505    0.000
 5807.00    0.39527   0.42390    0.000
 5808.00    0.40959   0.42401    0.000
 5809.00    0.40035   0.42505    0.000
 5810.00    0.36073   0.42648    0.000
 5811.00    0.30570   0.42765    0.000
 5812.00    0.26153   0.42806    0.000
 5813.00    0.23152   0.42744    0.000
 5814.00    0.19455   0.42584    0.000
 5815.00    0.16171   0.42379    0.000
 5816.00    0.18283   0.42230    0.000
 5817.00    0.27337   0.42233    0.000
 5818.00    0.39320   0.42403    0.000
 5819.00    0.48483   0.42674    0.000
 5820.00    0.50181   0.42947    0.000
 5821.00    0.45449   0.43138    0.000
 5822.00    0.40530   0.43217    0.000
 5823.00    0.38824   0.43214    0.000
 5824.00    0.39268   0.43183    0.000
 5825.00    0.41443   0.43162    0.000
 5826.00    0.46628   0.43164    0.000
 5827.00    0.54950   0.43183    0.000
 5828.00    0.64813   0.43213    0.000
 5829.00    0.74333   0.43239    0.000
 5830.00    0.81589   0.43242    0.000
 5831.00    0.83856   0.43207    0.000
 5832.00    0.78497   0.43130    0.000
 5833.00    0.66382   0.43010    0.000
 5834.00    0.51873   0.42866    0.000
 5835.00    0.39577   0.42743    0.000
 5836.00    0.32302   0.42668    0.000
 5837.00    0.28249   0.42638    0.000
 5838.00    0.22294   0.42654    0.000
 5839.00    0.11695   0.42731    0.000
 5840.00   -0.02835   0.42865   -2.000
 5841.00   -0.18662   0.43020   -2.000
 5842.00   -0.30376   0.43146   -2.000
 5843.00   -0.26757   0.43190   -2.000
 5844.00    0.01509   0.43121   -2.000
 5845.00    0.41233   0.42941   -2.000
 5846.00    0.65017   0.42689   -2.000
 5847.00    0.63514   0.42424   -2.000
 5848.00    0.47555   0.42201   -2.000
 5849.00    0.34042   0.42028   -2.000
 5850.00    0.37305   0.41866   -2.000
 5851.00    0.57757   0.41655   -2.000
 5852.00    0.83405   0.41370   -2.000
 5853.00    0.98964   0.41047   -2.000
 5854.00    0.93840   0.40746   -2.000
 5855.00    0.74035   0.40474   -2.000
 5856.00    0.55224   0.40208   -2.000
 5857.00    0.43828   0.39974   -2.000
 5858.00    0.37307   0.39849   -2.000
 5859.00    0.32550   0.39888   -2.000
 5860.00    0.28161   0.40080    0.000
 5861.00    0.25477   0.40353    0.000
 5862.00    0.26558   0.40626    0.000
 5863.00    0.30272   0.40859    0.000
 5864.00    0.33843   0.41033    0.000
 5865.00    0.36852   0.41138    0.000
 5866.00    0.41049   0.41200    0.000
 5867.00    0.48688   0.41274    0.000
 5868.00    0.60205   0.41401    0.000
 5869.00    0.71023   0.41570    0.000
 5870.00    0.75108   0.41738    0.000
 5871.00    0.71418   0.41855    0.000
 5872.00    0.63387   0.41897    0.000
 5873.00    0.56355   0.41879    0.000
 5874.00    0.54280   0.41830    0.000
 5875.00    0.55610   0.41753    0.000
 5876.00    0.56468   0.41635    0.000
 5877.00    0.56083   0.41464    0.000
 5878.00    0.55752   0.41238    0.000
 5879.00    0.56289   0.40974    0.000
 5880.00    0.57684   0.40722    0.000
 5881.00    0.59206   0.40528    0.000
 5882.00    0.60581   0.40386    0.000
 5883.00    0.63293   0.40249    0.000
 5884.00    0.67023   0.40060    0.000
 5885.00    0.65455   0.39726    0.000
 5886.00    0.53661   0.39106    0.000
 5887.00    0.37228   0.38060    0.000
 5888.00    0.24300   0.36558    0.000
 5889.00    0.15224   0.34844    0.000
 5890.00    0.07515   0.33401    0.000
 5891.00    0.02643   0.32616    0.000
 5892.00    0.03163   0.32513    0.000
 5893.00    0.08754   0.32805    0.000
 5894.00    0.16994   0.33096    0.000
 5895.00    0.24813   0.33207    0.000
 5896.00    0.30459   0.33322    0.000
 5897.00    0.35168   0.33734    0.000
 5898.00    0.40467   0.34556    0.000
 5899.00    0.45401   0.35703    0.000
 5900.00    0.47547   0.36965    0.000
 5901.00    0.44559   0.38102   22.442
 5902.00    0.37164   0.38972   26.908
 5903.00    0.31223   0.39548   32.028
 5904.00    0.31449   0.39878   31.798
 5905.00    0.35987   0.40045   27.788
 5906.00    0.41174   0.40145   24.287
 5907.00    0.45999   0.40241   21.740
 5908.00    0.50710   0.40351   19.720
 5909.00    0.55320   0.40463   -1.000
 5910.00    0.59468   0.40551   -1.000
 5911.00    0.62476   0.40570   -1.000
 5912.00    0.63957   0.40472   -1.000
 5913.00    0.64274   0.40252   -1.000
 5914.00    0.64223   0.39977   -1.000
 5915.00    0.64589   0.39747   -1.000
 5916.00    0.64817   0.39646   -1.000
 5917.00    0.62410   0.39703   -1.000
 5918.00    0.55766   0.39879   -1.000
 5919.00    0.46166   0.40103   21.661
 5920.00    0.37045   0.40302   26.994
 5921.00    0.32793   0.40432   30.494
 5922.00    0.34633   0.40499   28.874
 5923.00    0.38516   0.40538   25.963
 5924.00    0.39558   0.40578   25.279
 5925.00    0.35400   0.40617   28.249
 5926.00    0.28377   0.40623   -1.000
 5927.00    0.25354   0.40556   -1.000
 5928.00    0.28954   0.40408   34.537
 5929.00    0.33676   0.40221   29.695
 5930.00    0.35030   0.40080   28.547
 5931.00    0.34338   0.40039   29.123
 5932.00    0.34277   0.40074   29.174
 5933.00    0.36142   0.40123   27.669
 5934.00    0.39658   0.40155   25.215
 5935.00    0.43284   0.40192   23.103
 5936.00    0.45968   0.40262   21.754
 5937.00    0.47823   0.40366   20.910
 5938.00    0.48742   0.40478   20.516
 5939.00    0.47938   0.40540   20.860
 5940.00    0.45293   0.40514   22.079
 5941.00    0.41717   0.40422   23.971
 5942.00    0.37598   0.40334   26.597
 5943.00    0.32500   0.40309   30.769
 5944.00    0.27336   0.40364   -1.000
 5945.00    0.24644   0.40458   -1.000
 5946.00    0.25319   0.40514   -1.000
 5947.00    0.27617   0.40470   -1.000
 5948.00    0.29362   0.40330   34.058
 5949.00    0.29146   0.40162   34.311
 5950.00    0.27135   0.40027   -1.000
 5951.00    0.25089   0.39929   -1.000
 5952.00    0.25108   0.39859   -1.000
 5953.00    0.28956   0.39822   34.536
 5954.00    0.37468   0.39814   26.690
 5955.00    0.49928   0.39807   20.029
 5956.00    0.62638   0.39790   -1.000
 5957.00    0.69950   0.39788   -1.000
 5958.00    0.69785   0.39838   -1.000
 5959.00    0.64502   0.39969   -1.000
 5960.00    0.56749   0.40174   -1.000
 5961.00    0.48227   0.40409   20.735
 5962.00    0.40644   0.40614   24.604
 5963.00    0.36189   0.40741   27.633
 5964.00    0.37921   0.40774   26.371
 5965.00    0.47879   0.40739   20.886
 5966.00    0.60998   0.40697   -1.000
 5967.00    0.67180   0.40701   -1.000
 5968.00    0.63192   0.40767   -1.000
 5969.00    0.53868   0.40884   -1.000
 5970.00    0.44732   0.41016   22.355
 5971.00    0.39229   0.41113   25.491
 5972.00    0.37379   0.41135   26.753
 5973.00    0.36908   0.41052   27.094
 5974.00    0.37243   0.40852   26.850
 5975.00    0.39644   0.40554   25.224
 5976.00    0.44589   0.40225   22.427
 5977.00    0.50804   0.39946   19.683
 5978.00    0.54743   0.39788   -1.000
 5979.00    0.52888   0.39768   -1.000
 5980.00    0.47557   0.39830   21.027
 5981.00    0.45180   0.39870   22.134
 5982.00    0.48815   0.39797   20.485
 5983.00    0.56911   0.39596   -1.000
 5984.00    0.64795   0.39351   -1.000
 5985.00    0.67046   0.39180   -1.000
 5986.00    0.61845   0.39148   -1.000
 5987.00    0.51242   0.39254   19.515
 5988.00    0.39550   0.39448   25.285
 5989.00    0.31652   0.39653   31.593
 5990.00    0.30280   0.39806   33.025
 5991.00    0.35219   0.39907   28.393
 5992.00    0.42962   0.39996   23.276
 5993.00    0.48497   0.40093   20.620
 5994.00    0.48874   0.40171   20.461
 5995.00    0.43800   0.40182   22.831
 5996.00    0.35381   0.40095   28.264
 5997.00    0.27189   0.39930   -1.000
 5998.00    0.22667   0.39753   -1.000
 5999.00    0.24007   0.39626   -1.000
 6000.00    0.30775   0.39566   32.494
 6001.00    0.40582   0.39541   24.641
 6002.00    0.50678   0.39512   19.732
 6003.00    0.58582   0.39472   -1.000
 6004.00    0.62715   0.39408   -1.000
 6005.00    0.63238   0.39301   -1.000
 6006.00    0.63045   0.39143   -1.000
 6007.00    0.65073   0.38962   -1.000
 6008.00    0.68091   0.38838   -1.000
 6009.00    0.68881   0.38836   -1.000
 6010.00    0.66340   0.38941   -1.000
 6011.00    0.61183   0.39065   -1.000
 6012.00    0.54622   0.39131   -1.000
 6013.00    0.47899   0.39115   20.877
 6014.00    0.41942   0.39047   23.842
 6015.00    0.37942   0.38958   26.356
 6016.00    0.38038   0.38876   26.290
 6017.00    0.42958   0.38814   23.279
 6018.00    0.49123   0.38753   20.357
 6019.00    0.52092   0.38674   -1.000
 6020.00    0.51213   0.38593   -1.000
 6021.00    0.48300   0.38546   20.704
 6022.00    0.45310   0.38558   22.070
 6023.00    0.43613   0.38641   22.929
 6024.00    0.43486   0.38797   22.996
 6025.00    0.44405   0.39003   22.520
 6026.00    0.45477   0.39223   21.989
 6027.00    0.45832   0.39443   21.819
 6028.00    0.45017   0.39657   22.214
 6029.00    0.43148   0.39852   23.176
 6030.00    0.40997   0.40019   24.392
 6031.00    0.39807   0.40163   25.121
 6032.00    0.40963   0.40286   24.412
 6033.00    0.44738   0.40383   22.353
 6034.00    0.49303   0.40453   20.283
 6035.00    0.53244   0.40496   -1.000
 6036.00    0.57722   0.40514   -1.000
 6037.00    0.63113   0.40503   -1.000
 6038.00    0.66181   0.40458   -1.000
 6039.00    0.64550   0.40380   -1.000
 6040.00    0.60534   0.40286   -1.000
 6041.00    0.57460   0.40205   -1.000
 6042.00    0.56303   0.40175   -1.000
 6043.00    0.56822   0.40214   -1.000
 6044.00    0.58723   0.40306   -1.000
 6045.00    0.61652   0.40421   -1.000
 6046.00    0.65023   0.40530   -1.000
 6047.00    0.67280   0.40609   -1.000
 6048.00    0.65693   0.40647   -1.000
 6049.00    0.59215   0.40650   -1.000
 6050.00    0.50280   0.40614   19.889
 6051.00    0.41732   0.40525   23.963
 6052.00    0.34646   0.40374   28.863
 6053.00    0.29614   0.40176   33.767
 6054.00    0.27552   0.39958   -1.000
 6055.00    0.28240   0.39756   35.411
 6056.00    0.29580   0.39614   33.807
 6057.00    0.29628   0.39565   33.752
 6058.00    0.28013   0.39611   35.697
 6059.00    0.26085   0.39716   -1.000
 6060.00    0.26602   0.39815   -1.000
 6061.00    0.31594   0.39842   31.652
 6062.00    0.40897   0.39754   24.452
 6063.00    0.51459   0.39553   -1.000
 6064.00    0.57814   0.39299   -1.000
 6065.00    0.57022   0.39111   -1.000
 6066.00    0.51083   0.39101   19.576
 6067.00    0.44205   0.39291   22.622
 6068.00    0.40663   0.39621   24.593
 6069.00    0.42031   0.39992   23.792
 6070.00    0.46375   0.40319   21.564
 6071.00    0.51719   0.40555   19.335
 6072.00    0.57345   0.40694   -1.000
 6073.00    0.60881   0.40747   -1.000
 6074.00    0.58116   0.40720   -1.000
 6075.00    0.49368   0.40607   20.256
 6076.00    0.40988   0.40401   24.397
 6077.00    0.37584   0.40115   26.607
 6078.00    0.38930   0.39792   25.687
 6079.00    0.43067   0.39493   23.220
 6080.00    0.47763   0.39244   20.937
 6081.00    0.50323   0.39048   19.872
 6082.00    0.48155   0.38911   20.766
 6083.00    0.41511   0.38834   24.090
 6084.00    0.34019   0.38804   29.395
 6085.00    0.30056   0.38815   33.271
 6086.00    0.32768   0.38860   30.518
 6087.00    0.40778   0.38916   24.523
 6088.00    0.48350   0.38944   20.683
 6089.00    0.50905   0.38916   -1.000
 6090.00    0.47569   0.38848   21.022
 6091.00    0.42373   0.38779   23.600
 6092.00    0.42057   0.38750   23.777
 6093.00    0.47062   0.38797   21.248
 6094.00    0.51281   0.38923   -1.000
 6095.00    0.52318   0.39085   -1.000
 6096.00    0.53122   0.39229   -1.000
 6097.00    0.55366   0.39320   -1.000
 6098.00    0.57669   0.39337   -1.000
 6099.00    0.57246   0.39247   -1.000
 6100.00    0.51594   0.39011   -1.000
 6101.00    0.41831   0.38615   23.905
 6102.00    0.32155   0.38158   31.099
 6103.00    0.25179   0.37821   -1.000
 6104.00    0.20922   0.37728   -1.000
 6105.00    0.18086   0.37882   -1.000
 6106.00    0.15112   0.38197   -1.000
 6107.00    0.11976   0.38550   -1.000
 6108.00    0.10424   0.38852   -1.000
 6109.00    0.13155   0.39064   -1.000
 6110.00    0.22075   0.39180   -1.000
 6111.00    0.34506   0.39235   28.981
 6112.00    0.44690   0.39274   22.377
 6113.00    0.49994   0.39318   20.002
 6114.00    0.51579   0.39353   -1.000
 6115.00    0.52089   0.39350   -1.000
 6116.00    0.53708   0.39295   -1.000
 6117.00    0.55084   0.39179   -1.000
 6118.00    0.53073   0.38977   -1.000
 6119.00    0.48192   0.38673   20.750
 6120.00    0.43868   0.38280   22.796
 6121.00    0.42068   0.37864   23.771
 6122.00    0.42761   0.37554   23.386
 6123.00    0.44856   0.37456   22.294
 6124.00    0.46836   0.37563   21.351
 6125.00    0.47632   0.37792   20.994
 6126.00    0.47200   0.38034   21.186
 6127.00    0.47221   0.38211   21.177
 6128.00    0.49356   0.38320   20.261
 6129.00    0.51810   0.38413   -1.000
 6130.00    0.51574   0.38527   -1.000
 6131.00    0.49634   0.38648   20.147
 6132.00    0.48754   0.38707   20.511
 6133.00    0.47989   0.38602   20.838
 6134.00    0.44616   0.38250   22.413
 6135.00    0.39087   0.37651   25.584
 6136.00    0.34269   0.36944   29.181
 6137.00    0.32697   0.36374   30.584
 6138.00    0.35013   0.36141   28.560
 6139.00    0.38375   0.36262   26.058
 6140.00    0.39583   0.36612   25.263
 6141.00    0.40146   0.37048   24.909
 6142.00    0.43676   0.37487   22.896
 6143.00    0.50833   0.37889   -1.000
 6144.00    0.59492   0.38229   -1.000
 6145.00    0.66184   0.38478   -1.000
 6146.00    0.68049   0.38594   -1.000
 6147.00    0.65213   0.38553   -1.000
 6148.00    0.59848   0.38392   -1.000
 6149.00    0.54405   0.38194   -1.000
 6150.00    0.50839   0.38048   -1.000
 6151.00    0.49875   0.37996   -1.000
 6152.00    0.50424   0.38017   -1.000
 6153.00    0.49201   0.38043   -1.000
 6154.00    0.44110   0.38023   22.670
 6155.00    0.38178   0.37947   26.193
 6156.00    0.35951   0.37817   27.816
 6157.00    0.38706   0.37628   25.836
 6158.00    0.44795   0.37351   22.324
 6159.00    0.50848   0.36920   -1.000
 6160.00    0.53923   0.36300   -1.000
 6161.00    0.53698   0.35575   -1.000
 6162.00    0.51719   0.34937   -1.000
 6163.00    0.50204   0.34575   -1.000
 6164.00    0.50308   0.34568   -1.000
 6165.00    0.50637   0.34854   -1.000
 6166.00    0.49539   0.35270   -1.000
 6167.00    0.47409   0.35619   -1.000
 6168.00    0.45322   0.35772   22.064
 6169.00    0.43495   0.35765   22.991
 6170.00    0.41547   0.35742   24.069
 6171.00    0.38995   0.35817   25.644
 6172.00    0.36564   0.36014   27.349
 6173.00    0.37019   0.36295   27.013
 6174.00    0.42005   0.36583   23.807
 6175.00    0.49395   0.36810   -1.000
 6176.00    0.55185   0.36965   -1.000
 6177.00    0.55646   0.37085   -1.000
 6178.00    0.50329   0.37198   -1.000
 6179.00    0.43743   0.37314   22.861
 6180.00    0.39643   0.37442   25.225
 6181.00    0.36806   0.37573   27.170
 6182.00    0.32766   0.37678   30.520
 6183.00    0.26988   0.37732   37.053
 6184.00    0.21093   0.37707   -1.000
 6185.00    0.18427   0.37580   -1.000
 6186.00    0.20846   0.37357   -1.000
 6187.00    0.26695   0.37065   37.460
 6188.00    0.33134   0.36735   30.181
 6189.00    0.37945   0.36384   26.354
 6190.00    0.40139   0.36038   24.913
 6191.00    0.40183   0.35781   24.886
 6192.00    0.39242   0.35709   25.483
 6193.00    0.38481   0.35850   25.987
 6194.00    0.37842   0.36164   26.426
 6195.00    0.35654   0.36560   28.047
 6196.00    0.30841   0.36917   32.424
 6197.00    0.24226   0.37132   -1.000
 6198.00    0.18046   0.37166   -1.000
 6199.00    0.15297   0.37076   -1.000
 6200.00    0.17846   0.36975   -1.000
 6201.00    0.25374   0.36954   -1.000
 6202.00    0.35448   0.37044   28.210
 6203.00    0.44122   0.37214   22.664
 6204.00    0.48725   0.37405   -1.000
 6205.00    0.49156   0.37565   -1.000
 6206.00    0.46838   0.37662   21.350
 6207.00    0.43981   0.37692   22.737
 6208.00    0.42895   0.37657   23.313
 6209.00    0.45579   0.37549   21.940
 6210.00    0.53385   0.37355   -1.000
 6211.00    0.66139   0.37060   -1.000
 6212.00    0.78962   0.36659   -1.000
 6213.00    0.83309   0.36191   -1.000
 6214.00    0.77949   0.35738   -1.000
 6215.00    0.71091   0.35387   -1.000
 6216.00    0.68116   0.35193   -1.000
 6217.00    0.67200   0.35142   -1.000
 6218.00    0.63948   0.35170   -1.000
 6219.00    0.54754   0.35221   -1.000
 6220.00    0.41885   0.35282   23.875
 6221.00    0.33130   0.35364   30.184
 6222.00    0.32690   0.35480   30.590
 6223.00    0.38513   0.35621   25.965
 6224.00    0.46091   0.35769   21.696
 6225.00    0.50811   0.35894   -1.000
 6226.00    0.50901   0.35953   -1.000
 6227.00    0.47798   0.35909   -1.000
 6228.00    0.43677   0.35725   22.896
 6229.00    0.40341   0.35403   24.789
 6230.00    0.38542   0.35029   25.946
 6231.00    0.37832   0.34739   26.433
 6232.00    0.36845   0.34647   27.141
 6233.00    0.33654   0.34806   29.714
 6234.00    0.26606   0.35157   37.586
 6235.00    0.15315   0.35552   -1.000
 6236.00    0.02742   0.35833   -1.000
 6237.00   -0.06138   0.35909   -2.000
 6238.00   -0.09959   0.35778   -2.000
 6239.00   -0.10566   0.35512   -2.000
 6240.00   -0.07200   0.35218   -2.000
 6241.00    0.02414   0.34956   -1.000
 6242.00    0.14653   0.34735   -1.000
 6243.00    0.22267   0.34566   -1.000
 6244.00    0.25545   0.34454   39.147
 6245.00    0.30065   0.34412   33.262
 6246.00    0.33496   0.34475   29.855
 6247.00    0.27149   0.34657   36.834
 6248.00    0.08245   0.34909   -2.000
 6249.00   -0.16434   0.35144   -2.000
 6250.00   -0.29657   0.35263   -2.000
 6251.00   -0.13695   0.35204   -2.000
 6252.00    0.27021   0.34985   -2.000
 6253.00    0.69902   0.34683   -2.000
 6254.00    0.94991   0.34378   -2.000
 6255.00    0.92873   0.34117   -2.000
 6256.00    0.70954   0.33919   -2.000
 6257.00    0.47180   0.33794   -2.000
 6258.00    0.34322   0.33774   -2.000
 6259.00    0.35880   0.33897   -2.000
 6260.00    0.44957   0.34168   -1.000
 6261.00    0.50592   0.34557   -1.000
 6262.00    0.50123   0.34989   -1.000
 6263.00    0.47403   0.35363   -1.000
 6264.00    0.44933   0.35610   22.255
 6265.00    0.43022   0.35734   23.244
 6266.00    0.41032   0.35777   24.371
 6267.00    0.38522   0.35778   25.959
 6268.00    0.36733   0.35770   27.224
 6269.00    0.37193   0.35775   26.887
 6270.00    0.39011   0.35804   25.634
 6271.00    0.40426   0.35862   24.737
 6272.00    0.41996   0.35947   23.812
 6273.00    0.45076   0.36042   22.185
 6274.00    0.48674   0.36127   -1.000
 6275.00    0.50522   0.36183   -1.000
 6276.00    0.49472   0.36192   -1.000
 6277.00    0.45557   0.36146   21.950
 6278.00    0.39564   0.36043   25.276
 6279.00    0.33086   0.35899   30.224
 6280.00    0.28619   0.35755    0.000
 6281.00    0.27913   0.35666    0.000
 6282.00    0.29835   0.35669    0.000
 6283.00    0.32318   0.35767    0.000
 6284.00    0.35262   0.35931    0.000
 6285.00    0.39074   0.36127    0.000
 6286.00    0.42396   0.36324    0.000
 6287.00    0.43520   0.36499    0.000
 6288.00    0.42483   0.36626    0.000
 6289.00    0.40824   0.36679    0.000
 6290.00    0.40832   0.36642    0.000
 6291.00    0.43582   0.36529    0.000
 6292.00    0.46941   0.36372    0.000
 6293.00    0.48038   0.36207    0.000
 6294.00    0.46332   0.36048    0.000
 6295.00    0.43798   0.35882    0.000
 6296.00    0.44451   0.35702    0.000
 6297.00    0.50452   0.35519    0.000
 6298.00    0.58413   0.35351    0.000
 6299.00    0.63774   0.35207    0.000
 6300.00    0.65497   0.35087    0.000
 6301.00    0.64067   0.35003    0.000
 6302.00    0.59224   0.34979    0.000
 6303.00    0.51328   0.35036    0.000
 6304.00    0.42752   0.35177    0.000
 6305.00    0.36562   0.35395    0.000
 6306.00    0.35003   0.35662    0.000
 6307.00    0.37726   0.35926    0.000
 6308.00    0.40695   0.36127    0.000
 6309.00    0.39798   0.36221    0.000
 6310.00    0.34020   0.36194    0.000
 6311.00    0.24950   0.36066    0.000
 6312.00    0.15909   0.35871    0.000
 6313.00    0.09875   0.35636    0.000
 6314.00    0.07892   0.35382    0.000
 6315.00    0.09459   0.35128    0.000
 6316.00    0.12990   0.34885    0.000
 6317.00    0.16286   0.34675    0.000
 6318.00    0.17395   0.34546    0.000
 6319.00    0.18426   0.34537    0.000
 6320.00    0.26796   0.34653    0.000
 6321.00    0.44055   0.34871   22.699
 6322.00    0.59782   0.35151   -1.000
 6323.00    0.65476   0.35448   -1.000
 6324.00    0.63364   0.35721   -1.000
 6325.00    0.59160   0.35942   -1.000
 6326.00    0.56717   0.36100   -1.000
 6327.00    0.56958   0.36200   -1.000
 6328.00    0.57828   0.36249   -1.000
 6329.00    0.57175   0.36257   -1.000
 6330.00    0.54480   0.36239   -1.000
 6331.00    0.50291   0.36201   -1.000
 6332.00    0.45708   0.36126   21.878
 6333.00    0.41689   0.35980   23.987
 6334.00    0.38752   0.35740   25.805
 6335.00    0.37538   0.35441   26.640
 6336.00    0.38973   0.35160   25.659
 6337.00    0.43380   0.34978   23.052
 6338.00    0.49812   0.34939   -1.000
 6339.00    0.55170   0.35035   -1.000
 6340.00    0.54810   0.35195   -1.000
 6341.00    0.47743   0.35324   -1.000
 6342.00    0.38387   0.35357   26.050
 6343.00    0.32147   0.35288   31.107
 6344.00    0.32601   0.35165   30.674
 6345.00    0.38894   0.35056   25.711
 6346.00    0.45987   0.35021   -1.000
 6347.00    0.51154   0.35090   -1.000
 6348.00    0.55821   0.35251   -1.000
 6349.00    0.60402   0.35459   -1.000
 6350.00    0.62743   0.35660   -1.000
 6351.00    0.61434   0.35801   -1.000
 6352.00    0.57235   0.35841   -1.000
 6353.00    0.52832   0.35765   -1.000
 6354.00    0.51706   0.35594   -1.000
 6355.00    0.54284   0.35368   -1.000
 6356.00    0.57539   0.35112   -1.000
 6357.00    0.59290   0.34837   -1.000
 6358.00    0.59491   0.34550   -1.000
 6359.00    0.58681   0.34260   -1.000
 6360.00    0.57224   0.33984   -1.000
 6361.00    0.54821   0.33758   -1.000
 6362.00    0.50795   0.33629   -1.000
 6363.00    0.45664   0.33630   -1.000
 6364.00    0.41230   0.33770   24.254
 6365.00    0.39072   0.34027   25.594
 6366.00    0.39976   0.34356   25.015
 6367.00    0.43773   0.34694   22.845
 6368.00    0.49284   0.34982   -1.000
 6369.00    0.54304   0.35195   -1.000
 6370.00    0.56560   0.35346   -1.000
 6371.00    0.56487   0.35477   -1.000
 6372.00    0.56591   0.35620   -1.000
 6373.00    0.57290   0.35780   -1.000
 6374.00    0.56744   0.35934   -1.000
 6375.00    0.53806   0.36049   -1.000
 6376.00    0.49231   0.36090   -1.000
 6377.00    0.46506   0.36049   -1.000
 6378.00    0.49513   0.35943   -1.000
 6379.00    0.56112   0.35807   -1.000
 6380.00    0.59732   0.35680   -1.000
 6381.00    0.57502   0.35591   -1.000
 6382.00    0.51241   0.35549   -1.000
 6383.00    0.44672   0.35548   22.385
 6384.00    0.41282   0.35582   24.224
 6385.00    0.41082   0.35645   24.341
 6386.00    0.41407   0.35729   24.151
 6387.00    0.40427   0.35820   24.736
 6388.00    0.37913   0.35894   26.376
 6389.00    0.35073   0.35916   28.512
 6390.00    0.33896   0.35845   29.502
 6391.00    0.35885   0.35665   27.867
 6392.00    0.41331   0.35407   24.195
 6393.00    0.48463   0.35155   -1.000
 6394.00    0.54130   0.35001   -1.000
 6395.00    0.55533   0.34986   -1.000
 6396.00    0.51485   0.35077   -1.000
 6397.00    0.44058   0.35173   22.697
 6398.00    0.37035   0.35180   27.002
 6399.00    0.32519   0.35088   30.752
 6400.00    0.30903   0.34979   32.359
 6401.00    0.31945   0.34957   31.304
 6402.00    0.35070   0.35074   28.514
 6403.00    0.39536   0.35297   25.294
 6404.00    0.44085   0.35527   22.683
 6405.00    0.46395   0.35658   -1.000
 6406.00    0.44589   0.35643   22.427
 6407.00    0.39718   0.35515   25.177
 6408.00    0.34476   0.35344   29.006
 6409.00    0.30590   0.35188   32.690
 6410.00    0.28584   0.35075   34.984
 6411.00    0.28055   0.35014   35.645
 6412.00    0.28436   0.34995   35.166
 6413.00    0.30005   0.35010   33.328
 6414.00    0.33282   0.35052   30.047
 6415.00    0.37951   0.35107   26.350
 6416.00    0.42043   0.35144   23.785
 6417.00    0.41274   0.35130   24.228
 6418.00    0.32999   0.35044   30.304
 6419.00    0.21276   0.34905   -1.000
 6420.00    0.13643   0.34775   -1.000
 6421.00    0.15973   0.34733   -1.000
 6422.00    0.28700   0.34829   34.843
 6423.00    0.43513   0.35055   22.982
 6424.00    0.51129   0.35354   -1.000
 6425.00    0.50760   0.35647   -1.000
 6426.00    0.47118   0.35861   -1.000
 6427.00    0.45508   0.35946   21.974
 6428.00    0.48392   0.35875   -1.000
 6429.00    0.52542   0.35659   -1.000
 6430.00    0.53524   0.35360   -1.000
 6431.00    0.50701   0.35074   -1.000
 6432.00    0.45674   0.34900   -1.000
 6433.00    0.40077   0.34885   24.952
 6434.00    0.35017   0.35000   28.557
 6435.00    0.30835   0.35152   32.431
 6436.00    0.28450   0.35236   35.149
 6437.00    0.30356   0.35200   32.943
 6438.00    0.37131   0.35081   26.931
 6439.00    0.44504   0.34979   22.470
 6440.00    0.47670   0.34989   -1.000
 6441.00    0.45404   0.35148   22.024
 6442.00    0.39335   0.35421   25.423
 6443.00    0.32722   0.35726   30.561
 6444.00    0.27817   0.35972   35.949
 6445.00    0.24047   0.36094   -1.000
 6446.00    0.21138   0.36046   -1.000
 6447.00    0.21413   0.35804   -1.000
 6448.00    0.26316   0.35392   37.999
 6449.00    0.33721   0.34905   29.655
 6450.00    0.39748   0.34479   25.159
 6451.00    0.40773   0.34232   24.526
 6452.00    0.36888   0.34201   27.109
 6453.00    0.33478   0.34323   29.871
 6454.00    0.34432   0.34488   29.043
 6455.00    0.37779   0.34625   26.470
 6456.00    0.40362   0.34732   24.776
 6457.00    0.41267   0.34847   24.232
 6458.00    0.41478   0.34994   24.109
 6459.00    0.43163   0.35133   23.168
 6460.00    0.47436   0.35181   -1.000
 6461.00    0.53148   0.35092   -1.000
 6462.00    0.58422   0.34903   -1.000
 6463.00    0.61734   0.34718   -1.000
 6464.00    0.62283   0.34645   -1.000
 6465.00    0.60196   0.34735   -1.000
 6466.00    0.56545   0.34949   -1.000
 6467.00    0.53009   0.35192   -1.000
 6468.00    0.49929   0.35368   -1.000
 6469.00    0.45746   0.35432   -1.000
 6470.00    0.40021   0.35396   24.987
 6471.00    0.34753   0.35318   28.774
 6472.00    0.32299   0.35251   30.961
 6473.00    0.33981   0.35225   29.428
 6474.00    0.38960   0.35245   25.667
 6475.00    0.44139   0.35295   22.656
 6476.00    0.46456   0.35347   -1.000
 6477.00    0.44270   0.35379   22.589
 6478.00    0.38309   0.35366   26.103
 6479.00    0.31659   0.35282   31.586
 6480.00    0.27682   0.35113   36.125
 6481.00    0.28606   0.34883   34.957
 6482.00    0.33761   0.34650   29.620
 6483.00    0.39848   0.34483   25.095
 6484.00    0.45415   0.34431   -1.000
 6485.00    0.51865   0.34498   -1.000
 6486.00    0.59511   0.34638   -1.000
 6487.00    0.65966   0.34775   -1.000
 6488.00    0.66614   0.34831   -1.000
 6489.00    0.56956   0.34751   -1.000
 6490.00    0.40576   0.34504   24.645
 6491.00    0.28544   0.34073   35.034
 6492.00    0.25703   0.33466   38.906
 6493.00    0.28053   0.32737   35.646
 6494.00    0.32421   0.31989   30.844
 6495.00    0.38850   0.31356   25.740
 6496.00    0.46225   0.30968   -1.000
 6497.00    0.51632   0.30896   -1.000
 6498.00    0.53566   0.31131   -1.000
 6499.00    0.52567   0.31594   -1.000
 6500.00    0.49644   0.32176   -1.000
 6501.00    0.45910   0.32780   -1.000
 6502.00    0.43142   0.33338   -1.000
 6503.00    0.43442   0.33811   23.019
 6504.00    0.47723   0.34183   -1.000
 6505.00    0.54852   0.34449   -1.000
 6506.00    0.60679   0.34616   -1.000
 6507.00    0.60004   0.34701   -1.000
 6508.00    0.52782   0.34729   -1.000
 6509.00    0.43654   0.34731   22.907
 6510.00    0.35848   0.34730   27.896
 6511.00    0.30890   0.34732   32.372
 6512.00    0.32343   0.34722   30.919
 6513.00    0.43903   0.34673   22.778
 6514.00    0.62160   0.34565   -1.000
 6515.00    0.77728   0.34402   -1.000
 6516.00    0.82657   0.34213   -1.000
 6517.00    0.74119   0.34048   -1.000
 6518.00    0.58368   0.33957   -1.000
 6519.00    0.46606   0.33967   -1.000
 6520.00    0.43558   0.34073   22.958
 6521.00    0.46381   0.34241   -1.000
 6522.00    0.48377   0.34419   -1.000
 6523.00    0.43178   0.34559   23.160
 6524.00    0.31657   0.34626   31.588
 6525.00    0.20181   0.34614   -1.000
 6526.00    0.13913   0.34543   -1.000
 6527.00    0.15106   0.34447   -1.000
 6528.00    0.22626   0.34357    0.000
 6529.00    0.33149   0.34290    0.000
 6530.00    0.43628   0.34240    0.000
 6531.00    0.51365   0.34191    0.000
 6532.00    0.53306   0.34138    0.000
 6533.00    0.48070   0.34095    0.000
 6534.00    0.39664   0.34082    0.000
 6535.00    0.34231   0.34108    0.000
 6536.00    0.33288   0.34167    0.000
 6537.00    0.34720   0.34239    0.000
 6538.00    0.36453   0.34301    0.000
 6539.00    0.36880   0.34335    0.000
 6540.00    0.34574   0.34324    0.000
 6541.00    0.29640   0.34248    0.000
 6542.00    0.25750   0.34093    0.000
 6543.00    0.27692   0.33855    0.000
 6544.00    0.37102   0.33556    0.000
 6545.00    0.51368   0.33241    0.000
 6546.00    0.63272   0.32961    0.000
 6547.00    0.66182   0.32761    0.000
 6548.00    0.61319   0.32651    0.000
 6549.00    0.54837   0.32603    0.000
 6550.00    0.52273   0.32560    0.000
 6551.00    0.56053   0.32462    0.000
 6552.00    0.63389   0.32273    0.000
 6553.00    0.69640   0.31993    0.000
 6554.00    0.73044   0.31650    0.000
 6555.00    0.75212   0.31280    0.000
 6556.00    0.81053   0.30904    0.000
 6557.00    0.99252   0.30503    0.000
 6558.00    1.42290   0.30015    0.000
 6559.00    2.18865   0.29349    0.000
 6560.00    3.24904   0.28449    0.000
 6561.00    4.40904   0.27380    0.000
 6562.00    5.31577   0.26346    0.000
 6563.00    5.64545   0.25631    0.000
 6564.00    5.30647   0.25483    0.000
 6565.00    4.42175   0.25967    0.000
 6566.00    3.27402   0.26933    0.000
 6567.00    2.17221   0.28090    0.000
 6568.00    1.31867   0.29156    0.000
 6569.00    0.78658   0.29964    0.000
 6570.00    0.51830   0.30485    0.000
 6571.00    0.40383   0.30778    0.000
 6572.00    0.35664   0.30934    0.000
 6573.00    0.32468   0.31037    0.000
 6574.00    0.29319   0.31157    0.000
 6575.00    0.27046   0.31343    0.000
 6576.00    0.27367   0.31612    0.000
 6577.00    0.31866   0.31938    0.000
 6578.00    0.41238   0.32261    0.000
 6579.00    0.55813   0.32523    0.000
 6580.00    0.75784   0.32693    0.000
 6581.00    0.99094   0.32782    0.000
 6582.00    1.19988   0.32829    0.000
 6583.00    1.31307   0.32872    0.000
 6584.00    1.27144   0.32932    0.000
 6585.00    1.08731   0.33007    0.000
 6586.00    0.87385   0.33091    0.000
 6587.00    0.73555   0.33174    0.000
 6588.00    0.69041   0.33237    0.000
 6589.00    0.70542   0.33244    0.000
 6590.00    0.72892   0.33156    0.000
 6591.00    0.71589   0.32954    0.000
 6592.00    0.64557   0.32670    0.000
 6593.00    0.52975   0.32382    0.000
 6594.00    0.41161   0.32185    0.000
 6595.00    0.32717   0.32137    0.000
 6596.00    0.28400   0.32237    0.000
 6597.00    0.28513   0.32433    0.000
 6598.00    0.34041   0.32665    0.000
 6599.00    0.44086   0.32892    0.000
 6600.00    0.54757   0.33097    0.000
 6601.00    0.61914   0.33267    0.000
 6602.00    0.63014   0.33379    0.000
 6603.00    0.58132   0.33409    0.000
 6604.00    0.50175   0.33347    0.000
 6605.00    0.43056   0.33207    0.000
 6606.00    0.40094   0.33021    0.000
 6607.00    0.41014   0.32833    0.000
 6608.00    0.41545   0.32690    0.000
 6609.00    0.39218   0.32626   25.498
 6610.00    0.35798   0.32659   27.935
 6611.00    0.34456   0.32780   29.022
 6612.00    0.37639   0.32954   26.568
 6613.00    0.43981   0.33138   -1.000
 6614.00    0.48310   0.33302   -1.000
 6615.00    0.48082   0.33433   -1.000
 6616.00    0.45554   0.33534   -1.000
 6617.00    0.44082   0.33610   -1.000
 6618.00    0.45923   0.33666   -1.000
 6619.00    0.50260   0.33700   -1.000
 6620.00    0.53699   0.33704   -1.000
 6621.00    0.55584   0.33664   -1.000
 6622.00    0.58677   0.33569   -1.000
 6623.00    0.63164   0.33421   -1.000
 6624.00    0.65684   0.33247   -1.000
 6625.00    0.64857   0.33087   -1.000
 6626.00    0.62482   0.32975   -1.000
 6627.00    0.59935   0.32922   -1.000
 6628.00    0.57139   0.32902   -1.000
 6629.00    0.53820   0.32875   -1.000
 6630.00    0.50015   0.32803   -1.000
 6631.00    0.46135   0.32674   -1.000
 6632.00    0.42882   0.32508   -1.000
 6633.00    0.40902   0.32347   24.449
 6634.00    0.40419   0.32247   24.741
 6635.00    0.40509   0.32244   24.686
 6636.00    0.39636   0.32338   25.229
 6637.00    0.37966   0.32494   26.339
 6638.00    0.37296   0.32656   26.812
 6639.00    0.38688   0.32774   25.848
 6640.00    0.41665   0.32827   24.001
 6641.00    0.44081   0.32815   -1.000
 6642.00    0.43193   0.32756   -1.000
 6643.00    0.38622   0.32679   25.892
 6644.00    0.32381   0.32614   30.882
 6645.00    0.26699   0.32588   37.455
 6646.00    0.23177   0.32609   43.147
 6647.00    0.22256   0.32666   -1.000
 6648.00    0.23523   0.32735   42.512
 6649.00    0.26784   0.32794   37.335
 6650.00    0.31824   0.32828   31.423
 6651.00    0.37159   0.32836   26.911
 6652.00    0.40547   0.32823   24.663
 6653.00    0.40860   0.32799   24.474
 6654.00    0.38502   0.32775   25.973
 6655.00    0.35278   0.32755   28.347
 6656.00    0.33404   0.32736   29.936
 6657.00    0.33450   0.32711   29.896
 6658.00    0.34536   0.32667   28.955
 6659.00    0.35731   0.32591   27.987
 6660.00    0.36289   0.32472   27.556
 6661.00    0.35545   0.32312   28.134
 6662.00    0.33433   0.32127   29.911
 6663.00    0.31514   0.31951   31.732
 6664.00    0.32007   0.31819   31.243
 6665.00    0.35602   0.31759   28.088
 6666.00    0.41421   0.31777   -1.000
 6667.00    0.47731   0.31864   -1.000
 6668.00    0.52047   0.32000   -1.000
 6669.00    0.51167   0.32165   -1.000
 6670.00    0.43652   0.32337   -1.000
 6671.00    0.33842   0.32493   29.549
 6672.00    0.28300   0.32607   35.336
 6673.00    0.28873   0.32654   34.634
 6674.00    0.33786   0.32617   29.598
 6675.00    0.41226   0.32483   -1.000
 6676.00    0.49406   0.32263   -1.000
 6677.00    0.55827   0.31996   -1.000
 6678.00    0.58254   0.31751   -1.000
 6679.00    0.56371   0.31599   -1.000
 6680.00    0.51851   0.31583   -1.000
 6681.00    0.48017   0.31692   -1.000
 6682.00    0.47997   0.31878   -1.000
 6683.00    0.52253   0.32082   -1.000
 6684.00    0.58945   0.32257   -1.000
 6685.00    0.64943   0.32383   -1.000
 6686.00    0.66532   0.32459   -1.000
 6687.00    0.60403   0.32495   -1.000
 6688.00    0.47379   0.32507   -1.000
 6689.00    0.36345   0.32508   27.514
 6690.00    0.35608   0.32505   28.083
 6691.00    0.42224   0.32495   -1.000
 6692.00    0.49071   0.32465   -1.000
 6693.00    0.54517   0.32399   -1.000
 6694.00    0.59319   0.32290   -1.000
 6695.00    0.61950   0.32146   -1.000
 6696.00    0.60607   0.31995    0.000
 6697.00    0.55971   0.31877    0.000
 6698.00    0.50707   0.31823    0.000
 6699.00    0.48341   0.31845    0.000
 6700.00    0.49919   0.31918    0.000
 6701.00    0.51208   0.32001    0.000
 6702.00    0.48900   0.32052    0.000
 6703.00    0.46545   0.32053    0.000
 6704.00    0.48150   0.32018    0.000
 6705.00    0.51784   0.31975    0.000
 6706.00    0.53643   0.31949    0.000
 6707.00    0.52472   0.31947    0.000
 6708.00    0.49824   0.31954    0.000
 6709.00    0.49594   0.31951    0.000
 6710.00    0.54527   0.31919    0.000
 6711.00    0.63452   0.31849    0.000
 6712.00    0.73909   0.31736    0.000
 6713.00    0.84518   0.31579    0.000
 6714.00    0.94366   0.31383    0.000
 6715.00    1.02341   0.31166    0.000
 6716.00    1.07074   0.30964    0.000
 6717.00    1.07078   0.30820    0.000
 6718.00    1.01918   0.30775    0.000
 6719.00    0.93033   0.30839    0.000
 6720.00    0.83052   0.30991    0.000
 6721.00    0.74939   0.31184    0.000
 6722.00    0.69593   0.31370    0.000
 6723.00    0.64765   0.31514    0.000
 6724.00    0.59321   0.31605    0.000
 6725.00    0.55745   0.31648    0.000
 6726.00    0.56331   0.31659    0.000
 6727.00    0.60686   0.31663    0.000
 6728.00    0.67186   0.31680    0.000
 6729.00    0.74116   0.31716    0.000
 6730.00    0.80277   0.31764    0.000
 6731.00    0.85148   0.31806    0.000
 6732.00    0.87779   0.31826    0.000
 6733.00    0.86340   0.31821    0.000
 6734.00    0.79519   0.31794    0.000
 6735.00    0.67515   0.31753    0.000
 6736.00    0.52856   0.31698    0.000
 6737.00    0.40259   0.31627    0.000
 6738.00    0.33416   0.31544    0.000
 6739.00    0.33081   0.31456    0.000
 6740.00    0.36494   0.31376    0.000
 6741.00    0.38456   0.31311    0.000
 6742.00    0.38010   0.31262    0.000
 6743.00    0.40210   0.31225    0.000
 6744.00    0.47755   0.31195    0.000
 6745.00    0.57549   0.31165    0.000
 6746.00    0.64759   0.31128    0.000
 6747.00    0.65511   0.31079    0.000
 6748.00    0.59646   0.31018    0.000
 6749.00    0.51187   0.30956    0.000
 6750.00    0.44782   0.30907    0.000
 6751.00    0.43572   0.30884    0.000
 6752.00    0.47155   0.30893    0.000
 6753.00    0.51610   0.30936   -1.000
 6754.00    0.53082   0.31012   -1.000
 6755.00    0.49689   0.31120   -1.000
 6756.00    0.42848   0.31253   -1.000
 6757.00    0.36620   0.31403   27.308
 6758.00    0.33215   0.31554   30.107
 6759.00    0.31890   0.31688   31.358
 6760.00    0.31524   0.31787   31.722
 6761.00    0.31684   0.31841   31.562
 6762.00    0.32793   0.31846   30.494
 6763.00    0.35724   0.31804   27.993
 6764.00    0.40241   0.31722   24.850
 6765.00    0.44907   0.31604   -1.000
 6766.00    0.48621   0.31462   -1.000
 6767.00    0.51346   0.31316   -1.000
 6768.00    0.54650   0.31191   -1.000
 6769.00    0.60822   0.31107   -1.000
 6770.00    0.69606   0.31078   -1.000
 6771.00    0.77632   0.31105   -1.000
 6772.00    0.79935   0.31186   -1.000
 6773.00    0.72401   0.31312   -1.000
 6774.00    0.57313   0.31470   -1.000
 6775.00    0.42165   0.31635   -1.000
 6776.00    0.31687   0.31782   31.558
 6777.00    0.26325   0.31890   37.987
 6778.00    0.24524   0.31945   40.776
 6779.00    0.24307   0.31940   41.141
 6780.00    0.25609   0.31867   39.049
 6781.00    0.29422   0.31720   33.988
 6782.00    0.34109   0.31509   29.318
 6783.00    0.36800   0.31261   27.174
 6784.00    0.39030   0.31024   25.621
 6785.00    0.44609   0.30849   -1.000
 6786.00    0.51335   0.30770   -1.000
 6787.00    0.53414   0.30790   -1.000
 6788.00    0.51447   0.30881   -1.000
 6789.00    0.50738   0.30997   -1.000
 6790.00    0.52435   0.31098   -1.000
 6791.00    0.53778   0.31154   -1.000
 6792.00    0.52962   0.31158   -1.000
 6793.00    0.49691   0.31121   -1.000
 6794.00    0.44116   0.31063   -1.000
 6795.00    0.37398   0.31011   26.740
 6796.00    0.33188   0.30986   30.131
 6797.00    0.35236   0.30997   28.380
 6798.00    0.42297   0.31040   -1.000
 6799.00    0.49477   0.31101   -1.000
 6800.00    0.52690   0.31165   -1.000
 6801.00    0.51182   0.31218   -1.000
 6802.00    0.50282   0.31250   -1.000
 6803.00    0.56468   0.31256   -1.000
 6804.00    0.68069   0.31239   -1.000
 6805.00    0.77731   0.31207   -1.000
 6806.00    0.79422   0.31167   -1.000
 6807.00    0.70521   0.31127   -1.000
 6808.00    0.53273   0.31090   -1.000
 6809.00    0.34958   0.31058   28.606
 6810.00    0.27410   0.31031   36.482
 6811.00    0.39270   0.31009   25.465
 6812.00    0.64790   0.30989   -1.000
 6813.00    0.91229   0.30971   -1.000
 6814.00    1.12001   0.30958   -1.000
 6815.00    1.23669   0.30957   -1.000
 6816.00    1.19353   0.30972   -1.000
 6817.00    0.96422   0.31004   -1.000
 6818.00    0.67610   0.31042   -1.000
 6819.00    0.50159   0.31077   -1.000
 6820.00    0.49448   0.31109   -1.000
 6821.00    0.60045   0.31147   -1.000
 6822.00    0.70339   0.31200   -1.000
 6823.00    0.70498   0.31264   -1.000
 6824.00    0.61287   0.31320   -1.000
 6825.00    0.49004   0.31342   -1.000
 6826.00    0.38116   0.31315   26.236
 6827.00    0.31485   0.31245   31.761
 6828.00    0.31578   0.31156   31.668
 6829.00    0.39553   0.31082   25.282
 6830.00    0.54106   0.31047   -1.000
 6831.00    0.71394   0.31056   -1.000
 6832.00    0.85325   0.31096   -1.000
 6833.00    0.90252   0.31143   -1.000
 6834.00    0.83897   0.31173   -1.000
 6835.00    0.68432   0.31165   -1.000
 6836.00    0.50830   0.31105   -1.000
 6837.00    0.38119   0.30982   26.233
 6838.00    0.32840   0.30798   30.451
 6839.00    0.35200   0.30571   28.409
 6840.00    0.45180   0.30335   -1.000
 6841.00    0.58888   0.30137   -1.000
 6842.00    0.66100   0.30025   -1.000
 6843.00    0.60627   0.30024   -1.000
 6844.00    0.48716   0.30132   -1.000
 6845.00    0.38485   0.30317   25.984
 6846.00    0.30798   0.30529   32.469
 6847.00    0.25129   0.30721   39.795
 6848.00    0.24624   0.30863   40.611
 6849.00    0.31933   0.30945   31.316
 6850.00    0.45519   0.30973   -1.000
 6851.00    0.59991   0.30952   -1.000
 6852.00    0.67487   0.30886   -1.000
 6853.00    0.64718   0.30777   -1.000
 6854.00    0.57172   0.30632   -1.000
 6855.00    0.50508   0.30472   -1.000
 6856.00    0.44634   0.30326   -1.000
 6857.00    0.38568   0.30217   -1.000
 6858.00    0.34108   0.30154   29.319
 6859.00    0.35312   0.30129   28.319
 6860.00    0.46957   0.30128   -1.000
 6861.00    0.67701   0.30147   -1.000
 6862.00    0.87120   0.30190   -1.000
 6863.00    0.96070   0.30260   -1.000
 6864.00    0.92953   0.30343   -1.000
 6865.00    0.80118   0.30409   -1.000
 6866.00    0.61040   0.30431   -1.000
 6867.00    0.38255   0.30400   26.140
 6868.00    0.13250   0.30335   -1.000
 6869.00   -0.07460   0.30268   -2.000
 6870.00   -0.11180   0.30222   -2.000
 6871.00    0.07500   0.30205   -1.000
 6872.00    0.40272   0.30207   -1.000
 6873.00    0.72110   0.30222   -1.000
 6874.00    0.87544   0.30250   -1.000
 6875.00    0.82163   0.30296   -1.000
 6876.00    0.66004   0.30361   -1.000
 6877.00    0.50622   0.30434   -1.000
 6878.00    0.42326   0.30495   -1.000
 6879.00    0.42267   0.30521   -1.000
 6880.00    0.47374   0.30499   -1.000
 6881.00    0.53970   0.30434   -1.000
 6882.00    0.59049   0.30352   -1.000
 6883.00    0.58219   0.30290   -1.000
 6884.00    0.46928   0.30275   -1.000
 6885.00    0.29848   0.30319   33.503
 6886.00    0.20919   0.30415   -1.000
 6887.00    0.26024   0.30544   38.426
 6888.00    0.38514   0.30686   25.964
 6889.00    0.51624   0.30821   -1.000
 6890.00    0.62699   0.30934   -1.000
 6891.00    0.68951   0.31010   -1.000
 6892.00    0.66676   0.31041   -1.000
 6893.00    0.54990   0.31029   -1.000
 6894.00    0.37578   0.30986   26.611
 6895.00    0.23627   0.30931   42.324
 6896.00    0.24678   0.30880   40.521
 6897.00    0.42674   0.30846   -1.000
 6898.00    0.67821   0.30831   -1.000
 6899.00    0.86354   0.30832   -1.000
 6900.00    0.86989   0.30842   -1.000
 6901.00    0.72472   0.30859   -1.000
 6902.00    0.57465   0.30881   -1.000
 6903.00    0.49622   0.30906   -1.000
 6904.00    0.46303   0.30933   -1.000
 6905.00    0.43805   0.30961   -1.000
 6906.00    0.40574   0.30990   -1.000
 6907.00    0.37733   0.31021   26.502
 6908.00    0.38058   0.31046   26.276
 6909.00    0.42697   0.31054   -1.000
 6910.00    0.50244   0.31028   -1.000
 6911.00    0.56962   0.30961   -1.000
 6912.00    0.58451   0.30855   -1.000
 6913.00    0.53814   0.30727   -1.000
 6914.00    0.46488   0.30601   -1.000
 6915.00    0.43313   0.30504   -1.000
 6916.00    0.50575   0.30457   -1.000
 6917.00    0.65074   0.30466   -1.000
 6918.00    0.76619   0.30526   -1.000
 6919.00    0.79458   0.30619   -1.000
 6920.00    0.73630   0.30715   -1.000
 6921.00    0.61446   0.30782   -1.000
 6922.00    0.47232   0.30791   -1.000
 6923.00    0.38525   0.30733   25.957
 6924.00    0.42262   0.30619   -1.000
 6925.00    0.56132   0.30489   -1.000
 6926.00    0.71466   0.30386   -1.000
 6927.00    0.83267   0.30343   -1.000
 6928.00    0.90133   0.30363   -1.000
 6929.00    0.89755   0.30422   -1.000
 6930.00    0.80459   0.30485   -1.000
 6931.00    0.65984   0.30525   -1.000
 6932.00    0.53060   0.30534   -1.000
 6933.00    0.45060   0.30524   -1.000
 6934.00    0.41721   0.30515   -1.000
 6935.00    0.40977   0.30525   -1.000
 6936.00    0.40696   0.30558   -1.000
 6937.00    0.41051   0.30609   -1.000
 6938.00    0.43618   0.30667   -1.000
 6939.00    0.49072   0.30720   -1.000
 6940.00    0.56322   0.30751   -1.000
 6941.00    0.61882   0.30744   -1.000
 6942.00    0.62245   0.30686   -1.000
 6943.00    0.57800   0.30578   -1.000
 6944.00    0.52196   0.30445   -1.000
 6945.00    0.50258   0.30325   -1.000
 6946.00    0.54906   0.30255   -1.000
 6947.00    0.63286   0.30252   -1.000
 6948.00    0.70225   0.30300   -1.000
 6949.00    0.73990   0.30359   -1.000
 6950.00    0.75180   0.30391   -1.000
 6951.00    0.74042   0.30377   -1.000
 6952.00    0.70727   0.30325   -1.000
 6953.00    0.66155   0.30265   -1.000
 6954.00    0.62170   0.30232   -1.000
 6955.00    0.61420   0.30244   -1.000
 6956.00    0.64716   0.30303   -1.000
 6957.00    0.67922   0.30391   -1.000
 6958.00    0.65373   0.30487   -1.000
 6959.00    0.54678   0.30573   -1.000
 6960.00    0.38936   0.30641   25.683
 6961.00    0.28013   0.30691   35.697
 6962.00    0.29451   0.30726   33.955
 6963.00    0.38482   0.30749   25.986
 6964.00    0.46287   0.30759   -1.000
 6965.00    0.50234   0.30761   -1.000
 6966.00    0.51688   0.30761   -1.000
 6967.00    0.52435   0.30768   -1.000
 6968.00    0.53662   0.30784   -1.000
 6969.00    0.55281   0.30800   -1.000
 6970.00    0.55901   0.30804   -1.000
 6971.00    0.53106   0.30786   -1.000
 6972.00    0.45805   0.30736   -1.000
 6973.00    0.36369   0.30645   27.496
 6974.00    0.29147   0.30501   34.309
 6975.00    0.28511   0.30295   35.075
 6976.00    0.35236   0.30033   28.380
 6977.00    0.43971   0.29745   -1.000
 6978.00    0.48981   0.29489   -1.000
 6979.00    0.49232   0.29335   -1.000
 6980.00    0.46450   0.29331   -1.000
 6981.00    0.43060   0.29483   -1.000
 6982.00    0.41560   0.29749   -1.000
 6983.00    0.43949   0.30059   -1.000
 6984.00    0.50171   0.30340   -1.000
 6985.00    0.57220   0.30543   -1.000
 6986.00    0.61655   0.30652   -1.000
 6987.00    0.61647   0.30682   -1.000
 6988.00    0.57255   0.30660   -1.000
 6989.00    0.50390   0.30618   -1.000
 6990.00    0.43847   0.30583   -1.000
 6991.00    0.40460   0.30570   -1.000
 6992.00    0.42053   0.30580   -1.000
 6993.00    0.48592   0.30600   -1.000
 6994.00    0.57173   0.30615   -1.000
 6995.00    0.62326   0.30608   -1.000
 6996.00    0.62401   0.30569   -1.000
 6997.00    0.62598   0.30497   -1.000
 6998.00    0.67522   0.30397   -1.000
 6999.00    0.76554   0.30282   -1.000
 7000.00    0.85385   0.30171   -1.000
 7001.00    0.88116   0.30081   -2.000
 7002.00    0.83037   0.30019   -2.000
 7003.00    0.74769   0.29983   -2.000
 7004.00    0.66992   0.29961   -2.000
 7005.00    0.59036   0.29947   -2.000
 7006.00    0.50701   0.29945   -2.000
 7007.00    0.44421   0.29967   -2.000
 7008.00    0.42058   0.30018   -2.000
 7009.00    0.43325   0.30086   -2.000
 7010.00    0.46876   0.30149   -2.000
 7011.00    0.51082   0.30181   -2.000
 7012.00    0.54786   0.30163   -2.000
 7013.00    0.57717   0.30088   -2.000
 7014.00    0.60674   0.29960   -2.000
 7015.00    0.65156   0.29804   -2.000
 7016.00    0.71334   0.29661   -2.000
 7017.00    0.77414   0.29581   -2.000
 7018.00    0.81020   0.29596   -2.000
 7019.00    0.79820   0.29702   -2.000
 7020.00    0.71403   0.29853   -2.000
 7021.00    0.54535   0.29979   -2.000
 7022.00    0.34379   0.30025   -2.000
 7023.00    0.21671   0.29984   -2.000
 7024.00    0.20832   0.29897   -2.000
 7025.00    0.27092   0.29822   -2.000
 7026.00    0.34379   0.29803   -2.000
 7027.00    0.38960   0.29857   -2.000
 7028.00    0.40970   0.29966   -2.000
 7029.00    0.43651   0.30093   -2.000
 7030.00    0.48781   0.30203   -2.000
 7031.00    0.55031   0.30278   -2.000
 7032.00    0.58291   0.30314   -2.000
 7033.00    0.53901   0.30318   -2.000
 7034.00    0.43489   0.30301   -2.000
 7035.00    0.34644   0.30270   -2.000
 7036.00    0.32334   0.30232   -2.000
 7037.00    0.36223   0.30197   -2.000
 7038.00    0.41486   0.30186   -2.000
 7039.00    0.41803   0.30227   -2.000
 7040.00    0.37294   0.30337   -2.000
 7041.00    0.33896   0.30510   -2.000
 7042.00    0.34448   0.30711   -2.000
 7043.00    0.37410   0.30886   -2.000
 7044.00    0.40919   0.30994   -2.000
 7045.00    0.43884   0.31036   -2.000
 7046.00    0.45679   0.31042   -2.000
 7047.00    0.46053   0.31044   -2.000
 7048.00    0.45126   0.31051   -2.000
 7049.00    0.43083   0.31039   -2.000
 7050.00    0.39398   0.30963   -2.000
 7051.00    0.33733   0.30789   -2.000
 7052.00    0.28529   0.30519   -2.000
 7053.00    0.27835   0.30189   -2.000
 7054.00    0.33064   0.29862   -2.000
 7055.00    0.42975   0.29593   -2.000
 7056.00    0.55994   0.29410   -2.000
 7057.00    0.70090   0.29305   -2.000
 7058.00    0.81324   0.29239   -2.000
 7059.00    0.85182   0.29178   -2.000
 7060.00    0.80101   0.29108   -2.000
 7061.00    0.68211   0.29040   -2.000
 7062.00    0.55138   0.28998   -2.000
 7063.00    0.46619   0.28990   -2.000
 7064.00    0.42064   0.29001   -2.000
 7065.00    0.37899   0.28994   -2.000
 7066.00    0.36317   0.28946   -2.000
 7067.00    0.41522   0.28861   -2.000
 7068.00    0.49750   0.28770   -2.000
 7069.00    0.53040   0.28724   -2.000
 7070.00    0.49407   0.28756   -2.000
 7071.00    0.42592   0.28871   -2.000
 7072.00    0.38233   0.29035   -2.000
 7073.00    0.39831   0.29200   -2.000
 7074.00    0.43422   0.29329   -2.000
 7075.00    0.42768   0.29410   -2.000
 7076.00    0.39079   0.29457   -2.000
 7077.00    0.37527   0.29486   -2.000
 7078.00    0.39338   0.29507   -2.000
 7079.00    0.42967   0.29518   -2.000
 7080.00    0.47699   0.29499   -2.000
 7081.00    0.52095   0.29422   -2.000
 7082.00    0.51237   0.29267   -2.000
 7083.00    0.42487   0.29034   -2.000
 7084.00    0.33659   0.28747   -2.000
 7085.00    0.33004   0.28450   -2.000
 7086.00    0.34518   0.28190   -2.000
 7087.00    0.28785   0.27994   -2.000
 7088.00    0.19524   0.27861   -2.000
 7089.00    0.14967   0.27772   -2.000
 7090.00    0.14335   0.27707   -2.000
 7091.00    0.13126   0.27664   -2.000
 7092.00    0.11686   0.27644   -2.000
 7093.00    0.13059   0.27649   -2.000
 7094.00    0.19105   0.27677   -2.000
 7095.00    0.30002   0.27723   -2.000
 7096.00    0.44145   0.27785   -2.000
 7097.00    0.57517   0.27862   -2.000
 7098.00    0.63553   0.27947   -2.000
 7099.00    0.60497   0.28032   -2.000
 7100.00    0.58089   0.28104   -2.000
 7101.00    0.61550   0.28153   -2.000
 7102.00    0.56482   0.28178   -2.000
 7103.00    0.38611   0.28184   -2.000
 7104.00    0.40085   0.28181   -2.000
 7105.00    0.66046   0.28173   -2.000
 7106.00    0.41098   0.28155   -2.000
 7107.00   -0.66129   0.28117   -2.000
 7108.00   -1.36125   0.28051   -2.000
 7109.00   -0.75370   0.27964   -2.000
 7110.00    0.27004   0.27872   -2.000
 7111.00    0.62038   0.27793   -2.000
 7112.00    0.49515   0.27739   -2.000
 7113.00    0.44397   0.27724   -2.000
 7114.00    0.48970   0.27750   -2.000
 7115.00    0.48103   0.27806   -2.000
 7116.00    0.43276   0.27868   -2.000
 7117.00    0.40405   0.27912   -2.000
 7118.00    0.38540   0.27928   -2.000
 7119.00    0.35548   0.27913   -2.000
 7120.00    0.32765   0.27875   -2.000
 7121.00    0.31250   0.27825   -2.000
 7122.00    0.29315   0.27772   -2.000
 7123.00    0.27237   0.27720   -2.000
 7124.00    0.29810   0.27667   -2.000
 7125.00    0.38568   0.27608   -2.000
 7126.00    0.47279   0.27534   -2.000
 7127.00    0.50285   0.27436   -2.000
 7128.00    0.47919   0.27320   -2.000
 7129.00    0.42664   0.27205   -2.000
 7130.00    0.36607   0.27108   -2.000
 7131.00    0.32982   0.27048   -2.000
 7132.00    0.36416   0.27043   -2.000
 7133.00    0.47673   0.27111   -2.000
 7134.00    0.61321   0.27244   -2.000
 7135.00    0.71508   0.27406   -2.000
 7136.00    0.75567   0.27559   -2.000
 7137.00    0.74018   0.27672   -2.000
 7138.00    0.69916   0.27737   -2.000
 7139.00    0.65775   0.27762   -2.000
 7140.00    0.62116   0.27760   -2.000
 7141.00    0.59070   0.27746   -2.000
 7142.00    0.57205   0.27734   -2.000
 7143.00    0.57020   0.27720   -2.000
 7144.00    0.58452   0.27683   -2.000
 7145.00    0.59797   0.27612   -2.000
 7146.00    0.58106   0.27507   -2.000
 7147.00    0.53570   0.27384   -2.000
 7148.00    0.50231   0.27271   -2.000
 7149.00    0.49154   0.27201   -2.000
 7150.00    0.46654   0.27205   -2.000
 7151.00    0.41200   0.27298   -2.000
 7152.00    0.35735   0.27455   -2.000
 7153.00    0.33583   0.27630   -2.000
 7154.00    0.36437   0.27788   -2.000
 7155.00    0.43860   0.27905   -2.000
 7156.00    0.53467   0.27973   -2.000
 7157.00    0.62465   0.28001   -2.000
 7158.00    0.68115   0.28002   -2.000
 7159.00    0.67026   0.27977   -2.000
 7160.00    0.56409   0.27915   -2.000
 7161.00    0.39795   0.27815   -2.000
 7162.00    0.26701   0.27691   -2.000
 7163.00    0.23309   0.27555   -2.000
 7164.00    0.29613   0.27427   -2.000
 7165.00    0.41912   0.27334   -2.000
 7166.00    0.54374   0.27312   -2.000
 7167.00    0.61098   0.27388   -2.000
 7168.00    0.58443   0.27557   -2.000
 7169.00    0.50100   0.27772   -2.000
 7170.00    0.44831   0.27977   -2.000
 7171.00    0.44158   0.28139   -2.000
 7172.00    0.42427   0.28250   -2.000
 7173.00    0.39353   0.28311   -2.000
 7174.00    0.39892   0.28323   -2.000
 7175.00    0.42104   0.28286   -2.000
 7176.00    0.38070   0.28209   -2.000
 7177.00    0.27057   0.28109   -2.000
 7178.00    0.16431   0.28001   -2.000
 7179.00    0.13269   0.27895   -2.000
 7180.00    0.20351   0.27792   -2.000
 7181.00    0.32284   0.27698   -2.000
 7182.00    0.40899   0.27634   -2.000
 7183.00    0.51433   0.27616   -2.000
 7184.00    0.77349   0.27631   -2.000
 7185.00    1.16971   0.27636   -2.000
 7186.00    1.54394   0.27584   -2.000
 7187.00    1.76346   0.27472   -2.000
 7188.00    1.77675   0.27334   -2.000
 7189.00    1.64000   0.27218   -2.000
 7190.00    1.46471   0.27166   -2.000
 7191.00    1.28884   0.27183   -2.000
 7192.00    1.09751   0.27249   -2.000
 7193.00    0.93094   0.27332   -2.000
 7194.00    0.84771   0.27412   -2.000
 7195.00    0.80004   0.27483   -2.000
 7196.00    0.69469   0.27549   -2.000
 7197.00    0.56772   0.27603   -2.000
 7198.00    0.52398   0.27640   -2.000
 7199.00    0.55011   0.27662   -2.000
 7200.00    0.56175   0.27677   -2.000
 7201.00    0.56129   0.27687   -2.000
 7202.00    0.58965   0.27688   -2.000
 7203.00    0.58663   0.27675   -2.000
 7204.00    0.48467   0.27643   -2.000
 7205.00    0.41078   0.27581   -2.000
 7206.00    0.47636   0.27480   -2.000
 7207.00    0.37719   0.27348   -2.000
 7208.00   -0.18190   0.27228   -2.000
 7209.00   -0.70245   0.27174   -2.000
 7210.00   -0.50952   0.27215   -2.000
 7211.00    0.08415   0.27328   -2.000
 7212.00    0.35521   0.27460   -2.000
 7213.00    0.32924   0.27561   -2.000
 7214.00    0.43418   0.27612   -2.000
 7215.00    0.71768   0.27630   -2.000
 7216.00    0.93170   0.27649   -2.000
 7217.00    0.83667   0.27686   -2.000
 7218.00    0.39828   0.27737   -2.000
