###################################################################
## OUTPUT of StarlightChains_v04.for    [Cid@UFSC - 01/Apr/2007] ##
###################################################################

## Some input info
2003hg.txt                               [arq_obs]
Base.CB07.vall.4m                        [arq_base]
Masks.EmLines.NEW.gm                     [arq_masks]
StCv04.C11.config                        [arq_config]
   66                                    [N_base]
    0                                    [N_YAV_components = # of components with extra extinction!]
    0                                    [i_FitPowerLaw (1/0 = Yes/No)]
-9.99                                    [alpha_PowerLaw]
CCM                                      [red_law_option]
 1.458241                                [q_norm = A(l_norm)/A(V)]

## (Re)Sampling Parameters
 3741.00                                 [l_ini (A)]
 7218.00                                 [l_fin (A)]
    1.00                                 [dl    (A)]     (OBS: dl_cushion =    50.00 A)

## Normalization info
 4020.00                                 [l_norm (A) - for base]
 4010.00                                 [llow_norm (A) - window for f_obs]
 4060.00                                 [lupp_norm (A) - window for f_obs]
4.117763E-16                             [fobs_norm (in input units)]

## S/N
 3691.00                                 [llow_SN (A) - window for S/N]
 7268.00                                 [lupp_SN (A) - window for S/N]
   6.593                                 [S/N in S/N window]
   5.890                                 [S/N in norm. window]
  10.000                                 [S/N_err in S/N window]
   8.934                                 [S/N_err in norm. window]
  1.0000                                 [fscale_chi2]

## etc...
    -2007278                             [idum_orig]
  2307                                   [NOl_eff]
  2307                                   [Nl_eff]
     0    NSIGMA                         [Ntot_cliped & clip_method]
  1214640                                [Nglobal_steps]
   7                                     [N_chains]
  23                                     [NEX0s_base = N_base in EX0s-fits]
 0   0   1      131   2.0   1.338E+01    [Clip-Bug, RC-Crash & Burn-In warning-flags, n_censored_weights, wei_nsig_threshold & wei_limit]
    11     10.716     10.220      0.496  [idt_all, wdt_TotTime, wdt_UsrTime & wdt_SysTime (sec)]

## Synthesis Results - Best model ##

 1.68879E-01                             [chi2/Nl_eff]
     3.09514                             [adev (%)]

   104.40665                             [sum-of-x (%)]
 8.14829E-16                             [Flux_tot (units of input spectrum!)]
 1.06045E-11                             [Mini_tot (???)]
 5.81276E-12                             [Mcor_tot (???)]

-202.41                                  [v0_min  (km/s)]
 291.80                                  [vd_min  (km/s)]
 0.4760                                  [AV_min  (mag)]
 0.0000                                  [YAV_min (mag)]

# j     x_j(%)      Mini_j(%)     Mcor_j(%)     age_j(yr)     Z_j      (L/M)_j    YAV?  Mstars   component_j        a/Fe...       SSP_chi2r SSP_adev(%)   SSP_AV   SSP_x(%)
  1      1.6413     1.1041E-02    2.0143E-02    1.000000E+06  0.00400  1.094E-02    0   1.0000   age020_m42            0.0000     7.2120E-01     6.3469   3.5373    86.2615
  2      0.0000     0.0000E+00    0.0000E+00    3.160000E+06  0.00400  4.007E-02    0   0.9999   age045_m42            0.0000     4.8915E-01     5.1607   2.7872    93.1799
  3      0.0000     0.0000E+00    0.0000E+00    5.010000E+06  0.00400  2.539E-02    0   0.9488   age055_m42            0.0000     5.8218E-01     5.6717   3.1190    90.4120
  4      0.0000     0.0000E+00    0.0000E+00    6.610000E+06  0.00400  2.620E-02    0   0.9220   age061_m42            0.0000     5.0255E-01     5.1677   2.7132    93.3730
  5      0.0000     0.0000E+00    0.0000E+00    1.000000E+07  0.00400  1.322E-02    0   0.8862   age070_m42            0.0000     6.3415E-01     5.8929   2.4405    94.7774
  6      0.0000     0.0000E+00    0.0000E+00    1.445000E+07  0.00400  7.883E-03    0   0.8571   age078_m42            0.0000     6.7501E-01     6.1172   2.7731    92.1804
  7      0.0000     0.0000E+00    0.0000E+00    2.512000E+07  0.00400  5.251E-03    0   0.8174   age090_m42            0.0000     6.5655E-01     6.0544   2.3090    95.3291
  8      0.0000     0.0000E+00    0.0000E+00    4.000000E+07  0.00400  3.649E-03    0   0.7851   age104_m42            0.0000     5.9348E-01     5.7440   2.0760    96.3932
  9      2.4189     5.7463E-02    7.9976E-02    5.500000E+07  0.00400  3.098E-03    0   0.7629   age110_m42            0.0000     5.3102E-01     5.2652   2.2217    96.8302
 10      0.0000     0.0000E+00    0.0000E+00    1.015200E+08  0.00400  2.228E-03    0   0.7207   age116_m42            0.0000     5.1077E-01     5.0557   2.2373    97.2863
 11      0.0000     0.0000E+00    0.0000E+00    2.861200E+08  0.00400  1.093E-03    0   0.6648   age125_m42            0.0000     5.2997E-01     5.3921   1.6658   100.3199
 12      0.0000     0.0000E+00    0.0000E+00    5.088000E+08  0.00400  6.597E-04    0   0.6365   age130_m42            0.0000     4.7460E-01     5.0407   1.6475   101.6569
 13      9.6815     3.3420E+00    3.5350E+00    1.434000E+09  0.00400  2.132E-04    0   0.5798   age139_m42            0.0000     2.8304E-01     4.0058   0.6634   104.3379
 14     16.1804     2.0200E+01    1.9815E+01    4.250000E+09  0.00400  5.895E-05    0   0.5377   age158_m42            0.0000     1.8601E-01     3.3098   0.2211   100.4934
 15      0.0000     0.0000E+00    0.0000E+00    7.500000E+09  0.00400  3.510E-05    0   0.5212   age171_m42            0.0000     2.1814E-01     3.5386   0.0307    99.9988
 16      0.0000     0.0000E+00    0.0000E+00    1.300000E+10  0.00400  2.005E-05    0   0.5034   age193_m42            0.0000     2.6935E-01     3.8626  -0.1361    99.5941
 17      0.0000     0.0000E+00    0.0000E+00    1.800000E+10  0.00400  1.525E-05    0   0.4967   age213_m42            0.0000     2.6029E-01     3.8070  -0.1573    99.0692
 18      0.0000     0.0000E+00    0.0000E+00    1.000000E+06  0.00800  1.238E-02    0   1.0000   age020_m52            0.0000     7.1909E-01     6.3409   3.5336    86.4318
 19      0.0000     0.0000E+00    0.0000E+00    3.160000E+06  0.00800  3.074E-02    0   0.9966   age045_m52            0.0000     6.9100E-01     6.2139   3.4546    87.2858
 20      0.0000     0.0000E+00    0.0000E+00    5.010000E+06  0.00800  2.668E-02    0   0.9443   age055_m52            0.0000     6.0841E-01     5.8040   3.2047    89.4718
 21      0.0000     0.0000E+00    0.0000E+00    6.610000E+06  0.00800  2.136E-02    0   0.9177   age061_m52            0.0000     5.2514E-01     5.5044   1.9380    95.9810
 22      0.0000     0.0000E+00    0.0000E+00    1.000000E+07  0.00800  1.215E-02    0   0.8827   age070_m52            0.0000     7.1073E-01     6.3763   2.6269    94.2643
 23      0.0000     0.0000E+00    0.0000E+00    1.445000E+07  0.00800  8.717E-03    0   0.8552   age078_m52            0.0000     6.4790E-01     5.9813   2.7361    93.5588
 24      1.8333     2.4127E-02    3.5926E-02    2.512000E+07  0.00800  5.592E-03    0   0.8162   age090_m52            0.0000     6.4385E-01     6.0124   2.3733    96.4889
 25      0.6020     1.1371E-02    1.6266E-02    4.000000E+07  0.00800  3.896E-03    0   0.7841   age104_m52            0.0000     5.7938E-01     5.6600   2.2793    97.5698
 26      0.0000     0.0000E+00    0.0000E+00    1.015200E+08  0.00800  2.148E-03    0   0.7226   age116_m52            0.0000     4.9480E-01     5.1127   2.2085    97.8974
 27      0.0153     1.1338E-03    1.3824E-03    2.861200E+08  0.00800  9.925E-04    0   0.6683   age125_m52            0.0000     4.7011E-01     4.9480   1.7119   102.6421
 28      0.0000     0.0000E+00    0.0000E+00    9.047900E+08  0.00800  3.141E-04    0   0.6138   age135_m52            0.0000     3.0517E-01     4.1325   0.8924   108.1255
 29      0.0000     0.0000E+00    0.0000E+00    1.434000E+09  0.00800  1.719E-04    0   0.5853   age139_m52            0.0000     2.1199E-01     3.4912   0.3196   105.6434
 30      0.0031     2.8740E-03    2.9362E-03    2.500000E+09  0.00800  7.872E-05    0   0.5600   age150_m52            0.0000     2.2111E-01     3.5171   0.0426   103.2372
 31      0.0000     0.0000E+00    0.0000E+00    4.250000E+09  0.00800  4.336E-05    0   0.5426   age158_m52            0.0000     2.4023E-01     3.6622   0.0276   102.2399
 32      0.0000     0.0000E+00    0.0000E+00    6.250000E+09  0.00800  3.159E-05    0   0.5319   age166_m52            0.0000     3.2652E-01     4.1526  -0.1809   102.6150
 33      0.0000     0.0000E+00    0.0000E+00    1.300000E+10  0.00800  1.361E-05    0   0.5073   age193_m52            0.0000     4.9757E-01     4.8950  -0.6568   102.3673
 34      0.0000     0.0000E+00    0.0000E+00    1.800000E+10  0.00800  9.886E-06    0   0.4990   age213_m52            0.0000     6.6110E-01     5.6065  -0.7704   102.1990
 35      0.0000     0.0000E+00    0.0000E+00    1.000000E+06  0.02000  1.544E-02    0   1.0000   age020_m62            0.0000     7.2577E-01     6.3717   3.5300    86.6185
 36      5.2820     1.0333E-02    1.8583E-02    3.160000E+06  0.02000  3.762E-02    0   0.9858   age045_m62            0.0000     7.1746E-01     6.3458   3.4678    87.4221
 37      0.0000     0.0000E+00    0.0000E+00    5.010000E+06  0.02000  3.296E-02    0   0.9342   age055_m62            0.0000     5.3331E-01     5.3582   3.0729    91.8092
 38      5.1115     3.2598E-02    5.2696E-02    8.710000E+06  0.02000  1.154E-02    0   0.8861   age067_m62            0.0000     1.3836E+00     9.7262   2.1020    95.4879
 39      0.0000     0.0000E+00    0.0000E+00    1.445000E+07  0.02000  7.663E-03    0   0.8472   age078_m62            0.0000     8.2347E-01     7.1514   2.2793    96.1171
 40      0.0000     0.0000E+00    0.0000E+00    2.512000E+07  0.02000  4.532E-03    0   0.8099   age090_m62            0.0000     8.6520E-01     7.3062   2.2720    95.8325
 41      0.0504     1.3566E-03    1.8797E-03    5.500000E+07  0.02000  2.733E-03    0   0.7595   age110_m62            0.0000     5.8807E-01     5.6793   2.2646    96.7533
 42      0.0000     0.0000E+00    0.0000E+00    1.609000E+08  0.02000  1.369E-03    0   0.6985   age120_m62            0.0000     5.2436E-01     5.1229   2.0842   100.3881
 43      0.0000     0.0000E+00    0.0000E+00    2.861200E+08  0.02000  9.013E-04    0   0.6714   age125_m62            0.0000     5.2863E-01     5.1136   1.8197   103.9781
 44      0.0000     0.0000E+00    0.0000E+00    5.088000E+08  0.02000  5.028E-04    0   0.6449   age130_m62            0.0000     4.4345E-01     4.7947   1.4242   107.7659
 45      0.0000     0.0000E+00    0.0000E+00    9.047900E+08  0.02000  2.428E-04    0   0.6179   age135_m62            0.0000     2.5111E-01     3.7184   0.8327   107.5300
 46      0.0000     0.0000E+00    0.0000E+00    1.434000E+09  0.02000  1.263E-04    0   0.5908   age139_m62            0.0000     2.2044E-01     3.5375   0.3888   105.9681
 47      0.0015     1.8270E-03    1.8909E-03    2.500000E+09  0.02000  5.985E-05    0   0.5673   age150_m62            0.0000     2.9703E-01     4.0171   0.0178   104.8278
 48      0.0000     0.0000E+00    0.0000E+00    4.250000E+09  0.02000  3.271E-05    0   0.5468   age158_m62            0.0000     4.6699E-01     4.8748  -0.2958   104.4397
 49      0.0000     0.0000E+00    0.0000E+00    1.000000E+10  0.02000  1.360E-05    0   0.5167   age181_m62            0.0000     7.9103E-01     6.2170  -0.6548   104.6136
 50      0.0000     0.0000E+00    0.0000E+00    1.800000E+10  0.02000  7.124E-06    0   0.5013   age213_m62            0.0000     1.0831E+00     7.3525  -0.8699   104.1252
 51      0.0000     0.0000E+00    0.0000E+00    1.000000E+06  0.05000  2.592E-02    0   0.9998   age020_m72            0.0000     7.5471E-01     6.4860   3.5240    86.5331
 52      0.0000     0.0000E+00    0.0000E+00    3.160000E+06  0.05000  4.845E-02    0   0.9577   age045_m72            0.0000     6.3343E-01     5.9482   3.3436    88.8897
 53      0.9506     2.2773E-03    3.8001E-03    5.010000E+06  0.05000  3.072E-02    0   0.9147   age055_m72            0.0000     7.6063E-01     6.6695   2.8744    92.3804
 54      0.0000     0.0000E+00    0.0000E+00    6.610000E+06  0.05000  1.455E-02    0   0.8877   age061_m72            0.0000     1.8990E+00    11.7716   2.1788    95.5292
 55      0.0000     0.0000E+00    0.0000E+00    1.000000E+07  0.05000  9.074E-03    0   0.8524   age070_m72            0.0000     8.1897E-01     6.9727   3.0747    91.8567
 56      0.0000     0.0000E+00    0.0000E+00    2.512000E+07  0.05000  4.250E-03    0   0.7902   age090_m72            0.0000     7.2932E-01     6.4347   2.7516    94.2085
 57      0.0000     0.0000E+00    0.0000E+00    4.000000E+07  0.05000  3.087E-03    0   0.7618   age104_m72            0.0000     7.4150E-01     6.5069   2.5182    95.9691
 58      0.0000     0.0000E+00    0.0000E+00    1.015200E+08  0.05000  1.700E-03    0   0.7096   age116_m72            0.0000     5.7893E-01     5.4685   2.2336    99.6593
 59      0.0000     0.0000E+00    0.0000E+00    2.861200E+08  0.05000  7.384E-04    0   0.6633   age125_m72            0.0000     4.9154E-01     4.9190   1.6772   105.9717
 60      0.0000     0.0000E+00    0.0000E+00    5.088000E+08  0.05000  3.819E-04    0   0.6372   age130_m72            0.0000     3.1790E-01     4.0497   1.1701   108.5402
 61     40.5583     1.7810E+01    1.9852E+01    9.047900E+08  0.05000  1.676E-04    0   0.6110   age135_m72            0.0000     2.7640E-01     3.9851   0.4663   107.1599
 62      7.0425     5.8651E+00    6.2851E+00    1.434000E+09  0.05000  8.837E-05    0   0.5874   age139_m72            0.0000     3.3328E-01     4.2044   0.0125   106.6412
 63      8.6589     1.5054E+01    1.5375E+01    2.500000E+09  0.05000  4.233E-05    0   0.5598   age150_m72            0.0000     5.3776E-01     5.2098  -0.3017   105.6258
 64      1.9233     9.8636E+00    9.4454E+00    6.250000E+09  0.05000  1.435E-05    0   0.5249   age166_m72            0.0000     8.6013E-01     6.5593  -0.7534   104.3296
 65      2.4522     2.7709E+01    2.5457E+01    1.300000E+10  0.05000  6.513E-06    0   0.5036   age193_m72            0.0000     1.2543E+00     7.9384  -1.0000   104.2069
 66      0.0000     0.0000E+00    0.0000E+00    1.800000E+10  0.05000  4.527E-06    0   0.4945   age213_m72            0.0000     1.6482E+00     8.7872  -1.0000    98.0492


## Synthesis Results - Average & Chains ##

# j      x_j: min, <> & last-chain-values for 1 ...  7 chains
  1      1.6413      0.3186      0.0000      0.0000      0.0000      0.0000      1.8721      0.0000      1.5204
  2      0.0000      0.4827      2.2670      0.0000      0.0000      0.0000      0.0000      0.0000      0.0000
  3      0.0000      0.2864      0.0000      0.0000      0.3528      2.7442      0.0000      1.6992      0.0000
  4      0.0000      0.3657      0.0000      0.0000      0.8708      1.9431      0.0000      0.0000      0.0000
  5      0.0000      0.2484      0.0000      0.0000      0.1142      0.0000      0.0000      0.0000      0.0000
  6      0.0000      0.5698      0.0000      4.6309      0.0000      1.8767      0.8603      1.4704      0.0000
  7      0.0000      0.2366      0.0000      0.0000      0.1485      0.5919      0.8643      0.0000      0.0000
  8      0.0000      0.4210      0.7274      1.1168      0.0000      0.0000      0.0000      3.3241      0.0000
  9      2.4189      0.8788      0.0000      0.0000      0.0000      2.6997      2.2000      0.0000      1.7376
 10      0.0000      0.4107      4.1230      0.0000      1.0582      0.0000      0.0000      0.0000      0.0000
 11      0.0000      0.3974      0.0000      0.0000      0.0000      0.0000      0.0000      0.0000      0.7810
 12      0.0000      0.2634      0.0000      0.0000      0.0000      0.0000      0.0000      0.0000      0.0000
 13      9.6815      3.6915      6.2713      3.3784      4.3141      0.0000      9.7956      1.6487      5.6630
 14     16.1804      8.9490      6.5959      9.4261     11.7728      6.6707      8.1426     11.7544     10.3998
 15      0.0000      2.6899      2.1823      3.5700      6.1091      0.0000      1.9514      0.0000      1.8450
 16      0.0000      0.4900      0.9667      0.0000      1.2441      1.1877      0.2867      0.8292      0.0000
 17      0.0000      0.9793      0.0000      0.6921      0.0000      0.0000      1.1875      1.9255      0.0000
 18      0.0000      0.2179      1.7196      1.0892      0.0000      0.0000      0.0000      0.0000      0.0000
 19      0.0000      0.3337      0.0000      0.3361      0.0000      1.2723      0.0000      0.0000      0.0000
 20      0.0000      0.6891      1.3104      0.0000      3.0816      0.6046      1.9192      1.8903      0.0000
 21      0.0000      0.4858      0.0000      0.6859      0.0000      1.4760      0.0000      2.7254      0.0000
 22      0.0000      0.3461      0.0000      0.4478      1.0510      0.0000      0.0000      0.0098      0.0000
 23      0.0000      0.3357      0.7124      0.0000      0.6358      0.1961      0.0000      0.0000      0.0000
 24      1.8333      0.6087      2.9104      0.0000      0.0000      0.3263      0.0000      0.0000      3.6326
 25      0.6020      0.2634      0.0000      0.0000      1.2683      0.0000      0.0073      1.5353      1.4495
 26      0.0000      0.1992      0.0000      0.0000      0.0000      0.0000      0.0000      0.0000      0.0000
 27      0.0153      0.6662      0.0000      0.0000      0.0000      0.0000      0.0000      0.8728      1.3102
 28      0.0000      0.7612      0.0000      0.0000      0.0000      0.0000      0.0000      0.1179      0.0000
 29      0.0000      2.9909      0.0000      0.0000      0.0000      2.0845      0.0000      0.0000      0.0000
 30      0.0031      5.4367      2.6428      3.4711      1.0447      1.2926      7.0148      6.1647      4.4538
 31      0.0000      0.9452      0.0000      0.0000      3.2491      0.0000      1.8552      0.0000      0.0000
 32      0.0000      0.8089      0.0000      0.0000      0.0000      0.0000      0.0000      0.0000      0.0000
 33      0.0000      0.2653      0.0000      0.0000      0.0000      0.0000      0.4404      0.0000      0.0000
 34      0.0000      0.3123      1.2716      0.0000      0.0000      0.5442      0.5005      0.0000      0.0452
 35      0.0000      0.2692      1.0080      0.0000      0.0000      0.1167      0.0000      0.4677      0.0000
 36      5.2820      1.9245      0.0833      0.5951      2.6821      3.1377      3.9488      0.0000      4.4830
 37      0.0000      0.5521      1.5623      1.6053      0.0000      0.0000      0.5073      0.0000      0.0000
 38      5.1115      0.7575      0.0000      0.0000      1.6519      0.0000      2.0033      0.8240      2.1519
 39      0.0000      0.6563      0.0000      0.1951      1.6100      0.0000      0.0000      1.6711      0.0000
 40      0.0000      0.4510      0.3618      0.0000      1.5726      1.1524      0.0000      0.0000      0.0000
 41      0.0504      0.4913      1.1645      0.0000      1.7397      0.0000      0.7557      1.2254      1.4661
 42      0.0000      0.5447      0.0000      2.2583      0.0000      0.0000      0.0000      0.0000      0.0000
 43      0.0000      0.7962      1.4121      0.0000      0.9636      0.0000      0.4747      3.7229      0.0000
 44      0.0000      0.6488      0.0000      0.0000      1.3845      1.6353      0.0000      0.0000      0.0000
 45      0.0000      2.9674      4.5350      2.8081      0.0000      0.0000      0.5896      0.0000      1.7265
 46      0.0000      8.1078      6.8616      7.0464      0.9985      4.2322      1.3123      0.0000      5.2772
 47      0.0015      3.0574      2.3962      0.0000      0.0000      4.5774      0.0000      0.3519      4.2453
 48      0.0000      4.9461      7.1637      6.2040      8.0063      9.3601      6.9384      7.4911      6.3927
 49      0.0000      0.5685      0.4749      0.0000      0.0000      0.0000      0.0000      2.9702      0.0000
 50      0.0000      0.1199      0.0000      0.4487      0.8106      0.0000      0.0000      0.0662      0.0000
 51      0.0000      0.3503      1.1118      0.0000      0.0000      0.0000      0.0000      0.0000      0.0000
 52      0.0000      0.2944      0.0000      0.0000      0.0000      1.2390      1.0249      0.0000      0.0000
 53      0.9506      0.5196      0.7653      1.9525      0.0000      0.0000      0.0000      0.9031      1.4616
 54      0.0000      1.0098      0.0000      0.0000      0.0000      0.0000      0.0000      0.0000      0.0000
 55      0.0000      0.2228      1.4830      0.8264      0.0000      1.2382      0.1423      0.0000      0.0000
 56      0.0000      0.4165      0.0000      0.6607      0.0000      0.0000      0.0000      0.0000      0.8226
 57      0.0000      0.3247      0.0000      3.0129      0.0000      0.0000      0.0000      2.7359      0.0000
 58      0.0000      0.2410      0.0000      0.0000      0.1409      0.0000      0.0000      0.0000      0.5030
 59      0.0000      0.4091      0.0000      0.4553      0.0000      2.2069      0.0000      0.0000      0.0000
 60      0.0000      0.7698      0.0000      0.0000      3.8289      0.0000      0.5997      1.5151      0.2783
 61     40.5583     20.7726     23.0829     24.4581     28.1544     31.8683     32.0288     22.7693     27.3353
 62      7.0425     12.1092      9.8008     18.7346      9.0865     14.7065     11.8802     19.1377     10.1811
 63      8.6589      1.8107      3.1176      3.2154      2.5663      0.0000      2.2742      1.7794      1.2201
 64      1.9233      0.6878      3.1154      1.1907      2.6620      3.1100      0.0000      0.0000      1.6706
 65      2.4522      0.2142      0.4903      0.0000      0.1492      0.5840      0.0000      0.7598      2.4695
 66      0.0000      0.1484      0.9101      0.0000      0.0000      0.0944      0.7187      0.0000      0.0000

# j      m_j: min, <> & last-chain-values for 1 ...  7 chains
  1  2.0143E-02  4.1102E-03  0.0000E+00  0.0000E+00  0.0000E+00  0.0000E+00  2.3721E-02  0.0000E+00  1.7645E-02
  2  0.0000E+00  1.6998E-03  6.5260E-03  0.0000E+00  0.0000E+00  0.0000E+00  0.0000E+00  0.0000E+00  0.0000E+00
  3  0.0000E+00  1.5106E-03  0.0000E+00  0.0000E+00  1.6449E-03  1.3800E-02  0.0000E+00  8.0731E-03  0.0000E+00
  4  0.0000E+00  1.8164E-03  0.0000E+00  0.0000E+00  3.8228E-03  9.2021E-03  0.0000E+00  0.0000E+00  0.0000E+00
  5  0.0000E+00  2.3499E-03  0.0000E+00  0.0000E+00  9.5463E-04  0.0000E+00  0.0000E+00  0.0000E+00  0.0000E+00
  6  0.0000E+00  8.7427E-03  0.0000E+00  7.4690E-02  0.0000E+00  2.7459E-02  1.2966E-02  2.0326E-02  0.0000E+00
  7  0.0000E+00  5.1970E-03  0.0000E+00  0.0000E+00  2.8847E-03  1.2399E-02  1.8651E-02  0.0000E+00  0.0000E+00
  8  0.0000E+00  1.2782E-02  1.8055E-02  3.5645E-02  0.0000E+00  0.0000E+00  0.0000E+00  9.0932E-02  0.0000E+00
  9  7.9976E-02  3.0541E-02  0.0000E+00  0.0000E+00  0.0000E+00  8.9468E-02  7.5102E-02  0.0000E+00  5.4328E-02
 10  0.0000E+00  1.8747E-02  1.5386E-01  0.0000E+00  4.2704E-02  0.0000E+00  0.0000E+00  0.0000E+00  0.0000E+00
 11  0.0000E+00  3.4115E-02  0.0000E+00  0.0000E+00  0.0000E+00  0.0000E+00  0.0000E+00  0.0000E+00  6.0314E-02
 12  0.0000E+00  3.5870E-02  0.0000E+00  0.0000E+00  0.0000E+00  0.0000E+00  0.0000E+00  0.0000E+00  0.0000E+00
 13  3.5350E+00  1.4168E+00  1.9675E+00  1.3629E+00  1.4636E+00  0.0000E+00  3.6928E+00  5.7007E-01  1.9553E+00
 14  1.9815E+01  1.1519E+01  6.9406E+00  1.2754E+01  1.3396E+01  8.1882E+00  1.0296E+01  1.3632E+01  1.2044E+01
 15  0.0000E+00  5.6367E+00  3.7384E+00  7.8636E+00  1.1317E+01  0.0000E+00  4.0169E+00  0.0000E+00  3.4783E+00
 16  0.0000E+00  1.7361E+00  2.7999E+00  0.0000E+00  3.8968E+00  4.0129E+00  9.9777E-01  2.6469E+00  0.0000E+00
 17  0.0000E+00  4.5012E+00  0.0000E+00  3.3440E+00  0.0000E+00  0.0000E+00  5.3617E+00  7.9737E+00  0.0000E+00
 18  0.0000E+00  2.4839E-03  1.6024E-02  1.3051E-02  0.0000E+00  0.0000E+00  0.0000E+00  0.0000E+00  0.0000E+00
 19  0.0000E+00  1.5267E-03  0.0000E+00  1.6162E-03  0.0000E+00  5.5510E-03  0.0000E+00  0.0000E+00  0.0000E+00
 20  0.0000E+00  3.4419E-03  5.3506E-03  0.0000E+00  1.3607E-02  2.8797E-03  9.4165E-03  8.5063E-03  0.0000E+00
 21  0.0000E+00  2.9452E-03  0.0000E+00  4.3712E-03  0.0000E+00  8.5341E-03  0.0000E+00  1.4887E-02  0.0000E+00
 22  0.0000E+00  3.5489E-03  0.0000E+00  4.8258E-03  9.5253E-03  0.0000E+00  0.0000E+00  9.0862E-05  0.0000E+00
 23  0.0000E+00  4.6482E-03  8.0630E-03  0.0000E+00  7.7821E-03  2.5894E-03  0.0000E+00  0.0000E+00  0.0000E+00
 24  3.5926E-02  1.2538E-02  4.9006E-02  0.0000E+00  0.0000E+00  6.4090E-03  0.0000E+00  0.0000E+00  6.7316E-02
 25  1.6266E-02  7.4804E-03  0.0000E+00  0.0000E+00  3.1843E-02  0.0000E+00  2.0407E-04  3.9285E-02  3.7039E-02
 26  0.0000E+00  9.4566E-03  0.0000E+00  0.0000E+00  0.0000E+00  0.0000E+00  0.0000E+00  0.0000E+00  0.0000E+00
 27  1.3824E-03  6.3302E-02  0.0000E+00  0.0000E+00  0.0000E+00  0.0000E+00  0.0000E+00  7.4719E-02  1.1201E-01
 28  0.0000E+00  2.0993E-01  0.0000E+00  0.0000E+00  0.0000E+00  0.0000E+00  0.0000E+00  2.9297E-02  0.0000E+00
 29  0.0000E+00  1.4372E+00  0.0000E+00  0.0000E+00  0.0000E+00  9.5514E-01  0.0000E+00  0.0000E+00  0.0000E+00
 30  2.9362E-03  5.4581E+00  2.1689E+00  3.6629E+00  9.2714E-01  1.2375E+00  6.9176E+00  5.5757E+00  4.0227E+00
 31  0.0000E+00  1.6692E+00  0.0000E+00  0.0000E+00  5.0723E+00  0.0000E+00  3.2183E+00  0.0000E+00  0.0000E+00
 32  0.0000E+00  1.9221E+00  0.0000E+00  0.0000E+00  0.0000E+00  0.0000E+00  0.0000E+00  0.0000E+00  0.0000E+00
 33  0.0000E+00  1.3956E+00  0.0000E+00  0.0000E+00  0.0000E+00  0.0000E+00  2.2756E+00  0.0000E+00  0.0000E+00
 34  0.0000E+00  2.2249E+00  7.4048E+00  0.0000E+00  0.0000E+00  3.6968E+00  3.5020E+00  0.0000E+00  2.8946E-01
 35  0.0000E+00  2.4601E-03  7.5316E-03  0.0000E+00  0.0000E+00  1.0168E-03  0.0000E+00  3.8512E-03  0.0000E+00
 36  1.8583E-02  7.1167E-03  2.5185E-04  2.3134E-03  8.7678E-03  1.1065E-02  1.4344E-02  0.0000E+00  1.4915E-02
 37  0.0000E+00  2.2085E-03  5.1086E-03  6.7496E-03  0.0000E+00  0.0000E+00  1.9931E-03  0.0000E+00  0.0000E+00
 38  5.2696E-02  8.2084E-03  0.0000E+00  0.0000E+00  1.5823E-02  0.0000E+00  2.1323E-02  8.0441E-03  2.0978E-02
 39  0.0000E+00  1.0240E-02  0.0000E+00  3.2003E-03  2.2206E-02  0.0000E+00  0.0000E+00  2.3490E-02  0.0000E+00
 40  0.0000E+00  1.1373E-02  7.4595E-03  0.0000E+00  3.5059E-02  2.7714E-02  0.0000E+00  0.0000E+00  0.0000E+00
 41  1.8797E-03  1.9268E-02  3.7333E-02  0.0000E+00  6.0312E-02  0.0000E+00  2.9112E-02  4.3296E-02  5.1728E-02
 42  0.0000E+00  3.9222E-02  0.0000E+00  1.7092E-01  0.0000E+00  0.0000E+00  0.0000E+00  0.0000E+00  0.0000E+00
 43  0.0000E+00  8.3706E-02  1.2135E-01  0.0000E+00  8.9549E-02  0.0000E+00  4.9017E-02  3.5260E-01  0.0000E+00
 44  0.0000E+00  1.1744E-01  0.0000E+00  0.0000E+00  2.2154E-01  2.8227E-01  0.0000E+00  0.0000E+00  0.0000E+00
 45  0.0000E+00  1.0657E+00  1.3314E+00  1.0601E+00  0.0000E+00  0.0000E+00  2.0801E-01  0.0000E+00  5.5783E-01
 46  0.0000E+00  5.3523E+00  3.7028E+00  4.8895E+00  5.8270E-01  2.6642E+00  8.5096E-01  0.0000E+00  3.1341E+00
 47  1.8909E-03  4.0897E+00  2.6202E+00  0.0000E+00  0.0000E+00  5.8389E+00  0.0000E+00  4.2406E-01  5.1090E+00
 48  0.0000E+00  1.1668E+01  1.3815E+01  1.5384E+01  1.6697E+01  2.1057E+01  1.6078E+01  1.5921E+01  1.3568E+01
 49  0.0000E+00  3.0480E+00  2.0816E+00  0.0000E+00  0.0000E+00  0.0000E+00  0.0000E+00  1.4347E+01  0.0000E+00
 50  0.0000E+00  1.1912E+00  0.0000E+00  4.6839E+00  7.1158E+00  0.0000E+00  0.0000E+00  5.9253E-01  0.0000E+00
 51  0.0000E+00  1.9069E-03  4.9473E-03  0.0000E+00  0.0000E+00  0.0000E+00  0.0000E+00  0.0000E+00  0.0000E+00
 52  0.0000E+00  8.2113E-04  0.0000E+00  0.0000E+00  0.0000E+00  3.2957E-03  2.8083E-03  0.0000E+00  0.0000E+00
 53  3.8001E-03  2.1833E-03  2.6288E-03  8.6238E-03  0.0000E+00  0.0000E+00  0.0000E+00  3.4190E-03  5.5253E-03
 54  0.0000E+00  8.6947E-03  0.0000E+00  0.0000E+00  0.0000E+00  0.0000E+00  0.0000E+00  0.0000E+00  0.0000E+00
 55  0.0000E+00  2.9542E-03  1.6072E-02  1.1515E-02  0.0000E+00  1.5653E-02  1.8524E-03  0.0000E+00  0.0000E+00
 56  0.0000E+00  1.0928E-02  0.0000E+00  1.8221E-02  0.0000E+00  0.0000E+00  0.0000E+00  0.0000E+00  1.9420E-02
 57  0.0000E+00  1.1308E-02  0.0000E+00  1.1029E-01  0.0000E+00  0.0000E+00  0.0000E+00  8.5842E-02  0.0000E+00
 58  0.0000E+00  1.4195E-02  0.0000E+00  0.0000E+00  7.3372E-03  0.0000E+00  0.0000E+00  0.0000E+00  2.6656E-02
 59  0.0000E+00  5.1857E-02  0.0000E+00  6.0677E-02  0.0000E+00  2.6678E-01  0.0000E+00  0.0000E+00  0.0000E+00
 60  0.0000E+00  1.8126E-01  0.0000E+00  0.0000E+00  7.9698E-01  0.0000E+00  1.3871E-01  3.2140E-01  5.8953E-02
 61  1.9852E+01  1.0687E+01  9.7079E+00  1.3227E+01  1.2804E+01  1.5635E+01  1.6186E+01  1.0554E+01  1.2652E+01
 62  6.2851E+00  1.1359E+01  7.5155E+00  1.8473E+01  7.5348E+00  1.3155E+01  1.0947E+01  1.6174E+01  8.5921E+00
 63  1.5375E+01  3.3793E+00  4.7564E+00  6.3078E+00  4.2340E+00  0.0000E+00  4.1691E+00  2.9918E+00  2.0487E+00
 64  9.4454E+00  3.5505E+00  1.3146E+01  6.4608E+00  1.2147E+01  1.5309E+01  0.0000E+00  0.0000E+00  7.7586E+00
 65  2.5457E+01  2.3376E+00  4.3737E+00  0.0000E+00  1.4390E+00  6.0769E+00  0.0000E+00  7.4695E+00  2.4243E+01
 66  0.0000E+00  2.2876E+00  1.1469E+01  0.0000E+00  0.0000E+00  1.3882E+00  1.0883E+01  0.0000E+00  0.0000E+00

# AV, chi2 & Mass for <> & i_chain = 1 ...  7 solutions
AV       0.4760      0.4589      0.4606      0.4610      0.4469      0.4771      0.4573      0.4453      0.4639
chi2 1.6888E-01  1.7240E-01  1.7134E-01  1.7145E-01  1.7098E-01  1.7094E-01  1.7072E-01  1.7116E-01  1.7069E-01
Mass 5.8128E-12  5.4041E-12  6.6262E-12  5.1557E-12  6.0154E-12  5.8078E-12  5.4897E-12  5.8901E-12  6.0474E-12
-202.41                                  [v0_min (km/s) before EX0s...]
 291.80                                  [vd_min (km/s) before EX0s...]


## Synthetic spectrum (Best Model) ##l_obs f_obs f_syn wei
 3478    [Nl_obs]
 3741.00    0.48687   0.57364    0.000
 3742.00    0.47670   0.55981    0.000
 3743.00    0.45948   0.54668    0.000
 3744.00    0.44140   0.53342    0.000
 3745.00    0.43076   0.52214   13.385
 3746.00    0.43469   0.51907   13.385
 3747.00    0.45421   0.52358   13.385
 3748.00    0.48349   0.53350   13.385
 3749.00    0.51334   0.54904   13.385
 3750.00    0.53820   0.56838   13.385
 3751.00    0.55771   0.58775   13.385
 3752.00    0.57476   0.60462   13.385
 3753.00    0.58963   0.61673   13.385
 3754.00    0.59809   0.62439   13.385
 3755.00    0.59324   0.62985   13.385
 3756.00    0.57372   0.63130   13.385
 3757.00    0.54739   0.63011   13.385
 3758.00    0.52953   0.63045   13.385
 3759.00    0.53062   0.62884   13.385
 3760.00    0.54833   0.62494   13.385
 3761.00    0.56845   0.62276   13.385
 3762.00    0.57689   0.61752   13.385
 3763.00    0.57074   0.60878   13.385
 3764.00    0.55864   0.60322   13.385
 3765.00    0.55285   0.59816   13.385
 3766.00    0.55932   0.59204   13.385
 3767.00    0.57649   0.59211   13.385
 3768.00    0.59910   0.59824   13.385
 3769.00    0.62494   0.60655   13.385
 3770.00    0.65602   0.61970   13.385
 3771.00    0.69599   0.63766   13.385
 3772.00    0.74349   0.65749   13.385
 3773.00    0.79036   0.67861   12.652
 3774.00    0.82449   0.69943   12.129
 3775.00    0.84015   0.71910   11.903
 3776.00    0.84207   0.73724   11.875
 3777.00    0.84320   0.75165   11.860
 3778.00    0.85237   0.76114   11.732
 3779.00    0.86742   0.76591   11.528
 3780.00    0.87636   0.76675   11.411
 3781.00    0.86834   0.76180   11.516
 3782.00    0.84238   0.75057   11.871
 3783.00    0.80721   0.73806   12.388
 3784.00    0.77341   0.72379   12.930
 3785.00    0.74482   0.70556   13.385
 3786.00    0.71783   0.68779   13.385
 3787.00    0.68637   0.67106   13.385
 3788.00    0.64949   0.65256   13.385
 3789.00    0.61243   0.63368   13.385
 3790.00    0.58369   0.61516   13.385
 3791.00    0.56852   0.59687   13.385
 3792.00    0.56747   0.58107   13.385
 3793.00    0.57731   0.56865   13.385
 3794.00    0.59388   0.56101   13.385
 3795.00    0.61309   0.56152   13.385
 3796.00    0.63094   0.56985   13.385
 3797.00    0.64383   0.58374   13.385
 3798.00    0.64865   0.60387   13.385
 3799.00    0.64324   0.62842   13.385
 3800.00    0.62925   0.65266   13.385
 3801.00    0.61407   0.67607   13.385
 3802.00    0.61013   0.69776   13.385
 3803.00    0.62659   0.71509   13.385
 3804.00    0.66150   0.72939   13.385
 3805.00    0.70170   0.74028   13.385
 3806.00    0.73136   0.74615   13.385
 3807.00    0.74313   0.74949   13.385
 3808.00    0.73954   0.74944   13.385
 3809.00    0.72866   0.74436   13.385
 3810.00    0.71627   0.73811   13.385
 3811.00    0.70432   0.73065   13.385
 3812.00    0.69233   0.72051   13.385
 3813.00    0.68110   0.71160   13.385
 3814.00    0.67373   0.70407   13.385
 3815.00    0.67436   0.69584   13.385
 3816.00    0.68341   0.68819   13.385
 3817.00    0.69567   0.68116   13.385
 3818.00    0.70159   0.67394   13.385
 3819.00    0.69475   0.66543   13.385
 3820.00    0.67615   0.65536   13.385
 3821.00    0.65356   0.64518   13.385
 3822.00    0.63493   0.63363   13.385
 3823.00    0.62296   0.61984   13.385
 3824.00    0.61507   0.60544   13.385
 3825.00    0.60675   0.58973   13.385
 3826.00    0.59547   0.57283   13.385
 3827.00    0.58108   0.55521   13.385
 3828.00    0.56547   0.53642   13.385
 3829.00    0.55216   0.51946   13.385
 3830.00    0.54612   0.50497   13.385
 3831.00    0.55158   0.49261   13.385
 3832.00    0.56719   0.48688   13.385
 3833.00    0.58478   0.48775   13.385
 3834.00    0.59297   0.49369   13.385
 3835.00    0.58817   0.50760   13.385
 3836.00    0.57853   0.52715   13.385
 3837.00    0.58066   0.54983   13.385
 3838.00    0.60464   0.57672   13.385
 3839.00    0.64656   0.60388   13.385
 3840.00    0.69036   0.62981   13.385
 3841.00    0.72191   0.65529   13.385
 3842.00    0.73881   0.67657   13.385
 3843.00    0.74994   0.69427   13.334
 3844.00    0.76567   0.71024   13.060
 3845.00    0.78834   0.72164   12.685
 3846.00    0.81175   0.72956   12.319
 3847.00    0.82719   0.73728    0.000
 3848.00    0.83155   0.74220    0.000
 3849.00    0.82830   0.74348    0.000
 3850.00    0.82456   0.74552    0.000
 3851.00    0.82530   0.74623    0.000
 3852.00    0.83224   0.74321    0.000
 3853.00    0.84395   0.74200    0.000
 3854.00    0.85620   0.74176    0.000
 3855.00    0.86209   0.73974    0.000
 3856.00    0.85380   0.74104    0.000
 3857.00    0.82951   0.74529    0.000
 3858.00    0.79627   0.74907    0.000
 3859.00    0.76804   0.75459    0.000
 3860.00    0.75417   0.76134    0.000
 3861.00    0.75250   0.76629    0.000
 3862.00    0.75046   0.76960    0.000
 3863.00    0.73709   0.77130    0.000
 3864.00    0.71292   0.77053    0.000
 3865.00    0.69006   0.76739    0.000
 3866.00    0.68223   0.76250    0.000
 3867.00    0.69319   0.75705    0.000
 3868.00    0.71573   0.75070    0.000
 3869.00    0.73738   0.74424    0.000
 3870.00    0.74983   0.73942    0.000
 3871.00    0.75048   0.73392    0.000
 3872.00    0.74118   0.72839    0.000
 3873.00    0.72537   0.72426    0.000
 3874.00    0.70735   0.71755    0.000
 3875.00    0.69141   0.70936    0.000
 3876.00    0.67893   0.70165    0.000
 3877.00    0.66736   0.69013    0.000
 3878.00    0.65143   0.67599    0.000
 3879.00    0.62888   0.66173    0.000
 3880.00    0.60340   0.64504    0.000
 3881.00    0.58370   0.62622   13.385
 3882.00    0.57619   0.60826   13.385
 3883.00    0.57975   0.59329   13.385
 3884.00    0.58607   0.58095   13.385
 3885.00    0.58705   0.57292   13.385
 3886.00    0.58210   0.57314   13.385
 3887.00    0.57849   0.57968   13.385
 3888.00    0.58519   0.59057   13.385
 3889.00    0.60410   0.60727   13.385
 3890.00    0.62905   0.62722   13.385
 3891.00    0.65037   0.64690   13.385
 3892.00    0.66400   0.66645   13.385
 3893.00    0.67336   0.68518   13.385
 3894.00    0.68643   0.70126   13.385
 3895.00    0.70744   0.71507   13.385
 3896.00    0.73438   0.72693   13.385
 3897.00    0.76029   0.73746   13.153
 3898.00    0.77857   0.74619   12.844
 3899.00    0.78529   0.75268   12.734
 3900.00    0.77950   0.76052   12.829
 3901.00    0.76455   0.76799   13.080
 3902.00    0.74896   0.77390   13.352
 3903.00    0.74543   0.78325   13.385
 3904.00    0.76198   0.79318   13.124
 3905.00    0.79424   0.80189   12.591
 3906.00    0.82569   0.81209   12.111
 3907.00    0.83875   0.82091   11.923
 3908.00    0.82820   0.82721   12.074
 3909.00    0.80246   0.83090   12.462
 3910.00    0.77637   0.83121   12.880
 3911.00    0.75909   0.82936   13.174
 3912.00    0.75199   0.82389   13.298
 3913.00    0.75092   0.81599   13.317
 3914.00    0.75164   0.80814   13.304
 3915.00    0.75122   0.79842   13.312
 3916.00    0.74821   0.78787   13.365
 3917.00    0.74335   0.77826   13.385
 3918.00    0.73974   0.76764   13.385
 3919.00    0.74187   0.75527   13.385
 3920.00    0.75070   0.74186   13.321
 3921.00    0.76107   0.72556   13.139
 3922.00    0.76250   0.70481   13.115
 3923.00    0.74631   0.68098   13.385
 3924.00    0.71081   0.65325   13.385
 3925.00    0.66129   0.62213   13.385
 3926.00    0.60646   0.59059   13.385
 3927.00    0.55478   0.55978   13.385
 3928.00    0.51401   0.53236   13.385
 3929.00    0.48971   0.51125   13.385
 3930.00    0.48313   0.49814   13.385
 3931.00    0.49091   0.49457   13.385
 3932.00    0.50708   0.50052   13.385
 3933.00    0.52708   0.51565   13.385
 3934.00    0.54860   0.53797   13.385
 3935.00    0.57114   0.56490   13.385
 3936.00    0.59454   0.59472   13.385
 3937.00    0.61853   0.62420   13.385
 3938.00    0.64288   0.65201   13.385
 3939.00    0.66792   0.67806   13.385
 3940.00    0.69479   0.70019   13.385
 3941.00    0.72501   0.71957   13.385
 3942.00    0.75762   0.73751   13.199
 3943.00    0.78729   0.75183   12.702
 3944.00    0.80506   0.76423   12.421
 3945.00    0.80491   0.77623   12.424
 3946.00    0.78979   0.78490   12.662
 3947.00    0.77151   0.79153   12.962
 3948.00    0.76267   0.79735   13.112
 3949.00    0.76653   0.79991   13.046
 3950.00    0.77608   0.80028   12.885
 3951.00    0.77988   0.79814   12.822
 3952.00    0.77235   0.79199   12.947
 3953.00    0.75556   0.78356   13.235
 3954.00    0.73629   0.77082   13.385
 3955.00    0.71878   0.75245   13.385
 3956.00    0.70280   0.73098   13.385
 3957.00    0.68477   0.70454   13.385
 3958.00    0.66196   0.67263   13.385
 3959.00    0.63408   0.63793   13.385
 3960.00    0.60304   0.60016    0.000
 3961.00    0.57185   0.56118    0.000
 3962.00    0.54385   0.52412    0.000
 3963.00    0.52255   0.48998    0.000
 3964.00    0.50959   0.46203    0.000
 3965.00    0.50329   0.44334    0.000
 3966.00    0.49886   0.43479    0.000
 3967.00    0.49188   0.43744    0.000
 3968.00    0.48208   0.45187    0.000
 3969.00    0.47355   0.47646    0.000
 3970.00    0.47220   0.50910    0.000
 3971.00    0.48193   0.54801    0.000
 3972.00    0.50400   0.58959    0.000
 3973.00    0.53760   0.63139    0.000
 3974.00    0.58094   0.67230    0.000
 3975.00    0.63149   0.70915    0.000
 3976.00    0.68577   0.74167    0.000
 3977.00    0.73888   0.77016    0.000
 3978.00    0.78424   0.79351    0.000
 3979.00    0.81483   0.81358    0.000
 3980.00    0.82830   0.83019    0.000
 3981.00    0.82940   0.84407   12.057
 3982.00    0.82889   0.85739   12.064
 3983.00    0.83620   0.86854   11.959
 3984.00    0.85473   0.87894   11.700
 3985.00    0.88191   0.88885   11.339
 3986.00    0.91265   0.89669   10.957
 3987.00    0.94257   0.90454   10.609
 3988.00    0.96821   0.91029   10.328
 3989.00    0.98707   0.91369   10.131
 3990.00    0.99766   0.91746   10.023
 3991.00    0.99951   0.91940   10.005
 3992.00    0.99346   0.92016   10.066
 3993.00    0.98226   0.92198   10.181
 3994.00    0.97062   0.92390   10.303
 3995.00    0.96368   0.92629   10.377
 3996.00    0.96306   0.92902   10.384
 3997.00    0.96579   0.93164   10.354
 3998.00    0.96582   0.93457   10.354
 3999.00    0.95960   0.93620   10.421
 4000.00    0.94833   0.93653   10.545
 4001.00    0.93713   0.93718   10.671
 4002.00    0.93078   0.93819   10.744
 4003.00    0.93131   0.93948   10.738
 4004.00    0.93796   0.94177   10.661
 4005.00    0.94822   0.94631   10.546
 4006.00    0.95858   0.95272   10.432
 4007.00    0.96476   0.95946   10.365
 4008.00    0.96378   0.96605   10.376
 4009.00    0.95634   0.97372   10.457
 4010.00    0.94688   0.98139   10.561
 4011.00    0.94129   0.98640   10.624
 4012.00    0.94328   0.99130   10.601
 4013.00    0.95382   0.99597   10.484
 4014.00    0.97156   0.99833   10.293
 4015.00    0.99368   1.00024   10.064
 4016.00    1.01613   1.00066    9.841
 4017.00    1.03437   0.99991    9.668
 4018.00    1.04575   0.99882    9.562
 4019.00    1.05030   0.99599    9.521
 4020.00    1.05011   0.99251    9.523
 4021.00    1.04679   0.98860    9.553
 4022.00    1.04014   0.98428    9.614
 4023.00    1.02847   0.97908    9.723
 4024.00    1.01087   0.97203    9.893
 4025.00    0.98873   0.96576   10.114
 4026.00    0.96567   0.95901   10.356
 4027.00    0.94585   0.95155   10.573
 4028.00    0.93241   0.94756   10.725
 4029.00    0.92735   0.94532   10.783
 4030.00    0.93130   0.94594   10.738
 4031.00    0.94335   0.95141   10.600
 4032.00    0.96102   0.95822   10.406
 4033.00    0.98126   0.96726   10.191
 4034.00    1.00240   0.97687    9.976
 4035.00    1.02443   0.98361    9.762
 4036.00    1.04786   0.98816    9.543
 4037.00    1.07049   0.98889    9.342
 4038.00    1.08650   0.98627    9.204
 4039.00    1.08805   0.98065    9.191
 4040.00    1.07135   0.97307    9.334
 4041.00    1.03918   0.96772    9.623
 4042.00    1.00000   0.96280   10.000
 4043.00    0.96297   0.95936   10.385
 4044.00    0.93507   0.96042   10.694
 4045.00    0.92096   0.96277   10.858
 4046.00    0.92284   0.96645   10.836
 4047.00    0.94047   0.97019   10.633
 4048.00    0.97110   0.97142   10.298
 4049.00    1.00983   0.97286    9.903
 4050.00    1.05005   0.97302    9.523
 4051.00    1.08350   0.96936    9.229
 4052.00    1.10256   0.96562    9.070
 4053.00    1.10378   0.96235    9.060
 4054.00    1.08845   0.95776    9.187
 4055.00    1.06137   0.95431    9.422
 4056.00    1.02818   0.95111    9.726
 4057.00    0.99466   0.94626   10.054
 4058.00    0.96623   0.94324   10.350
 4059.00    0.94642   0.94165   10.566
 4060.00    0.93630   0.93867   10.680
 4061.00    0.93463   0.93701   10.699
 4062.00    0.93863   0.93719   10.654
 4063.00    0.94439   0.93834   10.589
 4064.00    0.94721   0.94058   10.557
 4065.00    0.94447   0.94078   10.588
 4066.00    0.93751   0.94062   10.667
 4067.00    0.93140   0.94204   10.737
 4068.00    0.93079   0.94048   10.744
 4069.00    0.93591   0.93634   10.685
 4070.00    0.94240   0.93186   10.611
 4071.00    0.94483   0.92714   10.584
 4072.00    0.94162   0.92398   10.620
 4073.00    0.93557   0.92115   10.689
 4074.00    0.93168   0.91977   10.733
 4075.00    0.93289   0.92280   10.719
 4076.00    0.93915   0.92708   10.648
 4077.00    0.94824   0.93246   10.546
 4078.00    0.95770   0.94003   10.442
 4079.00    0.96548   0.94718   10.358
 4080.00    0.96995   0.95450   10.310
 4081.00    0.97003   0.96194   10.309
 4082.00    0.96521   0.96781   10.360
 4083.00    0.95562   0.97246   10.464
 4084.00    0.94208   0.97565   10.615
 4085.00    0.92623   0.97682   10.797
 4086.00    0.91035   0.97513   10.985
 4087.00    0.89645   0.97088   11.155
 4088.00    0.88536   0.96328   11.295
 4089.00    0.87673   0.95016   11.406
 4090.00    0.86918   0.93356   11.505
 4091.00    0.86053   0.91314   11.621
 4092.00    0.84790   0.88846    0.000
 4093.00    0.82918   0.86278    0.000
 4094.00    0.80552   0.83545    0.000
 4095.00    0.78170   0.80800    0.000
 4096.00    0.76404   0.78570    0.000
 4097.00    0.75550   0.76852    0.000
 4098.00    0.75441   0.75665    0.000
 4099.00    0.75583   0.75346    0.000
 4100.00    0.75586   0.75775    0.000
 4101.00    0.75318   0.76835    0.000
 4102.00    0.74890   0.78540    0.000
 4103.00    0.74521   0.80463    0.000
 4104.00    0.74481   0.82531    0.000
 4105.00    0.75066   0.84767    0.000
 4106.00    0.76439   0.86793    0.000
 4107.00    0.78525   0.88644    0.000
 4108.00    0.81011   0.90340    0.000
 4109.00    0.83524   0.91741    0.000
 4110.00    0.85794   0.93011    0.000
 4111.00    0.87674   0.94075    0.000
 4112.00    0.89120   0.94767    0.000
 4113.00    0.90172   0.95289   11.090
 4114.00    0.90947   0.95710   10.995
 4115.00    0.91579   0.95888   10.920
 4116.00    0.92104   0.95917   10.857
 4117.00    0.92430   0.95868   10.819
 4118.00    0.92421   0.95848   10.820
 4119.00    0.92129   0.95904   10.854
 4120.00    0.91859   0.95815   10.886
 4121.00    0.92067   0.95670   10.862
 4122.00    0.92925   0.95553   10.761
 4123.00    0.94129   0.95374   10.624
 4124.00    0.95004   0.95133   10.526
 4125.00    0.95131   0.94778   10.512
 4126.00    0.94743   0.94398   10.555
 4127.00    0.94660   0.94242   10.564
 4128.00    0.95573   0.94202   10.463
 4129.00    0.97413   0.94358   10.266
 4130.00    0.99350   0.94850   10.065
 4131.00    1.00409   0.95348    9.959
 4132.00    1.00231   0.96109    9.977
 4133.00    0.99140   0.96975   10.087
 4134.00    0.97808   0.97543   10.224
 4135.00    0.96669   0.98072   10.345
 4136.00    0.95823   0.98237   10.436
 4137.00    0.95132   0.98024   10.512
 4138.00    0.94465   0.97805   10.586
 4139.00    0.93767   0.97439   10.665
 4140.00    0.93049   0.96947   10.747
 4141.00    0.92362   0.96567   10.827
 4142.00    0.91793   0.96335   10.894
 4143.00    0.91453   0.96197   10.935
 4144.00    0.91438   0.96218   10.936
 4145.00    0.91806   0.96272   10.893
 4146.00    0.92570   0.96268   10.803
 4147.00    0.93654   0.96369   10.678
 4148.00    0.94854   0.96337   10.543
 4149.00    0.95857   0.96257   10.432
 4150.00    0.96416   0.96279   10.372
 4151.00    0.96540   0.96264   10.358
 4152.00    0.96504   0.96463   10.362
 4153.00    0.96672   0.96792   10.344
 4154.00    0.97236   0.97232   10.284
 4155.00    0.98183   0.97785   10.185
 4156.00    0.99328   0.98397   10.068
 4157.00    1.00383   0.99102    9.962
 4158.00    1.00980   0.99621    9.903
 4159.00    1.00762   1.00089    9.924
 4160.00    0.99662   1.00398   10.034
 4161.00    0.97994   1.00387   10.205
 4162.00    0.96346   1.00266   10.379
 4163.00    0.95158   0.99881   10.509
 4164.00    0.94514   0.99261   10.580
 4165.00    0.94197   0.98478   10.616
 4166.00    0.93987   0.97446   10.640
 4167.00    0.93858   0.96411   10.654
 4168.00    0.93967   0.95472   10.642
 4169.00    0.94407   0.94520   10.592
 4170.00    0.95002   0.93730   10.526
 4171.00    0.95304   0.93184   10.493
 4172.00    0.94903   0.92906   10.537
 4173.00    0.93807   0.92919   10.660
 4174.00    0.92483   0.93146   10.813
 4175.00    0.91573   0.93484   10.920
 4176.00    0.91411   0.93919   10.940
 4177.00    0.91929   0.94555   10.878
 4178.00    0.92783   0.95138   10.778
 4179.00    0.93661   0.95664   10.677
 4180.00    0.94369   0.96151   10.597
 4181.00    0.94826   0.96457   10.546
 4182.00    0.95054   0.96964   10.520
 4183.00    0.95169   0.97432   10.508
 4184.00    0.95364   0.97682   10.486
 4185.00    0.95773   0.98030   10.441
 4186.00    0.96413   0.98379   10.372
 4187.00    0.97183   0.98745   10.290
 4188.00    0.97948   0.98953   10.210
 4189.00    0.98592   0.98878   10.143
 4190.00    0.99032   0.98688   10.098
 4191.00    0.99226   0.98384   10.078
 4192.00    0.99192   0.97820   10.081
 4193.00    0.99013   0.97062   10.100
 4194.00    0.98811   0.96386   10.120
 4195.00    0.98716   0.95735   10.130
 4196.00    0.98861   0.95212   10.115
 4197.00    0.99349   0.95009   10.066
 4198.00    1.00177   0.94974    9.982
 4199.00    1.01224   0.95227    9.879
 4200.00    1.02286   0.95807    9.777
 4201.00    1.03177   0.96472    9.692
 4202.00    1.03775   0.97337    9.636
 4203.00    1.04013   0.98240    9.614
 4204.00    1.03901   0.98968    9.625
 4205.00    1.03527   0.99772    9.659
 4206.00    1.03040   1.00430    9.705
 4207.00    1.02521   1.00797    9.754
 4208.00    1.01901   1.01103    9.813
 4209.00    1.00983   1.01234    9.903
 4210.00    0.99676   1.01304   10.033
 4211.00    0.98217   1.01429   10.182
 4212.00    0.97168   1.01365   10.291
 4213.00    0.97027   1.01316   10.306
 4214.00    0.97722   1.01325   10.233
 4215.00    0.98570   1.01167   10.145
 4216.00    0.98700   1.00808   10.132
 4217.00    0.97844   1.00149   10.220
 4218.00    0.96478   0.99227   10.365
 4219.00    0.95499   0.98081   10.471
 4220.00    0.95388   0.96852   10.483
 4221.00    0.95976   0.95596   10.419
 4222.00    0.96613   0.94606   10.351
 4223.00    0.96803   0.94000   10.330
 4224.00    0.96461   0.93679   10.367
 4225.00    0.95856   0.93944   10.432
 4226.00    0.95300   0.94558   10.493
 4227.00    0.94968   0.95281   10.530
 4228.00    0.94903   0.96152   10.537
 4229.00    0.95113   0.96868   10.514
 4230.00    0.95649   0.97430   10.455
 4231.00    0.96597   0.98028   10.352
 4232.00    0.97949   0.98418   10.209
 4233.00    0.99457   0.98751   10.055
 4234.00    1.00628   0.99217    9.938
 4235.00    1.00982   0.99648    9.903
 4236.00    1.00451   1.00232    9.955
 4237.00    0.99435   1.00853   10.057
 4238.00    0.98587   1.01445   10.143
 4239.00    0.98325   1.01916   10.170
 4240.00    0.98719   1.02176   10.130
 4241.00    0.99551   1.02307   10.045
 4242.00    1.00502   1.02130    9.950
 4243.00    1.01216   1.01799    9.880
 4244.00    1.01344   1.01280    9.867
 4245.00    1.00729   1.00677    9.928
 4246.00    0.99501   1.00246   10.050
 4247.00    0.98045   0.99730   10.199
 4248.00    0.96775   0.99382   10.333
 4249.00    0.95974   0.99284   10.419
 4250.00    0.95795   0.99239   10.439
 4251.00    0.96265   0.99353   10.388
 4252.00    0.97305   0.99406   10.277
 4253.00    0.98731   0.99577   10.128
 4254.00    1.00327   0.99954    9.967
 4255.00    1.01938   1.00256    9.810
 4256.00    1.03486   1.00647    9.663
 4257.00    1.04906   1.01070    9.532
 4258.00    1.06041   1.01581    9.430
 4259.00    1.06621   1.02222    9.379
 4260.00    1.06358   1.02717    9.402
 4261.00    1.05212   1.02992    9.505
 4262.00    1.03460   1.03002    9.666
 4263.00    1.01610   1.02639    9.842
 4264.00    1.00039   1.01938    9.996
 4265.00    0.98850   1.01012   10.116
 4266.00    0.97907   0.99859   10.214
 4267.00    0.97069   0.98745   10.302
 4268.00    0.96330   0.97733   10.381
 4269.00    0.95809   0.96998   10.437
 4270.00    0.95651   0.96827   10.455
 4271.00    0.95950   0.96924   10.422
 4272.00    0.96738   0.97330   10.337
 4273.00    0.97962   0.98053   10.208
 4274.00    0.99464   0.98784   10.054
 4275.00    1.00977   0.99598    9.903
 4276.00    1.02225   1.00208    9.782
 4277.00    1.03080   1.00395    9.701
 4278.00    1.03584   1.00496    9.654
 4279.00    1.03844   1.00263    9.630
 4280.00    1.03778   0.99779    9.636
 4281.00    1.03059   0.99143    9.703
 4282.00    1.01299   0.98203    9.872
 4283.00    0.98649   0.97349   10.137
 4284.00    0.96011   0.96545   10.415
 4285.00    0.94791   0.95802   10.549
 4286.00    0.95707   0.95079   10.449
 4287.00    0.98192   0.94459   10.184
 4288.00    1.00563   0.94066    9.944
 4289.00    1.01297   0.93749   -2.000
 4290.00    0.99935   0.93443   -2.000
 4291.00    0.97082   0.92754   -2.000
 4292.00    0.93843   0.91977   -2.000
 4293.00    0.91258   0.91115   -2.000
 4294.00    0.90239   0.89981   -2.000
 4295.00    0.91231   0.88850   -2.000
 4296.00    0.93742   0.87516   -2.000
 4297.00    0.96308   0.86292   -2.000
 4298.00    0.97217   0.85427   -2.000
 4299.00    0.95942   0.84635   -2.000
 4300.00    0.93421   0.84108   -2.000
 4301.00    0.91475   0.83932   -2.000
 4302.00    0.91196   0.83928   -2.000
 4303.00    0.92469   0.84329   -2.000
 4304.00    0.94216   0.84932   -2.000
 4305.00    0.95418   0.85706   10.480
 4306.00    0.95549   0.86902   10.466
 4307.00    0.94577   0.88396   10.573
 4308.00    0.92887   0.90302   10.766
 4309.00    0.91237   0.92353   10.960
 4310.00    0.90686   0.94459   11.027
 4311.00    0.91944   0.96574   10.876
 4312.00    0.94832   0.98574   10.545
 4313.00    0.98281   1.00458   10.175
 4314.00    1.01024   1.01920    9.899
 4315.00    1.02403   1.02794    9.765
 4316.00    1.02450   1.03097    9.761
 4317.00    1.01604   1.02834    9.842
 4318.00    1.00249   1.02194    9.975
 4319.00    0.98626   1.01523   10.139
 4320.00    0.96891   1.00639   10.321
 4321.00    0.95244   0.99779   10.499
 4322.00    0.93963   0.99019   10.642
 4323.00    0.93334   0.98549   10.714
 4324.00    0.93424   0.98662   10.704
 4325.00    0.93997   0.98886   10.639
 4326.00    0.94586   0.99121   10.572
 4327.00    0.94851   0.99134   10.543
 4328.00    0.94761   0.98812   10.553
 4329.00    0.94565   0.98131   10.575
 4330.00    0.94552   0.96901    0.000
 4331.00    0.94860   0.95211    0.000
 4332.00    0.95479   0.93019    0.000
 4333.00    0.96286   0.90609    0.000
 4334.00    0.97091   0.88199    0.000
 4335.00    0.97640   0.86007    0.000
 4336.00    0.97673   0.84365    0.000
 4337.00    0.96998   0.83367    0.000
 4338.00    0.95505   0.83260    0.000
 4339.00    0.93234   0.84035    0.000
 4340.00    0.90522   0.85458    0.000
 4341.00    0.88028   0.87352    0.000
 4342.00    0.86538   0.89517    0.000
 4343.00    0.86414   0.91613    0.000
 4344.00    0.87423   0.93589    0.000
 4345.00    0.88875   0.95462    0.000
 4346.00    0.90213   0.97013    0.000
 4347.00    0.91273   0.98226    0.000
 4348.00    0.92240   0.99114    0.000
 4349.00    0.93328   0.99933    0.000
 4350.00    0.94576   1.00920    0.000
 4351.00    0.95863   1.01926   10.432
 4352.00    0.97077   1.02992   10.301
 4353.00    0.98274   1.04183   10.176
 4354.00    0.99672   1.05370   10.033
 4355.00    1.01443   1.06510    9.858
 4356.00    1.03466   1.07595    9.665
 4357.00    1.05304   1.08682    9.496
 4358.00    1.06465   1.09661    9.393
 4359.00    1.06848   1.10360    9.359
 4360.00    1.06824   1.10780    9.361
 4361.00    1.06990   1.11040    9.347
 4362.00    1.07598   1.11060    9.294
 4363.00    1.08398   1.10813    9.225
 4364.00    1.08804   1.10287    9.191
 4365.00    1.08456   1.09600    9.220
 4366.00    1.07440   1.08890    9.308
 4367.00    1.06204   1.08132    9.416
 4368.00    1.05159   1.07496    9.509
 4369.00    1.04460   1.06963    9.573
 4370.00    1.04020   1.06457    9.614
 4371.00    1.03723   1.05945    9.641
 4372.00    1.03570   1.05506    9.655
 4373.00    1.03677   1.05239    9.645
 4374.00    1.04088   1.04928    9.607
 4375.00    1.04580   1.04337    9.562
 4376.00    1.04657   1.03516    9.555
 4377.00    1.03823   1.02559    9.632
 4378.00    1.01989   1.01618    9.805
 4379.00    0.99524   1.00594   10.048
 4380.00    0.97072   0.99490   10.302
 4381.00    0.95163   0.98729   10.508
 4382.00    0.94123   0.98448   10.624
 4383.00    0.94075   0.98652   10.630
 4384.00    0.94931   0.99125   10.534
 4385.00    0.96387   0.99734   10.375
 4386.00    0.97992   1.00585   10.205
 4387.00    0.99421   1.01484   10.058
 4388.00    1.00603   1.02470    9.940
 4389.00    1.01690   1.03511    9.834
 4390.00    1.02863   1.04308    9.722
 4391.00    1.04199   1.04893    9.597
 4392.00    1.05668   1.05260    9.464
 4393.00    1.07147   1.05647    9.333
 4394.00    1.08423   1.06018    9.223
 4395.00    1.09209   1.06000    9.157
 4396.00    1.09265   1.05784    9.152
 4397.00    1.08557   1.05375    9.212
 4398.00    1.07271   1.05047    9.322
 4399.00    1.05717   1.04897    9.459
 4400.00    1.04161   1.04633    9.601
 4401.00    1.02792   1.04323    9.728
 4402.00    1.01733   1.04238    9.830
 4403.00    1.01068   1.04547    9.894
 4404.00    1.00855   1.04960    9.915
 4405.00    1.01126   1.05354    9.889
 4406.00    1.01907   1.05871    9.813
 4407.00    1.03231   1.06443    9.687
 4408.00    1.05095   1.06944    9.515
 4409.00    1.07292   1.07341    9.320
 4410.00    1.09312   1.07656    9.148
 4411.00    1.10398   1.07776    9.058
 4412.00    1.10054   1.07737    9.086
 4413.00    1.08434   1.07929    9.222
 4414.00    1.06324   1.08207    9.405
 4415.00    1.04647   1.08492    9.556
 4416.00    1.03916   1.08940    9.623
 4417.00    1.04185   1.09279    9.598
 4418.00    1.05202   1.09561    9.506
 4419.00    1.06641   1.09722    9.377
 4420.00    1.08140   1.09854    9.247
 4421.00    1.09360   1.10105    9.144
 4422.00    1.10112   1.10109    9.082
 4423.00    1.10383   1.10041    9.059
 4424.00    1.10285   1.09885    9.067
 4425.00    1.09873   1.09663    9.101
 4426.00    1.09091   1.09512    9.167
 4427.00    1.07845   1.09170    9.273
 4428.00    1.06330   1.09005    9.405
 4429.00    1.05194   1.09023    9.506
 4430.00    1.05406   1.08962    9.487
 4431.00    1.07419   1.08984    9.309
 4432.00    1.10606   1.09028    9.041
 4433.00    1.13347   1.09284    8.822
 4434.00    1.14209   1.09710    8.756
 4435.00    1.13047   1.10054    8.846
 4436.00    1.11036   1.10377    9.006
 4437.00    1.09714   1.10530    9.115
 4438.00    1.09724   1.10604    9.114
 4439.00    1.10673   1.10673    9.036
 4440.00    1.11670   1.10792    8.955
 4441.00    1.12320   1.11084    8.903
 4442.00    1.12913   1.11459    8.856
 4443.00    1.14113   1.11760    8.763
 4444.00    1.16159   1.11777    8.609
 4445.00    1.18641   1.11721    8.429
 4446.00    1.20689   1.11582    8.286
 4447.00    1.21691   1.11083    8.218
 4448.00    1.21580   1.10485    8.225
 4449.00    1.20759   1.09748    8.281
 4450.00    1.19631   1.08820    8.359
 4451.00    1.18333   1.07772    8.451
 4452.00    1.16751   1.06692    8.565
 4453.00    1.14760   1.06005    8.714
 4454.00    1.12403   1.05462    8.897
 4455.00    1.09906   1.05085    9.099
 4456.00    1.07580   1.04897    9.295
 4457.00    1.05723   1.04952    9.459
 4458.00    1.04606   1.05189    9.560
 4459.00    1.04381   1.05466    9.580
 4460.00    1.04943   1.06127    9.529
 4461.00    1.05914   1.06741    0.000
 4462.00    1.06784   1.07313    0.000
 4463.00    1.07252   1.07972    0.000
 4464.00    1.07294   1.08634    0.000
 4465.00    1.07114   1.09398    0.000
 4466.00    1.06965   1.10130    0.000
 4467.00    1.07090   1.11095    0.000
 4468.00    1.07689   1.12115    0.000
 4469.00    1.08800   1.13099    0.000
 4470.00    1.10229   1.14025    0.000
 4471.00    1.11590   1.14785    0.000
 4472.00    1.12548   1.15315    0.000
 4473.00    1.12987   1.15642    0.000
 4474.00    1.13008   1.15831    0.000
 4475.00    1.12807   1.15797    0.000
 4476.00    1.12559   1.15546    0.000
 4477.00    1.12405   1.15185    0.000
 4478.00    1.12446   1.14886    0.000
 4479.00    1.12724   1.14699    0.000
 4480.00    1.13226   1.14753    0.000
 4481.00    1.13884   1.14861    0.000
 4482.00    1.14582   1.14941    8.727
 4483.00    1.15159   1.14966    8.684
 4484.00    1.15433   1.14858    8.663
 4485.00    1.15276   1.14689    8.675
 4486.00    1.14633   1.14479    8.723
 4487.00    1.13531   1.14357    8.808
 4488.00    1.12112   1.14341    8.920
 4489.00    1.10646   1.14334    9.038
 4490.00    1.09494   1.14434    9.133
 4491.00    1.08888   1.14518    9.184
 4492.00    1.08806   1.14866    9.191
 4493.00    1.08989   1.15491    9.175
 4494.00    1.09158   1.16232    9.161
 4495.00    1.09187   1.17183    9.159
 4496.00    1.09113   1.18097    9.165
 4497.00    1.09060   1.19064    9.169
 4498.00    1.09151   1.19958    9.162
 4499.00    1.09494   1.20881    9.133
 4500.00    1.10161   1.21890    9.078
 4501.00    1.11142   1.22615    8.997
 4502.00    1.12342   1.23122    8.901
 4503.00    1.13604   1.23403    8.803
 4504.00    1.14781   1.23462    8.712
 4505.00    1.15749   1.23368    8.639
 4506.00    1.16406   1.23139    8.591
 4507.00    1.16666   1.22831    8.571
 4508.00    1.16459   1.22343    8.587
 4509.00    1.15761   1.21737    8.638
 4510.00    1.14735   1.21099    8.716
 4511.00    1.13805   1.20511    8.787
 4512.00    1.13597   1.19920    8.803
 4513.00    1.14481   1.19403    8.735
 4514.00    1.16248   1.18944    8.602
 4515.00    1.18140   1.18346    8.465
 4516.00    1.19363   1.17834    8.378
 4517.00    1.19605   1.17161    8.361
 4518.00    1.19062   1.16431    8.399
 4519.00    1.18142   1.15551    8.464
 4520.00    1.17048   1.14500    8.544
 4521.00    1.15721   1.13526    8.641
 4522.00    1.13964   1.12418    8.775
 4523.00    1.11668   1.11375    8.955
 4524.00    1.08864   1.10447    9.186
 4525.00    1.05716   1.09729    9.459
 4526.00    1.02492   1.09229    9.757
 4527.00    0.99562   1.09091   10.044
 4528.00    0.97360   1.09162   10.271
 4529.00    0.96248   1.09527   10.390
 4530.00    0.96457   1.10057   10.367
 4531.00    0.98072   1.10726   10.197
 4532.00    1.00967   1.11669    9.904
 4533.00    1.04758   1.12633    9.546
 4534.00    1.08827   1.13694    9.189
 4535.00    1.12547   1.14524    8.885
 4536.00    1.15466   1.15150    8.661
 4537.00    1.17322   1.15598    8.524
 4538.00    1.18006   1.15826    8.474
 4539.00    1.17520   1.15931    8.509
 4540.00    1.15972   1.15872    8.623
 4541.00    1.13617   1.15653    8.801
 4542.00    1.10916   1.15239    9.016
 4543.00    1.08545   1.14825    9.213
 4544.00    1.07204   1.14346    9.328
 4545.00    1.07159   1.13932    9.332
 4546.00    1.08128   1.13595    9.248
 4547.00    1.09442   1.13373    9.137
 4548.00    1.10598   1.13422    9.042
 4549.00    1.11463   1.13484    8.972
 4550.00    1.12222   1.13785    0.000
 4551.00    1.13101   1.14228    0.000
 4552.00    1.14225   1.14844    0.000
 4553.00    1.15614   1.15555    0.000
 4554.00    1.17176   1.16347    0.000
 4555.00    1.18707   1.17126    0.000
 4556.00    1.19904   1.17740    0.000
 4557.00    1.20546   1.18280    0.000
 4558.00    1.20683   1.18634    0.000
 4559.00    1.20636   1.18892    0.000
 4560.00    1.20764   1.19031    0.000
 4561.00    1.21125   1.19146    0.000
 4562.00    1.21430   1.19308    0.000
 4563.00    1.21273   1.19444    0.000
 4564.00    1.20594   1.19632    0.000
 4565.00    1.19769   1.19797    0.000
 4566.00    1.19417   1.19875    0.000
 4567.00    1.19818   1.19939    0.000
 4568.00    1.20732   1.19959    0.000
 4569.00    1.21534   1.19911    0.000
 4570.00    1.21790   1.19897    0.000
 4571.00    1.21516   1.19718    0.000
 4572.00    1.21109   1.19375    0.000
 4573.00    1.20898   1.18946    0.000
 4574.00    1.20855   1.18393    0.000
 4575.00    1.20625   1.17812    0.000
 4576.00    1.19852   1.17179    0.000
 4577.00    1.18486   1.16679    0.000
 4578.00    1.16783   1.16251    0.000
 4579.00    1.15140   1.15951    0.000
 4580.00    1.13876   1.15833    0.000
 4581.00    1.13206   1.15812    0.000
 4582.00    1.13211   1.16015    0.000
 4583.00    1.13785   1.16220    0.000
 4584.00    1.14633   1.16522    0.000
 4585.00    1.15368   1.16783    0.000
 4586.00    1.15772   1.16990    0.000
 4587.00    1.15857   1.17109    0.000
 4588.00    1.15807   1.17134    0.000
 4589.00    1.15780   1.17151    0.000
 4590.00    1.15817   1.17109    0.000
 4591.00    1.15875   1.17101    0.000
 4592.00    1.15930   1.17088    0.000
 4593.00    1.16047   1.17089    0.000
 4594.00    1.16358   1.17196    0.000
 4595.00    1.16921   1.17272    0.000
 4596.00    1.17605   1.17476    0.000
 4597.00    1.18108   1.17750    0.000
 4598.00    1.18187   1.18076    0.000
 4599.00    1.17906   1.18563    0.000
 4600.00    1.17646   1.19040    0.000
 4601.00    1.17845   1.19668    0.000
 4602.00    1.18604   1.20292    0.000
 4603.00    1.19634   1.20995    0.000
 4604.00    1.20472   1.21662    0.000
 4605.00    1.20933   1.22247    0.000
 4606.00    1.21204   1.22735    0.000
 4607.00    1.21703   1.23090    0.000
 4608.00    1.22626   1.23306    0.000
 4609.00    1.23812   1.23442    0.000
 4610.00    1.24819   1.23531    0.000
 4611.00    1.25308   1.23494    0.000
 4612.00    1.25213   1.23527    0.000
 4613.00    1.24716   1.23471    0.000
 4614.00    1.24060   1.23437    0.000
 4615.00    1.23423   1.23448    0.000
 4616.00    1.22916   1.23508    0.000
 4617.00    1.22581   1.23573    0.000
 4618.00    1.22401   1.23667    0.000
 4619.00    1.22294   1.23741    0.000
 4620.00    1.22161   1.23729    0.000
 4621.00    1.21937   1.23696    0.000
 4622.00    1.21599   1.23620    0.000
 4623.00    1.21173   1.23470    0.000
 4624.00    1.20749   1.23262    0.000
 4625.00    1.20481   1.23032    0.000
 4626.00    1.20532   1.22782    0.000
 4627.00    1.20918   1.22469    0.000
 4628.00    1.21471   1.22112    0.000
 4629.00    1.21891   1.21732    0.000
 4630.00    1.21935   1.21309    0.000
 4631.00    1.21494   1.20928    0.000
 4632.00    1.20586   1.20517    0.000
 4633.00    1.19324   1.20120    0.000
 4634.00    1.17898   1.19762    0.000
 4635.00    1.16559   1.19395    0.000
 4636.00    1.15553   1.19102    0.000
 4637.00    1.15054   1.18769    0.000
 4638.00    1.15162   1.18428    0.000
 4639.00    1.15870   1.18066    0.000
 4640.00    1.17031   1.17692    0.000
 4641.00    1.18357   1.17285    0.000
 4642.00    1.19539   1.16956    0.000
 4643.00    1.20423   1.16735    0.000
 4644.00    1.21041   1.16651    0.000
 4645.00    1.21526   1.16741    0.000
 4646.00    1.21939   1.16951    0.000
 4647.00    1.22231   1.17257    0.000
 4648.00    1.22284   1.17694    0.000
 4649.00    1.22060   1.18107    0.000
 4650.00    1.21645   1.18584    0.000
 4651.00    1.21218   1.19075    0.000
 4652.00    1.20892   1.19536    0.000
 4653.00    1.20644   1.20027    0.000
 4654.00    1.20324   1.20376    0.000
 4655.00    1.19774   1.20588    0.000
 4656.00    1.18899   1.20536    0.000
 4657.00    1.17677   1.20262    0.000
 4658.00    1.16178   1.19738    0.000
 4659.00    1.14585   1.19044    0.000
 4660.00    1.13190   1.18245    0.000
 4661.00    1.12275   1.17328    0.000
 4662.00    1.11962   1.16445    0.000
 4663.00    1.12191   1.15748    0.000
 4664.00    1.12777   1.15334    0.000
 4665.00    1.13498   1.15177    0.000
 4666.00    1.14126   1.15333    0.000
 4667.00    1.14454   1.15690    0.000
 4668.00    1.14393   1.16201    0.000
 4669.00    1.14000   1.16836    0.000
 4670.00    1.13456   1.17470    0.000
 4671.00    1.12965   1.18096    0.000
 4672.00    1.12722   1.18581    0.000
 4673.00    1.12889   1.18906    0.000
 4674.00    1.13493   1.19103    0.000
 4675.00    1.14360   1.19207    0.000
 4676.00    1.15143   1.19243    0.000
 4677.00    1.15544   1.19241    0.000
 4678.00    1.15499   1.19289    0.000
 4679.00    1.15178   1.19348    0.000
 4680.00    1.14872   1.19410    0.000
 4681.00    1.14861   1.19525    0.000
 4682.00    1.15392   1.19631    0.000
 4683.00    1.16569   1.19754    0.000
 4684.00    1.18166   1.19877    0.000
 4685.00    1.19605   1.19996    0.000
 4686.00    1.20209   1.20057    0.000
 4687.00    1.19770   1.20133    0.000
 4688.00    1.18685   1.20181    0.000
 4689.00    1.17729   1.20162    0.000
 4690.00    1.17345   1.20105    0.000
 4691.00    1.17387   1.19945    0.000
 4692.00    1.17261   1.19683    0.000
 4693.00    1.16564   1.19265    0.000
 4694.00    1.15404   1.18792    0.000
 4695.00    1.14334   1.18328    0.000
 4696.00    1.13840   1.17798    0.000
 4697.00    1.13975   1.17289    0.000
 4698.00    1.14381   1.16777    0.000
 4699.00    1.14609   1.16449    0.000
 4700.00    1.14447   1.16206    0.000
 4701.00    1.13939   1.16055    0.000
 4702.00    1.13269   1.15988    0.000
 4703.00    1.12602   1.16040    0.000
 4704.00    1.12063   1.16250    0.000
 4705.00    1.11748   1.16549    0.000
 4706.00    1.11749   1.17034    0.000
 4707.00    1.12155   1.17510    0.000
 4708.00    1.13013   1.18082    0.000
 4709.00    1.14208   1.18684    0.000
 4710.00    1.15433   1.19385    0.000
 4711.00    1.16271   1.20188    0.000
 4712.00    1.16516   1.20981    0.000
 4713.00    1.16315   1.21750    0.000
 4714.00    1.16109   1.22484    0.000
 4715.00    1.16293   1.23132    0.000
 4716.00    1.17014   1.23644    0.000
 4717.00    1.18169   1.23976    0.000
 4718.00    1.19501   1.24116    0.000
 4719.00    1.20674   1.24077    0.000
 4720.00    1.21291   1.23801    0.000
 4721.00    1.21085   1.23345    0.000
 4722.00    1.20140   1.22696    0.000
 4723.00    1.18906   1.21985    0.000
 4724.00    1.17947   1.21287    0.000
 4725.00    1.17529   1.20659    0.000
 4726.00    1.17552   1.20143    0.000
 4727.00    1.17703   1.19790    0.000
 4728.00    1.17807   1.19642    0.000
 4729.00    1.17915   1.19615    0.000
 4730.00    1.18221   1.19793    0.000
 4731.00    1.18784   1.20060    0.000
 4732.00    1.19437   1.20408    0.000
 4733.00    1.19836   1.20880    0.000
 4734.00    1.19741   1.21348    0.000
 4735.00    1.19166   1.21820    0.000
 4736.00    1.18352   1.22273    0.000
 4737.00    1.17610   1.22728    0.000
 4738.00    1.17198   1.23141    0.000
 4739.00    1.17312   1.23531    0.000
 4740.00    1.18021   1.23836    0.000
 4741.00    1.19202   1.24115    0.000
 4742.00    1.20545   1.24323    0.000
 4743.00    1.21701   1.24426    0.000
 4744.00    1.22500   1.24460    0.000
 4745.00    1.22979   1.24385    0.000
 4746.00    1.23273   1.24224    0.000
 4747.00    1.23420   1.23937    0.000
 4748.00    1.23314   1.23624    0.000
 4749.00    1.22786   1.23225    0.000
 4750.00    1.21838   1.22830    0.000
 4751.00    1.20706   1.22397    0.000
 4752.00    1.19783   1.21975    0.000
 4753.00    1.19282   1.21548    0.000
 4754.00    1.19088   1.21092    0.000
 4755.00    1.18818   1.20612    0.000
 4756.00    1.18160   1.20114    0.000
 4757.00    1.17096   1.19599    0.000
 4758.00    1.15882   1.19128    0.000
 4759.00    1.14826   1.18724    0.000
 4760.00    1.14093   1.18438    0.000
 4761.00    1.13699   1.18294    8.795
 4762.00    1.13589   1.18335    8.804
 4763.00    1.13736   1.18564    8.792
 4764.00    1.14152   1.18921    8.760
 4765.00    1.14863   1.19446    8.706
 4766.00    1.15877   1.20040    8.630
 4767.00    1.17175   1.20732    8.534
 4768.00    1.18706   1.21425    8.424
 4769.00    1.20367   1.22093    8.308
 4770.00    1.22000   1.22706    8.197
 4771.00    1.23412   1.23189    8.103
 4772.00    1.24447   1.23558    8.036
 4773.00    1.25006   1.23774    8.000
 4774.00    1.25059   1.23854    7.996
 4775.00    1.24652   1.23780    8.022
 4776.00    1.23924   1.23577    8.069
 4777.00    1.23089   1.23287    8.124
 4778.00    1.22361   1.22944    8.173
 4779.00    1.21889   1.22546    8.204
 4780.00    1.21757   1.22213    8.213
 4781.00    1.21963   1.21925    8.199
 4782.00    1.22403   1.21726    8.170
 4783.00    1.22873   1.21678    8.139
 4784.00    1.23176   1.21765    8.118
 4785.00    1.23274   1.21992    8.112
 4786.00    1.23309   1.22367    8.110
 4787.00    1.23513   1.22835    8.096
 4788.00    1.24024   1.23364    8.063
 4789.00    1.24853   1.23865    8.009
 4790.00    1.25901   1.24334    7.943
 4791.00    1.27037   1.24686    7.872
 4792.00    1.28122   1.24935    7.805
 4793.00    1.29009   1.25071    7.751
 4794.00    1.29541   1.25103    7.720
 4795.00    1.29555   1.25069    7.719
 4796.00    1.28902   1.24925    7.758
 4797.00    1.27568   1.24759    7.839
 4798.00    1.25752   1.24497    7.952
 4799.00    1.23853   1.24308    8.074
 4800.00    1.22298   1.24069    8.177
 4801.00    1.21383   1.23890    8.238
 4802.00    1.21263   1.23742    8.247
 4803.00    1.21919   1.23660    8.202
 4804.00    1.23124   1.23638    8.122
 4805.00    1.24441   1.23691    8.036
 4806.00    1.25409   1.23832    7.974
 4807.00    1.25863   1.24053    7.945
 4808.00    1.25988   1.24343    7.937
 4809.00    1.26170   1.24674    7.926
 4810.00    1.26619   1.25028    7.898
 4811.00    1.27267   1.25350    7.858
 4812.00    1.27841   1.25629    7.822
 4813.00    1.28121   1.25806    7.805
 4814.00    1.28035   1.25860    7.810
 4815.00    1.27645   1.25793    7.834
 4816.00    1.27038   1.25545    7.872
 4817.00    1.26277   1.25218    7.919
 4818.00    1.25395   1.24848    7.975
 4819.00    1.24429   1.24429    8.037
 4820.00    1.23439   1.23995    8.101
 4821.00    1.22507   1.23579    8.163
 4822.00    1.21691   1.23217    8.218
 4823.00    1.20982   1.22932    8.266
 4824.00    1.20299   1.22702    8.313
 4825.00    1.19550   1.22513    8.365
 4826.00    1.18719   1.22399    8.423
 4827.00    1.17882   1.22303    8.483
 4828.00    1.17151   1.22238    8.536
 4829.00    1.16578   1.22133    8.578
 4830.00    1.16123   1.22054    8.612
 4831.00    1.15703   1.21916    8.643
 4832.00    1.15306   1.21765    8.673
 4833.00    1.15034   1.21574    8.693
 4834.00    1.15058   1.21375    8.691
 4835.00    1.15421   1.21158    8.664
 4836.00    1.15945   1.20912    8.625
 4837.00    1.16276   1.20683    8.600
 4838.00    1.16179   1.20445    8.607
 4839.00    1.15737   1.20190    8.640
 4840.00    1.15322   1.19896    8.671
 4841.00    1.15273   1.19564    8.675
 4842.00    1.15586   1.19154    8.652
 4843.00    1.15911   1.18669    8.627
 4844.00    1.15832   1.18028    8.633
 4845.00    1.15232   1.17225    8.678
 4846.00    1.14332   1.16206    8.746
 4847.00    1.13531   1.14983    8.808
 4848.00    1.13102   1.13513    0.000
 4849.00    1.13146   1.11833    0.000
 4850.00    1.13640   1.09939    0.000
 4851.00    1.14591   1.07859    0.000
 4852.00    1.16076   1.05657    0.000
 4853.00    1.18173   1.03474    0.000
 4854.00    1.20723   1.01424    0.000
 4855.00    1.23232   0.99619    0.000
 4856.00    1.24961   0.98220    0.000
 4857.00    1.25416   0.97244    0.000
 4858.00    1.24620   0.96829    0.000
 4859.00    1.23068   0.96903    0.000
 4860.00    1.21252   0.97512    0.000
 4861.00    1.19279   0.98480    0.000
 4862.00    1.16878   0.99753    0.000
 4863.00    1.13784   1.01192    0.000
 4864.00    1.10157   1.02722    0.000
 4865.00    1.06611   1.04231    0.000
 4866.00    1.03886   1.05678    0.000
 4867.00    1.02329   1.07028    0.000
 4868.00    1.01820   1.08315    0.000
 4869.00    1.01970   1.09505    0.000
 4870.00    1.02552   1.10698    0.000
 4871.00    1.03603   1.11809    0.000
 4872.00    1.05311   1.12871    0.000
 4873.00    1.07664   1.13839    0.000
 4874.00    1.10331   1.14722    0.000
 4875.00    1.12731   1.15432    8.871
 4876.00    1.14352   1.15968    8.745
 4877.00    1.14900   1.16311    8.703
 4878.00    1.14316   1.16482    8.748
 4879.00    1.12815   1.16496    8.864
 4880.00    1.10918   1.16382    9.016
 4881.00    1.09410   1.16222    9.140
 4882.00    1.08911   1.16033    9.182
 4883.00    1.09468   1.15993    9.135
 4884.00    1.10544   1.16066    9.046
 4885.00    1.11447   1.16361    8.973
 4886.00    1.11899   1.16845    8.937
 4887.00    1.12103   1.17564    8.920
 4888.00    1.12504   1.18455    8.889
 4889.00    1.13334   1.19482    8.823
 4890.00    1.14532   1.20574    8.731
 4891.00    1.15825   1.21623    8.634
 4892.00    1.16983   1.22613    8.548
 4893.00    1.17886   1.23422    8.483
 4894.00    1.18513   1.24058    8.438
 4895.00    1.18909   1.24481    8.410
 4896.00    1.19169   1.24730    8.391
 4897.00    1.19423   1.24813    8.374
 4898.00    1.19732   1.24758    8.352
 4899.00    1.20036   1.24607    8.331
 4900.00    1.20166   1.24386    8.322
 4901.00    1.19998   1.24125    8.333
 4902.00    1.19574   1.23832    8.363
 4903.00    1.19097   1.23523    8.396
 4904.00    1.18797   1.23201    8.418
 4905.00    1.18759   1.22858    8.420
 4906.00    1.18916   1.22504    8.409
 4907.00    1.19111   1.22109    8.396
 4908.00    1.19212   1.21673    8.388
 4909.00    1.19130   1.21165    8.394
 4910.00    1.18818   1.20584    8.416
 4911.00    1.18281   1.19929    8.454
 4912.00    1.17572   1.19183    8.505
 4913.00    1.16783   1.18407    8.563
 4914.00    1.15992   1.17626    8.621
 4915.00    1.15253   1.16970    8.677
 4916.00    1.14594   1.16449    8.726
 4917.00    1.14033   1.16199    8.769
 4918.00    1.13590   1.16217    8.804
 4919.00    1.13287   1.16557    8.827
 4920.00    1.13191   1.17167    8.835
 4921.00    1.13441   1.18003    8.815
 4922.00    1.14232   1.18965    8.754
 4923.00    1.15671   1.19953    8.645
 4924.00    1.17626   1.20891    8.502
 4925.00    1.19724   1.21648    8.353
 4926.00    1.21529   1.22198    8.228
 4927.00    1.22775   1.22480    8.145
 4928.00    1.23404   1.22544    8.103
 4929.00    1.23498   1.22399    8.097
 4930.00    1.23166   1.22141    8.119
 4931.00    1.22511   1.21815    8.163
 4932.00    1.21637   1.21537    8.221
 4933.00    1.20655   1.21349    8.288
 4934.00    1.19680   1.21336    8.356
 4935.00    1.18838   1.21498    8.415
 4936.00    1.18281   1.21873    8.454
 4937.00    1.18197   1.22404    8.460
 4938.00    1.18780   1.23085    8.419
 4939.00    1.20087   1.23822    8.327
 4940.00    1.21952   1.24597    0.000
 4941.00    1.24001   1.25310    0.000
 4942.00    1.25817   1.25947    0.000
 4943.00    1.27085   1.26431    0.000
 4944.00    1.27607   1.26743    0.000
 4945.00    1.27341   1.26870    0.000
 4946.00    1.26461   1.26798    0.000
 4947.00    1.25351   1.26549    0.000
 4948.00    1.24452   1.26116    0.000
 4949.00    1.23996   1.25573    0.000
 4950.00    1.23967   1.24941    0.000
 4951.00    1.24185   1.24303    0.000
 4952.00    1.24510   1.23704    0.000
 4953.00    1.24891   1.23198    0.000
 4954.00    1.25329   1.22838    0.000
 4955.00    1.25741   1.22601    0.000
 4956.00    1.25912   1.22526    0.000
 4957.00    1.25550   1.22530    0.000
 4958.00    1.24558   1.22631    0.000
 4959.00    1.23165   1.22742    0.000
 4960.00    1.21888   1.22878    0.000
 4961.00    1.21147   1.22987    0.000
 4962.00    1.20990   1.23096    0.000
 4963.00    1.21108   1.23195    0.000
 4964.00    1.21126   1.23303    0.000
 4965.00    1.20904   1.23428    0.000
 4966.00    1.20558   1.23553    0.000
 4967.00    1.20304   1.23669    0.000
 4968.00    1.20238   1.23728    0.000
 4969.00    1.20311   1.23701    0.000
 4970.00    1.20370   1.23533    0.000
 4971.00    1.20260   1.23194    0.000
 4972.00    1.19844   1.22669    0.000
 4973.00    1.19031   1.21959    0.000
 4974.00    1.17862   1.21106    0.000
 4975.00    1.16539   1.20156    0.000
 4976.00    1.15369   1.19194    0.000
 4977.00    1.14540   1.18293    0.000
 4978.00    1.14023   1.17539    0.000
 4979.00    1.13611   1.16988    0.000
 4980.00    1.13139   1.16679    0.000
 4981.00    1.12627   1.16623    0.000
 4982.00    1.12270   1.16794    0.000
 4983.00    1.12280   1.17154    0.000
 4984.00    1.12750   1.17634    0.000
 4985.00    1.13646   1.18175    0.000
 4986.00    1.14854   1.18709    0.000
 4987.00    1.16235   1.19182    0.000
 4988.00    1.17630   1.19554    0.000
 4989.00    1.18898   1.19788    0.000
 4990.00    1.19957   1.19879    0.000
 4991.00    1.20798   1.19805    0.000
 4992.00    1.21475   1.19585    0.000
 4993.00    1.22077   1.19214    0.000
 4994.00    1.22725   1.18727    0.000
 4995.00    1.23526   1.18140    0.000
 4996.00    1.24430   1.17499    0.000
 4997.00    1.25171   1.16832    0.000
 4998.00    1.25339   1.16188    0.000
 4999.00    1.24720   1.15586    0.000
 5000.00    1.23484   1.15064    0.000
 5001.00    1.22133   1.14611    0.000
 5002.00    1.21098   1.14247    0.000
 5003.00    1.20427   1.13928    0.000
 5004.00    1.19797   1.13663    0.000
 5005.00    1.18817   1.13393    0.000
 5006.00    1.17345   1.13138    0.000
 5007.00    1.15515   1.12849    0.000
 5008.00    1.13604   1.12574    0.000
 5009.00    1.11836   1.12294    0.000
 5010.00    1.10357   1.12069    0.000
 5011.00    1.09243   1.11904    0.000
 5012.00    1.08525   1.11851    0.000
 5013.00    1.08197   1.11915    0.000
 5014.00    1.08220   1.12117    0.000
 5015.00    1.08558   1.12451    0.000
 5016.00    1.09178   1.12904    0.000
 5017.00    1.10042   1.13460    0.000
 5018.00    1.11037   1.14084    0.000
 5019.00    1.11940   1.14765    0.000
 5020.00    1.12461   1.15458    0.000
 5021.00    1.12453   1.16157    0.000
 5022.00    1.12059   1.16826    0.000
 5023.00    1.11688   1.17454    0.000
 5024.00    1.11765   1.18011    0.000
 5025.00    1.12495   1.18472    0.000
 5026.00    1.13852   1.18816    0.000
 5027.00    1.15604   1.19003    0.000
 5028.00    1.17342   1.19028    0.000
 5029.00    1.18496   1.18865    8.439
 5030.00    1.18569   1.18536    8.434
 5031.00    1.17540   1.18057    8.508
 5032.00    1.15942   1.17483    8.625
 5033.00    1.14594   1.16877    8.726
 5034.00    1.13948   1.16307    8.776
 5035.00    1.13906   1.15851    8.779
 5036.00    1.13979   1.15557    8.774
 5037.00    1.13846   1.15467    8.784
 5038.00    1.13573   1.15579    8.805
 5039.00    1.13536   1.15871    8.808
 5040.00    1.14004   1.16297    8.772
 5041.00    1.14900   1.16800    8.703
 5042.00    1.15845   1.17330    8.632
 5043.00    1.16476   1.17837    8.585
 5044.00    1.16703   1.18312    8.569
 5045.00    1.16714   1.18742    8.568
 5046.00    1.16781   1.19158    8.563
 5047.00    1.17065   1.19571    8.542
 5048.00    1.17594   1.20021    8.504
 5049.00    1.18306   1.20508    8.453
 5050.00    1.19106   1.21040    8.396
 5051.00    1.19876   1.21590    8.342
 5052.00    1.20513   1.22129    8.298
 5053.00    1.21002   1.22608    8.264
 5054.00    1.21433   1.22986    8.235
 5055.00    1.21959   1.23224    8.200
 5056.00    1.22658   1.23293    8.153
 5057.00    1.23494   1.23190    8.098
 5058.00    1.24323   1.22916    8.044
 5059.00    1.24945   1.22507    8.004
 5060.00    1.25124   1.21987    7.992
 5061.00    1.24619   1.21418    8.024
 5062.00    1.23377   1.20825    8.105
 5063.00    1.21658   1.20259    8.220
 5064.00    1.20009   1.19731    8.333
 5065.00    1.18928   1.19264    8.408
 5066.00    1.18550   1.18843    8.435
 5067.00    1.18639   1.18464    8.429
 5068.00    1.18800   1.18098    8.417
 5069.00    1.18770   1.17734    8.420
 5070.00    1.18449   1.17347    8.442
 5071.00    1.17860   1.16943    8.485
 5072.00    1.17081   1.16516    8.541
 5073.00    1.16226   1.16105    8.604
 5074.00    1.15434   1.15723    8.663
 5075.00    1.14841   1.15426    8.708
 5076.00    1.14570   1.15236    8.728
 5077.00    1.14709   1.15200    8.718
 5078.00    1.15215   1.15324    8.679
 5079.00    1.15885   1.15622    8.629
 5080.00    1.16395   1.16072    8.591
 5081.00    1.16552   1.16650    8.580
 5082.00    1.16434   1.17308    8.589
 5083.00    1.16365   1.17998    8.594
 5084.00    1.16648   1.18665    8.573
 5085.00    1.17353   1.19260    8.521
 5086.00    1.18314   1.19737    8.452
 5087.00    1.19272   1.20065    8.384
 5088.00    1.20032   1.20223    8.331
 5089.00    1.20483   1.20210    8.300
 5090.00    1.20582   1.20033    8.293
 5091.00    1.20335   1.19728    8.310
 5092.00    1.19794   1.19324    8.348
 5093.00    1.19038   1.18877    8.401
 5094.00    1.18137   1.18420    8.465
 5095.00    1.17141   1.18005    8.537
 5096.00    1.16100   1.17644    8.613
 5097.00    1.15113   1.17367    8.687
 5098.00    1.14352   1.17158    8.745
 5099.00    1.14023   1.17026    8.770
 5100.00    1.14205   1.16949    8.756
 5101.00    1.14767   1.16931    8.713
 5102.00    1.15398   1.16959    8.666
 5103.00    1.15788   1.17049    8.636
 5104.00    1.15758   1.17200    8.639
 5105.00    1.15265   1.17425    8.676
 5106.00    1.14443   1.17726    8.738
 5107.00    1.13626   1.18092    8.801
 5108.00    1.13340   1.18505    8.823
 5109.00    1.14010   1.18929    8.771
 5110.00    1.15577   1.19323    8.652
 5111.00    1.17453   1.19637    8.514
 5112.00    1.18850   1.19827    8.414
 5113.00    1.19404   1.19858    8.375
 5114.00    1.19289   1.19706    8.383
 5115.00    1.19014   1.19371    8.402
 5116.00    1.18873   1.18868    8.412
 5117.00    1.18784   1.18236    8.419
 5118.00    1.18405   1.17521    8.446
 5119.00    1.17591   1.16786    8.504
 5120.00    1.16589   1.16085    8.577
 5121.00    1.15950   1.15474    8.624
 5122.00    1.16044   1.14990    8.617
 5123.00    1.16767   1.14660    8.564
 5124.00    1.17582   1.14485    8.505
 5125.00    1.17966   1.14454    8.477
 5126.00    1.17772   1.14542    8.491
 5127.00    1.17238   1.14705    8.530
 5128.00    1.16735   1.14909    8.566
 5129.00    1.16475   1.15102    8.586
 5130.00    1.16484   1.15259    8.585
 5131.00    1.16656   1.15343    8.572
 5132.00    1.16840   1.15350    8.559
 5133.00    1.16863   1.15274    8.557
 5134.00    1.16589   1.15127    8.577
 5135.00    1.16066   1.14931    8.616
 5136.00    1.15566   1.14700    8.653
 5137.00    1.15463   1.14466    8.661
 5138.00    1.15840   1.14240    8.633
 5139.00    1.16358   1.14042    8.594
 5140.00    1.16372   1.13878    8.593
 5141.00    1.15537   1.13756    8.655
 5142.00    1.14101   1.13678    8.764
 5143.00    1.12831   1.13646    8.863
 5144.00    1.12380   1.13667    8.898
 5145.00    1.12834   1.13743    8.863
 5146.00    1.13733   1.13884    8.793
 5147.00    1.14513   1.14087    8.733
 5148.00    1.14941   1.14357    8.700
 5149.00    1.15148   1.14674    8.684
 5150.00    1.15420   1.15020    8.664
 5151.00    1.15907   1.15351    8.628
 5152.00    1.16588   1.15619    8.577
 5153.00    1.17319   1.15758    8.524
 5154.00    1.17927   1.15711    8.480
 5155.00    1.18229   1.15413    8.458
 5156.00    1.18060   1.14827    8.470
 5157.00    1.17319   1.13926    8.524
 5158.00    1.15999   1.12728    8.621
 5159.00    1.14175   1.11268    8.759
 5160.00    1.11991   1.09625    8.929
 5161.00    1.09659   1.07894    9.119
 5162.00    1.07427   1.06193    9.309
 5163.00    1.05432   1.04640    9.485
 5164.00    1.03611   1.03342    9.651
 5165.00    1.01722   1.02390    9.831
 5166.00    0.99614   1.01835   10.039
 5167.00    0.97450   1.01695   10.262
 5168.00    0.95712   1.01938   10.448
 5169.00    0.94954   1.02509   10.531
 5170.00    0.95519   1.03306   10.469
 5171.00    0.97501   1.04221   10.256
 5172.00    1.00716   1.05141    9.929
 5173.00    1.04640   1.05963    9.557
 5174.00    1.08404   1.06618    9.225
 5175.00    1.11040   1.07078    9.006
 5176.00    1.12037   1.07337    8.926
 5177.00    1.11488   1.07456    8.970
 5178.00    1.09979   1.07477    9.093
 5179.00    1.08195   1.07501    9.243
 5180.00    1.06783   1.07573    9.365
 5181.00    1.06287   1.07756    9.409
 5182.00    1.06863   1.08064    9.358
 5183.00    1.08127   1.08490    9.248
 5184.00    1.09241   1.09018    9.154
 5185.00    1.09585   1.09593    9.125
 5186.00    1.09243   1.10200    9.154
 5187.00    1.08980   1.10788    9.176
 5188.00    1.09597   1.11352    9.124
 5189.00    1.11278   1.11877    8.987
 5190.00    1.13550   1.12355    0.000
 5191.00    1.15683   1.12793    0.000
 5192.00    1.17263   1.13162    0.000
 5193.00    1.18272   1.13471    0.000
 5194.00    1.18926   1.13671    0.000
 5195.00    1.19342   1.13768    0.000
 5196.00    1.19468   1.13720    0.000
 5197.00    1.19163   1.13549    0.000
 5198.00    1.18417   1.13253    0.000
 5199.00    1.17423   1.12880    0.000
 5200.00    1.16508   1.12479    0.000
 5201.00    1.15840   1.12107    0.000
 5202.00    1.15302   1.11844    0.000
 5203.00    1.14551   1.11721    0.000
 5204.00    1.13424   1.11807    0.000
 5205.00    1.12187   1.12079    0.000
 5206.00    1.11492   1.12570    0.000
 5207.00    1.11863   1.13207    0.000
 5208.00    1.13242   1.13979    0.000
 5209.00    1.14991   1.14801    0.000
 5210.00    1.16358   1.15631    0.000
 5211.00    1.17059   1.16409    8.543
 5212.00    1.17338   1.17079    8.522
 5213.00    1.17674   1.17614    8.498
 5214.00    1.18264   1.17969    8.456
 5215.00    1.18943   1.18142    8.407
 5216.00    1.19355   1.18119    8.378
 5217.00    1.19379   1.17916    8.377
 5218.00    1.19244   1.17564    8.386
 5219.00    1.19388   1.17100    8.376
 5220.00    1.19986   1.16596    8.334
 5221.00    1.20761   1.16095    8.281
 5222.00    1.21099   1.15676    8.258
 5223.00    1.20605   1.15381    8.292
 5224.00    1.19414   1.15251    8.374
 5225.00    1.18134   1.15302    8.465
 5226.00    1.17356   1.15535    8.521
 5227.00    1.17283   1.15935    8.526
 5228.00    1.17731   1.16474    8.494
 5229.00    1.18389   1.17121    8.447
 5230.00    1.19095   1.17837    8.397
 5231.00    1.19858   1.18595    8.343
 5232.00    1.20757   1.19347    8.281
 5233.00    1.21783   1.20076    8.211
 5234.00    1.22821   1.20730    8.142
 5235.00    1.23713   1.21300    8.083
 5236.00    1.24381   1.21740    8.040
 5237.00    1.24858   1.22043    8.009
 5238.00    1.25233   1.22194    7.985
 5239.00    1.25484   1.22189    7.969
 5240.00    1.25423   1.22050    7.973
 5241.00    1.24768   1.21788    8.015
 5242.00    1.23432   1.21456    8.102
 5243.00    1.21663   1.21071    8.219
 5244.00    1.19984   1.20701    8.334
 5245.00    1.18822   1.20356    8.416
 5246.00    1.18263   1.20093    8.456
 5247.00    1.18071   1.19894    8.469
 5248.00    1.17962   1.19783    8.477
 5249.00    1.17854   1.19711    8.485
 5250.00    1.17876   1.19655    8.484
 5251.00    1.18191   1.19555    8.461
 5252.00    1.18772   1.19347    8.420
 5253.00    1.19380   1.18994    8.377
 5254.00    1.19685   1.18422    8.355
 5255.00    1.19493   1.17647    8.369
 5256.00    1.18779   1.16631    8.419
 5257.00    1.17665   1.15448    8.499
 5258.00    1.16350   1.14117    8.595
 5259.00    1.15084   1.12749    8.689
 5260.00    1.14132   1.11412    8.762
 5261.00    1.13612   1.10209    8.802
 5262.00    1.13435   1.09226    8.816
 5263.00    1.13345   1.08520    8.823
 5264.00    1.13112   1.08150    8.841
 5265.00    1.12646   1.08116    8.877
 5266.00    1.11997   1.08429    8.929
 5267.00    1.11326   1.09047    8.983
 5268.00    1.10884   1.09921    9.018
 5269.00    1.10992   1.10997    9.010
 5270.00    1.11869   1.12185    8.939
 5271.00    1.13431   1.13450    8.816
 5272.00    1.15288   1.14691    8.674
 5273.00    1.16986   1.15908    8.548
 5274.00    1.18385   1.17022    8.447
 5275.00    1.19711   1.18067    8.353
 5276.00    1.21342   1.19005    8.241
 5277.00    1.23347   1.19885    8.107
 5278.00    1.25380   1.20701    7.976
 5279.00    1.26858   1.21488    7.883
 5280.00    1.27513   1.22249    7.842
 5281.00    1.27573   1.22979    7.839
 5282.00    1.27633   1.23673    7.835
 5283.00    1.28065   1.24284    7.809
 5284.00    1.28739   1.24800    7.768
 5285.00    1.29092   1.25158    7.746
 5286.00    1.28669   1.25356    7.772
 5287.00    1.27477   1.25357    7.845
 5288.00    1.25971   1.25183    7.938
 5289.00    1.24680   1.24845    8.021
 5290.00    1.23858   1.24394    8.074
 5291.00    1.23467   1.23882    8.099
 5292.00    1.23316   1.23381    8.109
 5293.00    1.23255   1.22945    8.113
 5294.00    1.23199   1.22643    8.117
 5295.00    1.23125   1.22497    8.122
 5296.00    1.23078   1.22549    8.125
 5297.00    1.23171   1.22772    8.119
 5298.00    1.23530   1.23171    8.095
 5299.00    1.24170   1.23686    8.053
 5300.00    1.24951   1.24286    8.003
 5301.00    1.25636   1.24908    7.960
 5302.00    1.26068   1.25508    7.932
 5303.00    1.26251   1.26041    7.921
 5304.00    1.26332   1.26471    7.916
 5305.00    1.26500   1.26779    7.905
 5306.00    1.26927   1.26947    7.879
 5307.00    1.27755   1.26979    7.828
 5308.00    1.28968   1.26876    7.754
 5309.00    1.30295   1.26656    7.675
 5310.00    1.31226   1.26322    7.620
 5311.00    1.31306   1.25902    7.616
 5312.00    1.30464   1.25387    7.665
 5313.00    1.29046   1.24809    7.749
 5314.00    1.27586   1.24130    7.838
 5315.00    1.26453   1.23415    7.908
 5316.00    1.25798   1.22602    7.949
 5317.00    1.25574   1.21774    7.963
 5318.00    1.25589   1.20872    7.963
 5319.00    1.25521   1.20006    7.967
 5320.00    1.25003   1.19151    8.000
 5321.00    1.23879   1.18412    8.072
 5322.00    1.22300   1.17795    8.177
 5323.00    1.20662   1.17361    8.288
 5324.00    1.19312   1.17151    8.381
 5325.00    1.18403   1.17137    8.446
 5326.00    1.17907   1.17354    8.481
 5327.00    1.17727   1.17714    8.494
 5328.00    1.17776   1.18238    8.491
 5329.00    1.17977   1.18794    8.476
 5330.00    1.18292   1.19392    8.454
 5331.00    1.18744   1.19923    8.421
 5332.00    1.19409   1.20402    8.375
 5333.00    1.20348   1.20779    8.309
 5334.00    1.21507   1.21071    8.230
 5335.00    1.22704   1.21284    8.150
 5336.00    1.23719   1.21444    8.083
 5337.00    1.24460   1.21585    8.035
 5338.00    1.24994   1.21721    8.000
 5339.00    1.25476   1.21897    7.970
 5340.00    1.25950   1.22110    7.940
 5341.00    1.26294   1.22400    7.918
 5342.00    1.26289   1.22755    7.918
 5343.00    1.25894   1.23204    7.943
 5344.00    1.25368   1.23725    7.977
 5345.00    1.25200   1.24330    7.987
 5346.00    1.25721   1.24994    7.954
 5347.00    1.26876   1.25701    7.882
 5348.00    1.28249   1.26415    7.797
 5349.00    1.29399   1.27106    7.728
 5350.00    1.30139   1.27719    7.684
 5351.00    1.30543   1.28235    7.660
 5352.00    1.30793   1.28595    7.646
 5353.00    1.31004   1.28781    7.633
 5354.00    1.31200   1.28776    7.622
 5355.00    1.31333   1.28563    7.614
 5356.00    1.31312   1.28173    7.615
 5357.00    1.31008   1.27591    7.633
 5358.00    1.30322   1.26889    7.673
 5359.00    1.29345   1.26069    7.731
 5360.00    1.28393   1.25232    7.789
 5361.00    1.27885   1.24403    7.820
 5362.00    1.27933   1.23629    7.817
 5363.00    1.28193   1.22979    7.801
 5364.00    1.28003   1.22448    7.812
 5365.00    1.27027   1.22130    7.872
 5366.00    1.25589   1.21970    7.962
 5367.00    1.24577   1.22043    8.027
 5368.00    1.24723   1.22251    8.018
 5369.00    1.26082   1.22634    7.931
 5370.00    1.28053   1.23098    7.809
 5371.00    1.29898   1.23618    7.698
 5372.00    1.31271   1.24151    7.618
 5373.00    1.32246   1.24636    7.562
 5374.00    1.33023   1.25064    7.518
 5375.00    1.33522   1.25385    7.489
 5376.00    1.33335   1.25615    7.500
 5377.00    1.32094   1.25724   -2.000
 5378.00    1.30200   1.25739   -2.000
 5379.00    1.28965   1.25657   -2.000
 5380.00    1.30046   1.25482   -2.000
 5381.00    1.33847   1.25237   -2.000
 5382.00    1.39040   1.24902   -2.000
 5383.00    1.43061   1.24515   -2.000
 5384.00    1.44152   1.24040   -2.000
 5385.00    1.42245   1.23522   -2.000
 5386.00    1.38736   1.22951   -2.000
 5387.00    1.35033   1.22352   -2.000
 5388.00    1.31668   1.21763   -2.000
 5389.00    1.28337   1.21177   -2.000
 5390.00    1.24660   1.20633   -2.000
 5391.00    1.20835   1.20101   -2.000
 5392.00    1.17645   1.19644    8.500
 5393.00    1.15896   1.19194    8.628
 5394.00    1.15735   1.18796    8.640
 5395.00    1.16593   1.18415    8.577
 5396.00    1.17594   1.18071    8.504
 5397.00    1.18246   1.17767    8.457
 5398.00    1.18564   1.17479    8.434
 5399.00    1.18870   1.17243    8.413
 5400.00    1.19336   1.17041    8.380
 5401.00    1.19864   1.16977    8.343
 5402.00    1.20180   1.16998    8.321
 5403.00    1.20157   1.17171    8.322
 5404.00    1.19939   1.17457    8.338
 5405.00    1.19885   1.17892    8.341
 5406.00    1.20300   1.18464    8.313
 5407.00    1.21295   1.19129    8.244
 5408.00    1.22787   1.19865    8.144
 5409.00    1.24574   1.20603    8.027
 5410.00    1.26388   1.21343    7.912
 5411.00    1.27906   1.22010    7.818
 5412.00    1.28863   1.22627    7.760
 5413.00    1.29168   1.23102    7.742
 5414.00    1.28906   1.23449    7.758
 5415.00    1.28283   1.23694    7.795
 5416.00    1.27526   1.23830    7.842
 5417.00    1.26874   1.23860    7.882
 5418.00    1.26530   1.23767    7.903
 5419.00    1.26567   1.23562    7.901
 5420.00    1.26909   1.23303    7.880
 5421.00    1.27370   1.23036    7.851
 5422.00    1.27762   1.22695    7.827
 5423.00    1.27935   1.22358    7.816
 5424.00    1.27786   1.22007    7.826
 5425.00    1.27308   1.21717    7.855
 5426.00    1.26620   1.21489    7.898
 5427.00    1.25942   1.21361    7.940
 5428.00    1.25478   1.21366    7.969
 5429.00    1.25344   1.21476    7.978
 5430.00    1.25562   1.21750    7.964
 5431.00    1.26078   1.22095    7.932
 5432.00    1.26781   1.22567    7.888
 5433.00    1.27504   1.23049    7.843
 5434.00    1.28075   1.23548    7.808
 5435.00    1.28372   1.23980    7.790
 5436.00    1.28331   1.24306    7.792
 5437.00    1.27958   1.24513    7.815
 5438.00    1.27338   1.24610    7.853
 5439.00    1.26637   1.24579    7.897
 5440.00    1.26049   1.24467    7.933
 5441.00    1.25655   1.24257    7.958
 5442.00    1.25395   1.24009    7.975
 5443.00    1.25109   1.23719    7.993
 5444.00    1.24724   1.23451    8.018
 5445.00    1.24324   1.23174    8.043
 5446.00    1.24108   1.22950    8.057
 5447.00    1.24203   1.22765    8.051
 5448.00    1.24555   1.22628    8.029
 5449.00    1.24951   1.22572    8.003
 5450.00    1.25207   1.22514    7.987
 5451.00    1.25306   1.22519    7.980
 5452.00    1.25396   1.22502    7.975
 5453.00    1.25638   1.22537    7.959
 5454.00    1.26034   1.22573    7.934
 5455.00    1.26428   1.22629    7.910
 5456.00    1.26632   1.22706    7.897
 5457.00    1.26629   1.22785    7.897
 5458.00    1.26605   1.22853    7.899
 5459.00    1.26823   1.22891    7.885
 5460.00    1.27376   1.22927    7.851
 5461.00    1.28122   1.22906    7.805
 5462.00    1.28771   1.22848    7.766
 5463.00    1.29109   1.22718    7.745
 5464.00    1.29078   1.22555    7.747
 5465.00    1.28759   1.22292    7.766
 5466.00    1.28295   1.21969    7.795
 5467.00    1.27855   1.21610    7.821
 5468.00    1.27622   1.21176    7.836
 5469.00    1.27668   1.20762    7.833
 5470.00    1.27886   1.20402    7.819
 5471.00    1.27996   1.20102    7.813
 5472.00    1.27723   1.19860    7.829
 5473.00    1.26944   1.19685    7.877
 5474.00    1.25702   1.19668    7.955
 5475.00    1.24186   1.19755    8.052
 5476.00    1.22699   1.19966    8.150
 5477.00    1.21651   1.20252    8.220
 5478.00    1.21381   1.20591    8.239
 5479.00    1.21832   1.20950    8.208
 5480.00    1.22498   1.21316    8.163
 5481.00    1.22685   1.21724    8.151
 5482.00    1.22176   1.22055    8.185
 5483.00    1.21416   1.22379    8.236
 5484.00    1.21197   1.22636    8.251
 5485.00    1.21501   1.22840    8.230
 5486.00    1.21046   1.22996    8.261
 5487.00    1.17608   1.23112   -2.000
 5488.00    1.09815   1.23179   -2.000
 5489.00    0.98152   1.23164   -2.000
 5490.00    0.84961   1.23159   -2.000
 5491.00    0.74085   1.23138   -2.000
 5492.00    0.70608   1.23051   -2.000
 5493.00    0.80522   1.22899   -2.000
 5494.00    1.06892   1.22719   -2.000
 5495.00    1.45615   1.22553   -2.000
 5496.00    1.85265   1.22350   -2.000
 5497.00    2.12823   1.22146   -2.000
 5498.00    2.22560   1.21869   -2.000
 5499.00    2.17344   1.21646   -2.000
 5500.00    2.05067   1.21455   -2.000
 5501.00    1.90860   1.21253   -2.000
 5502.00    1.75293   1.21097   -2.000
 5503.00    1.56046   1.20958   -2.000
 5504.00    1.33134   1.20853   -2.000
 5505.00    1.10666   1.20815   -2.000
 5506.00    0.95597   1.20859   -2.000
 5507.00    0.92033   1.20964   -2.000
 5508.00    0.98492   1.21149   -2.000
 5509.00    1.08603   1.21387   -2.000
 5510.00    1.16298   1.21724   -2.000
 5511.00    1.19319   1.22068    8.381
 5512.00    1.19151   1.22440    8.393
 5513.00    1.18469   1.22784    8.441
 5514.00    1.18713   1.23104    8.424
 5515.00    1.19929   1.23368    8.338
 5516.00    1.21449   1.23543    8.234
 5517.00    1.22798   1.23618    8.143
 5518.00    1.23814   1.23586    8.077
 5519.00    1.24545   1.23474    8.029
 5520.00    1.25071   1.23262    7.995
 5521.00    1.25472   1.23073    7.970
 5522.00    1.25808   1.22864    7.949
 5523.00    1.26080   1.22689    7.931
 5524.00    1.26222   1.22543    7.923
 5525.00    1.26128   1.22448    7.928
 5526.00    1.25781   1.22423    7.950
 5527.00    1.25299   1.22435    7.981
 5528.00    1.24905   1.22568    8.006
 5529.00    1.24713   1.22729    8.018
 5530.00    1.24618   1.22958    8.025
 5531.00    1.24324   1.23225    8.044
 5532.00    1.23676   1.23505    8.086
 5533.00    1.22932   1.23809    8.135
 5534.00    1.22740   1.24090    8.147
 5535.00    1.23637   1.24365    8.088
 5536.00    1.25470   1.24616    7.970
 5537.00    1.27362   1.24859    7.852
 5538.00    1.28274   1.25072    7.796
 5539.00    1.27900   1.25288    7.819
 5540.00    1.26804   1.25495    7.886
 5541.00    1.26000   1.25685    7.937
 5542.00    1.25991   1.25873    7.937
 5543.00    1.26544   1.26023    7.902
 5544.00    1.26931   1.26143    7.878
 5545.00    1.26699   1.26225    7.893
 5546.00    1.25939   1.26248    7.940
 5547.00    1.25176   1.26246    7.989
 5548.00    1.24794   1.26181    8.013
 5549.00    1.24759   1.26090    8.015
 5550.00    1.24671   1.25945    8.021
 5551.00    1.24185   1.25773    8.053
 5552.00    1.23308   1.25548    8.110
 5553.00    1.22384   1.25307    8.171
 5554.00    1.21777   1.25027    8.212
 5555.00    1.21566   1.24718    8.226
 5556.00    1.21531   1.24419    8.228
 5557.00    1.21360   1.24078    8.240
 5558.00    1.20939   1.23783    8.269
 5559.00    1.20389   1.23473    8.306
 5560.00    1.19953   1.23197    8.337
 5561.00    1.19782   1.22947    8.349
 5562.00    1.19890   1.22739    8.341
 5563.00    1.20198   1.22594    8.320
 5564.00    1.20649   1.22457    8.289
 5565.00    1.21238   1.22428    8.248
 5566.00    1.21996   1.22413    8.197
 5567.00    1.22891   1.22440    8.137
 5568.00    1.23794   1.22546    8.078
 5569.00    1.24511   1.22672    8.031
 5570.00    1.24951   1.22780    8.003
 5571.00    1.25239   1.22894    7.985
 5572.00    1.25684   1.22986    7.956
 5573.00    1.26499   1.22994    7.905
 5574.00    1.27568   1.22949    7.839
 5575.00    1.28444   1.22809    7.786
 5576.00    1.28637   1.22554    7.774
 5577.00    1.27948   1.22232    7.816
 5578.00    1.26497   1.21791    7.905
 5579.00    1.24652   1.21280    8.022
 5580.00    1.22894   1.20721    8.137
 5581.00    1.21794   1.20125    8.211
 5582.00    1.21834   1.19622    8.208
 5583.00    1.22993   1.19164    8.131
 5584.00    1.24647   1.18820    8.023
 5585.00    1.25799   1.18597    7.949
 5586.00    1.25862   1.18437    7.945
 5587.00    1.24934   1.18416    8.004
 5588.00    1.23671   1.18461    8.086
 5589.00    1.22648   1.18624    8.153
 5590.00    1.22028   1.18858    8.195
 5591.00    1.21601   1.19099    8.224
 5592.00    1.21135   1.19329    8.255
 5593.00    1.20628   1.19601    8.290
 5594.00    1.20305   1.19945    8.312
 5595.00    1.20378   1.20246    8.307
 5596.00    1.20815   1.20654    8.277
 5597.00    1.21329   1.21047    8.242
 5598.00    1.21629   1.21583    8.222
 5599.00    1.21773   1.22097    8.212
 5600.00    1.22209   1.22641    8.183
 5601.00    1.23473   1.23157    8.099
 5602.00    1.25591   1.23607    7.962
 5603.00    1.27953   1.23995    7.815
 5604.00    1.29608   1.24269    7.716
 5605.00    1.30100   1.24461    7.686
 5606.00    1.29716   1.24497    7.709
 5607.00    1.29287   1.24399    7.735
 5608.00    1.29323   1.24163    7.733
 5609.00    1.29644   1.23780    7.713
 5610.00    1.29499   1.23432    7.722
 5611.00    1.28336   1.23130    7.792
 5612.00    1.26288   1.22790    7.918
 5613.00    1.24121   1.22474    8.057
 5614.00    1.22622   1.22205    8.155
 5615.00    1.22062   1.22048    8.193
 5616.00    1.22178   1.21941    8.185
 5617.00    1.22503   1.21896    8.163
 5618.00    1.22754   1.21860    8.146
 5619.00    1.22883   1.21916    8.138
 5620.00    1.22986   1.22095    8.131
 5621.00    1.23161   1.22312    8.119
 5622.00    1.23480   1.22565    8.098
 5623.00    1.23965   1.22839    8.067
 5624.00    1.24533   1.23085    8.030
 5625.00    1.24982   1.23300    8.001
 5626.00    1.25060   1.23466    7.996
 5627.00    1.24703   1.23578    8.019
 5628.00    1.24129   1.23610    8.056
 5629.00    1.23764   1.23590    8.080
 5630.00    1.23898   1.23509    8.071
 5631.00    1.24499   1.23389    8.032
 5632.00    1.25246   1.23249    7.984
 5633.00    1.25830   1.23116    7.947
 5634.00    1.26178   1.22979    7.925
 5635.00    1.26448   1.22820    7.908
 5636.00    1.26799   1.22744    7.886
 5637.00    1.27160   1.22722    7.864
 5638.00    1.27215   1.22721    7.861
 5639.00    1.26672   1.22788    7.894
 5640.00    1.25639   1.22859    7.959
 5641.00    1.24678   1.22967    8.021
 5642.00    1.24475   1.23045    8.034
 5643.00    1.25170   1.23101    7.989
 5644.00    1.26216   1.23103    7.923
 5645.00    1.26672   1.23091    7.894
 5646.00    1.26080   1.22993    7.931
 5647.00    1.24745   1.22825    8.016
 5648.00    1.23534   1.22567    8.095
 5649.00    1.23062   1.22232    8.126
 5650.00    1.23316   1.21926    8.109
 5651.00    1.23735   1.21553    8.082
 5652.00    1.23789   1.21110    8.078
 5653.00    1.23342   1.20780    8.108
 5654.00    1.22643   1.20593    8.154
 5655.00    1.22011   1.20422    8.196
 5656.00    1.21568   1.20322    8.226
 5657.00    1.21221   1.20333    8.249
 5658.00    1.20845   1.20485    8.275
 5659.00    1.20498   1.20699    8.299
 5660.00    1.20446   1.20992    8.302
 5661.00    1.20984   1.21319    8.266
 5662.00    1.22132   1.21715    8.188
 5663.00    1.23582   1.22127    8.092
 5664.00    1.24839   1.22585    8.010
 5665.00    1.25580   1.23064    7.963
 5666.00    1.25751   1.23523    7.952
 5667.00    1.25511   1.23923    7.967
 5668.00    1.25039   1.24279    7.998
 5669.00    1.24458   1.24550    8.035
 5670.00    1.23852   1.24771    8.074
 5671.00    1.23346   1.24897    8.107
 5672.00    1.23154   1.24907    8.120
 5673.00    1.23551   1.24849    8.094
 5674.00    1.24614   1.24710    8.025
 5675.00    1.26031   1.24534    7.935
 5676.00    1.27125   1.24239    7.866
 5677.00    1.27319   1.23974    7.854
 5678.00    1.26633   1.23712    7.897
 5679.00    1.25711   1.23487    7.955
 5680.00    1.25347   1.23296    7.978
 5681.00    1.25763   1.23137    7.951
 5682.00    1.26507   1.23090    7.905
 5683.00    1.26850   1.23072    7.883
 5684.00    1.26608   1.23185    7.898
 5685.00    1.26330   1.23292    7.916
 5686.00    1.26958   1.23477    7.877
 5687.00    1.28779   1.23620    7.765
 5688.00    1.31088   1.23734    7.628
 5689.00    1.32476   1.23838    7.549
 5690.00    1.32112   1.23840    7.569
 5691.00    1.30346   1.23804    7.672
 5692.00    1.28531   1.23601    7.780
 5693.00    1.27760   1.23398    7.827
 5694.00    1.28032   1.23069    7.811
 5695.00    1.28309   1.22688    7.794
 5696.00    1.27503   1.22267    7.843
 5697.00    1.25389   1.21812    7.975
 5698.00    1.22643   1.21394    8.154
 5699.00    1.20256   1.20944    8.316
 5700.00    1.18774   1.20536    8.419
 5701.00    1.18210   1.20164    8.459
 5702.00    1.18256   1.19882    8.456
 5703.00    1.18657   1.19649    8.428
 5704.00    1.19288   1.19616    8.383
 5705.00    1.20111   1.19669    8.326
 5706.00    1.21060   1.19862    8.260
 5707.00    1.22015   1.20251    8.196
 5708.00    1.22837   1.20702    8.141
 5709.00    1.23512   1.21285    8.096
 5710.00    1.24208   1.21916    8.051
 5711.00    1.25218   1.22575    7.986
 5712.00    1.26634   1.23239    7.897
 5713.00    1.28168   1.23931    7.802
 5714.00    1.29206   1.24558    7.740
 5715.00    1.29297   1.25147    7.734
 5716.00    1.28553   1.25664    7.779
 5717.00    1.27631   1.26072    7.835
 5718.00    1.27228   1.26402    7.860
 5719.00    1.27515   1.26639    7.842
 5720.00    1.28100   1.26773    7.806
 5721.00    1.28406   1.26813    7.788
 5722.00    1.28274   1.26851    7.796
 5723.00    1.28045   1.26824    7.810
 5724.00    1.28281   1.26808    7.795
 5725.00    1.29140   1.26753    7.744
 5726.00    1.30228   1.26700    7.679
 5727.00    1.30819   1.26673    7.644
 5728.00    1.30533   1.26642    7.661
 5729.00    1.29564   1.26672    7.718
 5730.00    1.28564   1.26663    7.778
 5731.00    1.28078   1.26686    7.808
 5732.00    1.28272   1.26684    7.796
 5733.00    1.28957   1.26684    7.754
 5734.00    1.29806   1.26690    7.704
 5735.00    1.30496   1.26659    7.663
 5736.00    1.30734   1.26635    7.649
 5737.00    1.30399   1.26560    7.669
 5738.00    1.29682   1.26505    7.711
 5739.00    1.29081   1.26399    7.747
 5740.00    1.29075   1.26288    0.000
 5741.00    1.29693   1.26140    0.000
 5742.00    1.30471   1.25957    0.000
 5743.00    1.30774   1.25799    0.000
 5744.00    1.30414   1.25611    0.000
 5745.00    1.29760   1.25471    0.000
 5746.00    1.29488   1.25302    0.000
 5747.00    1.29897   1.25131    0.000
 5748.00    1.30712   1.24956    0.000
 5749.00    1.31256   1.24841    0.000
 5750.00    1.31115   1.24783    0.000
 5751.00    1.30411   1.24773    0.000
 5752.00    1.29713   1.24824    0.000
 5753.00    1.29475   1.24848    0.000
 5754.00    1.29708   1.24911    0.000
 5755.00    1.30018   1.24963    0.000
 5756.00    1.30029   1.25035    0.000
 5757.00    1.29728   1.25116    0.000
 5758.00    1.29462   1.25291    0.000
 5759.00    1.29607   1.25461    0.000
 5760.00    1.30177   1.25695    0.000
 5761.00    1.30798   1.25897    0.000
 5762.00    1.31013   1.26039    0.000
 5763.00    1.30768   1.26159    0.000
 5764.00    1.30488   1.26220    0.000
 5765.00    1.30800   1.26246    0.000
 5766.00    1.31891   1.26178    0.000
 5767.00    1.33356   1.26090    0.000
 5768.00    1.34398   1.25886    0.000
 5769.00    1.34469   1.25640    0.000
 5770.00    1.33503   1.25341    0.000
 5771.00    1.31841   1.24944    0.000
 5772.00    1.29877   1.24525    0.000
 5773.00    1.27875   1.24066    0.000
 5774.00    1.25987   1.23590    0.000
 5775.00    1.24375   1.23086    0.000
 5776.00    1.23301   1.22647    0.000
 5777.00    1.23107   1.22239    0.000
 5778.00    1.23942   1.21951    0.000
 5779.00    1.25496   1.21776    0.000
 5780.00    1.27001   1.21695    0.000
 5781.00    1.27690   1.21725    0.000
 5782.00    1.27428   1.21852    0.000
 5783.00    1.26785   1.22132    0.000
 5784.00    1.26620   1.22391    0.000
 5785.00    1.27273   1.22736    0.000
 5786.00    1.28401   1.23142    0.000
 5787.00    1.29241   1.23532    0.000
 5788.00    1.29335   1.23998    0.000
 5789.00    1.28751   1.24428    0.000
 5790.00    1.27971   1.24850    0.000
 5791.00    1.27450   1.25197    0.000
 5792.00    1.27425   1.25513    0.000
 5793.00    1.27915   1.25779    0.000
 5794.00    1.28746   1.26002    0.000
 5795.00    1.29560   1.26261    0.000
 5796.00    1.29859   1.26466    0.000
 5797.00    1.29361   1.26616    0.000
 5798.00    1.28304   1.26710    0.000
 5799.00    1.27429   1.26773    0.000
 5800.00    1.27451   1.26762    0.000
 5801.00    1.28426   1.26779   -2.000
 5802.00    1.29707   1.26790   -2.000
 5803.00    1.30417   1.26806   -2.000
 5804.00    1.30257   1.26828   -2.000
 5805.00    1.29634   1.26852   -2.000
 5806.00    1.29345   1.26878   -2.000
 5807.00    1.29816   1.26906   -2.000
 5808.00    1.30916   1.26944   -2.000
 5809.00    1.32110   1.26993   -2.000
 5810.00    1.32974   1.27058   -2.000
 5811.00    1.33384   1.27148   -2.000
 5812.00    1.33468   1.27267   -2.000
 5813.00    1.33362   1.27417   -2.000
 5814.00    1.33082   1.27625   -2.000
 5815.00    1.32544   1.27791   -2.000
 5816.00    1.31765   1.27961   -2.000
 5817.00    1.31006   1.28115   -2.000
 5818.00    1.30745   1.28248   -2.000
 5819.00    1.31302   1.28378   -2.000
 5820.00    1.32450   1.28491    0.000
 5821.00    1.33408   1.28610    0.000
 5822.00    1.33344   1.28669    0.000
 5823.00    1.32085   1.28723    0.000
 5824.00    1.30215   1.28737    0.000
 5825.00    1.28665   1.28722    0.000
 5826.00    1.27902   1.28708    0.000
 5827.00    1.27760   1.28660    0.000
 5828.00    1.27658   1.28629    0.000
 5829.00    1.27222   1.28583    0.000
 5830.00    1.26482   1.28540    0.000
 5831.00    1.25790   1.28488    0.000
 5832.00    1.25484   1.28459    0.000
 5833.00    1.25743   1.28437    0.000
 5834.00    1.26578   1.28350    0.000
 5835.00    1.27829   1.28305    0.000
 5836.00    1.29159   1.28238    0.000
 5837.00    1.30092   1.28154    0.000
 5838.00    1.30325   1.28003    0.000
 5839.00    1.30007   1.27816    0.000
 5840.00    1.29725   1.27561    0.000
 5841.00    1.30056   1.27244    0.000
 5842.00    1.31009   1.26905    0.000
 5843.00    1.31973   1.26509    0.000
 5844.00    1.32127   1.26092    0.000
 5845.00    1.31126   1.25656    0.000
 5846.00    1.29229   1.25199    0.000
 5847.00    1.27103   1.24720    0.000
 5848.00    1.25372   1.24277    0.000
 5849.00    1.24490   1.23817    0.000
 5850.00    1.24676   1.23483    0.000
 5851.00    1.25668   1.23209    0.000
 5852.00    1.26637   1.22999    0.000
 5853.00    1.26378   1.22803    0.000
 5854.00    1.24271   1.22712    0.000
 5855.00    1.20810   1.22807    0.000
 5856.00    1.17460   1.22892    0.000
 5857.00    1.15511   1.23118    0.000
 5858.00    1.15207   1.23320    0.000
 5859.00    1.15777   1.23568    0.000
 5860.00    1.16380   1.23856    0.000
 5861.00    1.17107   1.24133    0.000
 5862.00    1.19030   1.24412    0.000
 5863.00    1.23281   1.24630    0.000
 5864.00    1.29698   1.24906    0.000
 5865.00    1.36646   1.25087    0.000
 5866.00    1.41846   1.25198    0.000
 5867.00    1.44094   1.25249    0.000
 5868.00    1.43641   1.25206    0.000
 5869.00    1.41763   1.25080    0.000
 5870.00    1.39506   1.24883    0.000
 5871.00    1.37277   1.24636    0.000
 5872.00    1.34972   1.24252    0.000
 5873.00    1.32510   1.23778    0.000
 5874.00    1.30091   1.23187    0.000
 5875.00    1.28124   1.22470    0.000
 5876.00    1.26813   1.21553    0.000
 5877.00    1.25873   1.20528    0.000
 5878.00    1.24582   1.19388    0.000
 5879.00    1.22315   1.18070    0.000
 5880.00    1.19030   1.16747    0.000
 5881.00    1.15286   1.15377    0.000
 5882.00    1.11802   1.13952    0.000
 5883.00    1.08912   1.12476    0.000
 5884.00    1.06505   1.10993    0.000
 5885.00    1.04277   1.09552    0.000
 5886.00    1.02180   1.08385    0.000
 5887.00    1.00494   1.07842    0.000
 5888.00    0.99655   1.07623    0.000
 5889.00    0.99800   1.07511    0.000
 5890.00    1.00648   1.07703    0.000
 5891.00    1.01644   1.08007    0.000
 5892.00    1.02512   1.08498    0.000
 5893.00    1.03464   1.09610    0.000
 5894.00    1.05089   1.11002    0.000
 5895.00    1.07747   1.12389    0.000
 5896.00    1.11237   1.13770    0.000
 5897.00    1.14846   1.15161    0.000
 5898.00    1.17906   1.16415    0.000
 5899.00    1.20211   1.17545    0.000
 5900.00    1.22022   1.18711    0.000
 5901.00    1.23702   1.19687    8.084
 5902.00    1.25332   1.20489    7.979
 5903.00    1.26678   1.21121    7.894
 5904.00    1.27397   1.21669    7.850
 5905.00    1.27341   1.22014    7.853
 5906.00    1.26607   1.22285    7.898
 5907.00    1.25472   1.22515    7.970
 5908.00    1.24256   1.22630    8.048
 5909.00    1.23284   1.22716    8.111
 5910.00    1.22829   1.22693    8.141
 5911.00    1.22900   1.22783    8.137
 5912.00    1.23184   1.22837    8.118
 5913.00    1.23158   1.22952    8.120
 5914.00    1.22642   1.23084    8.154
 5915.00    1.22046   1.23170    8.194
 5916.00    1.22253   1.23288    8.180
 5917.00    1.23744   1.23341    8.081
 5918.00    1.26029   1.23404    7.935
 5919.00    1.27717   1.23467    7.830
 5920.00    1.27610   1.23576    7.836
 5921.00    1.25716   1.23642    7.954
 5922.00    1.23274   1.23693    8.112
 5923.00    1.21806   1.23670    8.210
 5924.00    1.21886   1.23622    8.204
 5925.00    1.22996   1.23613    8.130
 5926.00    1.24092   1.23561    8.059
 5927.00    1.24645   1.23629    8.023
 5928.00    1.24832   1.23706    8.011
 5929.00    1.25245   1.23724    7.984
 5930.00    1.26109   1.23683    7.930
 5931.00    1.27071   1.23666    7.870
 5932.00    1.27413   1.23765    7.848
 5933.00    1.26885   1.23825    7.881
 5934.00    1.26033   1.23884    7.934
 5935.00    1.26005   1.23964    7.936
 5936.00    1.27429   1.23958    7.848
 5937.00    1.29779   1.23882    7.705
 5938.00    1.31506   1.23832    7.604
 5939.00    1.31369   1.23859    7.612
 5940.00    1.29488   1.23858    7.723
 5941.00    1.27331   1.23812    7.854
 5942.00    1.26526   1.23741    7.904
 5943.00    1.27523   1.23670    7.842
 5944.00    1.29495   1.23560    7.722
 5945.00    1.31053   1.23435    7.630
 5946.00    1.31396   1.23427    7.611
 5947.00    1.30482   1.23443    7.664
 5948.00    1.28815   1.23421    7.763
 5949.00    1.26959   1.23404    7.877
 5950.00    1.25423   1.23502    7.973
 5951.00    1.24592   1.23629    8.026
 5952.00    1.24529   1.23702    8.030
 5953.00    1.24901   1.23855    8.006
 5954.00    1.25106   1.24039    7.993
 5955.00    1.24869   1.24230    8.008
 5956.00    1.24523   1.24460    8.031
 5957.00    1.24905   1.24692    8.006
 5958.00    1.26547   1.24927    7.902
 5959.00    1.29115   1.25087    7.745
 5960.00    1.31471   1.25259    7.606
 5961.00    1.32527   1.25386    7.546
 5962.00    1.32085   1.25471    7.571
 5963.00    1.30868   1.25591    7.641
 5964.00    1.29876   1.25620    7.700
 5965.00    1.29514   1.25597    7.721
 5966.00    1.29489   1.25521    7.723
 5967.00    1.29195   1.25425    7.740
 5968.00    1.28455   1.25276    7.785
 5969.00    1.27660   1.25113    7.833
 5970.00    1.27504   1.24928    7.843
 5971.00    1.28261   1.24691    7.797
 5972.00    1.29577   1.24406    7.717
 5973.00    1.30653   1.24104    7.654
 5974.00    1.30952   1.23892    7.636
 5975.00    1.30501   1.23686    7.663
 5976.00    1.29806   1.23545    7.704
 5977.00    1.29348   1.23398    7.731
 5978.00    1.29284   1.23258    7.735
 5979.00    1.29459   1.23141    7.724
 5980.00    1.29584   1.22983    7.717
 5981.00    1.29386   1.22991    7.729
 5982.00    1.28626   1.23088    7.774
 5983.00    1.27209   1.23171    7.861
 5984.00    1.25302   1.23278    7.981
 5985.00    1.23346   1.23359    8.107
 5986.00    1.21888   1.23438    8.204
 5987.00    1.21319   1.23448    8.243
 5988.00    1.21824   1.23514    8.209
 5989.00    1.23374   1.23643    8.105
 5990.00    1.25690   1.23700    7.956
 5991.00    1.28234   1.23681    7.798
 5992.00    1.30340   1.23602    7.672
 5993.00    1.31617   1.23514    7.598
 5994.00    1.32090   1.23370    7.571
 5995.00    1.32130   1.23271    7.568
 5996.00    1.32058   1.23158    7.572
 5997.00    1.31957   1.22997    7.578
 5998.00    1.31689   1.22826    7.594
 5999.00    1.31132   1.22618    7.626
 6000.00    1.30333   1.22516    7.673
 6001.00    1.29508   1.22384    7.722
 6002.00    1.28889   1.22219    7.759
 6003.00    1.28571   1.22105    7.778
 6004.00    1.28502   1.21921    7.782
 6005.00    1.28552   1.21842    7.779
 6006.00    1.28605   1.21813    7.776
 6007.00    1.28576   1.21782    7.777
 6008.00    1.28398   1.21721    7.788
 6009.00    1.28010   1.21585    7.812
 6010.00    1.27352   1.21543    7.852
 6011.00    1.26415   1.21516    7.910
 6012.00    1.25365   1.21513    7.977
 6013.00    1.24582   1.21541    8.027
 6014.00    1.24555   1.21645    8.029
 6015.00    1.25457   1.21692    7.971
 6016.00    1.26957   1.21737    7.877
 6017.00    1.28316   1.21927    7.793
 6018.00    1.28966   1.22133    7.754
 6019.00    1.28859   1.22417    7.760
 6020.00    1.28439   1.22653    7.786
 6021.00    1.28211   1.23025    7.800
 6022.00    1.28383   1.23382    7.789
 6023.00    1.28853   1.23656    7.761
 6024.00    1.29400   1.24053    7.728
 6025.00    1.29926   1.24400    7.697
 6026.00    1.30475   1.24740    7.664
 6027.00    1.31126   1.25021    7.626
 6028.00    1.31812   1.25300    7.587
 6029.00    1.32293   1.25559    7.559
 6030.00    1.32261   1.25719    7.561
 6031.00    1.31603   1.25866    7.599
 6032.00    1.30468   1.26026    7.665
 6033.00    1.29202   1.26112    7.740
 6034.00    1.28158   1.26207    7.803
 6035.00    1.27613   1.26270    7.836
 6036.00    1.27751   1.26310    7.828
 6037.00    1.28563   1.26356    7.778
 6038.00    1.29788   1.26349    7.705
 6039.00    1.30958   1.26423    7.636
 6040.00    1.31713   1.26441    7.592
 6041.00    1.32027   1.26455    7.574
 6042.00    1.32206   1.26435    7.564
 6043.00    1.32595   1.26396    7.542
 6044.00    1.33293   1.26344    7.502
 6045.00    1.34136   1.26227    7.455
 6046.00    1.34865   1.26166    7.415
 6047.00    1.35376   1.26039    7.387
 6048.00    1.35756   1.25907    7.366
 6049.00    1.36142   1.25725    7.345
 6050.00    1.36443   1.25581    7.329
 6051.00    1.36283   1.25446    7.338
 6052.00    1.35188   1.25259    7.397
 6053.00    1.33135   1.25161    7.511
 6054.00    1.30717   1.25014    7.650
 6055.00    1.28952   1.24952    7.755
 6056.00    1.28465   1.24873    7.784
 6057.00    1.29123   1.24859    7.745
 6058.00    1.30147   1.24923    7.684
 6059.00    1.30835   1.24928    7.643
 6060.00    1.31017   1.25030    7.633
 6061.00    1.31038   1.25071    7.631
 6062.00    1.31348   1.25214    7.613
 6063.00    1.32152   1.25444    7.567
 6064.00    1.33380   1.25612    7.497
 6065.00    1.34740   1.25786    7.422
 6066.00    1.35773   1.25871    7.365
 6067.00    1.35874   1.25919    7.360
 6068.00    1.34546   1.25928    7.432
 6069.00    1.31857   1.25879    7.584
 6070.00    1.28507   1.25837    7.782
 6071.00    1.25549   1.25718    7.965
 6072.00    1.23669   1.25500    8.086
 6073.00    1.23010   1.25237    8.129
 6074.00    1.23269   1.24924    8.112
 6075.00    1.24079   1.24654    8.059
 6076.00    1.25149   1.24412    7.991
 6077.00    1.26263   1.24163    7.920
 6078.00    1.27254   1.23916    7.858
 6079.00    1.27987   1.23729    7.813
 6080.00    1.28368   1.23567    7.790
 6081.00    1.28390   1.23385    7.789
 6082.00    1.28171   1.23296    7.802
 6083.00    1.27948   1.23277    7.816
 6084.00    1.27927   1.23283    7.817
 6085.00    1.28131   1.23251    7.805
 6086.00    1.28391   1.23211    7.789
 6087.00    1.28491   1.23212    7.783
 6088.00    1.28385   1.23204    7.789
 6089.00    1.28218   1.23199    7.799
 6090.00    1.28195   1.23223    7.801
 6091.00    1.28282   1.23206    7.795
 6092.00    1.28143   1.23114    7.804
 6093.00    1.27318   1.22937    7.854
 6094.00    1.25742   1.22792    7.953
 6095.00    1.23917   1.22799    8.070
 6096.00    1.22734   1.22754    8.148
 6097.00    1.22728   1.22700    8.148
 6098.00    1.23728   1.22579    8.082
 6099.00    1.24951   1.22452    8.003
 6100.00    1.25681   1.22556    7.957
 6101.00    1.25707   1.22667    7.955
 6102.00    1.25309   1.22820    7.980
 6103.00    1.24890   1.22959    8.007
 6104.00    1.24650   1.23048    8.022
 6105.00    1.24562   1.23159    8.028
 6106.00    1.24512   1.23220    8.031
 6107.00    1.24468   1.23340    8.034
 6108.00    1.24500   1.23423    8.032
 6109.00    1.24696   1.23430    8.020
 6110.00    1.25005   1.23351    8.000
 6111.00    1.25217   1.23191    7.986
 6112.00    1.25058   1.23015    7.996
 6113.00    1.24454   1.22767    8.035
 6114.00    1.23598   1.22601    8.091
 6115.00    1.22867   1.22439    8.139
 6116.00    1.22521   1.22240    8.162
 6117.00    1.22583   1.22057    8.158
 6118.00    1.22873   1.21788    8.138
 6119.00    1.23221   1.21667    8.115
 6120.00    1.23583   1.21612    8.092
 6121.00    1.24028   1.21563    8.063
 6122.00    1.24608   1.21550    8.025
 6123.00    1.25250   1.21423    7.984
 6124.00    1.25770   1.21336    7.951
 6125.00    1.26018   1.21181    7.935
 6126.00    1.26052   1.21030    7.933
 6127.00    1.26146   1.20897    7.927
 6128.00    1.26596   1.20598    7.899
 6129.00    1.27427   1.20456    7.848
 6130.00    1.28349   1.20355    7.791
 6131.00    1.28904   1.20190    7.758
 6132.00    1.28782   1.19959    7.765
 6133.00    1.27897   1.19711    7.819
 6134.00    1.26369   1.19796    7.913
 6135.00    1.24478   1.19972    8.034
 6136.00    1.22648   1.20170    8.153
 6137.00    1.21388   1.20357    8.238
 6138.00    1.21039   1.20465    8.262
 6139.00    1.21653   1.20667    8.220
 6140.00    1.23011   1.20856    8.129
 6141.00    1.24771   1.21124    8.015
 6142.00    1.26571   1.21436    7.901
 6143.00    1.28037   1.21549    7.810
 6144.00    1.28862   1.21546    7.760
 6145.00    1.28880   1.21429    7.759
 6146.00    1.28071   1.21300    7.808
 6147.00    1.26599   1.21199    7.899
 6148.00    1.24851   1.20925    8.010
 6149.00    1.23440   1.20613    8.101
 6150.00    1.22925   1.20206    8.135
 6151.00    1.23314   1.19696    8.109
 6152.00    1.23965   1.19095    8.067
 6153.00    1.23917   1.18442    8.070
 6154.00    1.22743   1.17939    8.147
 6155.00    1.20800   1.17481    8.278
 6156.00    1.18996   1.17029    8.404
 6157.00    1.17931   1.16489    8.480
 6158.00    1.17538   1.16056    8.508
 6159.00    1.17216   1.15788    8.531
 6160.00    1.16558   1.15547    8.579
 6161.00    1.15772   1.15495    8.638
 6162.00    1.15615   1.15633    8.649
 6163.00    1.16667   1.15856    8.571
 6164.00    1.18743   1.15997    8.422
 6165.00    1.20911   1.16166    8.271
 6166.00    1.22170   1.16516    8.185
 6167.00    1.22235   1.16973    8.181
 6168.00    1.21594   1.17429    8.224
 6169.00    1.21062   1.17883    8.260
 6170.00    1.21066   1.18331    8.260
 6171.00    1.21536   1.18674    8.228
 6172.00    1.22097   1.18997    8.190
 6173.00    1.22506   1.19314    8.163
 6174.00    1.22755   1.19653    8.146
 6175.00    1.22994   1.19913    8.130
 6176.00    1.23278   1.20022    8.112
 6177.00    1.23479   1.20040    8.099
 6178.00    1.23330   1.20026    8.108
 6179.00    1.22631   1.19996    8.155
 6180.00    1.21352   1.19921    8.240
 6181.00    1.19633   1.19816    8.359
 6182.00    1.17763   1.19503    8.492
 6183.00    1.16169   1.19281    8.608
 6184.00    1.15381   1.19216    8.667
 6185.00    1.15716   1.19103    8.642
 6186.00    1.16960   1.19029    8.550
 6187.00    1.18372   1.18895    8.448
 6188.00    1.19132   1.18923    8.394
 6189.00    1.18954   1.19018    8.407
 6190.00    1.18161   1.19056    8.463
 6191.00    1.17418   1.19230    8.517
 6192.00    1.17208   1.19441    8.532
 6193.00    1.17734   1.19679    8.494
 6194.00    1.18952   1.19864    8.407
 6195.00    1.20657   1.20002    8.288
 6196.00    1.22519   1.20203    8.162
 6197.00    1.24124   1.20378    8.056
 6198.00    1.25152   1.20483    7.990
 6199.00    1.25451   1.20546    7.971
 6200.00    1.25039   1.20565    7.998
 6201.00    1.24098   1.20485    8.058
 6202.00    1.22971   1.20338    8.132
 6203.00    1.22137   1.20154    8.188
 6204.00    1.22014   1.19883    8.196
 6205.00    1.22790   1.19564    8.144
 6206.00    1.24414   1.19187   -2.000
 6207.00    1.26582   1.18789   -2.000
 6208.00    1.28728   1.18464   -2.000
 6209.00    1.30031   1.18085   -2.000
 6210.00    1.29722   1.17654   -2.000
 6211.00    1.27573   1.17287   -2.000
 6212.00    1.23982   1.16984   -2.000
 6213.00    1.19796   1.16831   -2.000
 6214.00    1.15905   1.16704   -2.000
 6215.00    1.13137   1.16519   -2.000
 6216.00    1.12127   1.16388   -2.000
 6217.00    1.12889   1.16271   -2.000
 6218.00    1.14658   1.16261    8.722
 6219.00    1.16095   1.16302    8.614
 6220.00    1.16277   1.16281    8.600
 6221.00    1.15204   1.16195    8.680
 6222.00    1.13705   1.16074    8.795
 6223.00    1.12657   1.16035    8.877
 6224.00    1.12425   1.16016    8.895
 6225.00    1.12856   1.16037    8.861
 6226.00    1.13561   1.15966    8.806
 6227.00    1.14196   1.15881    8.757
 6228.00    1.14496   1.15827    8.734
 6229.00    1.14337   1.15724    8.746
 6230.00    1.13827   1.15761    8.785
 6231.00    1.13313   1.15692    8.825
 6232.00    1.13185   1.15646    8.835
 6233.00    1.13479   1.15580    8.812
 6234.00    1.13802   1.15377    8.787
 6235.00    1.13555   1.15339    8.806
 6236.00    1.12573   1.15199    8.883
 6237.00    1.11321   1.15077    8.983
 6238.00    1.10684   1.14984    9.035
 6239.00    1.11139   1.14811    8.998
 6240.00    1.12389   1.14751    8.898
 6241.00    1.13486   1.14630    8.812
 6242.00    1.13585   1.14498    8.804
 6243.00    1.12415   1.14379    8.896
 6244.00    1.10261   1.14245    9.069
 6245.00    1.07611   1.14173    9.293
 6246.00    1.04855   1.14119    9.537
 6247.00    1.02263   1.14013    9.779
 6248.00    1.00043   1.13915    9.996
 6249.00    0.98409   1.13831   10.162
 6250.00    0.97585   1.13778   10.247
 6251.00    0.97686   1.13869   10.237
 6252.00    0.98524   1.13951   10.150
 6253.00    0.99577   1.14133   10.042
 6254.00    1.00261   1.14339    9.974
 6255.00    1.00572   1.14519    9.943
 6256.00    1.01256   1.14824    9.876
 6257.00    1.03464   1.15161    9.665
 6258.00    1.07587   1.15603    9.295
 6259.00    1.12826   1.16005    8.863
 6260.00    1.17448   1.16319    8.514
 6261.00    1.20108   1.16647    8.326
 6262.00    1.20549   1.16963    8.295
 6263.00    1.19517   1.17293    8.367
 6264.00    1.17944   1.17589    8.479
 6265.00    1.16354   1.17810    8.594
 6266.00    1.14850   1.17971    8.707
 6267.00    1.13465   1.18106    8.813
 6268.00    1.12523   1.18203    8.887
 6269.00    1.12651   1.18333    8.877
 6270.00    1.14366   1.18444    8.744
 6271.00    1.17484   1.18441    8.512
 6272.00    1.21040   1.18475    8.262
 6273.00    1.23727   1.18481    8.082
 6274.00    1.24787   1.18554    8.014
 6275.00    1.24208   1.18681    8.051
 6276.00    1.22535   1.18669    8.161
 6277.00    1.20352   1.18749    8.309
 6278.00    1.18107   1.18800    8.467
 6279.00    1.16123   1.18894    8.612
 6280.00    1.14643   1.19093    0.000
 6281.00    1.13842   1.19129    0.000
 6282.00    1.13824   1.19191    0.000
 6283.00    1.14546   1.19189    0.000
 6284.00    1.15776   1.19159    0.000
 6285.00    1.17116   1.19232    0.000
 6286.00    1.18261   1.19157    0.000
 6287.00    1.19226   1.19012    0.000
 6288.00    1.20347   1.18827    0.000
 6289.00    1.21978   1.18597    0.000
 6290.00    1.24120   1.18479    0.000
 6291.00    1.26386   1.18316    0.000
 6292.00    1.28206   1.18093    0.000
 6293.00    1.29192   1.17914    0.000
 6294.00    1.29205   1.17734    0.000
 6295.00    1.28342   1.17668    0.000
 6296.00    1.26896   1.17645    0.000
 6297.00    1.25351   1.17618    0.000
 6298.00    1.24259   1.17643    0.000
 6299.00    1.23840   1.17657    0.000
 6300.00    1.23820   1.17728    0.000
 6301.00    1.23545   1.17816    0.000
 6302.00    1.22562   1.17889    0.000
 6303.00    1.20943   1.17919    0.000
 6304.00    1.19228   1.17899    0.000
 6305.00    1.17949   1.17888    0.000
 6306.00    1.17259   1.17843    0.000
 6307.00    1.16931   1.17790    0.000
 6308.00    1.16622   1.17657    0.000
 6309.00    1.16162   1.17517    0.000
 6310.00    1.15577   1.17459    0.000
 6311.00    1.15025   1.17373    0.000
 6312.00    1.14699   1.17371    0.000
 6313.00    1.14812   1.17344    0.000
 6314.00    1.15496   1.17372    0.000
 6315.00    1.16579   1.17529    0.000
 6316.00    1.17551   1.17635    0.000
 6317.00    1.17750   1.17865    0.000
 6318.00    1.16967   1.18062    0.000
 6319.00    1.15636   1.18286    0.000
 6320.00    1.14668   1.18543    0.000
 6321.00    1.14697   1.18667    8.719
 6322.00    1.15735   1.18881    8.640
 6323.00    1.17241   1.18981    8.529
 6324.00    1.18653   1.19067    8.428
 6325.00    1.19730   1.19123    8.352
 6326.00    1.20553   1.19031    8.295
 6327.00    1.21298   1.18992    8.244
 6328.00    1.22033   1.18851    8.195
 6329.00    1.22702   1.18726    8.150
 6330.00    1.23174   1.18611    8.119
 6331.00    1.23299   1.18466    8.110
 6332.00    1.22921   1.18326    8.135
 6333.00    1.21969   1.18175    8.199
 6334.00    1.20626   1.18093    8.290
 6335.00    1.19359   1.18021    8.378
 6336.00    1.18739   1.18035    8.422
 6337.00    1.18997   1.18002    8.404
 6338.00    1.19894   1.17996    8.341
 6339.00    1.20850   1.18071    8.275
 6340.00    1.21415   1.18071    8.236
 6341.00    1.21450   1.18152    8.234
 6342.00    1.21094   1.18180    8.258
 6343.00    1.20537   1.18193    8.296
 6344.00    1.19898   1.18240    8.340
 6345.00    1.19227   1.18160    8.387
 6346.00    1.18543   1.18069    8.436
 6347.00    1.17877   1.17952    8.483
 6348.00    1.17267   1.17784    8.528
 6349.00    1.16730   1.17615    8.567
 6350.00    1.16226   1.17365    8.604
 6351.00    1.15657   1.17088    8.646
 6352.00    1.14979   1.16833    8.697
 6353.00    1.14356   1.16603    8.745
 6354.00    1.14189   1.16426    8.757
 6355.00    1.14913   1.16260    8.702
 6356.00    1.16569   1.16154    8.579
 6357.00    1.18702   1.16116    8.424
 6358.00    1.20545   1.16175    8.296
 6359.00    1.21575   1.16335    8.225
 6360.00    1.21710   1.16518    8.216
 6361.00    1.21250   1.16783    8.247
 6362.00    1.20624   1.17076    8.290
 6363.00    1.20264   1.17412    8.315
 6364.00    1.20566   1.17795    8.294
 6365.00    1.21624   1.18154    8.222
 6366.00    1.23050   1.18510    8.127
 6367.00    1.24023   1.18809    8.063
 6368.00    1.23854   1.19087    8.074
 6369.00    1.22529   1.19340    8.161
 6370.00    1.20722   1.19566    8.283
 6371.00    1.19343   1.19726    8.379
 6372.00    1.18920   1.19807    8.409
 6373.00    1.19529   1.19897    8.366
 6374.00    1.20913   1.19945    8.270
 6375.00    1.22716   1.19996    8.149
 6376.00    1.24527   1.19990    8.030
 6377.00    1.25935   1.19937    7.941
 6378.00    1.26652   1.19940    7.896
 6379.00    1.26555   1.19904    7.902
 6380.00    1.25690   1.19867    7.956
 6381.00    1.24300   1.19774    8.045
 6382.00    1.22827   1.19671    8.142
 6383.00    1.21852   1.19628    8.207
 6384.00    1.21717   1.19535    8.216
 6385.00    1.22306   1.19429    8.176
 6386.00    1.23088   1.19254    8.124
 6387.00    1.23540   1.19120    8.095
 6388.00    1.23495   1.19057    8.097
 6389.00    1.23144   1.18979    8.121
 6390.00    1.22774   1.18900    8.145
 6391.00    1.22466   1.18745    8.166
 6392.00    1.22076   1.18688    8.192
 6393.00    1.21393   1.18676    8.238
 6394.00    1.20415   1.18708    8.305
 6395.00    1.19382   1.18771    8.376
 6396.00    1.18661   1.18685    8.427
 6397.00    1.18465   1.18728    8.441
 6398.00    1.18789   1.18760    8.418
 6399.00    1.19460   1.18776    8.371
 6400.00    1.20300   1.18886    8.313
 6401.00    1.21184   1.18821    8.252
 6402.00    1.22039   1.18833    8.194
 6403.00    1.22849   1.18853    8.140
 6404.00    1.23654   1.18757    8.087
 6405.00    1.24527   1.18787    8.030
 6406.00    1.25431   1.18776    7.973
 6407.00    1.26109   1.18739    7.930
 6408.00    1.26112   1.18731    7.929
 6409.00    1.25135   1.18665    7.991
 6410.00    1.23342   1.18683    8.108
 6411.00    1.21373   1.18780    8.239
 6412.00    1.19960   1.18793    8.336
 6413.00    1.19397   1.18788    8.375
 6414.00    1.19473   1.18852    8.370
 6415.00    1.19703   1.18970    8.354
 6416.00    1.19775   1.19143    8.349
 6417.00    1.19634   1.19216    8.359
 6418.00    1.19406   1.19222    8.375
 6419.00    1.19154   1.19316    8.393
 6420.00    1.18817   1.19476    8.416
 6421.00    1.18261   1.19587    8.456
 6422.00    1.17506   1.19591    8.510
 6423.00    1.16822   1.19551    8.560
 6424.00    1.16664   1.19533    8.572
 6425.00    1.17296   1.19625    8.525
 6426.00    1.18564   1.19619    8.434
 6427.00    1.19930   1.19519    8.338
 6428.00    1.20820   1.19523    8.277
 6429.00    1.20933   1.19501    8.269
 6430.00    1.20253   1.19571    8.316
 6431.00    1.19022   1.19595    8.402
 6432.00    1.17700   1.19507    8.496
 6433.00    1.16946   1.19632    8.551
 6434.00    1.17288   1.19748    8.526
 6435.00    1.18566   1.19792    8.434
 6436.00    1.19852   1.19850    8.344
 6437.00    1.19916   1.19751    8.339
 6438.00    1.18324   1.19773    8.451
 6439.00    1.15709   1.19884    8.642
 6440.00    1.13415   1.19795    8.817
 6441.00    1.12317   1.19716    8.903
 6442.00    1.12381   1.19521    8.898
 6443.00    1.12845   1.19300    8.862
 6444.00    1.13090   1.19304    8.843
 6445.00    1.13096   1.19170    8.842
 6446.00    1.13370   1.19025    8.821
 6447.00    1.14357   1.18907    8.745
 6448.00    1.15998   1.18708    8.621
 6449.00    1.17756   1.18727    8.492
 6450.00    1.19063   1.18712    8.399
 6451.00    1.19791   1.18687    8.348
 6452.00    1.20269   1.18770    8.315
 6453.00    1.20958   1.18745    8.267
 6454.00    1.21985   1.18804    8.198
 6455.00    1.23080   1.18842    8.125
 6456.00    1.23798   1.18903    8.078
 6457.00    1.23968   1.19090    8.067
 6458.00    1.23778   1.19145    8.079
 6459.00    1.23638   1.19194    8.088
 6460.00    1.23756   1.19259    8.080
 6461.00    1.24017   1.19369    8.063
 6462.00    1.24077   1.19539    8.059
 6463.00    1.23784   1.19603    8.079
 6464.00    1.23351   1.19629    8.107
 6465.00    1.23276   1.19695    8.112
 6466.00    1.23785   1.19809    8.079
 6467.00    1.24491   1.19867    8.033
 6468.00    1.24466   1.19857    8.034
 6469.00    1.23046   1.19818    8.127
 6470.00    1.20534   1.19784    8.296
 6471.00    1.18188   1.19780    8.461
 6472.00    1.17286   1.19712    8.526
 6473.00    1.17974   1.19599    8.476
 6474.00    1.19173   1.19432    8.391
 6475.00    1.19371   1.19252    8.377
 6476.00    1.17993   1.19090    8.475
 6477.00    1.15638   1.18867    8.648
 6478.00    1.13591   1.18602    8.803
 6479.00    1.12647   1.18249    8.877
 6480.00    1.12805   1.17888    8.865
 6481.00    1.13453   1.17526    8.814
 6482.00    1.14001   1.17004    8.772
 6483.00    1.14126   1.16490    8.762
 6484.00    1.13746   1.15950    8.792
 6485.00    1.12915   1.15417    8.856
 6486.00    1.11759   1.14953    8.948
 6487.00    1.10463   1.14272    9.053
 6488.00    1.09195   1.13785    9.158
 6489.00    1.08046   1.13484    9.255
 6490.00    1.07033   1.13177    9.343
 6491.00    1.06195   1.13118    9.417
 6492.00    1.05685   1.12946    9.462
 6493.00    1.05775   1.13030    9.454
 6494.00    1.06670   1.13426    9.375
 6495.00    1.08240   1.13715    9.239
 6496.00    1.09985   1.14205    9.092
 6497.00    1.11262   1.14673    8.988
 6498.00    1.11756   1.15199    8.948
 6499.00    1.11575   1.15885    8.963
 6500.00    1.11131   1.16379    8.998
 6501.00    1.10769   1.16856    9.028
 6502.00    1.10650   1.17317    9.037
 6503.00    1.10781   1.17686    9.027
 6504.00    1.11154   1.18027    8.997
 6505.00    1.11807   1.18256    8.944
 6506.00    1.12808   1.18379    8.865
 6507.00    1.14130   1.18495    8.762
 6508.00    1.15574   1.18580    8.652
 6509.00    1.16785   1.18583    8.563
 6510.00    1.17446   1.18600    8.515
 6511.00    1.17455   1.18554    8.514
 6512.00    1.16934   1.18518    8.552
 6513.00    1.16095   1.18584    8.614
 6514.00    1.15083   1.18542    8.689
 6515.00    1.13956   1.18525    8.775
 6516.00    1.12759   1.18532    8.868
 6517.00    1.11648   1.18535    8.957
 6518.00    1.10911   1.18658    9.016
 6519.00    1.10848   1.18646    9.021
 6520.00    1.11468   1.18583    8.971
 6521.00    1.12406   1.18618    8.896
 6522.00    1.13066   1.18646    8.844
 6523.00    1.13130   1.18721    8.839
 6524.00    1.12756   1.18696    8.869
 6525.00    1.12474   1.18579    8.891
 6526.00    1.12642   1.18564    8.878
 6527.00    1.13143   1.18583    8.838
 6528.00    1.13450   1.18596    0.000
 6529.00    1.13203   1.18536    0.000
 6530.00    1.12664   1.18380    0.000
 6531.00    1.12689   1.18281    0.000
 6532.00    1.14090   1.18243    0.000
 6533.00    1.16936   1.18134    0.000
 6534.00    1.20516   1.17897    0.000
 6535.00    1.23901   1.17639    0.000
 6536.00    1.26809   1.17395    0.000
 6537.00    1.29722   1.17169    0.000
 6538.00    1.33407   1.16835    0.000
 6539.00    1.37887   1.16313    0.000
 6540.00    1.42211   1.15890    0.000
 6541.00    1.44868   1.15480    0.000
 6542.00    1.45048   1.14952    0.000
 6543.00    1.43056   1.14342    0.000
 6544.00    1.40116   1.13583    0.000
 6545.00    1.37482   1.12877    0.000
 6546.00    1.36020   1.12151    0.000
 6547.00    1.36284   1.11228    0.000
 6548.00    1.39082   1.10262    0.000
 6549.00    1.45853   1.09282    0.000
 6550.00    1.58534   1.08162    0.000
 6551.00    1.78007   1.07030    0.000
 6552.00    2.02669   1.06037    0.000
 6553.00    2.28432   1.05098    0.000
 6554.00    2.50596   1.04251    0.000
 6555.00    2.66299   1.03200    0.000
 6556.00    2.74799   1.02266    0.000
 6557.00    2.76698   1.02141    0.000
 6558.00    2.72528   1.02150    0.000
 6559.00    2.62480   1.02110    0.000
 6560.00    2.46696   1.02203    0.000
 6561.00    2.26009   1.02447    0.000
 6562.00    2.02157   1.03234    0.000
 6563.00    1.77606   1.04157    0.000
 6564.00    1.54892   1.04978    0.000
 6565.00    1.36364   1.05936    0.000
 6566.00    1.24043   1.06906    0.000
 6567.00    1.18903   1.07899    0.000
 6568.00    1.20467   1.08874    0.000
 6569.00    1.26925   1.09801    0.000
 6570.00    1.36220   1.10709    0.000
 6571.00    1.46923   1.11523    0.000
 6572.00    1.58262   1.12223    0.000
 6573.00    1.69746   1.12818    0.000
 6574.00    1.80762   1.13336    0.000
 6575.00    1.90526   1.13875    0.000
 6576.00    1.98168   1.14324    0.000
 6577.00    2.02843   1.14647    0.000
 6578.00    2.03765   1.14917    0.000
 6579.00    2.00372   1.15067    0.000
 6580.00    1.92712   1.15238    0.000
 6581.00    1.81533   1.15365    0.000
 6582.00    1.68175   1.15396    0.000
 6583.00    1.54246   1.15466    0.000
 6584.00    1.41503   1.15467    0.000
 6585.00    1.31672   1.15400    0.000
 6586.00    1.25619   1.15263    0.000
 6587.00    1.22945   1.15249    0.000
 6588.00    1.22144   1.15376    0.000
 6589.00    1.21733   1.15384    0.000
 6590.00    1.21025   1.15355    0.000
 6591.00    1.20122   1.15293    0.000
 6592.00    1.19394   1.15350    0.000
 6593.00    1.18976   1.15565    0.000
 6594.00    1.18740   1.15639    0.000
 6595.00    1.18478   1.15698    0.000
 6596.00    1.18155   1.15787    0.000
 6597.00    1.17934   1.15823    0.000
 6598.00    1.18057   1.15943    0.000
 6599.00    1.18607   1.16030    0.000
 6600.00    1.19461   1.16095    0.000
 6601.00    1.20357   1.16178    0.000
 6602.00    1.21053   1.16157    0.000
 6603.00    1.21387   1.16254    0.000
 6604.00    1.21273   1.16427    0.000
 6605.00    1.20729   1.16521    0.000
 6606.00    1.19883   1.16601    0.000
 6607.00    1.18960   1.16650    0.000
 6608.00    1.18205   1.16845    0.000
 6609.00    1.17835   1.17059    8.486
 6610.00    1.18028   1.17124    8.473
 6611.00    1.18822   1.17203    8.416
 6612.00    1.20034   1.17278    8.331
 6613.00    1.21273   1.17378    8.246
 6614.00    1.22127   1.17447    8.188
 6615.00    1.22392   1.17386    8.170
 6616.00    1.22086   1.17345    8.191
 6617.00    1.21364   1.17266    8.240
 6618.00    1.20369   1.17120    8.308
 6619.00    1.19210   1.17037    8.389
 6620.00    1.17996   1.16891    8.475
 6621.00    1.16914   1.16704    8.553
 6622.00    1.16251   1.16526    8.602
 6623.00    1.16304   1.16314    8.598
 6624.00    1.17118   1.16179    8.538
 6625.00    1.18386   1.16066    8.447
 6626.00    1.19529   1.15877    8.366
 6627.00    1.20051   1.15731    8.330
 6628.00    1.19733   1.15663    8.352
 6629.00    1.18619   1.15628    8.430
 6630.00    1.16958   1.15615    8.550
 6631.00    1.15152   1.15549    8.684
 6632.00    1.13733   1.15491    8.793
 6633.00    1.13117   1.15530    8.840
 6634.00    1.13362   1.15629    8.821
 6635.00    1.14159   1.15702    8.760
 6636.00    1.15064   1.15654    8.691
 6637.00    1.15825   1.15666    8.634
 6638.00    1.16421   1.15789    8.590
 6639.00    1.16941   1.15885    8.551
 6640.00    1.17346   1.15936    8.522
 6641.00    1.17424   1.15895    8.516
 6642.00    1.16908   1.15940    8.554
 6643.00    1.15819   1.16077    8.634
 6644.00    1.14568   1.16077    8.728
 6645.00    1.13824   1.16052    8.785
 6646.00    1.14003   1.16049    8.772
 6647.00    1.15043   1.16043    8.692
 6648.00    1.16463   1.16040    8.586
 6649.00    1.17748   1.15944    8.493
 6650.00    1.18574   1.15847    8.434
 6651.00    1.18816   1.15775    8.416
 6652.00    1.18494   1.15667    8.439
 6653.00    1.17732   1.15530    8.494
 6654.00    1.16741   1.15397    8.566
 6655.00    1.15712   1.15295    8.642
 6656.00    1.14680   1.15127    8.720
 6657.00    1.13516   1.15016    8.809
 6658.00    1.12072   1.14970    8.923
 6659.00    1.10433   1.14888    9.055
 6660.00    1.08950   1.14860    9.178
 6661.00    1.08080   1.14785    9.252
 6662.00    1.07984   1.14742    9.261
 6663.00    1.08428   1.14819    9.223
 6664.00    1.08930   1.14829    9.180
 6665.00    1.09244   1.14814    9.154
 6666.00    1.09537   1.14822    9.129
 6667.00    1.10278   1.14810    9.068
 6668.00    1.11690   1.14832    8.953
 6669.00    1.13460   1.14872    8.814
 6670.00    1.14818   1.14794    8.709
 6671.00    1.15192   1.14701    8.681
 6672.00    1.14681   1.14761    8.720
 6673.00    1.14034   1.14820    8.769
 6674.00    1.14000   1.14846    8.772
 6675.00    1.14673   1.14835    8.720
 6676.00    1.15462   1.14795    8.661
 6677.00    1.15628   1.14950    8.648
 6678.00    1.15059   1.15101    8.691
 6679.00    1.14371   1.15135    8.743
 6680.00    1.14466   1.15228    8.736
 6681.00    1.15648   1.15291    8.647
 6682.00    1.17443   1.15400    8.515
 6683.00    1.18868   1.15473    8.413
 6684.00    1.19232   1.15457    8.387
 6685.00    1.18384   1.15502    8.447
 6686.00    1.16635   1.15483    8.574
 6687.00    1.14450   1.15468    8.737
 6688.00    1.12304   1.15440    8.904
 6689.00    1.10648   1.15302    9.038
 6690.00    1.09708   1.15265    9.115
 6691.00    1.09360   1.15214    9.144
 6692.00    1.09167   1.15122    9.160
 6693.00    1.08786   1.15078    9.192
 6694.00    1.08328   1.14949    9.231
 6695.00    1.08349   1.14880    9.229
 6696.00    1.09395   1.14847    0.000
 6697.00    1.11438   1.14734    0.000
 6698.00    1.13823   1.14680    0.000
 6699.00    1.15720   1.14636    0.000
 6700.00    1.16889   1.14526    0.000
 6701.00    1.17810   1.14418    0.000
 6702.00    1.19367   1.14282    0.000
 6703.00    1.22051   1.14123    0.000
 6704.00    1.25754   1.14056    0.000
 6705.00    1.29935   1.13918    0.000
 6706.00    1.34191   1.13711    0.000
 6707.00    1.38479   1.13579    0.000
 6708.00    1.42999   1.13417    0.000
 6709.00    1.47616   1.13317    0.000
 6710.00    1.51542   1.13201    0.000
 6711.00    1.53455   1.13042    0.000
 6712.00    1.52466   1.13063    0.000
 6713.00    1.48855   1.13081    0.000
 6714.00    1.44032   1.13062    0.000
 6715.00    1.39601   1.13070    0.000
 6716.00    1.36364   1.13114    0.000
 6717.00    1.34251   1.13322    0.000
 6718.00    1.32831   1.13455    0.000
 6719.00    1.32066   1.13491    0.000
 6720.00    1.32415   1.13638    0.000
 6721.00    1.34446   1.13808    0.000
 6722.00    1.38039   1.13947    0.000
 6723.00    1.42208   1.14018    0.000
 6724.00    1.45431   1.14047    0.000
 6725.00    1.46630   1.14156    0.000
 6726.00    1.45487   1.14232    0.000
 6727.00    1.42372   1.14202    0.000
 6728.00    1.38013   1.14169    0.000
 6729.00    1.33348   1.14164    0.000
 6730.00    1.29433   1.14118    0.000
 6731.00    1.26908   1.14023    0.000
 6732.00    1.25653   1.13898    0.000
 6733.00    1.24840   1.13791    0.000
 6734.00    1.23649   1.13739    0.000
 6735.00    1.21916   1.13601    0.000
 6736.00    1.20148   1.13439    0.000
 6737.00    1.18981   1.13339    0.000
 6738.00    1.18494   1.13239    0.000
 6739.00    1.18135   1.13183    0.000
 6740.00    1.17131   1.13068    0.000
 6741.00    1.15213   1.12981    0.000
 6742.00    1.12753   1.13003    0.000
 6743.00    1.10515   1.12956    0.000
 6744.00    1.09057   1.12994    0.000
 6745.00    1.08559   1.13043    0.000
 6746.00    1.08873   1.13063    0.000
 6747.00    1.09708   1.13205    0.000
 6748.00    1.10700   1.13280    0.000
 6749.00    1.11451   1.13410    0.000
 6750.00    1.11729   1.13592    0.000
 6751.00    1.11572   1.13668    0.000
 6752.00    1.11274   1.13810    0.000
 6753.00    1.11191   1.13960    8.994
 6754.00    1.11587   1.14047    8.962
 6755.00    1.12626   1.14128    8.879
 6756.00    1.14318   1.14196    8.747
 6757.00    1.16474   1.14214    8.586
 6758.00    1.18702   1.14250    8.424
 6759.00    1.20559   1.14285    8.295
 6760.00    1.21782   1.14214    8.211
 6761.00    1.22321   1.14203    8.175
 6762.00    1.22268   1.14230    8.179
 6763.00    1.21712   1.14211    8.216
 6764.00    1.20705   1.14229    8.285
 6765.00    1.19263   1.14195    8.385
 6766.00    1.17389   1.14218    8.519
 6767.00    1.15075   1.14325    8.690
 6768.00    1.12313   1.14327    8.904
 6769.00    1.09123   1.14346    9.164
 6770.00    1.05565   1.14393    9.473
 6771.00    1.01758   1.14418    9.827
 6772.00    0.97945   1.14456   10.210
 6773.00    0.94545   1.14407   10.577
 6774.00    0.92131   1.14359   10.854
 6775.00    0.91161   1.14326   10.970
 6776.00    0.91727   1.14224   10.902
 6777.00    0.93548   1.14148   10.690
 6778.00    0.96138   1.14067   10.402
 6779.00    0.99029   1.13952   10.098
 6780.00    1.01807   1.13865    9.823
 6781.00    1.04176   1.13770    9.599
 6782.00    1.06095   1.13689    9.426
 6783.00    1.07792   1.13617    9.277
 6784.00    1.09591   1.13568    9.125
 6785.00    1.11449   1.13565    8.973
 6786.00    1.12818   1.13550    8.864
 6787.00    1.12902   1.13556    8.857
 6788.00    1.11588   1.13547    8.962
 6789.00    1.09827   1.13551    9.105
 6790.00    1.09359   1.13623    9.144
 6791.00    1.11133   1.13615    8.998
 6792.00    1.14412   1.13631    8.740
 6793.00    1.16955   1.13709    8.550
 6794.00    1.16874   1.13695    8.556
 6795.00    1.14123   1.13757    8.762
 6796.00    1.10489   1.13792    9.051
 6797.00    1.08141   1.13739    9.247
 6798.00    1.08008   1.13824    9.259
 6799.00    1.09632   1.13826    9.121
 6800.00    1.11862   1.13769    8.940
 6801.00    1.13944   1.13829    8.776
 6802.00    1.15692   1.13781    8.644
 6803.00    1.17228   1.13792    8.530
 6804.00    1.18398   1.13822    8.446
 6805.00    1.18635   1.13723    8.429
 6806.00    1.17226   1.13795    8.531
 6807.00    1.14160   1.13841    8.760
 6808.00    1.10422   1.13776    9.056
 6809.00    1.07711   1.13837    9.284
 6810.00    1.07153   1.13855    9.332
 6811.00    1.08665   1.13894    9.203
 6812.00    1.11083   1.13959    9.002
 6813.00    1.13219   1.13940    8.832
 6814.00    1.14582   1.14016    8.727
 6815.00    1.15366   1.14092    8.668
 6816.00    1.15913   1.14118    8.627
 6817.00    1.16202   1.14146    8.606
 6818.00    1.15820   1.14112    8.634
 6819.00    1.14403   1.14144    8.741
 6820.00    1.12223   1.14184    8.911
 6821.00    1.10250   1.14150    9.070
 6822.00    1.09601   1.14120    9.124
 6823.00    1.10490   1.14057    9.051
 6824.00    1.12030   1.14022    8.926
 6825.00    1.12737   1.13964    8.870
 6826.00    1.11897   1.13792    8.937
 6827.00    1.09966   1.13687    9.094
 6828.00    1.08236   1.13613    9.239
 6829.00    1.07509   1.13464    9.302
 6830.00    1.07547   1.13316    9.298
 6831.00    1.07268   1.13131    9.322
 6832.00    1.05972   1.12979    9.436
 6833.00    1.04060   1.12891    9.610
 6834.00    1.02919   1.12742    9.716
 6835.00    1.03680   1.12639    9.645
 6836.00    1.06172   1.12575    9.419
 6837.00    1.08947   1.12485    9.179
 6838.00    1.10441   1.12480    9.055
 6839.00    1.10343   1.12445    9.063
 6840.00    1.09700   1.12422    9.116
 6841.00    1.09961   1.12480    9.094
 6842.00    1.11394   1.12501    8.977
 6843.00    1.12845   1.12558    8.862
 6844.00    1.12566   1.12561    8.884
 6845.00    1.10120   1.12481    9.081
 6846.00    1.06848   1.12533    9.359
 6847.00    1.05183   1.12517    9.507
 6848.00    1.06386   1.12408    9.400
 6849.00    1.09743   1.12400    9.112
 6850.00    1.12988   1.12332    8.851
 6851.00    1.14414   1.12247    8.740
 6852.00    1.13947   1.12185    8.776
 6853.00    1.12963   1.12065    8.852
 6854.00    1.12746   1.12052    8.870
 6855.00    1.13394   1.12041    8.819
 6856.00    1.13854   1.11948    8.783
 6857.00    1.12966   1.11943    8.852
 6858.00    1.10522   1.11933    9.048
 6859.00    1.07323   1.11892    9.318
 6860.00    1.04634   1.11920    9.557
 6861.00    1.03408   1.11947    9.670
 6862.00    1.04174   1.11953    9.599
 6863.00    1.06952   1.11984    9.350
 6864.00    1.11064   1.12020    9.004
 6865.00    1.15107   1.12024    8.688
 6866.00    1.17432   1.12030    8.516
 6867.00    1.17460   1.12097    8.514
 6868.00    1.16087   1.12180    8.614
 6869.00    1.15245   1.12217    8.677
 6870.00    1.16109   1.12242    8.613
 6871.00    1.18326   1.12312    8.451
 6872.00    1.20256   1.12380    8.316
 6873.00    1.20524   1.12415    8.297
 6874.00    1.18973   1.12500    8.405
 6875.00    1.16600   1.12631    8.576
 6876.00    1.14625   1.12699    8.724
 6877.00    1.13689   1.12779    8.796
 6878.00    1.13805   1.12920    8.787
 6879.00    1.14524   1.13017    8.732
 6880.00    1.15129   1.13116    8.686
 6881.00    1.14674   1.13244    8.720
 6882.00    1.12400   1.13379    8.897
 6883.00    1.08429   1.13536    9.223
 6884.00    1.03879   1.13630    9.627
 6885.00    1.00378   1.13719    9.962
 6886.00    0.98923   1.13876   10.109
 6887.00    0.99584   1.13958   10.042
 6888.00    1.01673   1.14032    9.835
 6889.00    1.04305   1.14149    9.587
 6890.00    1.06615   1.14167    9.380
 6891.00    1.07833   1.14220    9.274
 6892.00    1.07651   1.14313    9.289
 6893.00    1.06415   1.14305    9.397
 6894.00    1.05041   1.14347    9.520
 6895.00    1.04360   1.14380    9.582
 6896.00    1.04627   1.14384    9.558
 6897.00    1.05533   1.14457    9.476
 6898.00    1.06582   1.14403    9.382
 6899.00    1.07487   1.14398    9.303
 6900.00    1.08205   1.14466    9.242
 6901.00    1.08836   1.14368    9.188
 6902.00    1.09481   1.14370    9.134
 6903.00    1.10220   1.14354    9.073
 6904.00    1.11068   1.14206    9.004
 6905.00    1.11893   1.14248    8.937
 6906.00    1.12399   1.14183    8.897
 6907.00    1.12264   1.14045    8.908
 6908.00    1.11551   1.14068    8.964
 6909.00    1.10831   1.13961    9.023
 6910.00    1.10984   1.13901    9.010
 6911.00    1.12356   1.13908    8.900
 6912.00    1.14379   1.13760    8.743
 6913.00    1.15736   1.13771    8.640
 6914.00    1.15411   1.13793    8.665
 6915.00    1.13353   1.13662    8.822
 6916.00    1.10432   1.13675    9.055
 6917.00    1.07673   1.13715    9.287
 6918.00    1.05587   1.13674    9.471
 6919.00    1.04136   1.13677    9.603
 6920.00    1.03042   1.13662    9.705
 6921.00    1.02162   1.13666    9.788
 6922.00    1.01534   1.13681    9.849
 6923.00    1.01259   1.13620    9.876
 6924.00    1.01316   1.13631    9.870
 6925.00    1.01522   1.13725   -2.000
 6926.00    0.00000   1.13729   -2.000
 6927.00    0.00000   1.13725   -2.000
 6928.00    0.00000   1.13762   -2.000
 6929.00    0.00000   1.13783   -2.000
 6930.00    0.00000   1.13813   -2.000
 6931.00    0.00000   1.13787   -2.000
 6932.00    0.00000   1.13764   -2.000
 6933.00    0.00000   1.13826   -2.000
 6934.00    0.00000   1.13811   -2.000
 6935.00    0.00000   1.13715   -2.000
 6936.00    0.00000   1.13730   -2.000
 6937.00    0.00000   1.13732   -2.000
 6938.00    0.00000   1.13653   -2.000
 6939.00    0.00000   1.13658   -2.000
 6940.00    0.00000   1.13615   -2.000
 6941.00    0.00000   1.13541   -2.000
 6942.00    0.00000   1.13558   -2.000
 6943.00    0.00000   1.13498   -2.000
 6944.00    0.00000   1.13492   -2.000
 6945.00    0.00000   1.13582   -2.000
 6946.00    0.00000   1.13577   -2.000
 6947.00    0.00000   1.13620   -2.000
 6948.00    0.00000   1.13723   -2.000
 6949.00    0.00000   1.13723   -2.000
 6950.00    0.00000   1.13782   -2.000
 6951.00    0.00000   1.13932   -2.000
 6952.00    0.00000   1.13993   -2.000
 6953.00    0.00000   1.14049   -2.000
 6954.00    0.00000   1.14205   -2.000
 6955.00    0.00000   1.14289   -2.000
 6956.00    0.00000   1.14330   -2.000
 6957.00    0.00000   1.14416   -2.000
 6958.00    0.00000   1.14428   -2.000
 6959.00    0.00000   1.14473   -2.000
 6960.00    0.00000   1.14516   -2.000
 6961.00    0.00000   1.14410   -2.000
 6962.00    0.00000   1.14383   -2.000
 6963.00    0.00000   1.14360   -2.000
 6964.00    0.00000   1.14179   -2.000
 6965.00    0.00000   1.14035   -2.000
 6966.00    0.00000   1.13916   -2.000
 6967.00    0.00000   1.13777   -2.000
 6968.00    0.00000   1.13602   -2.000
 6969.00    0.00000   1.13369   -2.000
 6970.00    0.00000   1.13270   -2.000
 6971.00    0.00000   1.13223   -2.000
 6972.00    0.00000   1.13097   -2.000
 6973.00    0.00000   1.13000   -2.000
 6974.00    0.00000   1.12998   -2.000
 6975.00    0.00000   1.13079   -2.000
 6976.00    0.00000   1.13067   -2.000
 6977.00    0.00000   1.13086   -2.000
 6978.00    0.00000   1.13330   -2.000
 6979.00    0.00000   1.13501   -2.000
 6980.00    0.00000   1.13584   -2.000
 6981.00    0.00000   1.13763   -2.000
 6982.00    0.00000   1.13920   -2.000
 6983.00    0.00000   1.14023   -2.000
 6984.00    0.00000   1.14097   -2.000
 6985.00    0.00000   1.14175   -2.000
 6986.00    0.00000   1.14242   -2.000
 6987.00    0.00000   1.14214   -2.000
 6988.00    0.00000   1.14196   -2.000
 6989.00    0.00000   1.14194   -2.000
 6990.00    0.00000   1.14127   -2.000
 6991.00    0.00000   1.14040   -2.000
 6992.00    0.00000   1.13935   -2.000
 6993.00    0.00000   1.13830   -2.000
 6994.00    0.00000   1.13726   -2.000
 6995.00    0.00000   1.13598   -2.000
 6996.00    0.00000   1.13510   -2.000
 6997.00    0.00000   1.13412   -2.000
 6998.00    0.00000   1.13255   -2.000
 6999.00    0.00000   1.13189   -2.000
 7000.00    0.00000   1.13180   -2.000
 7001.00    0.00000   1.13097   -2.000
 7002.00    0.00000   1.12998   -2.000
 7003.00    0.00000   1.12905   -2.000
 7004.00    0.00000   1.12873   -2.000
 7005.00    0.00000   1.12888   -2.000
 7006.00    0.00000   1.12789   -2.000
 7007.00    0.00000   1.12751   -2.000
 7008.00    0.00000   1.12801   -2.000
 7009.00    0.00000   1.12727   -2.000
 7010.00    0.00000   1.12681   -2.000
 7011.00    0.00000   1.12687   -2.000
 7012.00    0.00000   1.12703   -2.000
 7013.00    0.00000   1.12766   -2.000
 7014.00    0.00000   1.12690   -2.000
 7015.00    0.00000   1.12697   -2.000
 7016.00    0.00000   1.12909   -2.000
 7017.00    0.00000   1.12978   -2.000
 7018.00    0.00000   1.13005   -2.000
 7019.00    0.00000   1.13133   -2.000
 7020.00    0.00000   1.13257   -2.000
 7021.00    0.00000   1.13346   -2.000
 7022.00    0.00000   1.13398   -2.000
 7023.00    0.00000   1.13570   -2.000
 7024.00    0.00000   1.13784   -2.000
 7025.00    0.00000   1.13829   -2.000
 7026.00    0.00000   1.13971   -2.000
 7027.00    0.00000   1.14203   -2.000
 7028.00    0.00000   1.14323   -2.000
 7029.00    0.00000   1.14491   -2.000
 7030.00    0.00000   1.14661   -2.000
 7031.00    0.00000   1.14824   -2.000
 7032.00    0.00000   1.15024   -2.000
 7033.00    0.00000   1.15135   -2.000
 7034.00    0.00000   1.15337   -2.000
 7035.00    0.00000   1.15608   -2.000
 7036.00    0.00000   1.15627   -2.000
 7037.00    0.00000   1.15702   -2.000
 7038.00    0.00000   1.15962   -2.000
 7039.00    0.00000   1.15987   -2.000
 7040.00    0.00000   1.15919   -2.000
 7041.00    0.00000   1.15977   -2.000
 7042.00    0.00000   1.15877   -2.000
 7043.00    0.00000   1.15702   -2.000
 7044.00    0.00000   1.15574   -2.000
 7045.00    0.00000   1.15366   -2.000
 7046.00    0.00000   1.15157   -2.000
 7047.00    0.00000   1.14851   -2.000
 7048.00    0.00000   1.14517   -2.000
 7049.00    0.00000   1.14303   -2.000
 7050.00    0.00000   1.13946   -2.000
 7051.00    0.00000   1.13593   -2.000
 7052.00    0.00000   1.13377   -2.000
 7053.00    0.00000   1.13078   -2.000
 7054.00    0.00000   1.12842   -2.000
 7055.00    0.00000   1.12627   -2.000
 7056.00    0.00000   1.12424   -2.000
 7057.00    0.00000   1.12331   -2.000
 7058.00    0.00000   1.12135   -2.000
 7059.00    0.00000   1.12034   -2.000
 7060.00    0.00000   1.12067   -2.000
 7061.00    0.00000   1.11966   -2.000
 7062.00    0.00000   1.11972   -2.000
 7063.00    0.00000   1.12039   -2.000
 7064.00    0.00000   1.12002   -2.000
 7065.00    0.00000   1.12084   -2.000
 7066.00    0.00000   1.12122   -2.000
 7067.00    0.00000   1.12111   -2.000
 7068.00    0.00000   1.12225   -2.000
 7069.00    0.00000   1.12249   -2.000
 7070.00    0.00000   1.12195   -2.000
 7071.00    0.00000   1.12136   -2.000
 7072.00    0.00000   1.12039   -2.000
 7073.00    0.00000   1.11955   -2.000
 7074.00    0.00000   1.11735   -2.000
 7075.00    0.00000   1.11496   -2.000
 7076.00    0.00000   1.11328   -2.000
 7077.00    0.00000   1.10982   -2.000
 7078.00    0.00000   1.10681   -2.000
 7079.00    0.00000   1.10432   -2.000
 7080.00    0.00000   1.10046   -2.000
 7081.00    0.00000   1.09798   -2.000
 7082.00    0.00000   1.09484   -2.000
 7083.00    0.00000   1.09135   -2.000
 7084.00    0.00000   1.09055   -2.000
 7085.00    0.00000   1.08836   -2.000
 7086.00    0.00000   1.08625   -2.000
 7087.00    0.00000   1.08633   -2.000
 7088.00    0.00000   1.08503   -2.000
 7089.00    0.00000   1.08462   -2.000
 7090.00    0.00000   1.08544   -2.000
 7091.00    0.00000   1.08512   -2.000
 7092.00    0.00000   1.08592   -2.000
 7093.00    0.00000   1.08672   -2.000
 7094.00    0.00000   1.08703   -2.000
 7095.00    0.00000   1.08798   -2.000
 7096.00    0.00000   1.08859   -2.000
 7097.00    0.00000   1.08922   -2.000
 7098.00    0.00000   1.08962   -2.000
 7099.00    0.00000   1.08973   -2.000
 7100.00    0.00000   1.09006   -2.000
 7101.00    0.00000   1.08993   -2.000
 7102.00    0.00000   1.08965   -2.000
 7103.00    0.00000   1.08978   -2.000
 7104.00    0.00000   1.08955   -2.000
 7105.00    0.00000   1.08890   -2.000
 7106.00    0.00000   1.08828   -2.000
 7107.00    0.00000   1.08819   -2.000
 7108.00    0.00000   1.08811   -2.000
 7109.00    0.00000   1.08701   -2.000
 7110.00    0.00000   1.08649   -2.000
 7111.00    0.00000   1.08668   -2.000
 7112.00    0.00000   1.08587   -2.000
 7113.00    0.00000   1.08526   -2.000
 7114.00    0.00000   1.08472   -2.000
 7115.00    0.00000   1.08383   -2.000
 7116.00    0.00000   1.08360   -2.000
 7117.00    0.00000   1.08218   -2.000
 7118.00    0.00000   1.08128   -2.000
 7119.00    0.00000   1.08151   -2.000
 7120.00    0.00000   1.07973   -2.000
 7121.00    0.00000   1.07913   -2.000
 7122.00    0.00000   1.07960   -2.000
 7123.00    0.00000   1.07831   -2.000
 7124.00    0.00000   1.07842   -2.000
 7125.00    0.00000   1.07856   -2.000
 7126.00    0.00000   1.07804   -2.000
 7127.00    0.00000   1.07943   -2.000
 7128.00    0.00000   1.07951   -2.000
 7129.00    0.00000   1.07931   -2.000
 7130.00    0.00000   1.08138   -2.000
 7131.00    0.00000   1.08169   -2.000
 7132.00    0.00000   1.08179   -2.000
 7133.00    0.00000   1.08377   -2.000
 7134.00    0.00000   1.08364   -2.000
 7135.00    0.00000   1.08354   -2.000
 7136.00    0.00000   1.08538   -2.000
 7137.00    0.00000   1.08491   -2.000
 7138.00    0.00000   1.08456   -2.000
 7139.00    0.00000   1.08613   -2.000
 7140.00    0.00000   1.08552   -2.000
 7141.00    0.00000   1.08583   -2.000
 7142.00    0.00000   1.08716   -2.000
 7143.00    0.00000   1.08620   -2.000
 7144.00    0.00000   1.08736   -2.000
 7145.00    0.00000   1.08892   -2.000
 7146.00    0.00000   1.08808   -2.000
 7147.00    0.00000   1.08937   -2.000
 7148.00    0.00000   1.09093   -2.000
 7149.00    0.00000   1.09095   -2.000
 7150.00    0.00000   1.09174   -2.000
 7151.00    0.00000   1.09257   -2.000
 7152.00    0.00000   1.09337   -2.000
 7153.00    0.00000   1.09340   -2.000
 7154.00    0.00000   1.09316   -2.000
 7155.00    0.00000   1.09424   -2.000
 7156.00    0.00000   1.09429   -2.000
 7157.00    0.00000   1.09391   -2.000
 7158.00    0.00000   1.09472   -2.000
 7159.00    0.00000   1.09473   -2.000
 7160.00    0.00000   1.09472   -2.000
 7161.00    0.00000   1.09592   -2.000
 7162.00    0.00000   1.09630   -2.000
 7163.00    0.00000   1.09629   -2.000
 7164.00    0.00000   1.09744   -2.000
 7165.00    0.00000   1.09815   -2.000
 7166.00    0.00000   1.09845   -2.000
 7167.00    0.00000   1.09935   -2.000
 7168.00    0.00000   1.09909   -2.000
 7169.00    0.00000   1.09884   -2.000
 7170.00    0.00000   1.09937   -2.000
 7171.00    0.00000   1.09809   -2.000
 7172.00    0.00000   1.09722   -2.000
 7173.00    0.00000   1.09714   -2.000
 7174.00    0.00000   1.09498   -2.000
 7175.00    0.00000   1.09385   -2.000
 7176.00    0.00000   1.09327   -2.000
 7177.00    0.00000   1.09108   -2.000
 7178.00    0.00000   1.09024   -2.000
 7179.00    0.00000   1.08897   -2.000
 7180.00    0.00000   1.08710   -2.000
 7181.00    0.00000   1.08725   -2.000
 7182.00    0.00000   1.08617   -2.000
 7183.00    0.00000   1.08491   -2.000
 7184.00    0.00000   1.08546   -2.000
 7185.00    0.00000   1.08462   -2.000
 7186.00    0.00000   1.08427   -2.000
 7187.00    0.00000   1.08537   -2.000
 7188.00    0.00000   1.08508   -2.000
 7189.00    0.00000   1.08539   -2.000
 7190.00    0.00000   1.08674   -2.000
 7191.00    0.00000   1.08643   -2.000
 7192.00    0.00000   1.08652   -2.000
 7193.00    0.00000   1.08793   -2.000
 7194.00    0.00000   1.08781   -2.000
 7195.00    0.00000   1.08779   -2.000
 7196.00    0.00000   1.08846   -2.000
 7197.00    0.00000   1.08805   -2.000
 7198.00    0.00000   1.08844   -2.000
 7199.00    0.00000   1.08859   -2.000
 7200.00    0.00000   1.08816   -2.000
 7201.00    0.00000   1.08884   -2.000
 7202.00    0.00000   1.08858   -2.000
 7203.00    0.00000   1.08896   -2.000
 7204.00    0.00000   1.09007   -2.000
 7205.00    0.00000   1.08947   -2.000
 7206.00    0.00000   1.09058   -2.000
 7207.00    0.00000   1.09221   -2.000
 7208.00    0.00000   1.09227   -2.000
 7209.00    0.00000   1.09393   -2.000
 7210.00    0.00000   1.09546   -2.000
 7211.00    0.00000   1.09593   -2.000
 7212.00    0.00000   1.09767   -2.000
 7213.00    0.00000   1.09929   -2.000
 7214.00    0.00000   1.10040   -2.000
 7215.00    0.00000   1.10212   -2.000
 7216.00    0.00000   1.10380   -2.000
 7217.00    0.00000   1.10543   -2.000
 7218.00    0.00000   1.10691   -2.000
