###################################################################
## OUTPUT of StarlightChains_v04.for    [Cid@UFSC - 01/Apr/2007] ##
###################################################################

## Some input info
2005la.txt                               [arq_obs]
Base.CB07.vall.4m                        [arq_base]
Masks.EmLines.NEW.gm                     [arq_masks]
StCv04.C11.config                        [arq_config]
   66                                    [N_base]
    0                                    [N_YAV_components = # of components with extra extinction!]
    0                                    [i_FitPowerLaw (1/0 = Yes/No)]
-9.99                                    [alpha_PowerLaw]
CCM                                      [red_law_option]
 1.458241                                [q_norm = A(l_norm)/A(V)]

## (Re)Sampling Parameters
 3741.00                                 [l_ini (A)]
 7218.00                                 [l_fin (A)]
    1.00                                 [dl    (A)]     (OBS: dl_cushion =    50.00 A)

## Normalization info
 4020.00                                 [l_norm (A) - for base]
 4010.00                                 [llow_norm (A) - window for f_obs]
 4060.00                                 [lupp_norm (A) - window for f_obs]
4.559150E-17                             [fobs_norm (in input units)]

## S/N
 3691.00                                 [llow_SN (A) - window for S/N]
 7268.00                                 [lupp_SN (A) - window for S/N]
   2.456                                 [S/N in S/N window]
   4.298                                 [S/N in norm. window]
   5.696                                 [S/N_err in S/N window]
   9.967                                 [S/N_err in norm. window]
  1.0000                                 [fscale_chi2]

## etc...
    -2007308                             [idum_orig]
  2384                                   [NOl_eff]
  2348                                   [Nl_eff]
    36    NSIGMA                         [Ntot_cliped & clip_method]
   698320                                [Nglobal_steps]
   7                                     [N_chains]
  13                                     [NEX0s_base = N_base in EX0s-fits]
 0   0   1       44   2.0   2.053E+01    [Clip-Bug, RC-Crash & Burn-In warning-flags, n_censored_weights, wei_nsig_threshold & wei_limit]
    10      9.372      8.873      0.500  [idt_all, wdt_TotTime, wdt_UsrTime & wdt_SysTime (sec)]

## Synthesis Results - Best model ##

 5.66686E-01                             [chi2/Nl_eff]
     9.43062                             [adev (%)]

   100.47660                             [sum-of-x (%)]
 2.60005E-17                             [Flux_tot (units of input spectrum!)]
 5.45795E-14                             [Mini_tot (???)]
 3.00458E-14                             [Mcor_tot (???)]

 -67.70                                  [v0_min  (km/s)]
  88.02                                  [vd_min  (km/s)]
-0.4217                                  [AV_min  (mag)]
 0.0000                                  [YAV_min (mag)]

# j     x_j(%)      Mini_j(%)     Mcor_j(%)     age_j(yr)     Z_j      (L/M)_j    YAV?  Mstars   component_j        a/Fe...       SSP_chi2r SSP_adev(%)   SSP_AV   SSP_x(%)
  1      0.0000     0.0000E+00    0.0000E+00    1.000000E+06  0.00400  1.094E-02    0   1.0000   age020_m42            0.0000     6.9690E-01     9.9759   1.3629    89.8288
  2      0.0000     0.0000E+00    0.0000E+00    3.160000E+06  0.00400  4.007E-02    0   0.9999   age045_m42            0.0000     6.2712E-01     9.8014   0.6001    97.5711
  3      0.0000     0.0000E+00    0.0000E+00    5.010000E+06  0.00400  2.539E-02    0   0.9488   age055_m42            0.0000     6.2641E-01     9.7947   0.9350    94.5625
  4      0.0000     0.0000E+00    0.0000E+00    6.610000E+06  0.00400  2.620E-02    0   0.9220   age061_m42            0.0000     6.2327E-01     9.7499   0.5279    97.7447
  5      0.0000     0.0000E+00    0.0000E+00    1.000000E+07  0.00400  1.322E-02    0   0.8862   age070_m42            0.0000     5.8993E-01     9.5085   0.2857    98.1607
  6      0.0000     0.0000E+00    0.0000E+00    1.445000E+07  0.00400  7.883E-03    0   0.8571   age078_m42            0.0000     5.9556E-01     9.5353   0.6155    95.5851
  7      0.0000     0.0000E+00    0.0000E+00    2.512000E+07  0.00400  5.251E-03    0   0.8174   age090_m42            0.0000     5.8935E-01     9.4926   0.1594    98.5506
  8      0.0000     0.0000E+00    0.0000E+00    4.000000E+07  0.00400  3.649E-03    0   0.7851   age104_m42            0.0000     5.9325E-01     9.5012  -0.0785    99.8131
  9      0.0000     0.0000E+00    0.0000E+00    5.500000E+07  0.00400  3.098E-03    0   0.7629   age110_m42            0.0000     6.3327E-01     9.6373   0.0530   100.7991
 10      0.0000     0.0000E+00    0.0000E+00    1.015200E+08  0.00400  2.228E-03    0   0.7207   age116_m42            0.0000     6.8482E-01     9.7750   0.0586   101.5975
 11      0.0000     0.0000E+00    0.0000E+00    2.861200E+08  0.00400  1.093E-03    0   0.6648   age125_m42            0.0000     7.2873E-01     9.8624  -0.5008   104.1798
 12      0.0000     0.0000E+00    0.0000E+00    5.088000E+08  0.00400  6.597E-04    0   0.6365   age130_m42            0.0000     8.2431E-01    10.1323  -0.5348   106.0840
 13      0.0000     0.0000E+00    0.0000E+00    1.434000E+09  0.00400  2.132E-04    0   0.5798   age139_m42            0.0000     1.3978E+00    13.6704  -1.0000    92.4127
 14     11.8410     9.5234E+01    9.3021E+01    4.250000E+09  0.00400  5.895E-05    0   0.5377   age158_m42            0.0000     2.6456E+00    18.9860  -1.0000    74.9740
 15      0.0000     0.0000E+00    0.0000E+00    7.500000E+09  0.00400  3.510E-05    0   0.5212   age171_m42            0.0000     3.4111E+00    21.2886  -1.0000    68.6889
 16      0.0000     0.0000E+00    0.0000E+00    1.300000E+10  0.00400  2.005E-05    0   0.5034   age193_m42            0.0000     4.1350E+00    23.2064  -1.0000    63.4055
 17      0.0000     0.0000E+00    0.0000E+00    1.800000E+10  0.00400  1.525E-05    0   0.4967   age213_m42            0.0000     4.2106E+00    23.4616  -1.0000    62.4357
 18      0.0000     0.0000E+00    0.0000E+00    1.000000E+06  0.00800  1.238E-02    0   1.0000   age020_m52            0.0000     6.9757E-01     9.9801   1.3579    90.0454
 19      0.0000     0.0000E+00    0.0000E+00    3.160000E+06  0.00800  3.074E-02    0   0.9966   age045_m52            0.0000     6.7793E-01     9.9476   1.2748    91.0974
 20      0.0811     1.4403E-03    2.4707E-03    5.010000E+06  0.00800  2.668E-02    0   0.9443   age055_m52            0.0000     6.2810E-01     9.7765   1.0219    93.5433
 21     59.2023     1.3141E+00    2.1906E+00    6.610000E+06  0.00800  2.136E-02    0   0.9177   age061_m52            0.0000     5.7234E-01     9.4537  -0.2155    99.2766
 22      0.0000     0.0000E+00    0.0000E+00    1.000000E+07  0.00800  1.215E-02    0   0.8827   age070_m52            0.0000     5.8685E-01     9.5067   0.4785    97.3926
 23      4.3618     2.3724E-01    3.6855E-01    1.445000E+07  0.00800  8.717E-03    0   0.8552   age078_m52            0.0000     5.8956E-01     9.4992   0.5785    96.9918
 24     12.0249     1.0195E+00    1.5116E+00    2.512000E+07  0.00800  5.592E-03    0   0.8162   age090_m52            0.0000     5.8996E-01     9.4979   0.2214    99.7961
 25      0.0000     0.0000E+00    0.0000E+00    4.000000E+07  0.00800  3.896E-03    0   0.7841   age104_m52            0.0000     6.0377E-01     9.5406   0.1198   101.2144
 26      0.0000     0.0000E+00    0.0000E+00    1.015200E+08  0.00800  2.148E-03    0   0.7226   age116_m52            0.0000     6.4668E-01     9.6372   0.0356   102.0113
 27      0.0000     0.0000E+00    0.0000E+00    2.861200E+08  0.00800  9.925E-04    0   0.6683   age125_m52            0.0000     8.2132E-01    10.0729  -0.4709   107.1594
 28      0.0000     0.0000E+00    0.0000E+00    9.047900E+08  0.00800  3.141E-04    0   0.6138   age135_m52            0.0000     1.1463E+00    11.8202  -1.0000   103.6244
 29      0.0000     0.0000E+00    0.0000E+00    1.434000E+09  0.00800  1.719E-04    0   0.5853   age139_m52            0.0000     2.3779E+00    17.8740  -1.0000    82.0161
 30      0.0000     0.0000E+00    0.0000E+00    2.500000E+09  0.00800  7.872E-05    0   0.5600   age150_m52            0.0000     3.4439E+00    21.1467  -1.0000    71.2949
 31      0.0000     0.0000E+00    0.0000E+00    4.250000E+09  0.00800  4.336E-05    0   0.5426   age158_m52            0.0000     3.5087E+00    21.3041  -1.0000    70.1521
 32      0.0000     0.0000E+00    0.0000E+00    6.250000E+09  0.00800  3.159E-05    0   0.5319   age166_m52            0.0000     4.4580E+00    23.5498  -1.0000    63.9644
 33      0.0000     0.0000E+00    0.0000E+00    1.300000E+10  0.00800  1.361E-05    0   0.5073   age193_m52            0.0000     6.6403E+00    28.2087  -1.0000    50.5177
 34      0.0000     0.0000E+00    0.0000E+00    1.800000E+10  0.00800  9.886E-06    0   0.4990   age213_m52            0.0000     7.2418E+00    29.0515  -1.0000    47.5784
 35      0.0000     0.0000E+00    0.0000E+00    1.000000E+06  0.02000  1.544E-02    0   1.0000   age020_m62            0.0000     6.9977E-01     9.9944   1.3556    90.2015
 36      0.0000     0.0000E+00    0.0000E+00    3.160000E+06  0.02000  3.762E-02    0   0.9858   age045_m62            0.0000     6.8662E-01     9.9919   1.2890    91.2176
 37      0.0000     0.0000E+00    0.0000E+00    5.010000E+06  0.02000  3.296E-02    0   0.9342   age055_m62            0.0000     6.2183E-01     9.8044   0.8819    96.2768
 38      5.9821     2.4577E-01    3.9561E-01    8.710000E+06  0.02000  1.154E-02    0   0.8861   age067_m62            0.0000     6.9729E-01    10.4731   0.0068    96.6604
 39      0.0000     0.0000E+00    0.0000E+00    1.445000E+07  0.02000  7.663E-03    0   0.8472   age078_m62            0.0000     5.9647E-01     9.6278   0.1469    98.6666
 40      0.0000     0.0000E+00    0.0000E+00    2.512000E+07  0.02000  4.532E-03    0   0.8099   age090_m62            0.0000     6.0453E-01     9.7110   0.1397    98.3649
 41      0.0000     0.0000E+00    0.0000E+00    5.500000E+07  0.02000  2.733E-03    0   0.7595   age110_m62            0.0000     6.0318E-01     9.5303   0.1056   100.3106
 42      0.0000     0.0000E+00    0.0000E+00    1.609000E+08  0.02000  1.369E-03    0   0.6985   age120_m62            0.0000     7.4396E-01     9.8457  -0.0916   104.6494
 43      0.0000     0.0000E+00    0.0000E+00    2.861200E+08  0.02000  9.013E-04    0   0.6714   age125_m62            0.0000     8.9647E-01    10.2163  -0.3638   108.6124
 44      0.0000     0.0000E+00    0.0000E+00    5.088000E+08  0.02000  5.028E-04    0   0.6449   age130_m62            0.0000     1.0254E+00    10.8737  -0.7845   113.5765
 45      0.0000     0.0000E+00    0.0000E+00    9.047900E+08  0.02000  2.428E-04    0   0.6179   age135_m62            0.0000     1.2561E+00    12.4774  -1.0000   101.1919
 46      0.0000     0.0000E+00    0.0000E+00    1.434000E+09  0.02000  1.263E-04    0   0.5908   age139_m62            0.0000     2.2766E+00    17.1025  -1.0000    84.7234
 47      0.0000     0.0000E+00    0.0000E+00    2.500000E+09  0.02000  5.985E-05    0   0.5673   age150_m62            0.0000     3.6747E+00    21.4020  -1.0000    71.6177
 48      0.0000     0.0000E+00    0.0000E+00    4.250000E+09  0.02000  3.271E-05    0   0.5468   age158_m62            0.0000     5.1092E+00    24.6129  -1.0000    61.6459
 49      0.0000     0.0000E+00    0.0000E+00    1.000000E+10  0.02000  1.360E-05    0   0.5167   age181_m62            0.0000     6.8690E+00    27.8140  -1.0000    51.6798
 50      0.0000     0.0000E+00    0.0000E+00    1.800000E+10  0.02000  7.124E-06    0   0.5013   age213_m62            0.0000     7.9495E+00    29.5245  -1.0000    46.0366
 51      0.0000     0.0000E+00    0.0000E+00    1.000000E+06  0.05000  2.592E-02    0   0.9998   age020_m72            0.0000     7.1539E-01    10.0192   1.3511    90.0527
 52      0.0000     0.0000E+00    0.0000E+00    3.160000E+06  0.05000  4.845E-02    0   0.9577   age045_m72            0.0000     6.4914E-01     9.9251   1.1560    93.0810
 53      0.0000     0.0000E+00    0.0000E+00    5.010000E+06  0.05000  3.072E-02    0   0.9147   age055_m72            0.0000     6.1766E-01     9.6693   0.7198    95.5684
 54      0.0000     0.0000E+00    0.0000E+00    6.610000E+06  0.05000  1.455E-02    0   0.8877   age061_m72            0.0000     8.5904E-01    12.0096   0.0896    96.1972
 55      0.0000     0.0000E+00    0.0000E+00    1.000000E+07  0.05000  9.074E-03    0   0.8524   age070_m72            0.0000     6.5191E-01     9.9970   0.9093    95.2383
 56      0.0000     0.0000E+00    0.0000E+00    2.512000E+07  0.05000  4.250E-03    0   0.7902   age090_m72            0.0000     6.1863E-01     9.7638   0.5905    97.6678
 57      0.0000     0.0000E+00    0.0000E+00    4.000000E+07  0.05000  3.087E-03    0   0.7618   age104_m72            0.0000     6.3137E-01     9.8298   0.3611    99.3096
 58      6.9834     1.9476E+00    2.5105E+00    1.015200E+08  0.05000  1.700E-03    0   0.7096   age116_m72            0.0000     7.1343E-01     9.7628   0.0652   103.5881
 59      0.0000     0.0000E+00    0.0000E+00    2.861200E+08  0.05000  7.384E-04    0   0.6633   age125_m72            0.0000     9.6948E-01    10.5125  -0.5217   111.3351
 60      0.0000     0.0000E+00    0.0000E+00    5.088000E+08  0.05000  3.819E-04    0   0.6372   age130_m72            0.0000     9.8036E-01    10.9735  -1.0000   113.3971
 61      0.0000     0.0000E+00    0.0000E+00    9.047900E+08  0.05000  1.676E-04    0   0.6110   age135_m72            0.0000     2.1876E+00    16.4401  -1.0000    88.4277
 62      0.0000     0.0000E+00    0.0000E+00    1.434000E+09  0.05000  8.837E-05    0   0.5874   age139_m72            0.0000     3.7752E+00    21.5042  -1.0000    72.6218
 63      0.0000     0.0000E+00    0.0000E+00    2.500000E+09  0.05000  4.233E-05    0   0.5598   age150_m72            0.0000     5.2195E+00    24.6443  -1.0000    62.1547
 64      0.0000     0.0000E+00    0.0000E+00    6.250000E+09  0.05000  1.435E-05    0   0.5249   age166_m72            0.0000     7.3456E+00    28.6778  -1.0000    48.9812
 65      0.0000     0.0000E+00    0.0000E+00    1.300000E+10  0.05000  6.513E-06    0   0.5036   age193_m72            0.0000     8.7369E+00    30.9074  -1.0000    42.7334
 66      0.0000     0.0000E+00    0.0000E+00    1.800000E+10  0.05000  4.527E-06    0   0.4945   age213_m72            0.0000     9.5041E+00    32.0920  -1.0000    39.1547


## Synthesis Results - Average & Chains ##

# j      x_j: min, <> & last-chain-values for 1 ...  7 chains
  1      0.0000      0.5630      0.0000      0.0000      0.0000      0.0000      0.0000      0.0000      0.0000
  2      0.0000      1.0151      0.0000      0.0000      0.5006      0.0000      0.0000      0.0861      0.0000
  3      0.0000      0.3584      0.0000      0.0000      0.0000      0.0000      0.0000      0.0000      0.2561
  4      0.0000      0.7376      0.0000      0.0000      0.0000      0.0000      6.4191      0.0000      1.4155
  5      0.0000      2.0164      8.5941      1.6697      2.7258      0.0000      0.0000      0.0000      0.0000
  6      0.0000      1.2871      0.0000      3.2183      3.1205      0.3404      0.0000      5.3441      0.0000
  7      0.0000      1.5847      0.0000     14.2340      0.0000      0.9047      0.0000      3.6691      1.0792
  8      0.0000      3.4931      0.2614      2.3149      0.4712      3.1947      0.0000      1.0085      0.0000
  9      0.0000      1.1244      0.0000      0.0000      0.0000      0.0000      0.0000      0.0000     10.8022
 10      0.0000      1.4309      0.0000      0.0000      0.5996      0.0000      0.0000      0.0000      0.0000
 11      0.0000      1.1572      0.0000      2.2121      0.0000      0.0000      0.0000      0.0000      1.5982
 12      0.0000      0.7271      0.0000      0.7344      0.0000      0.0000      1.3762      0.0000      0.0000
 13      0.0000      0.1225      1.2080      0.0000      0.0000      0.0000      0.0000      0.0000      0.0000
 14     11.8410      0.3880      0.0000      3.0335      0.8850      0.0977      1.4821      0.0000      0.0000
 15      0.0000      0.0731      0.0000      0.0000      0.0000      0.0000      0.0000      0.0000      0.0000
 16      0.0000      0.0519      0.0000      0.0000      0.3945      0.0000      0.0000      0.0000      0.0000
 17      0.0000      0.0153      0.0000      0.0000      0.0000      0.0000      0.0000      0.0000      0.3230
 18      0.0000      0.4061      0.0000      1.3121      0.0000      1.0905      0.0000      0.0000      0.0000
 19      0.0000      0.2380      0.4848      0.0000      0.0000      0.0000      0.0000      0.0000      0.0000
 20      0.0811      0.4897      0.5784      0.0000      0.0000      1.7722      6.9243      4.0434      2.0584
 21     59.2023     39.9454     45.5858     48.0858     48.8600     51.0872     52.1487     41.0557     44.8077
 22      0.0000      0.6049      1.5930      2.0855      0.0000      0.0000      0.0000      0.0000      0.0000
 23      4.3618      1.0828      5.1282      0.0000      3.8409      5.4452      2.9657      0.0000      0.0000
 24     12.0249      1.4612      1.7033      0.7407      0.0000      0.0000      6.7111      0.0000      0.0000
 25      0.0000      2.6709      0.0000      0.0000      0.0000      4.1803      0.0000      0.0000      0.0000
 26      0.0000      2.3433      5.4129      3.8906      1.3236      1.6126      0.0000      0.5160      0.0000
 27      0.0000      2.1140      0.0000      0.0000      1.6547      0.0000      0.0000      8.6647      0.0000
 28      0.0000      0.8047      1.9714      0.5919      2.2078      2.8047      2.9377      0.0000      2.3237
 29      0.0000      0.1386      0.0000      0.0000      0.3357      1.2185      0.0000      0.0000      0.0000
 30      0.0000      0.0894      1.2000      0.0000      0.0000      0.0000      0.0000      0.0000      0.0000
 31      0.0000      0.1176      0.0000      0.0724      0.0000      0.0000      0.0000      0.3984      0.2703
 32      0.0000      0.0940      0.0000      0.0000      0.0000      0.0000      0.0000      0.1186      0.0000
 33      0.0000      0.0287      0.0000      0.0000      0.0000      0.0000      0.0000      0.3016      0.0000
 34      0.0000      0.0189      0.0000      0.0000      0.0000      0.0000      0.0000      0.0000      0.0000
 35      0.0000      0.3203      2.5233      0.4632      0.0000      0.0000      0.0000      1.4017      0.8389
 36      0.0000      0.4226      0.8226      2.1411      0.0000      0.0000      0.0000      0.0000      0.0000
 37      0.0000      1.2493      3.0910      0.0000      0.0000      2.4874      0.0000      7.0847      0.0000
 38      5.9821      7.0181      6.8103      4.7479      0.0380      8.5419      8.1184     10.6174      8.0796
 39      0.0000      4.6252      7.3583      4.7093     11.7166      4.2082      0.0000      3.1881      8.3946
 40      0.0000      2.9738      0.0000      0.0000     10.2683      0.0000      2.3930      0.0939      0.0000
 41      0.0000      2.7088      0.0000      0.0000      0.0000      2.2008      0.0000      0.0000     10.1977
 42      0.0000      0.7267      0.3080      0.0000      0.9766      1.5823      0.6324      0.0000      0.0000
 43      0.0000      0.9842      2.1139      0.2391      0.8976      0.0000      2.9133      0.0000      0.0000
 44      0.0000      1.0406      1.4273      0.0000      0.0000      0.0000      0.0000      1.2030      0.0000
 45      0.0000      0.4541      0.0000      0.0000      0.0000      0.0000      0.0000      2.2070      2.1161
 46      0.0000      0.1679      0.0000      0.0000      0.0000      0.0000      0.0000      0.2185      0.0000
 47      0.0000      0.0508      0.0000      0.5795      0.0000      0.0000      0.0000      0.3964      0.0000
 48      0.0000      0.0394      0.0000      0.0000      0.0000      0.0000      0.0000      0.0000      0.0000
 49      0.0000      0.0267      0.0000      0.0000      0.0000      0.1259      0.0000      0.0000      0.0000
 50      0.0000      0.0361      0.0000      0.0000      0.0000      0.0000      0.0000      0.0000      0.0000
 51      0.0000      0.4940      0.0000      0.0000      0.0000      0.0000      0.0000      0.0000      2.6384
 52      0.0000      0.5288      0.0000      0.0000      0.0000      1.8255      0.0000      0.0000      0.6217
 53      0.0000      0.9824      0.0000      0.0000      0.0000      0.1711      0.0000      1.0682      0.2645
 54      0.0000      1.3744      0.0000      0.0000      0.0000      0.0000      0.0000      0.0000      0.0000
 55      0.0000      0.3231      0.0000      0.0000      0.9466      0.0000      0.0000      0.0000      0.0000
 56      0.0000      0.3426      0.0000      0.0000      0.0000      0.0000      0.0000      0.0000      0.3156
 57      0.0000      0.9082      0.0000      1.3996      0.0000      0.4198      0.6328      3.8331      0.1494
 58      6.9834      1.4244      0.0000      0.0000      5.7401      0.0000      2.0311      0.0000      0.0000
 59      0.0000      0.9949      0.0000      0.8034      0.0000      4.8880      0.0000      0.0000      0.0000
 60      0.0000      0.5683      1.0215      0.0000      3.1087      0.0000      2.2022      2.4797      0.0000
 61      0.0000      0.4360      1.0708      0.0000      0.0000      0.0000      0.0000      1.0144      1.2242
 62      0.0000      0.0500      0.0000      0.0000      0.0000      0.0000      0.0000      0.0000      0.0000
 63      0.0000      0.0778      0.0000      0.0000      0.0000      0.0000      0.0000      0.0000      0.0000
 64      0.0000      0.0120      0.0000      0.0000      0.0000      0.0000      0.0000      0.0000      0.0000
 65      0.0000      0.0054      0.0000      0.0000      0.0000      0.0000      0.0000      0.0000      0.0000
 66      0.0000      0.0099      0.0000      0.0000      0.0000      0.0000      0.0000      0.0000      0.0000

# j      m_j: min, <> & last-chain-values for 1 ...  7 chains
  1  0.0000E+00  1.2191E-01  0.0000E+00  0.0000E+00  0.0000E+00  0.0000E+00  0.0000E+00  0.0000E+00  0.0000E+00
  2  0.0000E+00  6.0010E-02  0.0000E+00  0.0000E+00  3.1022E-02  0.0000E+00  0.0000E+00  4.3216E-03  0.0000E+00
  3  0.0000E+00  3.1733E-02  0.0000E+00  0.0000E+00  0.0000E+00  0.0000E+00  0.0000E+00  0.0000E+00  2.4663E-02
  4  0.0000E+00  6.1496E-02  0.0000E+00  0.0000E+00  0.0000E+00  0.0000E+00  6.8888E-01  0.0000E+00  1.2838E-01
  5  0.0000E+00  3.2023E-01  1.8134E+00  2.4116E-01  4.5374E-01  0.0000E+00  0.0000E+00  0.0000E+00  0.0000E+00
  6  0.0000E+00  3.3154E-01  0.0000E+00  7.5395E-01  8.4249E-01  1.3420E-01  0.0000E+00  1.1682E+00  0.0000E+00
  7  0.0000E+00  5.8441E-01  0.0000E+00  4.7741E+00  0.0000E+00  5.1063E-01  0.0000E+00  1.1483E+00  4.3294E-01
  8  0.0000E+00  1.7805E+00  1.7706E-01  1.0731E+00  2.5176E-01  2.4922E+00  0.0000E+00  4.3626E-01  0.0000E+00
  9  0.0000E+00  6.5596E-01  0.0000E+00  0.0000E+00  0.0000E+00  0.0000E+00  0.0000E+00  0.0000E+00  6.8554E+00
 10  0.0000E+00  1.0965E+00  0.0000E+00  0.0000E+00  4.8161E-01  0.0000E+00  0.0000E+00  0.0000E+00  0.0000E+00
 11  0.0000E+00  1.6674E+00  0.0000E+00  2.8990E+00  0.0000E+00  0.0000E+00  0.0000E+00  0.0000E+00  2.5052E+00
 12  0.0000E+00  1.6620E+00  0.0000E+00  1.5266E+00  0.0000E+00  0.0000E+00  4.0491E+00  0.0000E+00  0.0000E+00
 13  0.0000E+00  7.8932E-01  1.0341E+01  0.0000E+00  0.0000E+00  0.0000E+00  0.0000E+00  0.0000E+00  0.0000E+00
 14  9.3021E+01  8.3853E+00  0.0000E+00  5.9618E+01  2.0045E+01  3.2305E+00  4.1227E+01  0.0000E+00  0.0000E+00
 15  0.0000E+00  2.5725E+00  0.0000E+00  0.0000E+00  0.0000E+00  0.0000E+00  0.0000E+00  0.0000E+00  0.0000E+00
 16  0.0000E+00  3.0885E+00  0.0000E+00  0.0000E+00  2.4593E+01  0.0000E+00  0.0000E+00  0.0000E+00  0.0000E+00
 17  0.0000E+00  1.1818E+00  0.0000E+00  0.0000E+00  0.0000E+00  0.0000E+00  0.0000E+00  0.0000E+00  2.7112E+01
 18  0.0000E+00  7.7720E-02  0.0000E+00  2.2836E-01  0.0000E+00  3.1939E-01  0.0000E+00  0.0000E+00  0.0000E+00
 19  0.0000E+00  1.8284E-02  4.9469E-02  0.0000E+00  0.0000E+00  0.0000E+00  0.0000E+00  0.0000E+00  0.0000E+00
 20  2.4707E-03  4.1060E-02  6.4443E-02  0.0000E+00  0.0000E+00  2.2742E-01  7.4737E-01  2.8772E-01  1.8775E-01
 21  2.1906E+00  4.0658E+00  6.1648E+00  4.4513E+00  5.2127E+00  7.9582E+00  6.8325E+00  3.5463E+00  4.9612E+00
 22  0.0000E+00  1.0412E-01  3.6429E-01  3.2646E-01  0.0000E+00  0.0000E+00  0.0000E+00  0.0000E+00  0.0000E+00
 23  3.6855E-01  2.5168E-01  1.5836E+00  0.0000E+00  9.3571E-01  1.9370E+00  8.8728E-01  0.0000E+00  0.0000E+00
 24  1.5116E+00  5.0526E-01  7.8257E-01  2.3295E-01  0.0000E+00  0.0000E+00  2.9872E+00  0.0000E+00  0.0000E+00
 25  0.0000E+00  1.2735E+00  0.0000E+00  0.0000E+00  0.0000E+00  3.0504E+00  0.0000E+00  0.0000E+00  0.0000E+00
 26  0.0000E+00  1.8675E+00  5.7317E+00  2.8200E+00  1.1057E+00  1.9670E+00  0.0000E+00  3.4898E-01  0.0000E+00
 27  0.0000E+00  3.3723E+00  0.0000E+00  0.0000E+00  2.7666E+00  0.0000E+00  0.0000E+00  1.1730E+01  0.0000E+00
 28  0.0000E+00  3.7252E+00  1.2126E+01  2.4921E+00  1.0714E+01  1.9872E+01  1.7507E+01  0.0000E+00  1.1703E+01
 29  0.0000E+00  1.1184E+00  0.0000E+00  0.0000E+00  2.8386E+00  1.5043E+01  0.0000E+00  0.0000E+00  0.0000E+00
 30  0.0000E+00  1.5066E+00  2.6871E+01  0.0000E+00  0.0000E+00  0.0000E+00  0.0000E+00  0.0000E+00  0.0000E+00
 31  0.0000E+00  3.4866E+00  0.0000E+00  1.9523E+00  0.0000E+00  0.0000E+00  0.0000E+00  1.0024E+01  8.7159E+00
 32  0.0000E+00  3.7512E+00  0.0000E+00  0.0000E+00  0.0000E+00  0.0000E+00  0.0000E+00  4.0161E+00  0.0000E+00
 33  0.0000E+00  2.5382E+00  0.0000E+00  0.0000E+00  0.0000E+00  0.0000E+00  0.0000E+00  2.2599E+01  0.0000E+00
 34  0.0000E+00  2.2628E+00  0.0000E+00  0.0000E+00  0.0000E+00  0.0000E+00  0.0000E+00  0.0000E+00  0.0000E+00
 35  0.0000E+00  4.9145E-02  5.1442E-01  6.4645E-02  0.0000E+00  0.0000E+00  0.0000E+00  1.8252E-01  1.4003E-01
 36  0.0000E+00  2.6236E-02  6.7853E-02  1.2089E-01  0.0000E+00  0.0000E+00  0.0000E+00  0.0000E+00  0.0000E+00
 37  0.0000E+00  8.3886E-02  2.7577E-01  0.0000E+00  0.0000E+00  2.5563E-01  0.0000E+00  4.0372E-01  0.0000E+00
 38  3.9561E-01  1.2767E+00  1.6460E+00  7.8552E-01  7.2443E-03  2.3781E+00  1.9010E+00  1.6391E+00  1.5988E+00
 39  0.0000E+00  1.2114E+00  2.5607E+00  1.1218E+00  3.2166E+00  1.6869E+00  0.0000E+00  7.0863E-01  2.3918E+00
 40  0.0000E+00  1.2590E+00  0.0000E+00  0.0000E+00  4.5567E+00  0.0000E+00  1.3042E+00  3.3730E-02  0.0000E+00
 41  0.0000E+00  1.7834E+00  0.0000E+00  0.0000E+00  0.0000E+00  2.2176E+00  0.0000E+00  0.0000E+00  7.3034E+00
 42  0.0000E+00  8.7840E-01  4.9473E-01  0.0000E+00  1.2373E+00  2.9272E+00  9.8394E-01  0.0000E+00  0.0000E+00
 43  0.0000E+00  1.7370E+00  4.9567E+00  3.8384E-01  1.6603E+00  0.0000E+00  6.6181E+00  0.0000E+00  0.0000E+00
 44  0.0000E+00  3.1619E+00  5.7624E+00  0.0000E+00  0.0000E+00  0.0000E+00  0.0000E+00  3.1021E+00  0.0000E+00
 45  0.0000E+00  2.7377E+00  0.0000E+00  0.0000E+00  0.0000E+00  0.0000E+00  0.0000E+00  1.1292E+01  1.3878E+01
 46  0.0000E+00  1.8606E+00  0.0000E+00  0.0000E+00  0.0000E+00  0.0000E+00  0.0000E+00  2.0552E+00  0.0000E+00
 47  0.0000E+00  1.1401E+00  0.0000E+00  1.1835E+01  0.0000E+00  0.0000E+00  0.0000E+00  7.5541E+00  0.0000E+00
 48  0.0000E+00  1.5620E+00  0.0000E+00  0.0000E+00  0.0000E+00  0.0000E+00  0.0000E+00  0.0000E+00  0.0000E+00
 49  0.0000E+00  2.4022E+00  0.0000E+00  0.0000E+00  0.0000E+00  1.7347E+01  0.0000E+00  0.0000E+00  0.0000E+00
 50  0.0000E+00  6.0233E+00  0.0000E+00  0.0000E+00  0.0000E+00  0.0000E+00  0.0000E+00  0.0000E+00  0.0000E+00
 51  0.0000E+00  4.5139E-02  0.0000E+00  0.0000E+00  0.0000E+00  0.0000E+00  0.0000E+00  0.0000E+00  2.6227E-01
 52  0.0000E+00  2.4761E-02  0.0000E+00  0.0000E+00  0.0000E+00  1.3083E-01  0.0000E+00  0.0000E+00  3.1672E-02
 53  0.0000E+00  6.9301E-02  0.0000E+00  0.0000E+00  0.0000E+00  1.8474E-02  0.0000E+00  6.3946E-02  2.0293E-02
 54  0.0000E+00  1.9866E-01  0.0000E+00  0.0000E+00  0.0000E+00  0.0000E+00  0.0000E+00  0.0000E+00  0.0000E+00
 55  0.0000E+00  7.1914E-02  0.0000E+00  0.0000E+00  2.2081E-01  0.0000E+00  0.0000E+00  0.0000E+00  0.0000E+00
 56  0.0000E+00  1.5091E-01  0.0000E+00  0.0000E+00  0.0000E+00  0.0000E+00  0.0000E+00  0.0000E+00  1.5125E-01
 57  0.0000E+00  5.3097E-01  0.0000E+00  7.4419E-01  0.0000E+00  3.7563E-01  4.7624E-01  1.9018E+00  9.5025E-02
 58  2.5105E+00  1.4086E+00  0.0000E+00  0.0000E+00  5.9496E+00  0.0000E+00  2.5854E+00  0.0000E+00  0.0000E+00
 59  0.0000E+00  2.1172E+00  0.0000E+00  1.5551E+00  0.0000E+00  1.5920E+01  0.0000E+00  0.0000E+00  0.0000E+00
 60  0.0000E+00  2.2463E+00  5.3646E+00  0.0000E+00  1.2880E+01  0.0000E+00  1.1205E+01  8.3183E+00  0.0000E+00
 61  0.0000E+00  3.7660E+00  1.2287E+01  0.0000E+00  0.0000E+00  0.0000E+00  0.0000E+00  7.4350E+00  1.1501E+01
 62  0.0000E+00  7.8689E-01  0.0000E+00  0.0000E+00  0.0000E+00  0.0000E+00  0.0000E+00  0.0000E+00  0.0000E+00
 63  0.0000E+00  2.4387E+00  0.0000E+00  0.0000E+00  0.0000E+00  0.0000E+00  0.0000E+00  0.0000E+00  0.0000E+00
 64  0.0000E+00  1.0397E+00  0.0000E+00  0.0000E+00  0.0000E+00  0.0000E+00  0.0000E+00  0.0000E+00  0.0000E+00
 65  0.0000E+00  9.9831E-01  0.0000E+00  0.0000E+00  0.0000E+00  0.0000E+00  0.0000E+00  0.0000E+00  0.0000E+00
 66  0.0000E+00  2.5561E+00  0.0000E+00  0.0000E+00  0.0000E+00  0.0000E+00  0.0000E+00  0.0000E+00  0.0000E+00

# AV, chi2 & Mass for <> & i_chain = 1 ...  7 solutions
AV      -0.4217     -0.1179     -0.1307     -0.1504     -0.1643     -0.1311     -0.1325     -0.1349     -0.1347
chi2 5.6669E-01  5.7198E-01  5.7015E-01  5.6993E-01  5.7073E-01  5.6973E-01  5.6970E-01  5.7059E-01  5.7060E-01
Mass 3.0046E-14  1.6426E-14  1.2153E-14  1.7289E-14  1.4724E-14  1.0544E-14  1.2514E-14  1.8919E-14  1.4764E-14
 -67.70                                  [v0_min (km/s) before EX0s...]
  88.02                                  [vd_min (km/s) before EX0s...]


## Synthetic spectrum (Best Model) ##l_obs f_obs f_syn wei
 3478    [Nl_obs]
 3741.00    0.65783   0.92135    0.000
 3742.00    0.64680   0.90794    0.000
 3743.00    0.69487   0.88460    0.000
 3744.00    0.73317   0.85361    0.000
 3745.00    0.69018   0.81492   14.489
 3746.00    0.57327   0.76718   17.444
 3747.00    0.45510   0.71203   -1.000
 3748.00    0.43901   0.66346   -1.000
 3749.00    0.57164   0.64553   17.494
 3750.00    0.76181   0.67073   13.127
 3751.00    0.87319   0.72691   11.452
 3752.00    0.82995   0.79099   12.049
 3753.00    0.67475   0.84734   14.820
 3754.00    0.59002   0.88879   -1.000
 3755.00    0.69390   0.91070   14.411
 3756.00    0.88710   0.91387   11.273
 3757.00    1.02059   0.90865    9.798
 3758.00    1.03696   0.90785    9.644
 3759.00    0.98040   0.91547   10.200
 3760.00    0.97402   0.92551   10.267
 3761.00    1.06637   0.93014    9.378
 3762.00    1.15542   0.92634    8.655
 3763.00    1.14290   0.91484    8.750
 3764.00    1.02299   0.89447    9.775
 3765.00    0.83366   0.86185   11.995
 3766.00    0.62491   0.81746   16.002
 3767.00    0.44998   0.76653   -1.000
 3768.00    0.36003   0.71585   -1.000
 3769.00    0.39788   0.67848   -1.000
 3770.00    0.57996   0.67322   17.243
 3771.00    0.83334   0.70637   12.000
 3772.00    1.01105   0.76157    9.891
 3773.00    1.05740   0.81695    9.457
 3774.00    1.04224   0.86312    9.595
 3775.00    1.04172   0.90083    9.599
 3776.00    1.09033   0.93213    9.172
 3777.00    1.17434   0.95865    8.515
 3778.00    1.24809   0.98240    8.012
 3779.00    1.28805   1.00323    7.764
 3780.00    1.29918   1.01816    7.697
 3781.00    1.28451   1.02590    7.785
 3782.00    1.23096   1.02824    8.124
 3783.00    1.09756   1.02529    9.111
 3784.00    0.86730   1.01487   11.530
 3785.00    0.67100   0.99814   -1.000
 3786.00    0.67889   0.98049   -1.000
 3787.00    0.80781   0.96518   12.379
 3788.00    0.84235   0.95074   11.872
 3789.00    0.80044   0.93516   12.493
 3790.00    0.83123   0.91691   12.030
 3791.00    0.89553   0.89222   11.167
 3792.00    0.86976   0.85644   11.497
 3793.00    0.81628   0.80833   12.251
 3794.00    0.86037   0.75061   11.623
 3795.00    0.93434   0.68909   -1.000
 3796.00    0.91478   0.63672   -1.000
 3797.00    0.86775   0.61442   -1.000
 3798.00    0.90106   0.63654   -1.000
 3799.00    0.93366   0.69489   -1.000
 3800.00    0.86423   0.76551   11.571
 3801.00    0.79958   0.82954   12.507
 3802.00    0.86704   0.88012   11.534
 3803.00    0.98675   0.91492   10.134
 3804.00    1.04320   0.93369    9.586
 3805.00    1.07617   0.94310    9.292
 3806.00    1.13783   0.95495    8.789
 3807.00    1.15387   0.97534    8.666
 3808.00    1.08170   0.99925    9.245
 3809.00    1.03753   1.01733    9.638
 3810.00    1.08386   1.02396    9.226
 3811.00    1.08081   1.01880    9.252
 3812.00    0.95468   1.00574   10.475
 3813.00    0.86989   0.99133   11.496
 3814.00    0.94443   0.98095   10.588
 3815.00    1.07468   0.97471    9.305
 3816.00    1.14462   0.96496    8.737
 3817.00    1.15096   0.94152    8.688
 3818.00    1.10306   0.90844    9.066
 3819.00    0.97857   0.88915   10.219
 3820.00    0.82688   0.90025   12.094
 3821.00    0.78667   0.92815   12.712
 3822.00    0.88801   0.94554   11.261
 3823.00    0.99589   0.94136   10.041
 3824.00    1.01084   0.92447    9.893
 3825.00    0.94550   0.90674   10.576
 3826.00    0.84602   0.89118   11.820
 3827.00    0.75923   0.87445   13.171
 3828.00    0.74115   0.85301   13.493
 3829.00    0.83684   0.82330   11.950
 3830.00    0.99934   0.78097   10.007
 3831.00    1.09296   0.72512   -1.000
 3832.00    0.99801   0.66261   -1.000
 3833.00    0.69178   0.60729   14.456
 3834.00    0.37600   0.57586   20.527
 3835.00    0.34684   0.57922   -1.000
 3836.00    0.54771   0.61307   18.258
 3837.00    0.64498   0.66260   15.504
 3838.00    0.52743   0.71605   18.960
 3839.00    0.36324   0.76862   -1.000
 3840.00    0.42469   0.81841   -1.000
 3841.00    0.84933   0.86355   11.774
 3842.00    1.24713   0.90074   -1.000
 3843.00    1.10831   0.92750    9.023
 3844.00    0.73289   0.94548   13.645
 3845.00    0.78504   0.95880   12.738
 3846.00    1.18625   0.96949    8.430
 3847.00    1.41091   0.97591    0.000
 3848.00    1.30075   0.97735    0.000
 3849.00    1.01790   0.97852    0.000
 3850.00    0.76107   0.98449    0.000
 3851.00    0.66005   0.99283    0.000
 3852.00    0.69471   0.99642    0.000
 3853.00    0.77663   0.99263    0.000
 3854.00    0.86739   0.98529    0.000
 3855.00    0.95584   0.97986    0.000
 3856.00    1.01574   0.97810    0.000
 3857.00    1.03706   0.97635    0.000
 3858.00    1.05930   0.97232    0.000
 3859.00    1.10039   0.97097    0.000
 3860.00    1.09154   0.97730    0.000
 3861.00    0.98520   0.98797    0.000
 3862.00    0.85390   0.99567    0.000
 3863.00    0.81238   0.99685    0.000
 3864.00    0.93421   0.99254    0.000
 3865.00    1.17959   0.98556    0.000
 3866.00    1.37140   0.97970    0.000
 3867.00    1.41107   0.97769    0.000
 3868.00    1.40782   0.97625    0.000
 3869.00    1.45875   0.96763    0.000
 3870.00    1.51169   0.95120    0.000
 3871.00    1.48290   0.93800    0.000
 3872.00    1.33911   0.93833    0.000
 3873.00    1.11388   0.94871    0.000
 3874.00    0.90339   0.95577    0.000
 3875.00    0.80659   0.95053    0.000
 3876.00    0.87853   0.93510    0.000
 3877.00    1.06230   0.91836    0.000
 3878.00    1.19520   0.90679    0.000
 3879.00    1.17743   0.89734    0.000
 3880.00    1.03873   0.88218    0.000
 3881.00    0.89499   0.86040   11.173
 3882.00    0.87892   0.83657   11.378
 3883.00    0.96010   0.80819   10.416
 3884.00    0.95988   0.76648   10.418
 3885.00    0.83165   0.70976   12.024
 3886.00    0.69473   0.64781   14.394
 3887.00    0.62949   0.59690   15.886
 3888.00    0.63753   0.57620   15.686
 3889.00    0.72039   0.59790   13.881
 3890.00    0.87553   0.65342   -1.000
 3891.00    1.02466   0.71863   -1.000
 3892.00    1.06630   0.77427   -1.000
 3893.00    1.04615   0.81548    9.559
 3894.00    1.09074   0.84684    9.168
 3895.00    1.16841   0.87372   -1.000
 3896.00    1.14821   0.89620    8.709
 3897.00    1.03096   0.91147    9.700
 3898.00    0.91936   0.92144   10.877
 3899.00    0.86933   0.93238   11.503
 3900.00    0.88404   0.94600   11.312
 3901.00    0.95406   0.95751   10.482
 3902.00    1.05937   0.96312    9.440
 3903.00    1.16174   0.96355    8.608
 3904.00    1.21713   0.96192    8.216
 3905.00    1.19708   0.96352    8.354
 3906.00    1.11105   0.97304    9.001
 3907.00    1.02798   0.98812    9.728
 3908.00    1.00941   1.00132    9.907
 3909.00    1.02709   1.00831    9.736
 3910.00    1.03369   1.00998    9.674
 3911.00    1.05006   1.00881    9.523
 3912.00    1.08814   1.00647    9.190
 3913.00    1.07055   1.00431    9.341
 3914.00    0.96650   1.00256   10.347
 3915.00    0.91241   0.99929   10.960
 3916.00    0.99612   0.99199   10.039
 3917.00    1.07710   0.97980    9.284
 3918.00    1.03140   0.96515    9.696
 3919.00    0.94591   0.95398   10.572
 3920.00    0.91636   0.95146   10.913
 3921.00    0.89875   0.95631   11.127
 3922.00    0.85790   0.96126   11.656
 3923.00    0.86018   0.95909   11.626
 3924.00    0.93228   0.94730   10.726
 3925.00    0.98800   0.92932   10.121
 3926.00    0.97633   0.91171   10.242
 3927.00    0.95244   0.89771   10.499
 3928.00    0.95318   0.88457   10.491
 3929.00    0.93795   0.86778   10.662
 3930.00    0.85667   0.84473   11.673
 3931.00    0.69431   0.81720   14.403
 3932.00    0.50488   0.79409   -1.000
 3933.00    0.40043   0.78772   -1.000
 3934.00    0.43954   0.80284   -1.000
 3935.00    0.58682   0.83201   -1.000
 3936.00    0.74941   0.86394   13.344
 3937.00    0.82976   0.89223   12.052
 3938.00    0.85588   0.91512   11.684
 3939.00    0.95715   0.93152   10.448
 3940.00    1.12846   0.94022    8.862
 3941.00    1.21997   0.94187    8.197
 3942.00    1.15166   0.93986    8.683
 3943.00    0.97282   0.93986   10.279
 3944.00    0.83355   0.94644   11.997
 3945.00    0.88965   0.95699   11.240
 3946.00    1.08789   0.96400    9.192
 3947.00    1.22946   0.96543    8.134
 3948.00    1.25037   0.96619    7.998
 3949.00    1.20697   0.96835    8.285
 3950.00    1.09805   0.96807    9.107
 3951.00    0.91319   0.96322   10.951
 3952.00    0.80192   0.95735   12.470
 3953.00    0.92273   0.95331   10.837
 3954.00    1.11369   0.94849    8.979
 3955.00    1.09934   0.94069    9.096
 3956.00    0.93502   0.93280   10.695
 3957.00    0.85330   0.92664   11.719
 3958.00    0.90804   0.91679   11.013
 3959.00    1.00276   0.89558    9.973
 3960.00    1.01689   0.86275    0.000
 3961.00    0.89010   0.82525    0.000
 3962.00    0.70323   0.78742    0.000
 3963.00    0.58276   0.74716    0.000
 3964.00    0.57233   0.70163    0.000
 3965.00    0.64721   0.64973    0.000
 3966.00    0.74942   0.59131    0.000
 3967.00    0.80718   0.53204    0.000
 3968.00    0.75983   0.48731    0.000
 3969.00    0.64652   0.47521    0.000
 3970.00    0.65774   0.50256    0.000
 3971.00    0.83511   0.55845    0.000
 3972.00    0.86101   0.62446    0.000
 3973.00    0.58209   0.68807    0.000
 3974.00    0.37839   0.74417    0.000
 3975.00    0.57663   0.79084    0.000
 3976.00    1.02436   0.82904    0.000
 3977.00    1.37566   0.86137    0.000
 3978.00    1.35192   0.88830    0.000
 3979.00    1.00418   0.90753    0.000
 3980.00    0.77341   0.91751    0.000
 3981.00    0.90459   0.92127   11.055
 3982.00    1.16790   0.92556    8.562
 3983.00    1.25664   0.93440    7.958
 3984.00    1.03850   0.94585    9.629
 3985.00    0.66967   0.95644   -1.000
 3986.00    0.53614   0.96556   -1.000
 3987.00    0.75745   0.97322   13.202
 3988.00    1.05728   0.97811    9.458
 3989.00    1.18669   0.98085    8.427
 3990.00    1.10277   0.98432    9.068
 3991.00    0.93946   0.98855   10.644
 3992.00    0.91255   0.98967   10.958
 3993.00    1.04246   0.98538    9.593
 3994.00    1.15272   0.97811    8.675
 3995.00    1.18407   0.97191    8.445
 3996.00    1.22470   0.96943    8.165
 3997.00    1.28872   0.97254    7.760
 3998.00    1.29298   0.98101    7.734
 3999.00    1.18112   0.99031    8.467
 4000.00    0.98408   0.99555   10.162
 4001.00    0.87643   0.99573   11.410
 4002.00    1.03237   0.99057    9.686
 4003.00    1.27446   0.97898    7.846
 4004.00    1.26165   0.96461    7.926
 4005.00    1.05018   0.95551    9.522
 4006.00    0.95203   0.95421   10.504
 4007.00    1.02776   0.95556    9.730
 4008.00    1.11212   0.95704    8.992
 4009.00    1.04665   0.96202    9.554
 4010.00    0.81069   0.97141   12.335
 4011.00    0.65046   0.98099   -1.000
 4012.00    0.79215   0.98792   12.624
 4013.00    0.99743   0.99284   10.026
 4014.00    0.93110   0.99624   10.740
 4015.00    0.74677   0.99711   -1.000
 4016.00    0.75181   0.99599   13.301
 4017.00    0.88786   0.99592   11.263
 4018.00    0.96766   0.99784   10.334
 4019.00    1.02151   0.99809    9.789
 4020.00    1.12797   0.99304    8.865
 4021.00    1.19882   0.98162    8.342
 4022.00    1.14365   0.96262    8.744
 4023.00    1.04507   0.93616    9.569
 4024.00    1.01082   0.91040    9.893
 4025.00    1.02711   0.90043    9.736
 4026.00    1.02915   0.91362    9.717
 4027.00    0.97723   0.93873   10.233
 4028.00    0.89146   0.95645   11.218
 4029.00    0.85925   0.95884   11.638
 4030.00    0.91603   0.95294   10.917
 4031.00    0.97652   0.94855   10.240
 4032.00    0.97195   0.94957   10.289
 4033.00    0.93726   0.95609   10.669
 4034.00    0.95197   0.96795   10.505
 4035.00    1.08265   0.98359    9.237
 4036.00    1.28640   0.99826    7.774
 4037.00    1.39794   1.00611    7.153
 4038.00    1.34531   1.00480    7.433
 4039.00    1.22898   0.99780    8.137
 4040.00    1.14434   0.99111    8.739
 4041.00    1.10544   0.98598    9.046
 4042.00    1.10365   0.97653    9.061
 4043.00    1.12873   0.95896    8.859
 4044.00    1.14154   0.94114    8.760
 4045.00    1.08698   0.93673    9.200
 4046.00    0.98354   0.94915   10.167
 4047.00    0.92173   0.96785   10.849
 4048.00    0.94310   0.98164   10.603
 4049.00    1.01226   0.98783    9.879
 4050.00    1.06493   0.98769    9.390
 4051.00    1.04993   0.98213    9.524
 4052.00    1.00059   0.97334    9.994
 4053.00    1.00000   0.96493   10.000
 4054.00    1.03628   0.95931    9.650
 4055.00    1.02443   0.95602    9.762
 4056.00    0.95383   0.95383   10.484
 4057.00    0.88464   0.95381   11.304
 4058.00    0.85681   0.95743   11.671
 4059.00    0.87458   0.96159   11.434
 4060.00    0.91859   0.95943   10.886
 4061.00    0.94753   0.94809   10.554
 4062.00    0.89908   0.93437   11.122
 4063.00    0.75931   0.92886   13.170
 4064.00    0.67447   0.93346   -1.000
 4065.00    0.79377   0.94025   12.598
 4066.00    0.99750   0.94357   10.025
 4067.00    1.08333   0.94444    9.231
 4068.00    1.09510   0.94280    9.132
 4069.00    1.15384   0.93607    8.667
 4070.00    1.17410   0.92695    8.517
 4071.00    1.04234   0.92366    9.594
 4072.00    0.87477   0.92802   11.432
 4073.00    0.82968   0.92998   12.053
 4074.00    0.86432   0.92038   11.570
 4075.00    0.86583   0.90359   11.550
 4076.00    0.81646   0.89236   12.248
 4077.00    0.75227   0.89490   13.293
 4078.00    0.70602   0.90975   14.164
 4079.00    0.70602   0.92843   14.164
 4080.00    0.77531   0.94106   12.898
 4081.00    0.89055   0.94201   11.229
 4082.00    0.96062   0.93318   10.410
 4083.00    0.93247   0.92193   10.724
 4084.00    0.86069   0.91522   11.619
 4085.00    0.80252   0.91465   12.461
 4086.00    0.74993   0.91624   13.335
 4087.00    0.70235   0.91534   14.238
 4088.00    0.70743   0.91149   14.136
 4089.00    0.79771   0.90645   12.536
 4090.00    0.94912   0.89965   10.536
 4091.00    1.07457   0.88947    9.306
 4092.00    1.05236   0.87546    0.000
 4093.00    0.88071   0.85581    0.000
 4094.00    0.71099   0.82793    0.000
 4095.00    0.63175   0.79350    0.000
 4096.00    0.60020   0.75694    0.000
 4097.00    0.59617   0.71802    0.000
 4098.00    0.65817   0.67122    0.000
 4099.00    0.75442   0.61659    0.000
 4100.00    0.77224   0.57005    0.000
 4101.00    0.66887   0.55558    0.000
 4102.00    0.51805   0.58235    0.000
 4103.00    0.47334   0.63602    0.000
 4104.00    0.67063   0.69458    0.000
 4105.00    0.98080   0.74445    0.000
 4106.00    1.08423   0.78159    0.000
 4107.00    0.88972   0.80687    0.000
 4108.00    0.58121   0.82360    0.000
 4109.00    0.42055   0.83625    0.000
 4110.00    0.58407   0.84898    0.000
 4111.00    0.91422   0.86361    0.000
 4112.00    1.08444   0.87856    0.000
 4113.00    1.07832   0.89035    9.274
 4114.00    1.09628   0.89718    9.122
 4115.00    1.15954   0.89985    8.624
 4116.00    1.15481   0.89843    8.659
 4117.00    1.06468   0.89175    9.392
 4118.00    0.95623   0.88217   10.458
 4119.00    0.88711   0.87622   11.273
 4120.00    0.88212   0.87880   11.336
 4121.00    0.92343   0.88926   10.829
 4122.00    0.97384   0.90307   10.269
 4123.00    1.01244   0.91506    9.877
 4124.00    1.03634   0.92090    9.649
 4125.00    1.05490   0.91840    9.480
 4126.00    1.06942   0.90979    9.351
 4127.00    1.05192   0.90086    9.506
 4128.00    0.98054   0.89521   10.199
 4129.00    0.88052   0.89108   11.357
 4130.00    0.80470   0.88608   12.427
 4131.00    0.80247   0.88232   12.462
 4132.00    0.85709   0.88426   11.667
 4133.00    0.84949   0.89342   11.772
 4134.00    0.76042   0.90662   13.151
 4135.00    0.80642   0.91863   12.401
 4136.00    1.03733   0.92647    9.640
 4137.00    1.07920   0.93084    9.266
 4138.00    0.77752   0.93212   12.861
 4139.00    0.58766   0.92674   -1.000
 4140.00    0.78210   0.90937   12.786
 4141.00    0.98837   0.88039   10.118
 4142.00    0.90896   0.85257   11.002
 4143.00    0.72875   0.84407   13.722
 4144.00    0.66697   0.85960   14.993
 4145.00    0.72512   0.88506   13.791
 4146.00    0.84083   0.90388   11.893
 4147.00    0.97182   0.91068   10.290
 4148.00    1.05949   0.90938    9.439
 4149.00    1.03022   0.90602    9.707
 4150.00    0.89044   0.90351   11.230
 4151.00    0.74711   0.90080   13.385
 4152.00    0.70889   0.89692   14.106
 4153.00    0.82384   0.89352   12.138
 4154.00    1.00982   0.89250    9.903
 4155.00    1.09559   0.89430    9.128
 4156.00    1.05302   0.89901    9.496
 4157.00    1.00513   0.90605    9.949
 4158.00    0.98314   0.91274   10.171
 4159.00    0.91109   0.91629   10.976
 4160.00    0.79968   0.91683   12.505
 4161.00    0.74735   0.91652   13.381
 4162.00    0.78195   0.91630   12.788
 4163.00    0.84345   0.91551   11.856
 4164.00    0.85436   0.91317   11.705
 4165.00    0.77473   0.90866   12.908
 4166.00    0.68175   0.90292   -1.000
 4167.00    0.69754   0.89878   14.336
 4168.00    0.80152   0.89702   12.476
 4169.00    0.87421   0.89354   11.439
 4170.00    0.86135   0.88408   11.610
 4171.00    0.79715   0.87127   12.545
 4172.00    0.78238   0.86323   12.781
 4173.00    0.88574   0.86446   11.290
 4174.00    0.99664   0.87103   10.034
 4175.00    0.96521   0.87592   10.360
 4176.00    0.84470   0.87673   11.838
 4177.00    0.78941   0.87700   12.668
 4178.00    0.85944   0.88035   11.636
 4179.00    1.00108   0.88529    9.988
 4180.00    1.06711   0.88789    9.371
 4181.00    0.96581   0.88784   10.358
 4182.00    0.82064   0.88800   12.186
 4183.00    0.78675   0.88910   12.695
 4184.00    0.83912   0.88830   11.918
 4185.00    0.88299   0.88343   11.361
 4186.00    0.88552   0.87724   11.288
 4187.00    0.84789   0.87510   11.686
 4188.00    0.77261   0.87818   12.972
 4189.00    0.70887   0.88314   14.559
 4190.00    0.77216   0.88817   12.835
 4191.00    0.96098   0.89395    9.780
 4192.00    1.05321   0.89848    9.733
 4193.00    0.93963   0.89682   13.105
 4194.00    0.82326   0.88760   10.774
 4195.00    0.85870   0.87517    5.621
 4196.00    0.93572   0.86427    3.968
 4197.00    0.92005   0.85700    3.842
 4198.00    0.80762   0.85420    4.153
 4199.00    0.69327   0.85507    4.260
 4200.00    0.70964   0.85733    4.185
 4201.00    0.82976   0.86032    4.143
 4202.00    0.84118   0.86488    4.167
 4203.00    0.71824   0.87058    4.204
 4204.00    0.70330   0.87648    4.180
 4205.00    0.85688   0.88263    4.104
 4206.00    0.96074   0.88841    4.068
 4207.00    0.95483   0.89179    4.076
 4208.00    1.01368   0.89177    4.035
 4209.00    1.14946   0.89030    3.949
 4210.00    1.16495   0.88986    3.922
 4211.00    1.01369   0.88965    3.980
 4212.00    0.85190   0.88589    4.060
 4213.00    0.79986   0.87664    4.112
 4214.00    0.86633   0.86619    4.131
 4215.00    0.96086   0.86277    4.131
 4216.00    0.96633   0.86979    4.126
 4217.00    0.91370   0.88197    4.131
 4218.00    0.92673   0.89198    4.156
 4219.00    0.97713   0.89654    4.176
 4220.00    0.94782   0.89471    4.163
 4221.00    0.90514   0.88591    4.149
 4222.00    0.99442   0.87064    4.192
 4223.00    1.10563   0.85036    4.286
 4224.00    1.01669   0.82794    4.384
 4225.00    0.78937   0.81107    4.483
 4226.00    0.65446   0.81032    4.601
 4227.00    0.68120   0.82823    4.675
 4228.00    0.79202   0.85389    4.630
 4229.00    0.88355   0.87286    4.543
 4230.00    0.89642   0.87861    4.521
 4231.00    0.88350   0.87361    4.517
 4232.00    0.91871   0.86494    4.455
 4233.00    0.96496   0.85835    4.394
 4234.00    0.95260   0.85412    4.410
 4235.00    0.89633   0.85086    4.439
 4236.00    0.84576   0.84961    4.401
 4237.00    0.81379   0.85125    4.358
 4238.00    0.80310   0.85483    4.377
 4239.00    0.83920   0.85935    4.385
 4240.00    0.92916   0.86386    4.326
 4241.00    1.02161   0.86768    4.292
 4242.00    1.04622   0.87154    4.371
 4243.00    0.96020   0.87515    4.514
 4244.00    0.81052   0.87478    4.624
 4245.00    0.75677   0.86783    4.660
 4246.00    0.85918   0.85728    4.643
 4247.00    0.95102   0.84817    4.622
 4248.00    0.92372   0.84266    4.630
 4249.00    0.89786   0.84116    4.658
 4250.00    0.95403   0.84352    4.684
 4251.00    0.98421   0.84648    4.705
 4252.00    0.91731   0.84583    4.727
 4253.00    0.83405   0.84320    4.767
 4254.00    0.81028   0.84466    4.808
 4255.00    0.83808   0.85124    4.798
 4256.00    0.89256   0.85605    4.723
 4257.00    0.96380   0.85227    4.630
 4258.00    1.03507   0.84136    4.575
 4259.00    1.07663   0.83199    4.588
 4260.00    1.06629   0.83231    4.655
 4261.00    1.00291   0.84295    4.719
 4262.00    0.92215   0.85689    4.732
 4263.00    0.87818   0.86589    4.691
 4264.00    0.85752   0.86583    4.656
 4265.00    0.79418   0.85756    4.714
 4266.00    0.72259   0.84635    4.823
 4267.00    0.75855   0.83774    4.835
 4268.00    0.88533   0.83105    4.732
 4269.00    0.95862   0.82158    4.647
 4270.00    0.90832   0.80998    4.653
 4271.00    0.78771   0.80250    4.721
 4272.00    0.74423   0.80184   -2.000
 4273.00    0.90673   0.80538   -2.000
 4274.00    1.14723   0.81206   -2.000
 4275.00    1.19776   0.82306   -2.000
 4276.00    1.02330   0.83590   -2.000
 4277.00    0.77590   0.84414   -2.000
 4278.00    0.53788   0.84383   -2.000
 4279.00    0.32590   0.83771   -2.000
 4280.00    0.19527   0.83184   -2.000
 4281.00    0.23383   0.82919   -2.000
 4282.00    0.51301   0.82811   -2.000
 4283.00    0.97815   0.82579   -2.000
 4284.00    1.30851   0.82193   -2.000
 4285.00    1.22171   0.81824   -2.000
 4286.00    0.92066   0.81419   -2.000
 4287.00    0.76980   0.80670   -2.000
 4288.00    0.79405   0.79665    4.324
 4289.00    0.84327   0.79125    4.320
 4290.00    0.87052   0.79607    4.385
 4291.00    0.90115   0.80725    4.445
 4292.00    0.95759   0.81543    4.456
 4293.00    1.02209   0.81590    4.437
 4294.00    1.01675   0.81114    4.465
 4295.00    0.91490   0.80398    4.571
 4296.00    0.83114   0.79351    4.642
 4297.00    0.83950   0.77869    4.600
 4298.00    0.83143   0.76273    4.569
 4299.00    0.74517   0.75153    4.625
 4300.00    0.72623   0.74746    4.638
 4301.00    0.83764   0.74775    4.551
 4302.00    0.88215   0.74985    4.558
 4303.00    0.76193   0.75326    4.747
 4304.00    0.68057   0.75587    4.904
 4305.00    0.76877   0.75399    4.868
 4306.00    0.88236   0.74707    4.814
 4307.00    0.88451   0.73998    4.864
 4308.00    0.80374   0.73891    4.908
 4309.00    0.74247   0.74515    4.850
 4310.00    0.79780   0.75476    4.740
 4311.00    0.94294   0.76382    4.657
 4312.00    1.01602   0.77244    4.643
 4313.00    0.93291   0.78403    4.706
 4314.00    0.76615   0.80101    4.821
 4315.00    0.65633   0.82021    4.901
 4316.00    0.72334   0.83448    4.840
 4317.00    0.88495   0.83940    4.722
 4318.00    0.89833   0.83641    4.755
 4319.00    0.74577   0.82939    4.926
 4320.00    0.65312   0.82016    4.977
 4321.00    0.70200   0.80689    4.839
 4322.00    0.77923   0.78726    4.703
 4323.00    0.81194   0.76428    4.655
 4324.00    0.80867   0.74752    4.656
 4325.00    0.77254   0.74606    4.684
 4326.00    0.69895   0.75931    4.733
 4327.00    0.63064   0.77613    4.750
 4328.00    0.62955   0.78481    4.670
 4329.00    0.68176   0.78243    4.558
 4330.00    0.72140   0.77374    0.000
 4331.00    0.72743   0.76355    0.000
 4332.00    0.72068   0.75272    0.000
 4333.00    0.71671   0.73884    0.000
 4334.00    0.71801   0.71704    0.000
 4335.00    0.71791   0.68207    0.000
 4336.00    0.71700   0.63339    0.000
 4337.00    0.74684   0.57762    0.000
 4338.00    0.82468   0.52703    0.000
 4339.00    0.88411   0.49797    0.000
 4340.00    0.85487   0.50324    0.000
 4341.00    0.78339   0.53933    0.000
 4342.00    0.74998   0.58791    0.000
 4343.00    0.74462   0.63281    0.000
 4344.00    0.72432   0.66879    0.000
 4345.00    0.69740   0.69658    0.000
 4346.00    0.69121   0.71821    0.000
 4347.00    0.70752   0.73487    0.000
 4348.00    0.73805   0.74447    0.000
 4349.00    0.78323   0.74405    0.000
 4350.00    0.83540   0.73751    0.000
 4351.00    0.86508   0.73584   11.069
 4352.00    0.85517   0.74567    6.384
 4353.00    0.82616   0.76276    4.749
 4354.00    0.79089   0.77927    4.714
 4355.00    0.72730   0.79125    5.178
 4356.00    0.65689   0.79743    5.264
 4357.00    0.67963   0.79827    5.097
 4358.00    0.80782   0.79781    5.073
 4359.00    0.88985   0.80097    5.154
 4360.00    0.85155   0.80797    5.200
 4361.00    0.81217   0.81515    5.161
 4362.00    0.86295   0.82041    5.072
 4363.00    0.95247   0.82359    5.018
 4364.00    0.97875   0.82300    5.057
 4365.00    0.86725   0.81681    5.191
 4366.00    0.69067   0.80784    5.343
 4367.00    0.65856   0.80184    5.366
 4368.00    0.82293   0.80095    5.240
 4369.00    1.00614   0.80255    5.111
 4370.00    1.04959   0.80318    5.088
 4371.00    0.92485   0.80028    5.192
 4372.00    0.74997   0.79285    5.348
 4373.00    0.71524   0.78411    5.417
 4374.00    0.82083   0.78102    5.379
 4375.00    0.88558   0.78759    5.353
 4376.00    0.85942   0.79996    5.380
 4377.00    0.84685   0.81024    5.407
 4378.00    0.88296   0.81368    5.425
 4379.00    0.91009   0.80951    5.475
 4380.00    0.89397   0.79676    5.532
 4381.00    0.84764   0.77464    5.522
 4382.00    0.81001   0.74926    5.450
 4383.00    0.81370   0.73295    5.388
 4384.00    0.82820   0.73172    5.377
 4385.00    0.80126   0.73849    5.410
 4386.00    0.76741   0.74383    5.450
 4387.00    0.79474   0.74764    5.463
 4388.00    0.84522   0.75471    5.495
 4389.00    0.83317   0.76569    5.608
 4390.00    0.77151   0.77764    5.735
 4391.00    0.73622   0.78707    5.747
 4392.00    0.76707   0.79063    5.654
 4393.00    0.84410   0.78884    5.557
 4394.00    0.88279   0.78797    5.523
 4395.00    0.83614   0.79323    5.558
 4396.00    0.82217   0.80127    5.584
 4397.00    0.94359   0.80403    5.530
 4398.00    1.05709   0.79899    5.443
 4399.00    0.99629   0.79206    5.422
 4400.00    0.84710   0.78980    5.531
 4401.00    0.76089   0.79058    5.754
 4402.00    0.73245   0.78719    5.918
 4403.00    0.71479   0.77872    5.857
 4404.00    0.74398   0.77283    5.652
 4405.00    0.83699   0.77416    5.499
 4406.00    0.90343   0.77890    5.563
 4407.00    0.88149   0.78351    5.824
 4408.00    0.84169   0.78985    5.927
 4409.00    0.84887   0.79917    5.673
 4410.00    0.86190   0.80813    5.428
 4411.00    0.83053   0.81131    5.450
 4412.00    0.76591   0.80456    5.651
 4413.00    0.71425   0.78898    5.820
 4414.00    0.72690   0.77328    5.776
 4415.00    0.80298   0.76719    5.560
 4416.00    0.87195   0.77310    5.426
 4417.00    0.88642   0.78644    5.466
 4418.00    0.86406   0.79998    5.546
 4419.00    0.83147   0.80709    5.576
 4420.00    0.79918   0.80576    5.619
 4421.00    0.78671   0.80019    5.661
 4422.00    0.82201   0.79644    5.553
 4423.00    0.88720   0.79627    5.328
 4424.00    0.92253   0.79699    5.194
 4425.00    0.93394   0.79657    5.172
 4426.00    0.99201   0.79575    5.100
 4427.00    1.07332   0.79520    4.974
 4428.00    1.06329   0.79378    4.951
 4429.00    0.95931   0.79126    5.045
 4430.00    0.88169   0.78932    5.116
 4431.00    0.89554   0.78744    5.091
 4432.00    0.96524   0.78254    5.025
 4433.00    0.98860   0.77483    4.994
 4434.00    0.87792   0.76967    5.037
 4435.00    0.73475   0.77243    5.110
 4436.00    0.74789   0.78294    5.127
 4437.00    0.85234   0.79541    5.107
 4438.00    0.83447   0.80259    5.144
 4439.00    0.73282   0.80013    5.235
 4440.00    0.74138   0.78942    5.302
 4441.00    0.84323   0.77703    5.322
 4442.00    0.88641   0.77089    5.325
 4443.00    0.85738   0.77461    5.325
 4444.00    0.82691   0.78433    5.332
 4445.00    0.77589   0.79248    5.370
 4446.00    0.67187   0.79560    5.448
 4447.00    0.62566   0.79554    5.486
 4448.00    0.74136   0.79418    5.424
 4449.00    0.87880   0.79193    5.380
 4450.00    0.85241   0.78942    5.463
 4451.00    0.72815   0.78602    5.542
 4452.00    0.66934   0.77951    5.453
 4453.00    0.70530   0.77006    5.321
 4454.00    0.78310   0.76214    5.302
 4455.00    0.85708   0.75972    5.328
 4456.00    0.89210   0.76146    5.295
 4457.00    0.85925   0.76305    5.270
 4458.00    0.76047   0.76246    5.341
 4459.00    0.64809   0.76049    5.476
 4460.00    0.58240   0.75933    5.593
 4461.00    0.59222   0.76157    0.000
 4462.00    0.67427   0.76745    0.000
 4463.00    0.79453   0.77314    0.000
 4464.00    0.88419   0.77491    0.000
 4465.00    0.85276   0.77218    0.000
 4466.00    0.70205   0.76532    0.000
 4467.00    0.57825   0.75404    0.000
 4468.00    0.59606   0.73949    0.000
 4469.00    0.73298   0.72625    0.000
 4470.00    0.88931   0.72187    0.000
 4471.00    0.94800   0.73190    0.000
 4472.00    0.88433   0.75306    0.000
 4473.00    0.79222   0.77463    0.000
 4474.00    0.72498   0.78909    0.000
 4475.00    0.64431   0.79663    0.000
 4476.00    0.55743   0.79888    0.000
 4477.00    0.55090   0.79369    0.000
 4478.00    0.66221   0.77894    0.000
 4479.00    0.83378   0.75934    0.000
 4480.00    0.95211   0.74621    0.000
 4481.00    0.90758   0.74819    0.000
 4482.00    0.74198   0.76314    6.028
 4483.00    0.62933   0.78100    6.230
 4484.00    0.64658   0.79317    6.258
 4485.00    0.73265   0.79643    6.123
 4486.00    0.79580   0.79137    5.992
 4487.00    0.77334   0.78141    6.043
 4488.00    0.69922   0.77247    6.238
 4489.00    0.66674   0.76973    6.361
 4490.00    0.69129   0.77326    6.316
 4491.00    0.72090   0.77797    6.194
 4492.00    0.74079   0.77851    6.103
 4493.00    0.76886   0.77460    6.097
 4494.00    0.79430   0.77084    6.125
 4495.00    0.78715   0.77147    6.106
 4496.00    0.74299   0.77662    6.090
 4497.00    0.69414   0.78279    6.157
 4498.00    0.70982   0.78580    6.203
 4499.00    0.81804   0.78473    6.091
 4500.00    0.88638   0.78355    5.991
 4501.00    0.78550   0.78726    6.112
 4502.00    0.65392   0.79563    6.330
 4503.00    0.69335   0.80326    6.361
 4504.00    0.83739   0.80564    6.214
 4505.00    0.90494   0.80276    6.080
 4506.00    0.85485   0.79767    6.068
 4507.00    0.75719   0.79392    6.175
 4508.00    0.71376   0.79311    6.273
 4509.00    0.76596   0.79358    6.261
 4510.00    0.81691   0.79212    6.257
 4511.00    0.78093   0.78733    6.364
 4512.00    0.72936   0.78073    6.434
 4513.00    0.74901   0.77503    6.349
 4514.00    0.80610   0.77215    6.298
 4515.00    0.83416   0.77194    6.428
 4516.00    0.81764   0.77271    6.584
 4517.00    0.77239   0.77376    6.585
 4518.00    0.72227   0.77552    6.500
 4519.00    0.67902   0.77702    6.452
 4520.00    0.63487   0.77576    6.472
 4521.00    0.60511   0.77091    6.515
 4522.00    0.64179   0.76483    6.505
 4523.00    0.73608   0.75976    6.435
 4524.00    0.78341   0.75472    6.411
 4525.00    0.73665   0.74804    6.472
 4526.00    0.67154   0.74029    6.529
 4527.00    0.65794   0.73389    6.515
 4528.00    0.69590   0.73149    6.461
 4529.00    0.74889   0.73390    6.427
 4530.00    0.77180   0.73855    6.457
 4531.00    0.75505   0.74086    6.541
 4532.00    0.72875   0.73830    6.613
 4533.00    0.70096   0.73426    6.634
 4534.00    0.65418   0.73568    6.622
 4535.00    0.62681   0.74559    6.600
 4536.00    0.69459   0.75913    6.583
 4537.00    0.80477   0.76793    6.581
 4538.00    0.80388   0.76813    6.604
 4539.00    0.70256   0.76306    6.632
 4540.00    0.66148   0.75880    6.632
 4541.00    0.70765   0.75821    6.611
 4542.00    0.73190   0.75911    6.608
 4543.00    0.70442   0.75837    6.628
 4544.00    0.68015   0.75618    6.650
 4545.00    0.66876   0.75385    6.683
 4546.00    0.63869   0.75024    6.756
 4547.00    0.59834   0.74383    6.841
 4548.00    0.58725   0.73710    6.875
 4549.00    0.61937   0.73445    6.860
 4550.00    0.67416   0.73568    0.000
 4551.00    0.70442   0.73622    0.000
 4552.00    0.67722   0.73424    0.000
 4553.00    0.63870   0.73248    0.000
 4554.00    0.65313   0.73447    0.000
 4555.00    0.69093   0.74143    0.000
 4556.00    0.69138   0.75110    0.000
 4557.00    0.67766   0.75946    0.000
 4558.00    0.69582   0.76459    0.000
 4559.00    0.71316   0.76695    0.000
 4560.00    0.68174   0.76664    0.000
 4561.00    0.63120   0.76258    0.000
 4562.00    0.61614   0.75516    0.000
 4563.00    0.64412   0.74800    0.000
 4564.00    0.69871   0.74532    0.000
 4565.00    0.77123   0.74813    0.000
 4566.00    0.84500   0.75376    0.000
 4567.00    0.88079   0.75835    0.000
 4568.00    0.85731   0.75911    0.000
 4569.00    0.80385   0.75541    0.000
 4570.00    0.75021   0.75004    0.000
 4571.00    0.68821   0.74798    0.000
 4572.00    0.61957   0.75084    0.000
 4573.00    0.58708   0.75501    0.000
 4574.00    0.61369   0.75723    0.000
 4575.00    0.66568   0.75754    0.000
 4576.00    0.70817   0.75610    0.000
 4577.00    0.73821   0.75190    0.000
 4578.00    0.75233   0.74509    0.000
 4579.00    0.73386   0.73813    0.000
 4580.00    0.69863   0.73361    0.000
 4581.00    0.70268   0.73180    0.000
 4582.00    0.74985   0.73141    0.000
 4583.00    0.77003   0.73208    0.000
 4584.00    0.74112   0.73439    0.000
 4585.00    0.71845   0.73835    0.000
 4586.00    0.70911   0.74313    0.000
 4587.00    0.65296   0.74701    0.000
 4588.00    0.56601   0.74782    0.000
 4589.00    0.55459   0.74476    0.000
 4590.00    0.65707   0.73978    0.000
 4591.00    0.80642   0.73605    0.000
 4592.00    0.90455   0.73486    0.000
 4593.00    0.87917   0.73488    0.000
 4594.00    0.77341   0.73480    0.000
 4595.00    0.70987   0.73529    0.000
 4596.00    0.71551   0.73716    0.000
 4597.00    0.72516   0.73921    0.000
 4598.00    0.71951   0.73932    0.000
 4599.00    0.72855   0.73712    0.000
 4600.00    0.75301   0.73491    0.000
 4601.00    0.76620   0.73494    0.000
 4602.00    0.75976   0.73677    0.000
 4603.00    0.74261   0.73863    0.000
 4604.00    0.71893   0.74002    0.000
 4605.00    0.69209   0.74214    0.000
 4606.00    0.67980   0.74602    0.000
 4607.00    0.70299   0.75076    0.000
 4608.00    0.76224   0.75389    0.000
 4609.00    0.83384   0.75371    0.000
 4610.00    0.87193   0.75085    0.000
 4611.00    0.84587   0.74742    0.000
 4612.00    0.79051   0.74526    0.000
 4613.00    0.76468   0.74492    0.000
 4614.00    0.78678   0.74521    0.000
 4615.00    0.83396   0.74438    0.000
 4616.00    0.85513   0.74188    0.000
 4617.00    0.82123   0.73866    0.000
 4618.00    0.77451   0.73673    0.000
 4619.00    0.76518   0.73803    0.000
 4620.00    0.78294   0.74194    0.000
 4621.00    0.79099   0.74572    0.000
 4622.00    0.76668   0.74755    0.000
 4623.00    0.71642   0.74730    0.000
 4624.00    0.68064   0.74574    0.000
 4625.00    0.68959   0.74388    0.000
 4626.00    0.72997   0.74184    0.000
 4627.00    0.77053   0.73890    0.000
 4628.00    0.78533   0.73574    0.000
 4629.00    0.76805   0.73454    0.000
 4630.00    0.73826   0.73544    0.000
 4631.00    0.72339   0.73568    0.000
 4632.00    0.74137   0.73374    0.000
 4633.00    0.76848   0.73116    0.000
 4634.00    0.74093   0.72941    0.000
 4635.00    0.66163   0.72758    0.000
 4636.00    0.62549   0.72432    0.000
 4637.00    0.65563   0.72041    0.000
 4638.00    0.66049   0.71807    0.000
 4639.00    0.61623   0.71865    0.000
 4640.00    0.61129   0.72160    0.000
 4641.00    0.67554   0.72500    0.000
 4642.00    0.74000   0.72648    0.000
 4643.00    0.76515   0.72401    0.000
 4644.00    0.77064   0.71671    0.000
 4645.00    0.76000   0.70631    0.000
 4646.00    0.71632   0.69721    0.000
 4647.00    0.67608   0.69343    0.000
 4648.00    0.70969   0.69544    0.000
 4649.00    0.79371   0.70114    0.000
 4650.00    0.82613   0.70818    0.000
 4651.00    0.77253   0.71423    0.000
 4652.00    0.68391   0.71690    0.000
 4653.00    0.63663   0.71572    0.000
 4654.00    0.68153   0.71372    0.000
 4655.00    0.76683   0.71498    0.000
 4656.00    0.78917   0.72099    0.000
 4657.00    0.73700   0.72973    0.000
 4658.00    0.67784   0.73668    0.000
 4659.00    0.67161   0.73786    0.000
 4660.00    0.73070   0.73306    0.000
 4661.00    0.78350   0.72578    0.000
 4662.00    0.75012   0.71949    0.000
 4663.00    0.67284   0.71429    0.000
 4664.00    0.64434   0.70749    0.000
 4665.00    0.66879   0.69789    0.000
 4666.00    0.69868   0.68901    0.000
 4667.00    0.71531   0.68649    0.000
 4668.00    0.72319   0.69196    0.000
 4669.00    0.72817   0.70156    0.000
 4670.00    0.73351   0.70986    0.000
 4671.00    0.73813   0.71395    0.000
 4672.00    0.73318   0.71461    0.000
 4673.00    0.70167   0.71479    0.000
 4674.00    0.65425   0.71623    0.000
 4675.00    0.65652   0.71787    0.000
 4676.00    0.73733   0.71739    0.000
 4677.00    0.81294   0.71392    0.000
 4678.00    0.80307   0.70900    0.000
 4679.00    0.72939   0.70508    0.000
 4680.00    0.65363   0.70361    0.000
 4681.00    0.62046   0.70455    0.000
 4682.00    0.64592   0.70645    0.000
 4683.00    0.71287   0.70734    0.000
 4684.00    0.77954   0.70673    0.000
 4685.00    0.79411   0.70614    0.000
 4686.00    0.74739   0.70686    0.000
 4687.00    0.69371   0.70828    0.000
 4688.00    0.68405   0.70902    0.000
 4689.00    0.72519   0.70874    0.000
 4690.00    0.77363   0.70850    0.000
 4691.00    0.75813   0.70976    0.000
 4692.00    0.69607   0.71267    0.000
 4693.00    0.70182   0.71589    0.000
 4694.00    0.77597   0.71766    0.000
 4695.00    0.77384   0.71618    0.000
 4696.00    0.66209   0.71069    0.000
 4697.00    0.57093   0.70298    0.000
 4698.00    0.58862   0.69667    0.000
 4699.00    0.69431   0.69348    0.000
 4700.00    0.80375   0.69175    0.000
 4701.00    0.82309   0.68977    0.000
 4702.00    0.76025   0.68860    0.000
 4703.00    0.70890   0.68971    0.000
 4704.00    0.70127   0.69190    0.000
 4705.00    0.69910   0.69252    0.000
 4706.00    0.68561   0.69081    0.000
 4707.00    0.67483   0.68868    0.000
 4708.00    0.67277   0.68855    0.000
 4709.00    0.67390   0.69052    0.000
 4710.00    0.67535   0.69180    0.000
 4711.00    0.67922   0.68975    0.000
 4712.00    0.69040   0.68595    0.000
 4713.00    0.71177   0.68521    0.000
 4714.00    0.73617   0.69002    0.000
 4715.00    0.74791   0.69824    0.000
 4716.00    0.72910   0.70617    0.000
 4717.00    0.68235   0.71167    0.000
 4718.00    0.66176   0.71453    0.000
 4719.00    0.71066   0.71518    0.000
 4720.00    0.76833   0.71426    0.000
 4721.00    0.76118   0.71310    0.000
 4722.00    0.73818   0.71302    0.000
 4723.00    0.76733   0.71349    0.000
 4724.00    0.79137   0.71184    0.000
 4725.00    0.73719   0.70594    0.000
 4726.00    0.65491   0.69703    0.000
 4727.00    0.62352   0.68901    0.000
 4728.00    0.63827   0.68490    0.000
 4729.00    0.66188   0.68467    0.000
 4730.00    0.68437   0.68687    0.000
 4731.00    0.70372   0.69036    0.000
 4732.00    0.70591   0.69388    0.000
 4733.00    0.68806   0.69591    0.000
 4734.00    0.67429   0.69574    0.000
 4735.00    0.67618   0.69432    0.000
 4736.00    0.66860   0.69380    0.000
 4737.00    0.64475   0.69512    0.000
 4738.00    0.64580   0.69669    0.000
 4739.00    0.68784   0.69703    0.000
 4740.00    0.72561   0.69701    0.000
 4741.00    0.73375   0.69802    0.000
 4742.00    0.74412   0.69981    0.000
 4743.00    0.77020   0.70117    0.000
 4744.00    0.77794   0.70190    0.000
 4745.00    0.75949   0.70263    0.000
 4746.00    0.75335   0.70334    0.000
 4747.00    0.75726   0.70348    0.000
 4748.00    0.71713   0.70299    0.000
 4749.00    0.65793   0.70194    0.000
 4750.00    0.68743   0.69986    0.000
 4751.00    0.78690   0.69661    0.000
 4752.00    0.80540   0.69288    0.000
 4753.00    0.74119   0.68962    0.000
 4754.00    0.74979   0.68750    0.000
 4755.00    0.82626   0.68690    0.000
 4756.00    0.80491   0.68788    0.000
 4757.00    0.68617   0.68979    0.000
 4758.00    0.63069   0.69108    0.000
 4759.00    0.65816   0.68982    0.000
 4760.00    0.65667   0.68520    0.000
 4761.00    0.62820   0.67865    7.624
 4762.00    0.66061   0.67286    7.513
 4763.00    0.71094   0.66942    7.230
 4764.00    0.66224   0.66847    7.178
 4765.00    0.55657   0.67009    7.366
 4766.00    0.53129   0.67422    7.536
 4767.00    0.59124   0.67959    7.584
 4768.00    0.64654   0.68395    7.587
 4769.00    0.66671   0.68559    7.585
 4770.00    0.67292   0.68485    7.566
 4771.00    0.67617   0.68418    7.525
 4772.00    0.67720   0.68575    7.468
 4773.00    0.68229   0.68903    7.410
 4774.00    0.69218   0.69182    7.373
 4775.00    0.68426   0.69283    7.393
 4776.00    0.63582   0.69235    7.499
 4777.00    0.55825   0.69079    7.678
 4778.00    0.49759   0.68843    7.841
 4779.00    0.52361   0.68597    7.804
 4780.00    0.64994   0.68383    7.549
 4781.00    0.75932   0.68168    7.424
 4782.00    0.76446   0.67943    7.616
 4783.00    0.76424   0.67746    7.740
 4784.00    0.83887   0.67553    7.481
 4785.00    0.86300   0.67320    7.274
 4786.00    0.74119   0.67124    7.467
 4787.00    0.60494   0.67063    7.801
 4788.00    0.58480   0.67127    7.874
 4789.00    0.62879   0.67305    7.700
 4790.00    0.64572   0.67613    7.508
 4791.00    0.61928   0.68036    7.458
 4792.00    0.57751   0.68526    7.579
 4793.00    0.56122   0.68958    7.749
 4794.00    0.59114   0.69136    7.802
 4795.00    0.64997   0.68944    7.656
 4796.00    0.69567   0.68451    7.432
 4797.00    0.68065   0.67875    7.395
 4798.00    0.60811   0.67481    7.596
 4799.00    0.54654   0.67439    7.773
 4800.00    0.55130   0.67689    7.777
 4801.00    0.62552   0.67959    7.768
 4802.00    0.72633   0.67988    7.781
 4803.00    0.78283   0.67741    7.640
 4804.00    0.75452   0.67391    7.436
 4805.00    0.65978   0.67133    7.516
 4806.00    0.58733   0.67024    7.881
 4807.00    0.64499   0.67031    8.087
 4808.00    0.77154   0.67119    7.941
 4809.00    0.77314   0.67229    7.740
 4810.00    0.65198   0.67289    7.677
 4811.00    0.59919   0.67299    7.737
 4812.00    0.65397   0.67331    7.848
 4813.00    0.69410   0.67442    7.923
 4814.00    0.69242   0.67625    7.892
 4815.00    0.71691   0.67818    7.750
 4816.00    0.75246   0.67948    7.635
 4817.00    0.72872   0.67969    7.709
 4818.00    0.68664   0.67868    7.921
 4819.00    0.72214   0.67635    8.064
 4820.00    0.78879   0.67224    8.057
 4821.00    0.76325   0.66629    7.981
 4822.00    0.65210   0.66031    7.947
 4823.00    0.55606   0.65753    8.020
 4824.00    0.53248   0.65920    8.152
 4825.00    0.57480   0.66246    8.232
 4826.00    0.62357   0.66365    8.204
 4827.00    0.62445   0.66210    8.113
 4828.00    0.60932   0.65962    8.101
 4829.00    0.63512   0.65774    8.247
 4830.00    0.68401   0.65658    8.345
 4831.00    0.70163   0.65611    8.198
 4832.00    0.66470   0.65678    8.049
 4833.00    0.59036   0.65813    8.155
 4834.00    0.53328   0.65877    8.330
 4835.00    0.53730   0.65787    8.291
 4836.00    0.58601   0.65539    8.132
 4837.00    0.63980   0.65146    8.055
 4838.00    0.67807   0.64688    8.073
 4839.00    0.69396   0.64322    8.133
 4840.00    0.68608   0.64137    8.233
 4841.00    0.66207   0.64077    8.358
 4842.00    0.64046   0.64073    8.414
 4843.00    0.63584   0.64121    8.329
 4844.00    0.64725   0.64140    8.142
 4845.00    0.66084   0.63929    7.975
 4846.00    0.65650   0.63414    7.970
 4847.00    0.63510   0.62779    8.117
 4848.00    0.62896   0.62285    0.000
 4849.00    0.65259   0.61971    0.000
 4850.00    0.67802   0.61601    0.000
 4851.00    0.67275   0.60910    0.000
 4852.00    0.62627   0.59797    0.000
 4853.00    0.56912   0.58325    0.000
 4854.00    0.56680   0.56703    0.000
 4855.00    0.64587   0.55102    0.000
 4856.00    0.76826   0.53306    0.000
 4857.00    0.87826   0.50785    0.000
 4858.00    0.93409   0.47402    0.000
 4859.00    0.94555   0.43989    0.000
 4860.00    0.96345   0.42040    0.000
 4861.00    0.98584   0.42604    0.000
 4862.00    0.95491   0.45331    0.000
 4863.00    0.86751   0.48828    0.000
 4864.00    0.78006   0.51960    0.000
 4865.00    0.70312   0.54393    0.000
 4866.00    0.60538   0.56177    0.000
 4867.00    0.52165   0.57369    0.000
 4868.00    0.52690   0.57988    0.000
 4869.00    0.58583   0.58149    0.000
 4870.00    0.58617   0.58198    0.000
 4871.00    0.51623   0.58570    0.000
 4872.00    0.45413   0.59375    0.000
 4873.00    0.44461   0.60304    0.000
 4874.00    0.48497   0.61051    0.000
 4875.00    0.55528   0.61619   18.000
 4876.00    0.62711   0.62161   15.974
 4877.00    0.66849   0.62730   14.975
 4878.00    0.65854   0.63222   15.112
 4879.00    0.61042   0.63462   16.336
 4880.00    0.55700   0.63387   18.256
 4881.00    0.52175   0.63155   19.315
 4882.00    0.51812   0.62927   18.361
 4883.00    0.55480   0.62691   17.743
 4884.00    0.61887   0.62440   18.461
 4885.00    0.65586   0.62284   15.713
 4886.00    0.62758   0.62254   10.390
 4887.00    0.58295   0.62191    7.716
 4888.00    0.58934   0.61948    7.212
 4889.00    0.64446   0.61665    7.477
 4890.00    0.68973   0.61748    7.463
 4891.00    0.64487   0.62495    7.349
 4892.00    0.51489   0.63730    7.571
 4893.00    0.46749   0.64930    7.755
 4894.00    0.58977   0.65723    7.514
 4895.00    0.69580   0.66046    7.311
 4896.00    0.64501   0.65972    7.484
 4897.00    0.58531   0.65609    7.653
 4898.00    0.64368   0.65105    7.488
 4899.00    0.70546   0.64646    7.350
 4900.00    0.66310   0.64356    7.523
 4901.00    0.58358   0.64209    7.791
 4902.00    0.56272   0.64166    7.864
 4903.00    0.62227   0.64296    7.746
 4904.00    0.71334   0.64580    7.592
 4905.00    0.74246   0.64780    7.538
 4906.00    0.68487   0.64632    7.629
 4907.00    0.62070   0.64115    7.805
 4908.00    0.59773   0.63454    7.969
 4909.00    0.58187   0.62964    8.040
 4910.00    0.56274   0.62881    8.040
 4911.00    0.58238   0.63214    8.068
 4912.00    0.63794   0.63747    8.026
 4913.00    0.66686   0.64215    7.724
 4914.00    0.65723   0.64381    7.642
 4915.00    0.65960   0.64000    8.854
 4916.00    0.66867   0.62939   12.513
 4917.00    0.62207   0.61347   17.908
 4918.00    0.54044   0.59661   19.780
 4919.00    0.52133   0.58399   18.337
 4920.00    0.57641   0.57903   16.949
 4921.00    0.62822   0.58218   16.260
 4922.00    0.64347   0.59105   15.786
 4923.00    0.64481   0.60243   15.098
 4924.00    0.64137   0.61455   15.175
 4925.00    0.62677   0.62636   17.163
 4926.00    0.61714   0.63616   17.504
 4927.00    0.63483   0.64270   12.385
 4928.00    0.65454   0.64608    8.732
 4929.00    0.63802   0.64617    7.834
 4930.00    0.62373   0.64244    8.206
 4931.00    0.66823   0.63561    8.390
 4932.00    0.70980   0.62833    8.214
 4933.00    0.65300   0.62382    8.380
 4934.00    0.54893   0.62275    8.726
 4935.00    0.50944   0.62195    8.622
 4936.00    0.52948   0.61881    8.311
 4937.00    0.54763   0.61515    8.326
 4938.00    0.56919   0.61505    8.522
 4939.00    0.61507   0.61998    8.513
 4940.00    0.63622   0.62745    0.000
 4941.00    0.58971   0.63380    0.000
 4942.00    0.53784   0.63737    0.000
 4943.00    0.55605   0.63853    0.000
 4944.00    0.62107   0.63825    0.000
 4945.00    0.67031   0.63798    0.000
 4946.00    0.67601   0.63896    0.000
 4947.00    0.64497   0.64091    0.000
 4948.00    0.60865   0.64250    0.000
 4949.00    0.59785   0.64288    0.000
 4950.00    0.62104   0.64199    0.000
 4951.00    0.66525   0.63998    0.000
 4952.00    0.70205   0.63685    0.000
 4953.00    0.71698   0.63187    0.000
 4954.00    0.72699   0.62380    0.000
 4955.00    0.74840   0.61345    0.000
 4956.00    0.77550   0.60546    0.000
 4957.00    0.79265   0.60532    0.000
 4958.00    0.78563   0.61348    0.000
 4959.00    0.75719   0.62400    0.000
 4960.00    0.72902   0.63087    0.000
 4961.00    0.70522   0.63285    0.000
 4962.00    0.66252   0.63138    0.000
 4963.00    0.60145   0.62777    0.000
 4964.00    0.55934   0.62317    0.000
 4965.00    0.55160   0.61914    0.000
 4966.00    0.55533   0.61689    0.000
 4967.00    0.55547   0.61631    0.000
 4968.00    0.55983   0.61700    0.000
 4969.00    0.57938   0.61890    0.000
 4970.00    0.61455   0.62186    0.000
 4971.00    0.63652   0.62533    0.000
 4972.00    0.60832   0.62833    0.000
 4973.00    0.57147   0.62996    0.000
 4974.00    0.61544   0.62961    0.000
 4975.00    0.70634   0.62705    0.000
 4976.00    0.71682   0.62277    0.000
 4977.00    0.64559   0.61758    0.000
 4978.00    0.60204   0.61186    0.000
 4979.00    0.61555   0.60515    0.000
 4980.00    0.63266   0.59713    0.000
 4981.00    0.62351   0.58932    0.000
 4982.00    0.59801   0.58499    0.000
 4983.00    0.58469   0.58647    0.000
 4984.00    0.60228   0.59306    0.000
 4985.00    0.61591   0.60173    0.000
 4986.00    0.57916   0.60899    0.000
 4987.00    0.52150   0.61238    0.000
 4988.00    0.49984   0.61174    0.000
 4989.00    0.49609   0.60933    0.000
 4990.00    0.47246   0.60760    0.000
 4991.00    0.47608   0.60754    0.000
 4992.00    0.56176   0.60872    0.000
 4993.00    0.66804   0.61037    0.000
 4994.00    0.70614   0.61207    0.000
 4995.00    0.69161   0.61289    0.000
 4996.00    0.67876   0.61124    0.000
 4997.00    0.66673   0.60667    0.000
 4998.00    0.64312   0.60026    0.000
 4999.00    0.63978   0.59418    0.000
 5000.00    0.68940   0.59054    0.000
 5001.00    0.77897   0.58945    0.000
 5002.00    0.88292   0.58887    0.000
 5003.00    0.99621   0.58682    0.000
 5004.00    1.11673   0.58382    0.000
 5005.00    1.22771   0.58290    0.000
 5006.00    1.29844   0.58630    0.000
 5007.00    1.29132   0.59237    0.000
 5008.00    1.20153   0.59666    0.000
 5009.00    1.07629   0.59589    0.000
 5010.00    0.94831   0.59015    0.000
 5011.00    0.80101   0.58163    0.000
 5012.00    0.63997   0.57312    0.000
 5013.00    0.52592   0.56717    0.000
 5014.00    0.50042   0.56497    0.000
 5015.00    0.54589   0.56621    0.000
 5016.00    0.60817   0.56961    0.000
 5017.00    0.62360   0.57396    0.000
 5018.00    0.58450   0.57875    0.000
 5019.00    0.55231   0.58324    0.000
 5020.00    0.57630   0.58642    0.000
 5021.00    0.65301   0.58839    0.000
 5022.00    0.71450   0.59040    0.000
 5023.00    0.66559   0.59261    0.000
 5024.00    0.53329   0.59360    0.000
 5025.00    0.45983   0.59287    0.000
 5026.00    0.48832   0.59195    0.000
 5027.00    0.54138   0.59268    0.000
 5028.00    0.58992   0.59560    0.000
 5029.00    0.66567   0.59952    8.854
 5030.00    0.74029   0.60303    8.677
 5031.00    0.73924   0.60525    8.647
 5032.00    0.67142   0.60482    8.792
 5033.00    0.61140   0.60075    9.016
 5034.00    0.57226   0.59424    9.192
 5035.00    0.52438   0.58793    9.214
 5036.00    0.50598   0.58289    9.071
 5037.00    0.57296   0.57716    8.845
 5038.00    0.64913   0.56905    8.668
 5039.00    0.61659   0.56135    8.637
 5040.00    0.53895   0.55938    8.711
 5041.00    0.55598   0.56592    8.774
 5042.00    0.63187   0.57835    8.778
 5043.00    0.64669   0.59045    8.751
 5044.00    0.60944   0.59736    8.770
 5045.00    0.59668   0.59784    8.871
 5046.00    0.61368   0.59317    8.937
 5047.00    0.62281   0.58652    8.848
 5048.00    0.60978   0.58147    8.731
 5049.00    0.58200   0.57991    8.763
 5050.00    0.55491   0.58155    8.932
 5051.00    0.54465   0.58526    9.115
 5052.00    0.56084   0.58965    9.205
 5053.00    0.59800   0.59320    9.156
 5054.00    0.62933   0.59512    9.015
 5055.00    0.63113   0.59619    8.864
 5056.00    0.60622   0.59772    8.751
 5057.00    0.57237   0.59991    8.704
 5058.00    0.54868   0.60205    8.745
 5059.00    0.54482   0.60336    8.846
 5060.00    0.55462   0.60311    8.908
 5061.00    0.56984   0.60010    8.876
 5062.00    0.58967   0.59402    8.832
 5063.00    0.60950   0.58684    8.860
 5064.00    0.61328   0.58155    8.921
 5065.00    0.57887   0.57982    8.640
 5066.00    0.49065   0.58072    7.567
 5067.00    0.39133   0.58237    6.319
 5068.00    0.38706   0.58374    5.707
 5069.00    0.50420   0.58424    5.694
 5070.00    0.63782   0.58345    5.770
 5071.00    0.70145   0.58192    5.668
 5072.00    0.69573   0.58106    5.665
 5073.00    0.65788   0.58134    6.050
 5074.00    0.62588   0.58176    6.994
 5075.00    0.59566   0.58091    8.439
 5076.00    0.52963   0.57757    9.499
 5077.00    0.45975   0.57148    9.493
 5078.00    0.48054   0.56460    9.258
 5079.00    0.57685   0.56045    9.289
 5080.00    0.62322   0.56103    9.321
 5081.00    0.59120   0.56500    9.185
 5082.00    0.56838   0.56987    9.003
 5083.00    0.60035   0.57445    8.843
 5084.00    0.65661   0.57837    8.699
 5085.00    0.67743   0.58104    8.674
 5086.00    0.61903   0.58234    8.908
 5087.00    0.53054   0.58300    9.250
 5088.00    0.50870   0.58386    9.328
 5089.00    0.54663   0.58522    9.184
 5090.00    0.56432   0.58698    9.159
 5091.00    0.55243   0.58880    9.232
 5092.00    0.55452   0.58965    9.147
 5093.00    0.56880   0.58817    8.914
 5094.00    0.56747   0.58368    8.726
 5095.00    0.56739   0.57677    8.644
 5096.00    0.59640   0.56920    8.643
 5097.00    0.61747   0.56361    8.729
 5098.00    0.58574   0.56227    8.883
 5099.00    0.55257   0.56540    8.948
 5100.00    0.58632   0.57069    8.795
 5101.00    0.64120   0.57477    8.600
 5102.00    0.64189   0.57585    8.547
 5103.00    0.61483   0.57431    8.486
 5104.00    0.61656   0.57129    8.260
 5105.00    0.63021   0.56786    8.081
 5106.00    0.62495   0.56489    8.159
 5107.00    0.63018   0.56317    8.364
 5108.00    0.65883   0.56343    8.502
 5109.00    0.63265   0.56560    8.649
 5110.00    0.52195   0.56910    8.913
 5111.00    0.46352   0.57310    9.131
 5112.00    0.54045   0.57637    9.117
 5113.00    0.60774   0.57855    8.971
 5114.00    0.55162   0.58037    8.862
 5115.00    0.48451   0.58224    8.846
 5116.00    0.51880   0.58372    8.901
 5117.00    0.60270   0.58372    8.956
 5118.00    0.64522   0.58134    8.964
 5119.00    0.61185   0.57665    8.942
 5120.00    0.52950   0.57033    8.946
 5121.00    0.47216   0.56354    9.026
 5122.00    0.47873   0.55769    9.140
 5123.00    0.51666   0.55393    9.132
 5124.00    0.54750   0.55253    9.002
 5125.00    0.56083   0.55257    8.970
 5126.00    0.55857   0.55284    9.055
 5127.00    0.54604   0.55321    9.004
 5128.00    0.53025   0.55429    8.814
 5129.00    0.52043   0.55633    8.809
 5130.00    0.53283   0.55895    9.032
 5131.00    0.58119   0.56162    9.145
 5132.00    0.63446   0.56409    9.058
 5133.00    0.62933   0.56591    9.057
 5134.00    0.57029   0.56609    9.231
 5135.00    0.52869   0.56362    9.383
 5136.00    0.52487   0.55880    9.398
 5137.00    0.52100   0.55405    9.336
 5138.00    0.51524   0.55130    9.233
 5139.00    0.54040   0.55023    9.086
 5140.00    0.58293   0.54980    8.993
 5141.00    0.59336   0.54928    9.057
 5142.00    0.56834   0.54901    9.122
 5143.00    0.54235   0.54960    8.938
 5144.00    0.52121   0.55020    8.728
 5145.00    0.49280   0.55002    8.891
 5146.00    0.48147   0.54991    9.308
 5147.00    0.52100   0.55036    9.484
 5148.00    0.58141   0.55070    9.362
 5149.00    0.60280   0.55003    9.267
 5150.00    0.58027   0.54826    9.310
 5151.00    0.54703   0.54662    9.405
 5152.00    0.52155   0.54653    9.445
 5153.00    0.50972   0.54859    9.378
 5154.00    0.52090   0.55266    9.293
 5155.00    0.55697   0.55787    9.280
 5156.00    0.59552   0.56266    9.252
 5157.00    0.61650   0.56584    9.105
 5158.00    0.63656   0.56686    8.935
 5159.00    0.66838   0.56576    8.850
 5160.00    0.67265   0.56297    8.773
 5161.00    0.62403   0.55851    8.645
 5162.00    0.58099   0.55177    8.617
 5163.00    0.59135   0.54160    8.803
 5164.00    0.59924   0.52732    9.051
 5165.00    0.54878   0.51147    9.180
 5166.00    0.48070   0.49954    9.276
 5167.00    0.45649   0.49561    9.443
 5168.00    0.48748   0.49795    9.549
 5169.00    0.55044   0.50028    9.476
 5170.00    0.60690   0.49905    9.339
 5171.00    0.62238   0.49769    9.295
 5172.00    0.58311   0.50273    9.396
 5173.00    0.51880   0.51606    9.568
 5174.00    0.50305   0.53245    9.604
 5175.00    0.56418   0.54524    9.424
 5176.00    0.64271   0.55201    9.198
 5177.00    0.66968   0.55367    9.090
 5178.00    0.61870   0.55077    9.139
 5179.00    0.53281   0.54241    9.250
 5180.00    0.50829   0.52822    9.234
 5181.00    0.55706   0.51165    9.110
 5182.00    0.58013   0.49999    9.129
 5183.00    0.54579   0.49962    9.296
 5184.00    0.53022   0.51075    9.298
 5185.00    0.55422   0.52631    9.156
 5186.00    0.55304   0.53856    9.277
 5187.00    0.51753   0.54481    9.661
 5188.00    0.51110   0.54573    9.785
 5189.00    0.54277   0.54283    9.548
 5190.00    0.55802   0.53795    0.000
 5191.00    0.54960   0.53354    0.000
 5192.00    0.56065   0.53201    0.000
 5193.00    0.59114   0.53364    0.000
 5194.00    0.60047   0.53663    0.000
 5195.00    0.58706   0.53989    0.000
 5196.00    0.58623   0.54372    0.000
 5197.00    0.61229   0.54779    0.000
 5198.00    0.64700   0.55105    0.000
 5199.00    0.64790   0.55250    0.000
 5200.00    0.58426   0.55147    0.000
 5201.00    0.50398   0.54765    0.000
 5202.00    0.48582   0.54129    0.000
 5203.00    0.52551   0.53364    0.000
 5204.00    0.56580   0.52655    0.000
 5205.00    0.58592   0.52174    0.000
 5206.00    0.59035   0.52010    0.000
 5207.00    0.56715   0.52151    0.000
 5208.00    0.51296   0.52579    0.000
 5209.00    0.47661   0.53284    0.000
 5210.00    0.50918   0.54109    0.000
 5211.00    0.58915   0.54785    9.259
 5212.00    0.64509   0.55085    9.075
 5213.00    0.60247   0.54960    9.177
 5214.00    0.46241   0.54600    9.492
 5215.00    0.37102   0.54342    9.637
 5216.00    0.43486   0.54429    9.367
 5217.00    0.53528   0.54835    9.110
 5218.00    0.53891   0.55336    9.212
 5219.00    0.50671   0.55690    9.420
 5220.00    0.52631   0.55744    9.420
 5221.00    0.55535   0.55424    9.383
 5222.00    0.53842   0.54699    9.515
 5223.00    0.50711   0.53638    9.659
 5224.00    0.50592   0.52507    9.620
 5225.00    0.53294   0.51754    9.459
 5226.00    0.56875   0.51729    9.335
 5227.00    0.59907   0.52425    9.363
 5228.00    0.60839   0.53433    9.514
 5229.00    0.58050   0.54175    9.590
 5230.00    0.53223   0.54360    9.492
 5231.00    0.51795   0.54107    9.374
 5232.00    0.54114   0.53745    9.365
 5233.00    0.53164   0.53632    9.441
 5234.00    0.48241   0.53911    9.480
 5235.00    0.48309   0.54436    9.338
 5236.00    0.54445   0.54966    9.124
 5237.00    0.56079   0.55332    9.147
 5238.00    0.50865   0.55511    9.397
 5239.00    0.48835   0.55561    9.470
 5240.00    0.54187   0.55548    9.265
 5241.00    0.60679   0.55532    9.142
 5242.00    0.61928   0.55522    9.301
 5243.00    0.56109   0.55441    9.657
 5244.00    0.48292   0.55175    9.901
 5245.00    0.46971   0.54714    9.680
 5246.00    0.51560   0.54194    9.222
 5247.00    0.53817   0.53787    9.029
 5248.00    0.52549   0.53569    9.044
 5249.00    0.53019   0.53511    8.857
 5250.00    0.54667   0.53578    8.532
 5251.00    0.52545   0.53724    8.431
 5252.00    0.48214   0.53853    8.540
 5253.00    0.47750   0.53969    8.591
 5254.00    0.51817   0.54201    8.538
 5255.00    0.56483   0.54620    8.505
 5256.00    0.59304   0.55098    8.421
 5257.00    0.60092   0.55351    8.178
 5258.00    0.59965   0.55157    7.976
 5259.00    0.59900   0.54484    8.064
 5260.00    0.58743   0.53454    8.342
 5261.00    0.55493   0.52284    8.519
 5262.00    0.53149   0.51214    8.531
 5263.00    0.54599   0.50455    8.516
 5264.00    0.56228   0.50138    8.592
 5265.00    0.53116   0.50168    8.780
 5266.00    0.46883   0.50231    8.953
 5267.00    0.42475   0.50108    8.981
 5268.00    0.42878   0.49929    8.968
 5269.00    0.47319   0.50067    9.042
 5270.00    0.50466   0.50692    9.117
 5271.00    0.48623   0.51511    9.098
 5272.00    0.45594   0.52081    9.128
 5273.00    0.45801   0.52352    9.327
 5274.00    0.47642   0.52627    9.537
 5275.00    0.48377   0.53128    9.569
 5276.00    0.48653   0.53793    9.498
 5277.00    0.49748   0.54313    9.457
 5278.00    0.51136   0.54406    9.462
 5279.00    0.51422   0.54075    9.484
 5280.00    0.49510   0.53548    9.515
 5281.00    0.46934   0.53110    9.554
 5282.00    0.48312   0.53010    9.589
 5283.00    0.54192   0.53350    9.580
 5284.00    0.58170   0.54021    9.468
 5285.00    0.57143   0.54733    9.329
 5286.00    0.55645   0.55216    9.369
 5287.00    0.55852   0.55423    9.609
 5288.00    0.53881   0.55468    9.763
 5289.00    0.49023   0.55442    9.682
 5290.00    0.46558   0.55347    9.555
 5291.00    0.49029   0.55163    9.519
 5292.00    0.53372   0.54880    9.541
 5293.00    0.56147   0.54452    9.583
 5294.00    0.55844   0.53825    9.657
 5295.00    0.52875   0.53060    9.758
 5296.00    0.49126   0.52420    9.840
 5297.00    0.46515   0.52173    9.878
 5298.00    0.46257   0.52348    9.877
 5299.00    0.48186   0.52740    9.820
 5300.00    0.50871   0.53146    9.702
 5301.00    0.52553   0.53547    9.648
 5302.00    0.51745   0.53991    9.822
 5303.00    0.48019   0.54401   10.122
 5304.00    0.42786   0.54636   10.216
 5305.00    0.40531   0.54671   10.045
 5306.00    0.45124   0.54638    9.853
 5307.00    0.50997   0.54674    9.836
 5308.00    0.49252   0.54787   10.039
 5309.00    0.44425   0.54877   10.249
 5310.00    0.47234   0.54857   10.166
 5311.00    0.53986   0.54713    9.914
 5312.00    0.53787   0.54467    9.810
 5313.00    0.48318   0.54128    9.857
 5314.00    0.46542   0.53751    9.878
 5315.00    0.50258   0.53459    9.817
 5316.00    0.55645   0.53362    9.732
 5317.00    0.59295   0.53459    9.694
 5318.00    0.59280   0.53612    9.742
 5319.00    0.55392   0.53651    9.844
 5320.00    0.49612   0.53502    9.945
 5321.00    0.46364   0.53178   10.037
 5322.00    0.48289   0.52751   10.137
 5323.00    0.51644   0.52282   10.239
 5324.00    0.51868   0.51722   10.317
 5325.00    0.49933   0.50987   10.336
 5326.00    0.48631   0.50204   10.290
 5327.00    0.48309   0.49777   10.242
 5328.00    0.48506   0.50056   10.242
 5329.00    0.49715   0.50939   10.267
 5330.00    0.52127   0.51936   10.260
 5331.00    0.54513   0.52662   10.183
 5332.00    0.55087   0.53080   10.069
 5333.00    0.52543   0.53307   10.026
 5334.00    0.48272   0.53394   10.152
 5335.00    0.47017   0.53316   10.460
 5336.00    0.50634   0.53062   10.797
 5337.00    0.54913   0.52656   10.814
 5338.00    0.56433   0.52209   10.474
 5339.00    0.56277   0.51916   10.213
 5340.00    0.56036   0.51944   10.227
 5341.00    0.55666   0.52267   10.276
 5342.00    0.54987   0.52638   10.193
 5343.00    0.54351   0.52817   10.092
 5344.00    0.53761   0.52783   10.099
 5345.00    0.52678   0.52633   10.234
 5346.00    0.51103   0.52481   10.447
 5347.00    0.49917   0.52411   10.638
 5348.00    0.50235   0.52489   10.689
 5349.00    0.52537   0.52745   10.546
 5350.00    0.54598   0.53113   10.386
 5351.00    0.52881   0.53478   10.481
 5352.00    0.49762   0.53791   10.676
 5353.00    0.51939   0.54073   10.478
 5354.00    0.57814   0.54329   10.031
 5355.00    0.58755   0.54517   -2.000
 5356.00    0.54207   0.54596   -2.000
 5357.00    0.51136   0.54554   -2.000
 5358.00    0.50835   0.54367   -2.000
 5359.00    0.49233   0.54021   -2.000
 5360.00    0.46303   0.53561   -2.000
 5361.00    0.45721   0.53088   -2.000
 5362.00    0.48871   0.52697   -2.000
 5363.00    0.54233   0.52436   -2.000
 5364.00    0.59051   0.52283   -2.000
 5365.00    0.60872   0.52166   -2.000
 5366.00    0.59719   0.51974   -2.000
 5367.00    0.57210   0.51595   -2.000
 5368.00    0.54331   0.51063   -2.000
 5369.00    0.51547   0.50625   -2.000
 5370.00    0.49606   0.50591    9.825
 5371.00    0.49355   0.51080   10.005
 5372.00    0.51251   0.51896   10.311
 5373.00    0.54578   0.52680   10.386
 5374.00    0.56660   0.53172   10.299
 5375.00    0.55169   0.53352   10.317
 5376.00    0.51065   0.53317   10.469
 5377.00    0.47255   0.53165   10.647
 5378.00    0.46478   0.52953   10.766
 5379.00    0.49406   0.52709   10.796
 5380.00    0.53163   0.52483   10.776
 5381.00    0.54547   0.52346   10.770
 5382.00    0.53312   0.52348   10.818
 5383.00    0.51552   0.52471   10.906
 5384.00    0.52447   0.52628   10.944
 5385.00    0.56377   0.52704   10.869
 5386.00    0.58626   0.52624   10.734
 5387.00    0.56427   0.52402   10.654
 5388.00    0.53564   0.52099   10.754
 5389.00    0.53019   0.51787   11.022
 5390.00    0.52312   0.51522   11.227
 5391.00    0.49159   0.51320   11.209
 5392.00    0.44989   0.51147   11.105
 5393.00    0.42466   0.50937   11.062
 5394.00    0.43512   0.50655   11.080
 5395.00    0.47422   0.50392   11.123
 5396.00    0.50634   0.50315   11.164
 5397.00    0.50634   0.50502   11.154
 5398.00    0.47770   0.50846   11.035
 5399.00    0.44147   0.51125   10.894
 5400.00    0.42362   0.51160   10.934
 5401.00    0.42604   0.50878   11.141
 5402.00    0.42595   0.50329   11.231
 5403.00    0.42237   0.49709   11.098
 5404.00    0.44052   0.49318   10.940
 5405.00    0.48058   0.49304   10.921
 5406.00    0.51377   0.49535   11.055
 5407.00    0.53227   0.49760   11.184
 5408.00    0.55307   0.49891   11.067
 5409.00    0.57766   0.50060   10.788
 5410.00    0.58767   0.50395   10.663
 5411.00    0.56855   0.50842   10.759
 5412.00    0.52173   0.51226   10.919
 5413.00    0.47723   0.51482   11.049
 5414.00    0.47150   0.51674   11.166
 5415.00    0.48945   0.51850   11.329
 5416.00    0.48785   0.51967   11.542
 5417.00    0.47483   0.51957   11.593
 5418.00    0.48466   0.51836   11.285
 5419.00    0.49453   0.51692   10.957
 5420.00    0.45869   0.51558   11.049
 5421.00    0.40020   0.51408   11.430
 5422.00    0.37864   0.51257   11.622
 5423.00    0.40754   0.51205   11.475
 5424.00    0.46043   0.51304   11.202
 5425.00    0.50336   0.51422   11.068
 5426.00    0.51273   0.51301   11.209
 5427.00    0.49290   0.50876   11.483
 5428.00    0.46667   0.50384   11.631
 5429.00    0.45809   0.50086   11.582
 5430.00    0.47390   0.50012   11.425
 5431.00    0.48670   0.49986   11.273
 5432.00    0.47412   0.49885   11.224
 5433.00    0.46085   0.49824   11.353
 5434.00    0.46934   0.49982   11.630
 5435.00    0.46963   0.50420   11.820
 5436.00    0.44110   0.51042   11.756
 5437.00    0.42844   0.51657   11.624
 5438.00    0.46842   0.52113   11.575
 5439.00    0.52663   0.52347   11.442
 5440.00    0.55170   0.52369   11.145
 5441.00    0.52464   0.52176   10.948
 5442.00    0.46593   0.51733   10.971
 5443.00    0.42993   0.51052   10.957
 5444.00    0.44612   0.50301   10.783
 5445.00    0.48661   0.49800   10.732
 5446.00    0.51982   0.49789   10.927
 5447.00    0.54247   0.50220   11.077
 5448.00    0.55637   0.50796   11.046
 5449.00    0.55549   0.51189   11.132
 5450.00    0.53525   0.51246   11.432
 5451.00    0.49933   0.50967   11.579
 5452.00    0.46568   0.50447   11.415
 5453.00    0.46039   0.49898   11.268
 5454.00    0.47779   0.49617   11.316
 5455.00    0.47888   0.49778   11.414
 5456.00    0.46019   0.50278   11.431
 5457.00    0.46283   0.50787   11.370
 5458.00    0.49533   0.51011   11.245
 5459.00    0.52201   0.50882   11.061
 5460.00    0.52883   0.50532   10.904
 5461.00    0.53325   0.50181   10.880
 5462.00    0.53868   0.50014   10.864
 5463.00    0.53123   0.50072   10.640
 5464.00    0.51465   0.50264   10.506
 5465.00    0.50994   0.50473   -2.000
 5466.00    0.52511   0.50623   -2.000
 5467.00    0.53619   0.50692   -2.000
 5468.00    0.46467   0.50663   -2.000
 5469.00    0.26535   0.50535   -2.000
 5470.00    0.12993   0.50328   -2.000
 5471.00    0.27472   0.50057   -2.000
 5472.00    0.41352   0.49722   -2.000
 5473.00    0.12363   0.49310   -2.000
 5474.00   -0.25311   0.48882   -2.000
 5475.00   -0.07111   0.48607   -2.000
 5476.00    0.50468   0.48629   -2.000
 5477.00    0.86969   0.48907   -2.000
 5478.00    0.91061   0.49207   -2.000
 5479.00    0.88974   0.49346   -2.000
 5480.00    1.02943   0.49390   -2.000
 5481.00    1.38648   0.49523   -2.000
 5482.00    1.77460   0.49808   -2.000
 5483.00    1.90222   0.50116   -2.000
 5484.00    1.57635   0.50265   -2.000
 5485.00    0.88590   0.50210   -2.000
 5486.00    0.34468   0.50068   -2.000
 5487.00    0.34276   0.49995   -2.000
 5488.00    0.57802   0.50043   17.300
 5489.00    0.62600   0.50148   15.918
 5490.00    0.54176   0.50212   18.468
 5491.00    0.51173   0.50205   19.781
 5492.00    0.49675   0.50158   20.075
 5493.00    0.42499   0.50091   20.527
 5494.00    0.36684   0.50008   20.527
 5495.00    0.38882   0.49920   20.527
 5496.00    0.44039   0.49876   20.527
 5497.00    0.45972   0.49893   14.037
 5498.00    0.45128   0.49893   11.157
 5499.00    0.44437   0.49787   10.938
 5500.00    0.45980   0.49595   11.335
 5501.00    0.49819   0.49430   11.081
 5502.00    0.53778   0.49343   10.680
 5503.00    0.55726   0.49273   10.668
 5504.00    0.55010   0.49173   10.847
 5505.00    0.52908   0.49102   10.960
 5506.00    0.52016   0.49132   11.003
 5507.00    0.52341   0.49226   11.101
 5508.00    0.50850   0.49263   11.376
 5509.00    0.47742   0.49139   11.724
 5510.00    0.47333   0.48901   11.795
 5511.00    0.50185   0.48689   11.590
 5512.00    0.51945   0.48637   11.521
 5513.00    0.51127   0.48796   11.647
 5514.00    0.50495   0.49110   11.620
 5515.00    0.51579   0.49487   11.363
 5516.00    0.53372   0.49843   11.156
 5517.00    0.54425   0.50111   11.147
 5518.00    0.53889   0.50253   11.292
 5519.00    0.52443   0.50271   11.482
 5520.00    0.51668   0.50207   11.585
 5521.00    0.51720   0.50100   11.510
 5522.00    0.51646   0.49934   11.289
 5523.00    0.51667   0.49658   11.175
 5524.00    0.52578   0.49250   11.394
 5525.00    0.53217   0.48781   11.650
 5526.00    0.51687   0.48420   11.560
 5527.00    0.48949   0.48342   11.983
 5528.00    0.47484   0.48567   14.539
 5529.00    0.47410   0.48937   19.844
 5530.00    0.47436   0.49224   20.527
 5531.00    0.47757   0.49303   20.527
 5532.00    0.49257   0.49212   19.203
 5533.00    0.51433   0.49087   19.134
 5534.00    0.52737   0.49052   20.527
 5535.00    0.51647   0.49147   19.963
 5536.00    0.47867   0.49332   15.165
 5537.00    0.43639   0.49543   11.957
 5538.00    0.41816   0.49721   11.316
 5539.00    0.43303   0.49810   11.721
 5540.00    0.47586   0.49764   11.661
 5541.00    0.53694   0.49598   11.273
 5542.00    0.59982   0.49406   11.225
 5543.00    0.63928   0.49289   11.346
 5544.00    0.63620   0.49299   11.303
 5545.00    0.59247   0.49427   11.302
 5546.00    0.53186   0.49627   11.550
 5547.00    0.49528   0.49831   11.765
 5548.00    0.50271   0.49970   11.686
 5549.00    0.52673   0.49990   11.579
 5550.00    0.53461   0.49877   11.668
 5551.00    0.52106   0.49671   11.763
 5552.00    0.49751   0.49447   11.708
 5553.00    0.48096   0.49295   11.678
 5554.00    0.48141   0.49248   11.758
 5555.00    0.49539   0.49271   11.731
 5556.00    0.51440   0.49312   11.539
 5557.00    0.53041   0.49331   11.466
 5558.00    0.53661   0.49304   11.626
 5559.00    0.52924   0.49214   11.787
 5560.00    0.51509   0.49044   11.765
 5561.00    0.50832   0.48831   11.652
 5562.00    0.49837   0.48633   11.628
 5563.00    0.45239   0.48485   11.833
 5564.00    0.38988   0.48399   12.151
 5565.00    0.38488   0.48356   12.206
 5566.00    0.44802   0.48332   11.925
 5567.00    0.50980   0.48315   11.639
 5568.00    0.53201   0.48305   11.499
 5569.00    0.53196   0.48292   11.425
 5570.00    0.52440   0.48263   11.424
 5571.00    0.50785   0.48251   11.611
 5572.00    0.48483   0.48301   11.966
 5573.00    0.46606   0.48415   12.271
 5574.00    0.46408   0.48549   12.214
 5575.00    0.48268   0.48652   11.678
 5576.00    0.49624   0.48723   11.111
 5577.00    0.47421   0.48783   11.015
 5578.00    0.44953   0.48819   11.217
 5579.00    0.48104   0.48803   11.156
 5580.00    0.53945   0.48736   10.819
 5581.00    0.54983   0.48620   10.567
 5582.00    0.52398   0.48429   10.387
 5583.00    0.52330   0.48100   10.105
 5584.00    0.54310   0.47602    9.861
 5585.00    0.54116   0.47019    9.872
 5586.00    0.52114   0.46542   10.036
 5587.00    0.51325   0.46332   10.120
 5588.00    0.52246   0.46429   10.151
 5589.00    0.53468   0.46712   10.283
 5590.00    0.53728   0.47007   10.466
 5591.00    0.52406   0.47213   10.582
 5592.00    0.49782   0.47351   10.703
 5593.00    0.46972   0.47511   10.923
 5594.00    0.45713   0.47695   11.101
 5595.00    0.47044   0.47788   11.079
 5596.00    0.49927   0.47695   11.001
 5597.00    0.52146   0.47447   11.077
 5598.00    0.51603   0.47150   11.317
 5599.00    0.48363   0.46906   11.592
 5600.00    0.45982   0.46787   11.716
 5601.00    0.46493   0.46880   11.661
 5602.00    0.46645   0.47245   11.707
 5603.00    0.44625   0.47797   11.971
 5604.00    0.44776   0.48360   12.083
 5605.00    0.49636   0.48765   11.855
 5606.00    0.54742   0.48968   11.733
 5607.00    0.56301   0.49028   11.929
 5608.00    0.55945   0.49027   12.011
 5609.00    0.55388   0.48997   11.799
 5610.00    0.53493   0.48882   11.818
 5611.00    0.50301   0.48576   12.270
 5612.00    0.48592   0.48033   12.584
 5613.00    0.48963   0.47387   12.405
 5614.00    0.48222   0.46922   12.179
 5615.00    0.44918   0.46826   12.184
 5616.00    0.41457   0.47050   12.224
 5617.00    0.40834   0.47382   12.165
 5618.00    0.44550   0.47653   12.113
 5619.00    0.50528   0.47810   12.137
 5620.00    0.53896   0.47834   12.171
 5621.00    0.53107   0.47695   12.101
 5622.00    0.50834   0.47431   11.868
 5623.00    0.48721   0.47200   11.657
 5624.00    0.46404   0.47161   11.769
 5625.00    0.44499   0.47353   12.117
 5626.00    0.44702   0.47678   12.247
 5627.00    0.47125   0.48009   12.046
 5628.00    0.50348   0.48254   11.813
 5629.00    0.53728   0.48381   11.648
 5630.00    0.57173   0.48379   11.468
 5631.00    0.59025   0.48267   11.351
 5632.00    0.57011   0.48083   11.461
 5633.00    0.51602   0.47861   11.758
 5634.00    0.45555   0.47634   12.026
 5635.00    0.41270   0.47434   12.152
 5636.00    0.40014   0.47292   12.158
 5637.00    0.41562   0.47208   12.071
 5638.00    0.44755   0.47152   11.927
 5639.00    0.48600   0.47109   11.814
 5640.00    0.52114   0.47104   11.808
 5641.00    0.53798   0.47158   11.862
 5642.00    0.52620   0.47261   11.897
 5643.00    0.49577   0.47377   11.964
 5644.00    0.46833   0.47477   12.136
 5645.00    0.46129   0.47551   12.321
 5646.00    0.47965   0.47585   12.388
 5647.00    0.50923   0.47581   12.394
 5648.00    0.52914   0.47571   12.426
 5649.00    0.52775   0.47586   12.398
 5650.00    0.50646   0.47615   12.268
 5651.00    0.48057   0.47597   12.261
 5652.00    0.46630   0.47475   12.491
 5653.00    0.46764   0.47239   12.616
 5654.00    0.47890   0.46910   12.376
 5655.00    0.48903   0.46503   12.127
 5656.00    0.49091   0.46091   12.172
 5657.00    0.48811   0.45828   12.308
 5658.00    0.48786   0.45812   12.256
 5659.00    0.49452   0.45976   12.025
 5660.00    0.50655   0.46184   11.757
 5661.00    0.51572   0.46366   11.561
 5662.00    0.51532   0.46554   11.426
 5663.00    0.50577   0.46742   11.214
 5664.00    0.49434   0.46869   10.919
 5665.00    0.49209   0.46885   10.733
 5666.00    0.49862   0.46845   10.770
 5667.00    0.49822   0.46838   10.973
 5668.00    0.48539   0.46926   11.233
 5669.00    0.47483   0.47101   11.448
 5670.00    0.48350   0.47318   11.548
 5671.00    0.51717   0.47510   11.536
 5672.00    0.55155   0.47625   11.514
 5673.00    0.54266   0.47650   11.626
 5674.00    0.50007   0.47619   11.845
 5675.00    0.48790   0.47565   11.953
 5676.00    0.51784   0.47486   11.891
 5677.00    0.53787   0.47371   11.834
 5678.00    0.53253   0.47210   11.868
 5679.00    0.53417   0.47005   11.928
 5680.00    0.54759   0.46768   11.931
 5681.00    0.54621   0.46551   11.817
 5682.00    0.53066   0.46408   11.581
 5683.00    0.52784   0.46344   11.285
 5684.00    0.54292   0.46307   11.084
 5685.00    0.55643   0.46253   11.120
 5686.00    0.54923   0.46216   11.290
 5687.00    0.51471   0.46271   11.358
 5688.00    0.47077   0.46451   11.365
 5689.00    0.44473   0.46713   11.539
 5690.00    0.43756   0.46971   11.897
 5691.00    0.43419   0.47138   12.248
 5692.00    0.43654   0.47187   12.425
 5693.00    0.45550   0.47134   12.393
 5694.00    0.48642   0.47026   12.302
 5695.00    0.51497   0.46881   12.321
 5696.00    0.53334   0.46708   12.401
 5697.00    0.53964   0.46512   12.398
 5698.00    0.53334   0.46304   12.311
 5699.00    0.51987   0.46116   12.191
 5700.00    0.51628   0.46000   11.995
 5701.00    0.52979   0.45980   11.753
 5702.00    0.53317   0.46008   11.743
 5703.00    0.50543   0.45979   12.102
 5704.00    0.47800   0.45812   12.371
 5705.00    0.48220   0.45515   12.124
 5706.00    0.49262   0.45162   11.817
 5707.00    0.47846   0.44857   11.872
 5708.00    0.45587   0.44699   11.962
 5709.00    0.45007   0.44732   11.778
 5710.00    0.45849   0.44965   11.699
 5711.00    0.46760   0.45356   11.945
 5712.00    0.46986   0.45793   11.974
 5713.00    0.46557   0.46175   11.531
 5714.00    0.46253   0.46438   11.324
 5715.00    0.46928   0.46590   11.687
 5716.00    0.48910   0.46690   11.984
 5717.00    0.51183   0.46791   11.772
 5718.00    0.51362   0.46901   11.631
 5719.00    0.48662   0.47014   11.932
 5720.00    0.45231   0.47104   12.292
 5721.00    0.43454   0.47152   12.312
 5722.00    0.44397   0.47138   12.101
 5723.00    0.47839   0.47049   11.913
 5724.00    0.52475   0.46892   11.898
 5725.00    0.56628   0.46718   12.019
 5726.00    0.58857   0.46600   12.081
 5727.00    0.59043   0.46553   12.021
 5728.00    0.58434   0.46541   11.972
 5729.00    0.58000   0.46518   11.958
 5730.00    0.57813   0.46509   11.871
 5731.00    0.57248   0.46557   11.789
 5732.00    0.55648   0.46665   11.940
 5733.00    0.54184   0.46777   12.251
 5734.00    0.54996   0.46824   12.350
 5735.00    0.56793   0.46789   12.217
 5736.00    0.55473   0.46695   12.194
 5737.00    0.49659   0.46584   12.356
 5738.00    0.41601   0.46495   12.479
 5739.00    0.35333   0.46440   12.400
 5740.00    0.34438   0.46431    0.000
 5741.00    0.38109   0.46457    0.000
 5742.00    0.42454   0.46521    0.000
 5743.00    0.45330   0.46578    0.000
 5744.00    0.46462   0.46576    0.000
 5745.00    0.45547   0.46490    0.000
 5746.00    0.42697   0.46362    0.000
 5747.00    0.39906   0.46277    0.000
 5748.00    0.39689   0.46237    0.000
 5749.00    0.42365   0.46163    0.000
 5750.00    0.46181   0.45973    0.000
 5751.00    0.48331   0.45705    0.000
 5752.00    0.46932   0.45507    0.000
 5753.00    0.43473   0.45517    0.000
 5754.00    0.40828   0.45739    0.000
 5755.00    0.40189   0.46039    0.000
 5756.00    0.41278   0.46264    0.000
 5757.00    0.43141   0.46296    0.000
 5758.00    0.44750   0.46133    0.000
 5759.00    0.45575   0.45848    0.000
 5760.00    0.45647   0.45576    0.000
 5761.00    0.45513   0.45451    0.000
 5762.00    0.45853   0.45547    0.000
 5763.00    0.47056   0.45800    0.000
 5764.00    0.48700   0.46086    0.000
 5765.00    0.49307   0.46288    0.000
 5766.00    0.47857   0.46364    0.000
 5767.00    0.44944   0.46340    0.000
 5768.00    0.41977   0.46249    0.000
 5769.00    0.40405   0.46129    0.000
 5770.00    0.40997   0.45996    0.000
 5771.00    0.43431   0.45885    0.000
 5772.00    0.46677   0.45806    0.000
 5773.00    0.49436   0.45775    0.000
 5774.00    0.51168   0.45780    0.000
 5775.00    0.52527   0.45772    0.000
 5776.00    0.54484   0.45678    0.000
 5777.00    0.57349   0.45439   -2.000
 5778.00    0.58468   0.45064   -2.000
 5779.00    0.52640   0.44647   -2.000
 5780.00    0.39017   0.44320   -2.000
 5781.00    0.23405   0.44152   -2.000
 5782.00    0.14408   0.44128   -2.000
 5783.00    0.19506   0.44214   -2.000
 5784.00    0.36863   0.44394   -2.000
 5785.00    0.55399   0.44645   -2.000
 5786.00    0.66059   0.44899   -2.000
 5787.00    0.66005   0.45086   -2.000
 5788.00    0.58681   0.45158   -2.000
 5789.00    0.51409   0.45163   -2.000
 5790.00    0.48466   0.45186   -2.000
 5791.00    0.49748   0.45273   -2.000
 5792.00    0.52910   0.45408   -2.000
 5793.00    0.54996   0.45518   -2.000
 5794.00    0.54869   0.45537   -2.000
 5795.00    0.53311   0.45469   -2.000
 5796.00    0.51802   0.45409   -2.000
 5797.00    0.51413   0.45451    0.000
 5798.00    0.51212   0.45609    0.000
 5799.00    0.49741   0.45802    0.000
 5800.00    0.48434   0.45920    0.000
 5801.00    0.49799   0.45894    0.000
 5802.00    0.53054   0.45743    0.000
 5803.00    0.55331   0.45556    0.000
 5804.00    0.54963   0.45422    0.000
 5805.00    0.52097   0.45386    0.000
 5806.00    0.48701   0.45435    0.000
 5807.00    0.47285   0.45523    0.000
 5808.00    0.49053   0.45619    0.000
 5809.00    0.53019   0.45692    0.000
 5810.00    0.55493   0.45721    0.000
 5811.00    0.54053   0.45688    0.000
 5812.00    0.51904   0.45586    0.000
 5813.00    0.52408   0.45441    0.000
 5814.00    0.53015   0.45326    0.000
 5815.00    0.50563   0.45315    0.000
 5816.00    0.46915   0.45429    0.000
 5817.00    0.45307   0.45608    0.000
 5818.00    0.46462   0.45772    0.000
 5819.00    0.48691   0.45864    0.000
 5820.00    0.48728   0.45878    0.000
 5821.00    0.45578   0.45847    0.000
 5822.00    0.42825   0.45808    0.000
 5823.00    0.43266   0.45783    0.000
 5824.00    0.45361   0.45774    0.000
 5825.00    0.46810   0.45776    0.000
 5826.00    0.47024   0.45783    0.000
 5827.00    0.46379   0.45788    0.000
 5828.00    0.45606   0.45781    0.000
 5829.00    0.45398   0.45753    0.000
 5830.00    0.46143   0.45707    0.000
 5831.00    0.47625   0.45652    0.000
 5832.00    0.49009   0.45590    0.000
 5833.00    0.49487   0.45540    0.000
 5834.00    0.48694   0.45506    0.000
 5835.00    0.47103   0.45482    0.000
 5836.00    0.45830   0.45463    0.000
 5837.00    0.45211   0.45468    0.000
 5838.00    0.44615   0.45505    0.000
 5839.00    0.43915   0.45567    0.000
 5840.00    0.43625   0.45616    0.000
 5841.00    0.43459   0.45619    0.000
 5842.00    0.42578   0.45554    0.000
 5843.00    0.41906   0.45429    0.000
 5844.00    0.43407   0.45271    0.000
 5845.00    0.45983   0.45117    0.000
 5846.00    0.46314   0.45004    0.000
 5847.00    0.44193   0.44937    0.000
 5848.00    0.42113   0.44878    0.000
 5849.00    0.40811   0.44771    0.000
 5850.00    0.39694   0.44583    0.000
 5851.00    0.40204   0.44349    0.000
 5852.00    0.44026   0.44145    0.000
 5853.00    0.48023   0.43991    0.000
 5854.00    0.47414   0.43846    0.000
 5855.00    0.43555   0.43685    0.000
 5856.00    0.41107   0.43569    0.000
 5857.00    0.40658   0.43577    0.000
 5858.00    0.40146   0.43722    0.000
 5859.00    0.39194   0.43935    0.000
 5860.00    0.38982   0.44115    0.000
 5861.00    0.40943   0.44237    0.000
 5862.00    0.45310   0.44307    0.000
 5863.00    0.49550   0.44330    0.000
 5864.00    0.50628   0.44318    0.000
 5865.00    0.48067   0.44312    0.000
 5866.00    0.43671   0.44364    0.000
 5867.00    0.40562   0.44483    0.000
 5868.00    0.40633   0.44614    0.000
 5869.00    0.42231   0.44678    0.000
 5870.00    0.43202   0.44599    0.000
 5871.00    0.43914   0.44362    0.000
 5872.00    0.45077   0.43980    0.000
 5873.00    0.45736   0.43560    0.000
 5874.00    0.45161   0.43263    0.000
 5875.00    0.44297   0.43188    0.000
 5876.00    0.43514   0.43333    0.000
 5877.00    0.41271   0.43537    0.000
 5878.00    0.37683   0.43707    0.000
 5879.00    0.36295   0.43787    0.000
 5880.00    0.38551   0.43806    0.000
 5881.00    0.41056   0.43782    0.000
 5882.00    0.41648   0.43724    0.000
 5883.00    0.42302   0.43603    0.000
 5884.00    0.44207   0.43322    0.000
 5885.00    0.45645   0.42730    0.000
 5886.00    0.45650   0.41735    0.000
 5887.00    0.45352   0.40482    0.000
 5888.00    0.45139   0.39423    0.000
 5889.00    0.43878   0.39011    0.000
 5890.00    0.41478   0.39264    0.000
 5891.00    0.39418   0.39797    0.000
 5892.00    0.38408   0.40124    0.000
 5893.00    0.37884   0.40031    0.000
 5894.00    0.37634   0.39813    0.000
 5895.00    0.38051   0.39896    0.000
 5896.00    0.38969   0.40412    0.000
 5897.00    0.39583   0.41211    0.000
 5898.00    0.39417   0.42013    0.000
 5899.00    0.38641   0.42630    0.000
 5900.00    0.38070   0.43042    0.000
 5901.00    0.38536   0.43293   13.127
 5902.00    0.39356   0.43423   13.114
 5903.00    0.39178   0.43473   13.007
 5904.00    0.38835   0.43493   13.005
 5905.00    0.40238   0.43519   13.266
 5906.00    0.42566   0.43566   13.457
 5907.00    0.43422   0.43615   13.115
 5908.00    0.42758   0.43646   12.679
 5909.00    0.42217   0.43632   12.809
 5910.00    0.42483   0.43540   13.246
 5911.00    0.43261   0.43357   13.248
 5912.00    0.44107   0.43130   12.873
 5913.00    0.44668   0.42953   12.636
 5914.00    0.44826   0.42902   12.590
 5915.00    0.44460   0.42986   12.550
 5916.00    0.43141   0.43143   12.487
 5917.00    0.41122   0.43293   12.480
 5918.00    0.40551   0.43397   12.586
 5919.00    0.43192   0.43441   12.753
 5920.00    0.47601   0.43449   12.747
 5921.00    0.50780   0.43459   12.463
 5922.00    0.50531   0.43489   12.231
 5923.00    0.46892   0.43535   12.338
 5924.00    0.43026   0.43560   12.654
 5925.00    0.41735   0.43512   12.902
 5926.00    0.42295   0.43390   12.981
 5927.00    0.42973   0.43230   12.978
 5928.00    0.43388   0.43110   13.094
 5929.00    0.43629   0.43089   13.387
 5930.00    0.43455   0.43140   13.593
 5931.00    0.42932   0.43196   13.552
 5932.00    0.42798   0.43213   13.525
 5933.00    0.43300   0.43218   13.700
 5934.00    0.43632   0.43260   13.899
 5935.00    0.43611   0.43340   13.939
 5936.00    0.44326   0.43406   13.884
 5937.00    0.45578   0.43392   13.830
 5938.00    0.45026   0.43277   13.783
 5939.00    0.41924   0.43110   13.782
 5940.00    0.38496   0.42984   13.920
 5941.00    0.36577   0.42957   14.114
 5942.00    0.36128   0.43029   14.078
 5943.00    0.36379   0.43133   13.823
 5944.00    0.36632   0.43181   13.706
 5945.00    0.37220   0.43128   13.741
 5946.00    0.39246   0.42990   13.556
 5947.00    0.42124   0.42848   13.148
 5948.00    0.43597   0.42770   12.931
 5949.00    0.43096   0.42750   13.051
 5950.00    0.42142   0.42744   13.317
 5951.00    0.41741   0.42734   13.470
 5952.00    0.41743   0.42722   13.348
 5953.00    0.41584   0.42708   13.106
 5954.00    0.40865   0.42676   13.063
 5955.00    0.40237   0.42645   13.243
 5956.00    0.40800   0.42657   13.417
 5957.00    0.42046   0.42753   13.490
 5958.00    0.42483   0.42918   13.523
 5959.00    0.42230   0.43086   13.515
 5960.00    0.42448   0.43204   13.455
 5961.00    0.42893   0.43241   13.547
 5962.00    0.42726   0.43206   14.006
 5963.00    0.43015   0.43128   14.513
 5964.00    0.45187   0.43055   14.487
 5965.00    0.47524   0.43030   14.112
 5966.00    0.47395   0.43063   13.950
 5967.00    0.45807   0.43141   14.060
 5968.00    0.45353   0.43227   14.213
 5969.00    0.46066   0.43289   14.331
 5970.00    0.46793   0.43305   14.402
 5971.00    0.47903   0.43247   14.289
 5972.00    0.50047   0.43101   13.942
 5973.00    0.52182   0.42871   13.639
 5974.00    0.52947   0.42614   13.606
 5975.00    0.52521   0.42407   13.682
 5976.00    0.51825   0.42321   13.645
 5977.00    0.51388   0.42370   13.593
 5978.00    0.51012   0.42494   13.666
 5979.00    0.49706   0.42591   13.742
 5980.00    0.47183   0.42576   13.682
 5981.00    0.44992   0.42432   13.563
 5982.00    0.44096   0.42236   13.499
 5983.00    0.43055   0.42108   13.479
 5984.00    0.41014   0.42103   13.474
 5985.00    0.39764   0.42205   13.510
 5986.00    0.40523   0.42342   13.575
 5987.00    0.41856   0.42453   13.571
 5988.00    0.42445   0.42515   13.499
 5989.00    0.42752   0.42546   13.537
 5990.00    0.43197   0.42587   13.738
 5991.00    0.43221   0.42655   13.891
 5992.00    0.42799   0.42722   13.891
 5993.00    0.42910   0.42738   13.912
 5994.00    0.43306   0.42672   14.048
 5995.00    0.42046   0.42549   14.167
 5996.00    0.38952   0.42437   14.172
 5997.00    0.36543   0.42382   14.121
 5998.00    0.36666   0.42374   14.074
 5999.00    0.39066   0.42367   14.025
 6000.00    0.41919   0.42319   13.917
 6001.00    0.42737   0.42249   13.699
 6002.00    0.40797   0.42185   13.489
 6003.00    0.37658   0.42123   13.494
 6004.00    0.35803   0.42034   13.600
 6005.00    0.37161   0.41910   13.460
 6006.00    0.40147   0.41806   13.208
 6007.00    0.40764   0.41803   13.325
 6008.00    0.38357   0.41905   13.786
 6009.00    0.35623   0.42032   14.070
 6010.00    0.34188   0.42094   14.012
 6011.00    0.34044   0.42066   13.892
 6012.00    0.35135   0.42002   13.801
 6013.00    0.37375   0.41945   13.661
 6014.00    0.39818   0.41902   13.585
 6015.00    0.41156   0.41865   13.744
 6016.00    0.41134   0.41814   13.958
 6017.00    0.40512   0.41734   13.882
 6018.00    0.40438   0.41638   13.617
 6019.00    0.41645   0.41555   13.507
 6020.00    0.43356   0.41522   13.642
 6021.00    0.44119   0.41552   13.933
 6022.00    0.43449   0.41634   14.299
 6023.00    0.41851   0.41747   14.620
 6024.00    0.40433   0.41860   14.640
 6025.00    0.40166   0.41968   14.268
 6026.00    0.41003   0.42076   13.905
 6027.00    0.42184   0.42178   13.885
 6028.00    0.42818   0.42272   13.955
 6029.00    0.42390   0.42349   13.791
 6030.00    0.41245   0.42404   13.606
 6031.00    0.40171   0.42439   13.668
 6032.00    0.39874   0.42458   13.806
 6033.00    0.40660   0.42464   13.755
 6034.00    0.42166   0.42459   13.561
 6035.00    0.43373   0.42443   13.432
 6036.00    0.42833   0.42409   13.552
 6037.00    0.40452   0.42348   13.859
 6038.00    0.38601   0.42269   13.899
 6039.00    0.39134   0.42199   13.455
 6040.00    0.41280   0.42165   12.982
 6041.00    0.43562   0.42186   12.863
 6042.00    0.45284   0.42243   13.088
 6043.00    0.46550   0.42309   13.415
 6044.00    0.48008   0.42358   13.470
 6045.00    0.49598   0.42382   13.218
 6046.00    0.50123   0.42386   13.105
 6047.00    0.49027   0.42379   13.313
 6048.00    0.47146   0.42363   13.518
 6049.00    0.45331   0.42326   13.559
 6050.00    0.43864   0.42257   13.708
 6051.00    0.43137   0.42148   14.088
 6052.00    0.43750   0.42011   14.440
 6053.00    0.45496   0.41873   14.562
 6054.00    0.47219   0.41774   14.515
 6055.00    0.47996   0.41746   14.410
 6056.00    0.47504   0.41790   14.290
 6057.00    0.45601   0.41876   14.136
 6058.00    0.42393   0.41949   13.919
 6059.00    0.38955   0.41962   13.767
 6060.00    0.36976   0.41880   13.875
 6061.00    0.36987   0.41716   14.149
 6062.00    0.38298   0.41503   14.258
 6063.00    0.40354   0.41327   14.190
 6064.00    0.42797   0.41289   14.196
 6065.00    0.44617   0.41414   14.139
 6066.00    0.44699   0.41647   13.687
 6067.00    0.43561   0.41893   13.099
 6068.00    0.42687   0.42070   12.849
 6069.00    0.42196   0.42167   12.875
 6070.00    0.41188   0.42212   12.822
 6071.00    0.39457   0.42221   12.650
 6072.00    0.37712   0.42196   12.576
 6073.00    0.37276   0.42122   12.739
 6074.00    0.39032   0.41985   13.157
 6075.00    0.41802   0.41793   13.674
 6076.00    0.43550   0.41580   14.044
 6077.00    0.43652   0.41403   14.185
 6078.00    0.42856   0.41285   14.189
 6079.00    0.42619   0.41210   14.168
 6080.00    0.43733   0.41156   14.213
 6081.00    0.44783   0.41111   14.376
 6082.00    0.44256   0.41079   14.599
 6083.00    0.43193   0.41077   14.644
 6084.00    0.43351   0.41107   14.387
 6085.00    0.44838   0.41146   14.133
 6086.00    0.46742   0.41168   14.152
 6087.00    0.48084   0.41141   14.302
 6088.00    0.48183   0.41070   14.323
 6089.00    0.46950   0.40999   14.159
 6090.00    0.45111   0.40971   13.896
 6091.00    0.44168   0.41010   13.651
 6092.00    0.44591   0.41106   13.576
 6093.00    0.44662   0.41219   13.850
 6094.00    0.42927   0.41311   14.460
 6095.00    0.39966   0.41369   14.981
 6096.00    0.37283   0.41379   15.016
 6097.00    0.36246   0.41321   14.692
 6098.00    0.36756   0.41156   14.315
 6099.00    0.36914   0.40854   14.073
 6100.00    0.35890   0.40478   13.981
 6101.00    0.35139   0.40204   13.917
 6102.00    0.35760   0.40166   13.844
 6103.00    0.37278   0.40351   13.874
 6104.00    0.38889   0.40632   14.024
 6105.00    0.40131   0.40852   14.136
 6106.00    0.40865   0.40968   14.076
 6107.00    0.41257   0.41028   13.842
 6108.00    0.41723   0.41069   13.557
 6109.00    0.42702   0.41106   13.385
 6110.00    0.43909   0.41141   13.381
 6111.00    0.44373   0.41168   13.509
 6112.00    0.43600   0.41180   13.864
 6113.00    0.41965   0.41164   14.617
 6114.00    0.40595   0.41116   15.429
 6115.00    0.40735   0.41051   15.442
 6116.00    0.42030   0.40961   14.826
 6117.00    0.42721   0.40812   14.486
 6118.00    0.41566   0.40582   14.216
 6119.00    0.38421   0.40290   13.231
 6120.00    0.34311   0.40042   11.943
 6121.00    0.30982   0.39960   11.127
 6122.00    0.29853   0.40049   10.735
 6123.00    0.31470   0.40230   10.450
 6124.00    0.34895   0.40395   10.375
 6125.00    0.38155   0.40479   10.778
 6126.00    0.39367   0.40514   11.498
 6127.00    0.37806   0.40564   11.997
 6128.00    0.35309   0.40656   12.134
 6129.00    0.34576   0.40762   12.205
 6130.00    0.36038   0.40823   12.385
 6131.00    0.38688   0.40762   12.667
 6132.00    0.42057   0.40514   12.941
 6133.00    0.45703   0.40077   13.108
 6134.00    0.48137   0.39546   13.265
 6135.00    0.48024   0.39126   13.562
 6136.00    0.45861   0.39000   13.966
 6137.00    0.43192   0.39175   14.359
 6138.00    0.41383   0.39491   14.704
 6139.00    0.40846   0.39764   14.887
 6140.00    0.40484   0.39946   14.532
 6141.00    0.39281   0.40106   13.577
 6142.00    0.37861   0.40294   12.578
 6143.00    0.37373   0.40483   11.904
 6144.00    0.38298   0.40592   11.475
 6145.00    0.40204   0.40579   11.220
 6146.00    0.41763   0.40482   11.292
 6147.00    0.41826   0.40367   11.792
 6148.00    0.40269   0.40286   12.548
 6149.00    0.37864   0.40268   13.176
 6150.00    0.35955   0.40300   13.273
 6151.00    0.35234   0.40337   12.914
 6152.00    0.35143   0.40334   12.714
 6153.00    0.35201   0.40295   12.911
 6154.00    0.35675   0.40232   13.093
 6155.00    0.36521   0.40146   13.058
 6156.00    0.36986   0.40008   13.217
 6157.00    0.36772   0.39743   13.696
 6158.00    0.36461   0.39299   13.962
 6159.00    0.36522   0.38732   13.740
 6160.00    0.36861   0.38213   13.441
 6161.00    0.37016   0.37930   13.337
 6162.00    0.36422   0.37970   13.337
 6163.00    0.35054   0.38251   13.387
 6164.00    0.33553   0.38583   13.562
 6165.00    0.32734   0.38794   13.884
 6166.00    0.33229   0.38812   14.264
 6167.00    0.34995   0.38705   14.588
 6168.00    0.37231   0.38629   14.729
 6169.00    0.38682   0.38685   14.521
 6170.00    0.38296   0.38873   13.879
 6171.00    0.36756   0.39109   13.056
 6172.00    0.36039   0.39296   12.414
 6173.00    0.37093   0.39398   12.063
 6174.00    0.39457   0.39455   11.969
 6175.00    0.41890   0.39513   12.126
 6176.00    0.43145   0.39585   12.560
 6177.00    0.43290   0.39660   13.221
 6178.00    0.43738   0.39736   13.861
 6179.00    0.46601   0.39809   13.869
 6180.00    0.52255   0.39867   12.790
 6181.00    0.55254   0.39904   -2.000
 6182.00    0.48863   0.39894   -2.000
 6183.00    0.34076   0.39811   -2.000
 6184.00    0.17924   0.39660   -2.000
 6185.00    0.08105   0.39467   -2.000
 6186.00    0.10348   0.39246   -2.000
 6187.00    0.25722   0.39006   -2.000
 6188.00    0.49074   0.38751   -2.000
 6189.00    0.68030   0.38543   -2.000
 6190.00    0.71752   0.38488   -2.000
 6191.00    0.61687   0.38623   -2.000
 6192.00    0.46787   0.38905   -2.000
 6193.00    0.36125   0.39223   10.643
 6194.00    0.34333   0.39448   11.124
 6195.00    0.38112   0.39529   12.061
 6196.00    0.41737   0.39477   12.851
 6197.00    0.42752   0.39344   13.493
 6198.00    0.41369   0.39224   14.294
 6199.00    0.39258   0.39196   15.085
 6200.00    0.37839   0.39279   15.518
 6201.00    0.37039   0.39427   15.614
 6202.00    0.36296   0.39570   15.539
 6203.00    0.35436   0.39667   15.302
 6204.00    0.34891   0.39723   14.846
 6205.00    0.35631   0.39749   14.170
 6206.00    0.37954   0.39747   13.505
 6207.00    0.40863   0.39702   13.243
 6208.00    0.43127   0.39595   13.478
 6209.00    0.43945   0.39413   13.868
 6210.00    0.42909   0.39151   14.015
 6211.00    0.40024   0.38842   13.749
 6212.00    0.36035   0.38564   13.109
 6213.00    0.32414   0.38384   12.272
 6214.00    0.30582   0.38338   11.533
 6215.00    0.31417   0.38392   11.170
 6216.00    0.34795   0.38452   11.223
 6217.00    0.39454   0.38473   11.553
 6218.00    0.43277   0.38471   12.166
 6219.00    0.44131   0.38491   13.265
 6220.00    0.42402   0.38566   14.662
 6221.00    0.40838   0.38674   15.412
 6222.00    0.41008   0.38771   15.199
 6223.00    0.42426   0.38829   14.868
 6224.00    0.43639   0.38832   14.867
 6225.00    0.43197   0.38770   15.057
 6226.00    0.41307   0.38614   15.253
 6227.00    0.39533   0.38353   15.348
 6228.00    0.38857   0.38057   15.302
 6229.00    0.39223   0.37846   15.140
 6230.00    0.39743   0.37817   14.940
 6231.00    0.39357   0.37998   14.751
 6232.00    0.38119   0.38313   14.452
 6233.00    0.37016   0.38609   13.979
 6234.00    0.37018   0.38773   13.705
 6235.00    0.38475   0.38769   13.996
 6236.00    0.40423   0.38632   14.475
 6237.00    0.41595   0.38441   14.362
 6238.00    0.42294   0.38270   13.710
 6239.00    0.43585   0.38140   13.062
 6240.00    0.45582   0.38022   12.570
 6241.00    0.47752   0.37906   12.236
 6242.00    0.49677   0.37801   12.213
 6243.00    0.50327   0.37727   12.442
 6244.00    0.47145   0.37742   12.124
 6245.00    0.38730   0.37867   10.790
 6246.00    0.28061   0.38060    9.292
 6247.00    0.19953   0.38244    8.283
 6248.00    0.17694   0.38320    7.795
 6249.00    0.21990   0.38219    7.765
 6250.00    0.30431   0.37973    8.212
 6251.00    0.39302   0.37683    9.219
 6252.00    0.45491   0.37436   10.831
 6253.00    0.47429   0.37274   12.868
 6254.00    0.45671   0.37178   14.632
 6255.00    0.41854   0.37122   15.393
 6256.00    0.37769   0.37120   15.591
 6257.00    0.35000   0.37217   15.839
 6258.00    0.34569   0.37416   15.850
 6259.00    0.36019   0.37682   15.420
 6260.00    0.37176   0.37956   15.054
 6261.00    0.36597   0.38154   15.030
 6262.00    0.34947   0.38246   15.046
 6263.00    0.33761   0.38268   14.864
 6264.00    0.34409   0.38266   14.620
 6265.00    0.36754   0.38269   14.451
 6266.00    0.38874   0.38286   14.334
 6267.00    0.39174   0.38298   14.242
 6268.00    0.37562   0.38298   14.186
 6269.00    0.35838   0.38309   14.104
 6270.00    0.36765   0.38349   13.880
 6271.00    0.39655   0.38404   13.629
 6272.00    0.40212   0.38445   13.672
 6273.00    0.37013   0.38454   14.169
 6274.00    0.32817   0.38415   15.024
 6275.00    0.30246   0.38328   15.853
 6276.00    0.30325   0.38195   16.093
 6277.00    0.32935   0.38031   15.831
 6278.00    0.37083   0.37885   15.726
 6279.00    0.41210   0.37816   15.878
 6280.00    0.43790   0.37845    0.000
 6281.00    0.44625   0.37961    0.000
 6282.00    0.44627   0.38115    0.000
 6283.00    0.44358   0.38262    0.000
 6284.00    0.43959   0.38392    0.000
 6285.00    0.43816   0.38498    0.000
 6286.00    0.44351   0.38567    0.000
 6287.00    0.45268   0.38577    0.000
 6288.00    0.45699   0.38517    0.000
 6289.00    0.44839   0.38412    0.000
 6290.00    0.42578   0.38304    0.000
 6291.00    0.40356   0.38221    0.000
 6292.00    0.39943   0.38154    0.000
 6293.00    0.41242   0.38064    0.000
 6294.00    0.43047   0.37937    0.000
 6295.00    0.44725   0.37795    0.000
 6296.00    0.46227   0.37671    0.000
 6297.00    0.47725   0.37576    0.000
 6298.00    0.49169   0.37492    0.000
 6299.00    0.49831   0.37420    0.000
 6300.00    0.49064   0.37394    0.000
 6301.00    0.47210   0.37453    0.000
 6302.00    0.45142   0.37607    0.000
 6303.00    0.43617   0.37821    0.000
 6304.00    0.43016   0.38040    0.000
 6305.00    0.43181   0.38211    0.000
 6306.00    0.43699   0.38307    0.000
 6307.00    0.44181   0.38315    0.000
 6308.00    0.44252   0.38240    0.000
 6309.00    0.43557   0.38113    0.000
 6310.00    0.42028   0.37974    0.000
 6311.00    0.40037   0.37832    0.000
 6312.00    0.37882   0.37680    0.000
 6313.00    0.35526   0.37532    0.000
 6314.00    0.33366   0.37392    0.000
 6315.00    0.32581   0.37272    0.000
 6316.00    0.33971   0.37222    0.000
 6317.00    0.37227   0.37263    0.000
 6318.00    0.40970   0.37374    0.000
 6319.00    0.43170   0.37535    0.000
 6320.00    0.42957   0.37711    0.000
 6321.00    0.41312   0.37866   15.602
 6322.00    0.39768   0.37992   15.893
 6323.00    0.39531   0.38091   15.989
 6324.00    0.40559   0.38153   15.942
 6325.00    0.41621   0.38171   16.134
 6326.00    0.42149   0.38160   16.490
 6327.00    0.42674   0.38134   16.391
 6328.00    0.43635   0.38116   15.820
 6329.00    0.44938   0.38113   15.444
 6330.00    0.46063   0.38095   15.550
 6331.00    0.46328   0.38021   15.960
 6332.00    0.45579   0.37851   16.320
 6333.00    0.44329   0.37610   16.274
 6334.00    0.43507   0.37386   15.875
 6335.00    0.43997   0.37263   15.498
 6336.00    0.45666   0.37283   15.343
 6337.00    0.47502   0.37422   15.397
 6338.00    0.48569   0.37591   15.518
 6339.00    0.48284   0.37702   15.556
 6340.00    0.46505   0.37714   15.609
 6341.00    0.43570   0.37631   15.816
 6342.00    0.40353   0.37507   15.799
 6343.00    0.37787   0.37400   15.115
 6344.00    0.35969   0.37355   14.266
 6345.00    0.34516   0.37400   13.860
 6346.00    0.33443   0.37517   13.638
 6347.00    0.32984   0.37670   13.144
 6348.00    0.33077   0.37820   12.664
 6349.00    0.33666   0.37924   12.605
 6350.00    0.35209   0.37936   12.759
 6351.00    0.37667   0.37850   12.733
 6352.00    0.39167   0.37698   12.649
 6353.00    0.38089   0.37528   12.811
 6354.00    0.35748   0.37366   13.210
 6355.00    0.34564   0.37209   13.673
 6356.00    0.35549   0.37056   14.110
 6357.00    0.38038   0.36910   14.533
 6358.00    0.39901   0.36772   15.010
 6359.00    0.39870   0.36666   15.513
 6360.00    0.39552   0.36619   15.754
 6361.00    0.40980   0.36636   15.616
 6362.00    0.44254   0.36719   15.538
 6363.00    0.47846   0.36864   15.850
 6364.00    0.49287   0.37044   16.301
 6365.00    0.47300   0.37216   16.534
 6366.00    0.43173   0.37339   16.544
 6367.00    0.38936   0.37397   16.466
 6368.00    0.35944   0.37413   16.369
 6369.00    0.34534   0.37429   16.367
 6370.00    0.33998   0.37480   16.657
 6371.00    0.33519   0.37571   17.113
 6372.00    0.32774   0.37667   17.127
 6373.00    0.32133   0.37729   16.606
 6374.00    0.32509   0.37729   16.250
 6375.00    0.34137   0.37661   16.183
 6376.00    0.36102   0.37555   15.703
 6377.00    0.37066   0.37441   14.564
 6378.00    0.35979   0.37349   13.285
 6379.00    0.33497   0.37307   12.278
 6380.00    0.31851   0.37310   11.682
 6381.00    0.31955   0.37330   11.504
 6382.00    0.32864   0.37358   11.698
 6383.00    0.33991   0.37391   12.170
 6384.00    0.35520   0.37427   12.761
 6385.00    0.37031   0.37467   13.354
 6386.00    0.37561   0.37492   13.911
 6387.00    0.37205   0.37474   14.342
 6388.00    0.37018   0.37387   14.559
 6389.00    0.37384   0.37221   14.803
 6390.00    0.37799   0.36994   15.498
 6391.00    0.37556   0.36794   16.503
 6392.00    0.36282   0.36707   17.042
 6393.00    0.34733   0.36755   16.789
 6394.00    0.34101   0.36890   16.208
 6395.00    0.34160   0.36998   15.877
 6396.00    0.33908   0.36960   16.093
 6397.00    0.33604   0.36793   16.515
 6398.00    0.34090   0.36643   16.509
 6399.00    0.34824   0.36622   16.184
 6400.00    0.34639   0.36757   16.016
 6401.00    0.33600   0.36996   15.896
 6402.00    0.32632   0.37207   15.507
 6403.00    0.32454   0.37285   15.006
 6404.00    0.33387   0.37223   14.717
 6405.00    0.35336   0.37083   14.688
 6406.00    0.37794   0.36949   14.847
 6407.00    0.39872   0.36858   15.193
 6408.00    0.40637   0.36798   15.688
 6409.00    0.39537   0.36773   16.055
 6410.00    0.36674   0.36778   15.929
 6411.00    0.33037   0.36797   15.197
 6412.00    0.30159   0.36847   14.117
 6413.00    0.29619   0.36918   13.153
 6414.00    0.31637   0.36960   12.606
 6415.00    0.34077   0.36944   12.568
 6416.00    0.35200   0.36867   13.018
 6417.00    0.35895   0.36731   13.793
 6418.00    0.37253   0.36594   14.666
 6419.00    0.38613   0.36543   15.446
 6420.00    0.38905   0.36622   15.955
 6421.00    0.37782   0.36807   16.017
 6422.00    0.35743   0.37035   15.661
 6423.00    0.33986   0.37229   15.162
 6424.00    0.33288   0.37334   14.738
 6425.00    0.33427   0.37340   14.435
 6426.00    0.33975   0.37248   14.296
 6427.00    0.34746   0.37055   14.418
 6428.00    0.35521   0.36812   14.812
 6429.00    0.35974   0.36616   15.301
 6430.00    0.36061   0.36537   15.483
 6431.00    0.36121   0.36597   14.900
 6432.00    0.36438   0.36751   13.709
 6433.00    0.36955   0.36890   12.549
 6434.00    0.36974   0.36923   11.868
 6435.00    0.35570   0.36816   11.867
 6436.00    0.33587   0.36633   12.479
 6437.00    0.33310   0.36505   13.357
 6438.00    0.34666   0.36514   14.203
 6439.00    0.34938   0.36668   14.915
 6440.00    0.32227   0.36913   15.230
 6441.00    0.26823   0.37146   14.794
 6442.00    0.21752   0.37293   13.868
 6443.00    0.21105   0.37344   13.049
 6444.00    0.25215   0.37291   12.570
 6445.00    0.30993   0.37112   12.419
 6446.00    0.36069   0.36797   12.618
 6447.00    0.39480   0.36429   13.174
 6448.00    0.40763   0.36155   13.796
 6449.00    0.40014   0.36061   14.016
 6450.00    0.38450   0.36150   13.964
 6451.00    0.37606   0.36328   14.166
 6452.00    0.37616   0.36450   14.686
 6453.00    0.37491   0.36466   15.134
 6454.00    0.36266   0.36451   15.028
 6455.00    0.33683   0.36480   14.241
 6456.00    0.30920   0.36566   13.297
 6457.00    0.29701   0.36649   12.703
 6458.00    0.30781   0.36618   12.491
 6459.00    0.33859   0.36412   12.566
 6460.00    0.37803   0.36134   13.031
 6461.00    0.41094   0.35945   14.004
 6462.00    0.42406   0.35925   15.223
 6463.00    0.41317   0.36084   16.138
 6464.00    0.38988   0.36339   16.582
 6465.00    0.37111   0.36540   16.772
 6466.00    0.36650   0.36613   16.891
 6467.00    0.37538   0.36570   17.037
 6468.00    0.38613   0.36454   17.244
 6469.00    0.38806   0.36332   17.418
 6470.00    0.38173   0.36267   17.307
 6471.00    0.37233   0.36251   16.896
 6472.00    0.36327   0.36263   16.614
 6473.00    0.35764   0.36299   16.594
 6474.00    0.35881   0.36347   16.305
 6475.00    0.36452   0.36390   15.520
 6476.00    0.36457   0.36419   14.788
 6477.00    0.35484   0.36402   14.499
 6478.00    0.34415   0.36290   14.602
 6479.00    0.33644   0.36103   14.957
 6480.00    0.32350   0.35922   15.430
 6481.00    0.30751   0.35824   15.646
 6482.00    0.30845   0.35842   15.064
 6483.00    0.33322   0.35959   14.041
 6484.00    0.36495   0.36112   13.589
 6485.00    0.39098   0.36226   13.972
 6486.00    0.41320   0.36253   14.667
 6487.00    0.43228   0.36177   15.221
 6488.00    0.44184   0.35994   15.703
 6489.00    0.43472   0.35696   16.278
 6490.00    0.40763   0.35267   16.957
 6491.00    0.36838   0.34732   17.580
 6492.00    0.33453   0.34192   17.871
 6493.00    0.31978   0.33760   17.756
 6494.00    0.32768   0.33539   17.444
 6495.00    0.34734   0.33584   17.224
 6496.00    0.35961   0.33835   17.274
 6497.00    0.35837   0.34209   17.378
 6498.00    0.35197   0.34625   17.101
 6499.00    0.35043   0.35011   16.520
 6500.00    0.35841   0.35347   16.090
 6501.00    0.36744   0.35619   16.017
 6502.00    0.36399   0.35816   16.244
 6503.00    0.35132   0.35943   16.526
 6504.00    0.34368   0.36008   16.548
 6505.00    0.34459   0.36024   16.279
 6506.00    0.34906   0.36016   15.942
 6507.00    0.35616   0.36001   15.771
 6508.00    0.36603   0.35991   15.875
 6509.00    0.37084   0.35980   16.080
 6510.00    0.36219   0.35952   16.107
 6511.00    0.34499   0.35879   15.951
 6512.00    0.33190   0.35748   15.807
 6513.00    0.33183   0.35577   15.844
 6514.00    0.34615   0.35402   16.010
 6515.00    0.36646   0.35263   15.846
 6516.00    0.38190   0.35207   15.408
 6517.00    0.38850   0.35253   16.196
 6518.00    0.38652   0.35372   20.003
 6519.00    0.37619   0.35515   20.527
 6520.00    0.35970   0.35636   20.527
 6521.00    0.34330   0.35704   20.527
 6522.00    0.33272   0.35706   20.527
 6523.00    0.32850   0.35647   20.527
 6524.00    0.32773   0.35564   20.527
 6525.00    0.32620   0.35497   20.527
 6526.00    0.32193   0.35463   20.527
 6527.00    0.31740   0.35462   20.527
 6528.00    0.31636   0.35469    0.000
 6529.00    0.32115   0.35455    0.000
 6530.00    0.33212   0.35412    0.000
 6531.00    0.34737   0.35368    0.000
 6532.00    0.36285   0.35353    0.000
 6533.00    0.37295   0.35372    0.000
 6534.00    0.37340   0.35412    0.000
 6535.00    0.36379   0.35452    0.000
 6536.00    0.35167   0.35478    0.000
 6537.00    0.35070   0.35479    0.000
 6538.00    0.36074   0.35446    0.000
 6539.00    0.36415   0.35368    0.000
 6540.00    0.35591   0.35241    0.000
 6541.00    0.35153   0.35064    0.000
 6542.00    0.35909   0.34839    0.000
 6543.00    0.37145   0.34597    0.000
 6544.00    0.38451   0.34395    0.000
 6545.00    0.40127   0.34265    0.000
 6546.00    0.41977   0.34205    0.000
 6547.00    0.43177   0.34188    0.000
 6548.00    0.43348   0.34153    0.000
 6549.00    0.42698   0.34046    0.000
 6550.00    0.41351   0.33850    0.000
 6551.00    0.39406   0.33573    0.000
 6552.00    0.37660   0.33243    0.000
 6553.00    0.37365   0.32891    0.000
 6554.00    0.39082   0.32524    0.000
 6555.00    0.43110   0.32100    0.000
 6556.00    0.51157   0.31524    0.000
 6557.00    0.65668   0.30664    0.000
 6558.00    0.87520   0.29404    0.000
 6559.00    1.15108   0.27826    0.000
 6560.00    1.43647   0.26371    0.000
 6561.00    1.66159   0.25584    0.000
 6562.00    1.75652   0.25739    0.000
 6563.00    1.67863   0.26777    0.000
 6564.00    1.45071   0.28336    0.000
 6565.00    1.14326   0.29863    0.000
 6566.00    0.83576   0.31001    0.000
 6567.00    0.59217   0.31740    0.000
 6568.00    0.43534   0.32189    0.000
 6569.00    0.35633   0.32454    0.000
 6570.00    0.33244   0.32619    0.000
 6571.00    0.33867   0.32739    0.000
 6572.00    0.35848   0.32863    0.000
 6573.00    0.37986   0.33041    0.000
 6574.00    0.39000   0.33283    0.000
 6575.00    0.38226   0.33554    0.000
 6576.00    0.36357   0.33798    0.000
 6577.00    0.35002   0.33964    0.000
 6578.00    0.36040   0.34046    0.000
 6579.00    0.40199   0.34083    0.000
 6580.00    0.46029   0.34115    0.000
 6581.00    0.51515   0.34160    0.000
 6582.00    0.55458   0.34219    0.000
 6583.00    0.57478   0.34280    0.000
 6584.00    0.57853   0.34345    0.000
 6585.00    0.56881   0.34418    0.000
 6586.00    0.54544   0.34486    0.000
 6587.00    0.51134   0.34521    0.000
 6588.00    0.47528   0.34469    0.000
 6589.00    0.44351   0.34294    0.000
 6590.00    0.41636   0.34044    0.000
 6591.00    0.39688   0.33834    0.000
 6592.00    0.39241   0.33749    0.000
 6593.00    0.39894   0.33806    0.000
 6594.00    0.39884   0.33964    0.000
 6595.00    0.38610   0.34142    0.000
 6596.00    0.37259   0.34283    0.000
 6597.00    0.36532   0.34394    0.000
 6598.00    0.36058   0.34494    0.000
 6599.00    0.35898   0.34582    0.000
 6600.00    0.36651   0.34637    0.000
 6601.00    0.37795   0.34630    0.000
 6602.00    0.37833   0.34564    0.000
 6603.00    0.36635   0.34467    0.000
 6604.00    0.35418   0.34356    0.000
 6605.00    0.34428   0.34247    0.000
 6606.00    0.33026   0.34167    0.000
 6607.00    0.31798   0.34148    0.000
 6608.00    0.32217   0.34200    0.000
 6609.00    0.34346   0.34306   17.277
 6610.00    0.36830   0.34435   16.611
 6611.00    0.38247   0.34550   16.257
 6612.00    0.37869   0.34632   16.633
 6613.00    0.36542   0.34687   17.231
 6614.00    0.35723   0.34731   17.030
 6615.00    0.35331   0.34773   16.255
 6616.00    0.34431   0.34809   15.812
 6617.00    0.33194   0.34834   15.884
 6618.00    0.32536   0.34841   16.157
 6619.00    0.32955   0.34815   16.168
 6620.00    0.34388   0.34744   15.690
 6621.00    0.36295   0.34631   15.178
 6622.00    0.38057   0.34507   15.115
 6623.00    0.39472   0.34411   15.361
 6624.00    0.40476   0.34360   15.548
 6625.00    0.40711   0.34350   15.644
 6626.00    0.39814   0.34358   15.832
 6627.00    0.37821   0.34347   16.233
 6628.00    0.35311   0.34294   16.814
 6629.00    0.33424   0.34190   17.283
 6630.00    0.32855   0.34053   17.410
 6631.00    0.32955   0.33929   17.428
 6632.00    0.32901   0.33870   17.594
 6633.00    0.32772   0.33899   17.757
 6634.00    0.32694   0.34002   17.739
 6635.00    0.32137   0.34134   17.674
 6636.00    0.30847   0.34235   17.627
 6637.00    0.29520   0.34279   17.347
 6638.00    0.28923   0.34271   16.761
 6639.00    0.29249   0.34210   16.216
 6640.00    0.30303   0.34111   15.955
 6641.00    0.31680   0.34016   15.914
 6642.00    0.32869   0.33959   15.909
 6643.00    0.33346   0.33952   15.767
 6644.00    0.32689   0.34005   15.558
 6645.00    0.30774   0.34096   15.607
 6646.00    0.28424   0.34180   16.007
 6647.00    0.27399   0.34232   16.446
 6648.00    0.28745   0.34255   16.644
 6649.00    0.32037   0.34255   16.626
 6650.00    0.35616   0.34240   16.562
 6651.00    0.37277   0.34217   16.622
 6652.00    0.36500   0.34195   16.827
 6653.00    0.34781   0.34178   17.043
 6654.00    0.33469   0.34167   17.234
 6655.00    0.32977   0.34154   17.482
 6656.00    0.32954   0.34126   17.673
 6657.00    0.32702   0.34074   17.530
 6658.00    0.32230   0.33986   17.127
 6659.00    0.32175   0.33856   16.814
 6660.00    0.32622   0.33703   16.659
 6661.00    0.33079   0.33575   16.470
 6662.00    0.33338   0.33502   16.156
 6663.00    0.33497   0.33490   15.779
 6664.00    0.33477   0.33535   15.459
 6665.00    0.33162   0.33617   15.314
 6666.00    0.32985   0.33706   15.380
 6667.00    0.33674   0.33796   15.587
 6668.00    0.35460   0.33881   15.696
 6669.00    0.37677   0.33950   15.530
 6670.00    0.38407   0.33983   15.415
 6671.00    0.36246   0.33965   15.780
 6672.00    0.33304   0.33872   16.429
 6673.00    0.32649   0.33675   16.805
 6674.00    0.33529   0.33368   16.890
 6675.00    0.33555   0.33030   17.016
 6676.00    0.32913   0.32778   17.190
 6677.00    0.32853   0.32696   17.228
 6678.00    0.32877   0.32811   17.120
 6679.00    0.31860   0.33067   17.010
 6680.00    0.29891   0.33355   17.079
 6681.00    0.27820   0.33577   17.362
 6682.00    0.26462   0.33713   17.554
 6683.00    0.26240   0.33783   17.368
 6684.00    0.26939   0.33808   16.981
 6685.00    0.28082   0.33806   16.631
 6686.00    0.29301   0.33797   16.267
 6687.00    0.30181   0.33790   15.863
 6688.00    0.30154   0.33787   15.638
 6689.00    0.29171   0.33783   15.728
 6690.00    0.28132   0.33768   15.989
 6691.00    0.27797   0.33725   16.244
 6692.00    0.28039   0.33648   16.468
 6693.00    0.28645   0.33551   16.558
 6694.00    0.29831   0.33459   16.240
 6695.00    0.31519   0.33400   15.700
 6696.00    0.32989   0.33394    0.000
 6697.00    0.33738   0.33438    0.000
 6698.00    0.33883   0.33500    0.000
 6699.00    0.33452   0.33536    0.000
 6700.00    0.32052   0.33524    0.000
 6701.00    0.29265   0.33473    0.000
 6702.00    0.25102   0.33417    0.000
 6703.00    0.21095   0.33384    0.000
 6704.00    0.19992   0.33388    0.000
 6705.00    0.22338   0.33419    0.000
 6706.00    0.25799   0.33449    0.000
 6707.00    0.28346   0.33455    0.000
 6708.00    0.29453   0.33435    0.000
 6709.00    0.29706   0.33394    0.000
 6710.00    0.30624   0.33332    0.000
 6711.00    0.34601   0.33252    0.000
 6712.00    0.43719   0.33141    0.000
 6713.00    0.56326   0.32994    0.000
 6714.00    0.67523   0.32834    0.000
 6715.00    0.73433   0.32712    0.000
 6716.00    0.72714   0.32667    0.000
 6717.00    0.67171   0.32706    0.000
 6718.00    0.60348   0.32810    0.000
 6719.00    0.53946   0.32942    0.000
 6720.00    0.47997   0.33056    0.000
 6721.00    0.43085   0.33130    0.000
 6722.00    0.40034   0.33166    0.000
 6723.00    0.38328   0.33179    0.000
 6724.00    0.36954   0.33181    0.000
 6725.00    0.36476   0.33182    0.000
 6726.00    0.38297   0.33196    0.000
 6727.00    0.42799   0.33226    0.000
 6728.00    0.49213   0.33257    0.000
 6729.00    0.55953   0.33271    0.000
 6730.00    0.61041   0.33267    0.000
 6731.00    0.62679   0.33256    0.000
 6732.00    0.60031   0.33242    0.000
 6733.00    0.54035   0.33224    0.000
 6734.00    0.45998   0.33190    0.000
 6735.00    0.35860   0.33134    0.000
 6736.00    0.23455   0.33061    0.000
 6737.00    0.10185   0.32990    0.000
 6738.00   -0.00591   0.32934    0.000
 6739.00   -0.03788   0.32897    0.000
 6740.00    0.02841   0.32879    0.000
 6741.00    0.14840   0.32873    0.000
 6742.00    0.25711   0.32869    0.000
 6743.00    0.31447   0.32865    0.000
 6744.00    0.31533   0.32857    0.000
 6745.00    0.29094   0.32825    0.000
 6746.00    0.28049   0.32762    0.000
 6747.00    0.30728   0.32689    0.000
 6748.00    0.36400   0.32630    0.000
 6749.00    0.41047   0.32599    0.000
 6750.00    0.41776   0.32609    0.000
 6751.00    0.39328   0.32660    0.000
 6752.00    0.35964   0.32735    0.000
 6753.00    0.33883   0.32819   12.227
 6754.00    0.33860   0.32906   12.026
 6755.00    0.34903   0.32985   11.747
 6756.00    0.36086   0.33042   11.535
 6757.00    0.37279   0.33076   11.616
 6758.00    0.38276   0.33087   12.010
 6759.00    0.38496   0.33077   12.427
 6760.00    0.37461   0.33054   12.548
 6761.00    0.35280   0.33015   12.252
 6762.00    0.33610   0.32953   11.653
 6763.00    0.34947   0.32861   10.990
 6764.00    0.38961   0.32745   10.474
 6765.00    0.42496   0.32628   10.254
 6766.00    0.43758   0.32537   10.443
 6767.00    0.43184   0.32483   11.128
 6768.00    0.41863   0.32473   12.183
 6769.00    0.40941   0.32504   13.108
 6770.00    0.41346   0.32561   13.446
 6771.00    0.43062   0.32636   13.199
 6772.00    0.43621   0.32729   12.677
 6773.00    0.40195   0.32825   12.162
 6774.00    0.35077   0.32905   11.652
 6775.00    0.33473   0.32958   11.074
 6776.00    0.36269   0.32979   10.623
 6777.00    0.40423   0.32968   10.567
 6778.00    0.42798   0.32920   11.017
 6779.00    0.41924   0.32828   11.924
 6780.00    0.39637   0.32702   12.896
 6781.00    0.38696   0.32567   13.276
 6782.00    0.38524   0.32454   13.038
 6783.00    0.37003   0.32386   12.591
 6784.00    0.34171   0.32379   11.939
 6785.00    0.31400   0.32421   11.087
 6786.00    0.29467   0.32484   10.457
 6787.00    0.28600   0.32544   10.343
 6788.00    0.28854   0.32585   10.587
 6789.00    0.29916   0.32597   10.973
 6790.00    0.30913   0.32581   11.683
 6791.00    0.31698   0.32554   12.911
 6792.00    0.33962   0.32526   13.999
 6793.00    0.37833   0.32503   13.825
 6794.00    0.38922   0.32495   12.559
 6795.00    0.34332   0.32501   11.090
 6796.00    0.27927   0.32511    9.889
 6797.00    0.24901   0.32524    9.099
 6798.00    0.26816   0.32537    8.775
 6799.00    0.32321   0.32541    8.950
 6800.00    0.38283   0.32534    9.661
 6801.00    0.41688   0.32515   10.850
 6802.00    0.41114   0.32485   12.052
 6803.00    0.37578   0.32449   12.751
 6804.00    0.34445   0.32419   13.210
 6805.00    0.33747   0.32403   13.710
 6806.00    0.34331   0.32393   13.853
 6807.00    0.34463   0.32391   13.625
 6808.00    0.33369   0.32399   13.804
 6809.00    0.31121   0.32406   14.471
 6810.00    0.28476   0.32403   14.427
 6811.00    0.26561   0.32395   13.236
 6812.00    0.26490   0.32386   11.956
 6813.00    0.28373   0.32383   11.144
 6814.00    0.31148   0.32388   10.771
 6815.00    0.33673   0.32398   10.842
 6816.00    0.35248   0.32403   11.461
 6817.00    0.35799   0.32397   12.396
 6818.00    0.35520   0.32386   12.782
 6819.00    0.33459   0.32386   12.077
 6820.00    0.28422   0.32408   10.740
 6821.00    0.23179   0.32443    9.389
 6822.00    0.22786   0.32471    8.364
 6823.00    0.26115   0.32465    7.842
 6824.00    0.27289   0.32417    7.941
 6825.00    0.25861   0.32342    8.652
 6826.00    0.26111   0.32271    9.834
 6827.00    0.28736   0.32229   11.243
 6828.00    0.31087   0.32223   12.485
 6829.00    0.32257   0.32251   13.224
 6830.00    0.33069   0.32294   13.458
 6831.00    0.33665   0.32330   13.432
 6832.00    0.33652   0.32344   13.414
 6833.00    0.33308   0.32329   13.524
 6834.00    0.33408   0.32282   13.745
 6835.00    0.34503   0.32190   14.001
 6836.00    0.36560   0.32052   14.156
 6837.00    0.38630   0.31886   14.045
 6838.00    0.39354   0.31723   13.642
 6839.00    0.37815   0.31604   13.217
 6840.00    0.34236   0.31560   12.960
 6841.00    0.30616   0.31601   12.637
 6842.00    0.28964   0.31708   12.048
 6843.00    0.29068   0.31843   11.466
 6844.00    0.29640   0.31965   11.220
 6845.00    0.29967   0.32048   11.407
 6846.00    0.30211   0.32090   11.894
 6847.00    0.31371   0.32106   12.184
 6848.00    0.33504   0.32109   11.801
 6849.00    0.34274   0.32097   10.913
 6850.00    0.31834   0.32053   10.020
 6851.00    0.27406   0.31965    9.497
 6852.00    0.23928   0.31847    9.425
 6853.00    0.24405   0.31724    9.623
 6854.00    0.29168   0.31623    9.983
 6855.00    0.34429   0.31568   10.697
 6856.00    0.36506   0.31561   11.915
 6857.00    0.34832   0.31574   13.262
 6858.00    0.31407   0.31589   14.112
 6859.00    0.29700   0.31614   14.390
 6860.00    0.31008   0.31658   14.347
 6861.00    0.32976   0.31719   14.115
 6862.00    0.33478   0.31782   13.862
 6863.00    0.32550   0.31819   13.814
 6864.00    0.30953   0.31803   13.938
 6865.00    0.29331   0.31741   13.896
 6866.00    0.28031   0.31668   13.639
 6867.00    0.27116   0.31609   13.507
 6868.00    0.26708   0.31574   13.505
 6869.00    0.26961   0.31564   13.251
 6870.00    0.27343   0.31569   12.783
 6871.00    0.26825   0.31575   12.569
 6872.00    0.25548   0.31592   12.711
 6873.00    0.24975   0.31634   12.894
 6874.00    0.26342   0.31695   12.837
 6875.00    0.29763   0.31751   12.504
 6876.00    0.33173   0.31784   12.119
 6877.00    0.33523   0.31778   11.981
 6878.00    0.30886   0.31720   12.186
 6879.00    0.28098   0.31626   12.633
 6880.00    0.26861   0.31532   13.059
 6881.00    0.27112   0.31471   13.103
 6882.00    0.28010   0.31453   12.629
 6883.00    0.28559   0.31483   11.875
 6884.00    0.28417   0.31548   11.316
 6885.00    0.27983   0.31623   11.296
 6886.00    0.28195   0.31695   11.717
 6887.00    0.29937   0.31764   12.204
 6888.00    0.33047   0.31823   12.515
 6889.00    0.36406   0.31854   12.634
 6890.00    0.38445   0.31857   12.668
 6891.00    0.38224   0.31837   12.746
 6892.00    0.36874   0.31798   12.910
 6893.00    0.35917   0.31757   13.092
 6894.00    0.34695   0.31728   13.104
 6895.00    0.32378   0.31713   12.879
 6896.00    0.30898   0.31707   12.744
 6897.00    0.32122   0.31708   12.991
 6898.00    0.34219   0.31717   13.435
 6899.00    0.34825   0.31728   13.692
 6900.00    0.34838   0.31741   13.663
 6901.00    0.35771   0.31759   13.519
 6902.00    0.36770   0.31780   13.508
 6903.00    0.36527   0.31799   13.699
 6904.00    0.35256   0.31815   13.813
 6905.00    0.33432   0.31830   13.702
 6906.00    0.30715   0.31838   13.736
 6907.00    0.27505   0.31826   14.045
 6908.00    0.25958   0.31783   13.977
 6909.00    0.27488   0.31705   13.176
 6910.00    0.31024   0.31594   12.284
 6911.00    0.34370   0.31473   11.776
 6912.00    0.35585   0.31362   11.613
 6913.00    0.35235   0.31279   11.553
 6914.00    0.36709   0.31245   11.304
 6915.00    0.39977   0.31267   10.925
 6916.00    0.39744   0.31329   10.828
 6917.00    0.35300   0.31409   11.055
 6918.00    0.33483   0.31484   11.091
 6919.00    0.36595   0.31526   10.736
 6920.00    0.38633   0.31514   10.430
 6921.00    0.35975   0.31455   10.488
 6922.00    0.31138   0.31374   10.927
 6923.00    0.27501   0.31306   11.598
 6924.00    0.26877   0.31279   12.172
 6925.00    0.29195   0.31302   12.405
 6926.00    0.32753   0.31355   12.362
 6927.00    0.35464   0.31408   12.305
 6928.00    0.35844   0.31433   12.494
 6929.00    0.34672   0.31422   12.834
 6930.00    0.34377   0.31391   12.899
 6931.00    0.35737   0.31362   12.532
 6932.00    0.37545   0.31347   11.972
 6933.00    0.38453   0.31347   11.482
 6934.00    0.37544   0.31362   11.209
 6935.00    0.34440   0.31381   11.161
 6936.00    0.29813   0.31391   11.249
 6937.00    0.26389   0.31393   11.345
 6938.00    0.27007   0.31383   11.326
 6939.00    0.30200   0.31353   11.193
 6940.00    0.32489   0.31290   11.052
 6941.00    0.34477   0.31195   11.030
 6942.00    0.38207   0.31094   11.209
 6943.00    0.40577   0.31020   11.545
 6944.00    0.37421   0.30997   11.901
 6945.00    0.31827   0.31030   12.171
 6946.00    0.29273   0.31093   12.319
 6947.00    0.28534   0.31145   12.396
 6948.00    0.26389   0.31159   12.438
 6949.00    0.25682   0.31136   12.323
 6950.00    0.29674   0.31094   11.995
 6951.00    0.33895   0.31057   11.701
 6952.00    0.33124   0.31049   11.609
 6953.00    0.30330   0.31073   11.458
 6954.00    0.30347   0.31117   11.058
 6955.00    0.32186   0.31168   10.732
 6956.00    0.32788   0.31216   10.718
 6957.00    0.31533   0.31251   10.756
 6958.00    0.29531   0.31269   10.581
 6959.00    0.28390   0.31275   10.381
 6960.00    0.28463   0.31274   10.386
 6961.00    0.27843   0.31266   10.572
 6962.00    0.25762   0.31253   10.853
 6963.00    0.24830   0.31243   11.217
 6964.00    0.27061   0.31245   11.632
 6965.00    0.31180   0.31257   11.963
 6966.00    0.34899   0.31276   12.122
 6967.00    0.36705   0.31290   12.177
 6968.00    0.36574   0.31291   12.171
 6969.00    0.36030   0.31276   12.030
 6970.00    0.36171   0.31246   11.773
 6971.00    0.36659   0.31192   11.581
 6972.00    0.36354   0.31101   11.558
 6973.00    0.33995   0.30952   11.668
 6974.00    0.29648   0.30745   11.846
 6975.00    0.25067   0.30526   12.018
 6976.00    0.22171   0.30362   12.014
 6977.00    0.22167   0.30309   11.660
 6978.00    0.24826   0.30383   11.253
 6979.00    0.28358   0.30563   11.283
 6980.00    0.30036   0.30790   11.361
 6981.00    0.27656   0.30990   10.641
 6982.00    0.23495   0.31120   10.340
 6983.00    0.23075   0.31175   13.201
 6984.00    0.27199   0.31171   20.527
 6985.00    0.31656   0.31131   20.527
 6986.00    0.33673   0.31082   20.527
 6987.00    0.33130   0.31049   20.527
 6988.00    0.30653   0.31044   20.527
 6989.00    0.27261   0.31064   20.527
 6990.00    0.24748   0.31098   20.527
 6991.00    0.24868   0.31128   20.527
 6992.00    0.27349   0.31142   20.527
 6993.00    0.29995   0.31133   20.527
 6994.00    0.29886   0.31101   20.527
 6995.00    0.25231   0.31042   20.527
 6996.00    0.18255   0.30961   20.527
 6997.00    0.13713   0.30873   -1.000
 6998.00    0.15295   0.30799   -1.000
 6999.00    0.23605   0.30747   20.527
 7000.00    0.34170   0.30717   20.527
 7001.00    0.40811   0.30694   -2.000
 7002.00    0.41050   0.30663   -2.000
 7003.00    0.36267   0.30628   -2.000
 7004.00    0.30639   0.30613   -2.000
 7005.00    0.28101   0.30637   -2.000
 7006.00    0.28829   0.30692   -2.000
 7007.00    0.30407   0.30750   -2.000
 7008.00    0.29907   0.30789   -2.000
 7009.00    0.26798   0.30796   -2.000
 7010.00    0.25239   0.30762   -2.000
 7011.00    0.28116   0.30677   -2.000
 7012.00    0.31625   0.30546   -2.000
 7013.00    0.31680   0.30401   -2.000
 7014.00    0.29698   0.30290   -2.000
 7015.00    0.28332   0.30256   -2.000
 7016.00    0.27727   0.30322   -2.000
 7017.00    0.27312   0.30465   -2.000
 7018.00    0.27260   0.30615   -2.000
 7019.00    0.27554   0.30690   -2.000
 7020.00    0.27493   0.30669   -2.000
 7021.00    0.27337   0.30590   -2.000
 7022.00    0.28986   0.30508   -2.000
 7023.00    0.33488   0.30462   -2.000
 7024.00    0.39511   0.30474   -2.000
 7025.00    0.43502   0.30532   -2.000
 7026.00    0.41136   0.30608   -2.000
 7027.00    0.33831   0.30673   -2.000
 7028.00    0.29429   0.30716   -2.000
 7029.00    0.30066   0.30735   -2.000
 7030.00    0.29366   0.30729   -2.000
 7031.00    0.25065   0.30704   -2.000
 7032.00    0.22248   0.30666   -2.000
 7033.00    0.24192   0.30618   -2.000
 7034.00    0.29525   0.30565   -2.000
 7035.00    0.35520   0.30528   -2.000
 7036.00    0.39388   0.30533   -2.000
 7037.00    0.38396   0.30595   -2.000
 7038.00    0.31767   0.30718   -2.000
 7039.00    0.26086   0.30884   -2.000
 7040.00    0.30486   0.31044   -2.000
 7041.00    0.39150   0.31149   -2.000
 7042.00    0.36749   0.31192   -2.000
 7043.00    0.24593   0.31198   -2.000
 7044.00    0.17442   0.31198   -2.000
 7045.00    0.20019   0.31203   -2.000
 7046.00    0.26464   0.31206   -2.000
 7047.00    0.31539   0.31178   -2.000
 7048.00    0.33019   0.31095   -2.000
 7049.00    0.31345   0.30957   -2.000
 7050.00    0.28699   0.30794   -2.000
 7051.00    0.27410   0.30642   -2.000
 7052.00    0.28907   0.30531   -2.000
 7053.00    0.32498   0.30478   -2.000
 7054.00    0.35900   0.30469   -2.000
 7055.00    0.36496   0.30471   -2.000
 7056.00    0.33799   0.30455   -2.000
 7057.00    0.32347   0.30414   -2.000
 7058.00    0.36674   0.30363   -2.000
 7059.00    0.44433   0.30322   -2.000
 7060.00    0.50188   0.30309   -2.000
 7061.00    0.51089   0.30318   -2.000
 7062.00    0.46872   0.30323   -2.000
 7063.00    0.39121   0.30296   -2.000
 7064.00    0.31247   0.30235   -2.000
 7065.00    0.28114   0.30160   -2.000
 7066.00    0.31550   0.30108   -2.000
 7067.00    0.36755   0.30107   -2.000
 7068.00    0.38592   0.30167   -2.000
 7069.00    0.37143   0.30271   -2.000
 7070.00    0.35368   0.30383   -2.000
 7071.00    0.36350   0.30468   -2.000
 7072.00    0.39627   0.30514   -2.000
 7073.00    0.39934   0.30526   -2.000
 7074.00    0.36773   0.30515   -2.000
 7075.00    0.38555   0.30490   -2.000
 7076.00    0.46235   0.30461   -2.000
 7077.00    0.46590   0.30426   -2.000
 7078.00    0.35214   0.30371   -2.000
 7079.00    0.25807   0.30273   -2.000
 7080.00    0.25925   0.30121   -2.000
 7081.00    0.27408   0.29926   -2.000
 7082.00    0.25584   0.29717   -2.000
 7083.00    0.25965   0.29528   -2.000
 7084.00    0.30025   0.29383   -2.000
 7085.00    0.31466   0.29286   -2.000
 7086.00    0.28467   0.29219   -2.000
 7087.00    0.26376   0.29160   -2.000
 7088.00    0.27943   0.29102   -2.000
 7089.00    0.30566   0.29054   -2.000
 7090.00    0.30279   0.29022   -2.000
 7091.00    0.24998   0.29007   -2.000
 7092.00    0.19932   0.29004   -2.000
 7093.00    0.23983   0.29013   -2.000
 7094.00    0.34392   0.29047   -2.000
 7095.00    0.39060   0.29119   -2.000
 7096.00    0.35140   0.29229   -2.000
 7097.00    0.29301   0.29359   -2.000
 7098.00    0.25474   0.29483   -2.000
 7099.00    0.23015   0.29579   -2.000
 7100.00    0.19890   0.29634   -2.000
 7101.00    0.15873   0.29658   -2.000
 7102.00    0.17316   0.29666   -2.000
 7103.00    0.29727   0.29668   -2.000
 7104.00    0.42185   0.29662   -2.000
 7105.00    0.39233   0.29640   -2.000
 7106.00    0.26788   0.29596   -2.000
 7107.00    0.22413   0.29536   -2.000
 7108.00    0.31906   0.29478   -2.000
 7109.00    0.49775   0.29437   -2.000
 7110.00    0.65956   0.29426   -2.000
 7111.00    0.68479   0.29453   -2.000
 7112.00    0.46614   0.29516   -2.000
 7113.00    0.04130   0.29594   -2.000
 7114.00   -0.26917   0.29661   -2.000
 7115.00   -0.22302   0.29701   -2.000
 7116.00   -0.06776   0.29711   -2.000
 7117.00   -0.10037   0.29692   -2.000
 7118.00   -0.17013   0.29652   -2.000
 7119.00   -0.06099   0.29608   -2.000
 7120.00    0.10097   0.29570   -2.000
 7121.00    0.14578   0.29544   -2.000
 7122.00    0.14818   0.29525   -2.000
 7123.00    0.20546   0.29507   -2.000
 7124.00    0.24615   0.29475   -2.000
 7125.00    0.19968   0.29415   -2.000
 7126.00    0.12730   0.29333   -2.000
 7127.00    0.10616   0.29249   -2.000
 7128.00    0.14210   0.29181   -2.000
 7129.00    0.19970   0.29147   -2.000
 7130.00    0.23505   0.29164   -2.000
 7131.00    0.24899   0.29236   -2.000
 7132.00    0.28680   0.29347   -2.000
 7133.00    0.25578   0.29458   -2.000
 7134.00   -0.07779   0.29535   -2.000
 7135.00   -0.56528   0.29571   -2.000
 7136.00   -0.60217   0.29572   -2.000
 7137.00   -0.09153   0.29558   -2.000
 7138.00    0.32417   0.29542   -2.000
 7139.00    0.31223   0.29534   -2.000
 7140.00    0.16323   0.29536   -2.000
 7141.00    0.13040   0.29534   -2.000
 7142.00    0.20581   0.29510   -2.000
 7143.00    0.32811   0.29449   -2.000
 7144.00    0.45008   0.29357   -2.000
 7145.00    0.48936   0.29254   -2.000
 7146.00    0.36962   0.29169   -2.000
 7147.00    0.19760   0.29137   -2.000
 7148.00    0.19292   0.29177   -2.000
 7149.00    0.33343   0.29283   -2.000
 7150.00    0.39968   0.29414   -2.000
 7151.00    0.36108   0.29528   -2.000
 7152.00    0.35613   0.29611   -2.000
 7153.00    0.39413   0.29666   -2.000
 7154.00    0.37567   0.29697   -2.000
 7155.00    0.30125   0.29711   -2.000
 7156.00    0.24906   0.29709   -2.000
 7157.00    0.23371   0.29686   -2.000
 7158.00    0.22109   0.29627   -2.000
 7159.00    0.21117   0.29529   -2.000
 7160.00    0.22785   0.29396   -2.000
 7161.00    0.27382   0.29247   -2.000
 7162.00    0.32574   0.29108   -2.000
 7163.00    0.34125   0.29014   -2.000
 7164.00    0.29768   0.28998   -2.000
 7165.00    0.24315   0.29067   -2.000
 7166.00    0.23206   0.29194   -2.000
 7167.00    0.23393   0.29328   -2.000
 7168.00    0.21712   0.29434   -2.000
 7169.00    0.25746   0.29503   -2.000
 7170.00    0.39392   0.29539   -2.000
 7171.00    0.46712   0.29542   -2.000
 7172.00    0.35397   0.29512   -2.000
 7173.00    0.21115   0.29454   -2.000
 7174.00    0.20732   0.29378   -2.000
 7175.00    0.25901   0.29292   -2.000
 7176.00    0.25027   0.29200   -2.000
 7177.00    0.23522   0.29108   -2.000
 7178.00    0.27744   0.29027   -2.000
 7179.00    0.31863   0.28974   -2.000
 7180.00    0.31357   0.28972   -2.000
 7181.00    0.32601   0.29022   -2.000
 7182.00    0.41322   0.29084   -2.000
 7183.00    0.54479   0.29105   -2.000
 7184.00    0.64116   0.29053   -2.000
 7185.00    0.61682   0.28942   -2.000
 7186.00    0.46614   0.28829   -2.000
 7187.00    0.29304   0.28762   -2.000
 7188.00    0.19405   0.28766   -2.000
 7189.00    0.19368   0.28829   -2.000
 7190.00    0.25556   0.28913   -2.000
 7191.00    0.30194   0.28988   -2.000
 7192.00    0.26957   0.29037   -2.000
 7193.00    0.13732   0.29069   -2.000
 7194.00   -0.07006   0.29093   -2.000
 7195.00   -0.29176   0.29116   -2.000
 7196.00   -0.47366   0.29133   -2.000
 7197.00   -0.57765   0.29142   -2.000
 7198.00   -0.55427   0.29148   -2.000
 7199.00   -0.36717   0.29152   -2.000
 7200.00   -0.10376   0.29152   -2.000
 7201.00    0.06212   0.29141   -2.000
 7202.00    0.09213   0.29110   -2.000
 7203.00    0.09203   0.29047   -2.000
 7204.00    0.14293   0.28947   -2.000
 7205.00    0.25772   0.28834   -2.000
 7206.00    0.39704   0.28759   -2.000
 7207.00    0.50474   0.28763   -2.000
 7208.00    0.57813   0.28852   -2.000
 7209.00    0.63222   0.28980   -2.000
 7210.00    0.59062   0.29089   -2.000
 7211.00    0.37075   0.29147   -2.000
 7212.00    0.09397   0.29162   -2.000
 7213.00   -0.01774   0.29162   -2.000
 7214.00    0.09376   0.29173   -2.000
 7215.00    0.31730   0.29203   -2.000
 7216.00    0.45404   0.29240   -2.000
 7217.00    0.37424   0.29264   -2.000
 7218.00    0.22478   0.29266   -2.000
