###################################################################
## OUTPUT of StarlightChains_v04.for    [Cid@UFSC - 01/Apr/2007] ##
###################################################################

## Some input info
2007R.txt                                [arq_obs]
Base.CB07.vall.4m                        [arq_base]
Masks.EmLines.NEW.gm                     [arq_masks]
StCv04.C11.config                        [arq_config]
   66                                    [N_base]
    0                                    [N_YAV_components = # of components with extra extinction!]
    0                                    [i_FitPowerLaw (1/0 = Yes/No)]
-9.99                                    [alpha_PowerLaw]
CCM                                      [red_law_option]
 1.458241                                [q_norm = A(l_norm)/A(V)]

## (Re)Sampling Parameters
 3741.00                                 [l_ini (A)]
 7218.00                                 [l_fin (A)]
    1.00                                 [dl    (A)]     (OBS: dl_cushion =    50.00 A)

## Normalization info
 4020.00                                 [l_norm (A) - for base]
 4010.00                                 [llow_norm (A) - window for f_obs]
 4060.00                                 [lupp_norm (A) - window for f_obs]
1.697458E-17                             [fobs_norm (in input units)]

## S/N
 3691.00                                 [llow_SN (A) - window for S/N]
 7268.00                                 [lupp_SN (A) - window for S/N]
   4.714                                 [S/N in S/N window]
   4.410                                 [S/N in norm. window]
  10.000                                 [S/N_err in S/N window]
   9.355                                 [S/N_err in norm. window]
  1.0000                                 [fscale_chi2]

## etc...
    -2007339                             [idum_orig]
  2112                                   [NOl_eff]
  1914                                   [Nl_eff]
   198    NSIGMA                         [Ntot_cliped & clip_method]
   654920                                [Nglobal_steps]
   7                                     [N_chains]
  11                                     [NEX0s_base = N_base in EX0s-fits]
 0   0   1       14   2.0   5.632E+01    [Clip-Bug, RC-Crash & Burn-In warning-flags, n_censored_weights, wei_nsig_threshold & wei_limit]
    10      9.905      9.401      0.505  [idt_all, wdt_TotTime, wdt_UsrTime & wdt_SysTime (sec)]

## Synthesis Results - Best model ##

 1.04335E+00                             [chi2/Nl_eff]
     8.04213                             [adev (%)]

    93.68687                             [sum-of-x (%)]
 8.54990E-18                             [Flux_tot (units of input spectrum!)]
 9.28484E-13                             [Mini_tot (???)]
 4.66147E-13                             [Mcor_tot (???)]

 119.17                                  [v0_min  (km/s)]
 193.50                                  [vd_min  (km/s)]
-0.4621                                  [AV_min  (mag)]
 0.0000                                  [YAV_min (mag)]

# j     x_j(%)      Mini_j(%)     Mcor_j(%)     age_j(yr)     Z_j      (L/M)_j    YAV?  Mstars   component_j        a/Fe...       SSP_chi2r SSP_adev(%)   SSP_AV   SSP_x(%)
  1      0.0000     0.0000E+00    0.0000E+00    1.000000E+06  0.00400  1.094E-02    0   1.0000   age020_m42            0.0000     3.3855E+00    12.6319   3.8360    70.7427
  2      0.0000     0.0000E+00    0.0000E+00    3.160000E+06  0.00400  4.007E-02    0   0.9999   age045_m42            0.0000     2.8051E+00    11.6476   3.0616    77.4670
  3      0.0000     0.0000E+00    0.0000E+00    5.010000E+06  0.00400  2.539E-02    0   0.9488   age055_m42            0.0000     3.0335E+00    12.0097   3.3984    74.9545
  4      0.0000     0.0000E+00    0.0000E+00    6.610000E+06  0.00400  2.620E-02    0   0.9220   age061_m42            0.0000     2.7769E+00    11.5545   2.9841    77.8717
  5      0.0000     0.0000E+00    0.0000E+00    1.000000E+07  0.00400  1.322E-02    0   0.8862   age070_m42            0.0000     3.0476E+00    12.1580   2.7265    78.9384
  6      0.0000     0.0000E+00    0.0000E+00    1.445000E+07  0.00400  7.883E-03    0   0.8571   age078_m42            0.0000     3.1756E+00    12.3550   3.0652    76.4627
  7      0.0000     0.0000E+00    0.0000E+00    2.512000E+07  0.00400  5.251E-03    0   0.8174   age090_m42            0.0000     3.0761E+00    12.2631   2.5972    79.4003
  8      0.0000     0.0000E+00    0.0000E+00    4.000000E+07  0.00400  3.649E-03    0   0.7851   age104_m42            0.0000     2.9275E+00    11.9946   2.3569    80.5379
  9      0.0000     0.0000E+00    0.0000E+00    5.500000E+07  0.00400  3.098E-03    0   0.7629   age110_m42            0.0000     2.7366E+00    11.5484   2.4953    81.0390
 10      0.0000     0.0000E+00    0.0000E+00    1.015200E+08  0.00400  2.228E-03    0   0.7207   age116_m42            0.0000     2.6124E+00    11.2619   2.5018    81.6551
 11      0.0000     0.0000E+00    0.0000E+00    2.861200E+08  0.00400  1.093E-03    0   0.6648   age125_m42            0.0000     2.5150E+00    11.2097   1.9312    84.5595
 12      0.0000     0.0000E+00    0.0000E+00    5.088000E+08  0.00400  6.597E-04    0   0.6365   age130_m42            0.0000     2.2799E+00    10.7064   1.8942    86.1685
 13      0.0000     0.0000E+00    0.0000E+00    1.434000E+09  0.00400  2.132E-04    0   0.5798   age139_m42            0.0000     1.8258E+00     9.8440   0.8828    89.3874
 14      0.0000     0.0000E+00    0.0000E+00    4.250000E+09  0.00400  5.895E-05    0   0.5377   age158_m42            0.0000     1.5715E+00     9.3026   0.4211    86.6052
 15      0.0000     0.0000E+00    0.0000E+00    7.500000E+09  0.00400  3.510E-05    0   0.5212   age171_m42            0.0000     1.4672E+00     9.0655   0.2241    86.4493
 16      0.0000     0.0000E+00    0.0000E+00    1.300000E+10  0.00400  2.005E-05    0   0.5034   age193_m42            0.0000     1.4008E+00     8.9047   0.0532    86.3043
 17      0.0000     0.0000E+00    0.0000E+00    1.800000E+10  0.00400  1.525E-05    0   0.4967   age213_m42            0.0000     1.4306E+00     8.9634   0.0319    85.8222
 18      0.0000     0.0000E+00    0.0000E+00    1.000000E+06  0.00800  1.238E-02    0   1.0000   age020_m52            0.0000     3.3890E+00    12.6257   3.8315    70.8971
 19      0.0000     0.0000E+00    0.0000E+00    3.160000E+06  0.00800  3.074E-02    0   0.9966   age045_m52            0.0000     3.3284E+00    12.5064   3.7465    71.7887
 20      0.0000     0.0000E+00    0.0000E+00    5.010000E+06  0.00800  2.668E-02    0   0.9443   age055_m52            0.0000     3.1167E+00    12.1471   3.4870    74.0537
 21      0.0000     0.0000E+00    0.0000E+00    6.610000E+06  0.00800  2.136E-02    0   0.9177   age061_m52            0.0000     2.8772E+00    11.8939   2.2121    80.2825
 22      0.0000     0.0000E+00    0.0000E+00    1.000000E+07  0.00800  1.215E-02    0   0.8827   age070_m52            0.0000     3.2266E+00    12.5536   2.9238    78.2173
 23      0.0000     0.0000E+00    0.0000E+00    1.445000E+07  0.00800  8.717E-03    0   0.8552   age078_m52            0.0000     3.1338E+00    12.2981   3.0261    77.6881
 24      0.0000     0.0000E+00    0.0000E+00    2.512000E+07  0.00800  5.592E-03    0   0.8162   age090_m52            0.0000     3.0613E+00    12.2640   2.6616    80.3872
 25      0.0000     0.0000E+00    0.0000E+00    4.000000E+07  0.00800  3.896E-03    0   0.7841   age104_m52            0.0000     2.8707E+00    11.8851   2.5616    81.5140
 26      0.0000     0.0000E+00    0.0000E+00    1.015200E+08  0.00800  2.148E-03    0   0.7226   age116_m52            0.0000     2.6199E+00    11.3435   2.4744    82.2225
 27      0.0000     0.0000E+00    0.0000E+00    2.861200E+08  0.00800  9.925E-04    0   0.6683   age125_m52            0.0000     2.2570E+00    10.6251   1.9600    86.9683
 28     20.0242     6.2661E-01    7.6608E-01    9.047900E+08  0.00800  3.141E-04    0   0.6138   age135_m52            0.0000     1.5992E+00     9.4483   1.1040    92.9583
 29      0.0000     0.0000E+00    0.0000E+00    1.434000E+09  0.00800  1.719E-04    0   0.5853   age139_m52            0.0000     1.5520E+00     9.2870   0.5274    90.9633
 30      0.0000     0.0000E+00    0.0000E+00    2.500000E+09  0.00800  7.872E-05    0   0.5600   age150_m52            0.0000     1.3544E+00     8.7853   0.2327    89.3993
 31      0.0000     0.0000E+00    0.0000E+00    4.250000E+09  0.00800  4.336E-05    0   0.5426   age158_m52            0.0000     1.3521E+00     8.7862   0.2145    88.6483
 32      0.0000     0.0000E+00    0.0000E+00    6.250000E+09  0.00800  3.159E-05    0   0.5319   age166_m52            0.0000     1.2364E+00     8.5053  -0.0066    89.4067
 33      0.0000     0.0000E+00    0.0000E+00    1.300000E+10  0.00800  1.361E-05    0   0.5073   age193_m52            0.0000     1.1379E+00     8.2449  -0.5005    89.8352
 34      0.0000     0.0000E+00    0.0000E+00    1.800000E+10  0.00800  9.886E-06    0   0.4990   age213_m52            0.0000     1.1012E+00     8.1739  -0.6254    90.0580
 35      0.0000     0.0000E+00    0.0000E+00    1.000000E+06  0.02000  1.544E-02    0   1.0000   age020_m62            0.0000     3.4094E+00    12.6518   3.8292    71.0070
 36      0.0000     0.0000E+00    0.0000E+00    3.160000E+06  0.02000  3.762E-02    0   0.9858   age045_m62            0.0000     3.3789E+00    12.5882   3.7634    71.8139
 37      0.0000     0.0000E+00    0.0000E+00    5.010000E+06  0.02000  3.296E-02    0   0.9342   age055_m62            0.0000     2.9061E+00    11.7400   3.3445    76.3669
 38      0.0000     0.0000E+00    0.0000E+00    8.710000E+06  0.02000  1.154E-02    0   0.8861   age067_m62            0.0000     4.2902E+00    14.9629   2.4346    78.7053
 39      0.0000     0.0000E+00    0.0000E+00    1.445000E+07  0.02000  7.663E-03    0   0.8472   age078_m62            0.0000     3.4114E+00    13.0789   2.5853    79.7129
 40      0.0000     0.0000E+00    0.0000E+00    2.512000E+07  0.02000  4.532E-03    0   0.8099   age090_m62            0.0000     3.4323E+00    13.1304   2.5780    79.5744
 41      0.0000     0.0000E+00    0.0000E+00    5.500000E+07  0.02000  2.733E-03    0   0.7595   age110_m62            0.0000     2.8998E+00    11.8759   2.5424    80.9557
 42      0.0000     0.0000E+00    0.0000E+00    1.609000E+08  0.02000  1.369E-03    0   0.6985   age120_m62            0.0000     2.5392E+00    11.0930   2.3451    84.5471
 43      0.0000     0.0000E+00    0.0000E+00    2.861200E+08  0.02000  9.013E-04    0   0.6714   age125_m62            0.0000     2.3199E+00    10.6818   2.0664    88.0599
 44      1.6608     3.2465E-02    4.1703E-02    5.088000E+08  0.02000  5.028E-04    0   0.6449   age130_m62            0.0000     1.8568E+00     9.8576   1.6467    92.0749
 45      0.0000     0.0000E+00    0.0000E+00    9.047900E+08  0.02000  2.428E-04    0   0.6179   age135_m62            0.0000     1.4580E+00     9.0359   1.0346    92.6505
 46      0.0000     0.0000E+00    0.0000E+00    1.434000E+09  0.02000  1.263E-04    0   0.5908   age139_m62            0.0000     1.3642E+00     8.7779   0.5827    91.5958
 47      0.0000     0.0000E+00    0.0000E+00    2.500000E+09  0.02000  5.985E-05    0   0.5673   age150_m62            0.0000     1.2353E+00     8.4679   0.1937    91.2136
 48      0.0000     0.0000E+00    0.0000E+00    4.250000E+09  0.02000  3.271E-05    0   0.5468   age158_m62            0.0000     1.1147E+00     8.1847  -0.1406    91.5799
 49      0.0000     0.0000E+00    0.0000E+00    1.000000E+10  0.02000  1.360E-05    0   0.5167   age181_m62            0.0000     1.0712E+00     8.1155  -0.5183    92.4298
 50     72.0019     9.9341E+01    9.9192E+01    1.800000E+10  0.02000  7.124E-06    0   0.5013   age213_m62            0.0000     1.1054E+00     8.3075  -0.7481    92.5086
 51      0.0000     0.0000E+00    0.0000E+00    1.000000E+06  0.05000  2.592E-02    0   0.9998   age020_m72            0.0000     3.4913E+00    12.7818   3.8278    70.7858
 52      0.0000     0.0000E+00    0.0000E+00    3.160000E+06  0.05000  4.845E-02    0   0.9577   age045_m72            0.0000     3.1732E+00    12.2066   3.6269    73.4416
 53      0.0000     0.0000E+00    0.0000E+00    5.010000E+06  0.05000  3.072E-02    0   0.9147   age055_m72            0.0000     3.3531E+00    12.7651   3.1829    76.2625
 54      0.0000     0.0000E+00    0.0000E+00    6.610000E+06  0.05000  1.455E-02    0   0.8877   age061_m72            0.0000     4.8672E+00    16.2478   2.5410    78.3561
 55      0.0000     0.0000E+00    0.0000E+00    1.000000E+07  0.05000  9.074E-03    0   0.8524   age070_m72            0.0000     3.3626E+00    12.8200   3.3925    75.6516
 56      0.0000     0.0000E+00    0.0000E+00    2.512000E+07  0.05000  4.250E-03    0   0.7902   age090_m72            0.0000     3.1617E+00    12.4667   3.0557    78.1184
 57      0.0000     0.0000E+00    0.0000E+00    4.000000E+07  0.05000  3.087E-03    0   0.7618   age104_m72            0.0000     3.1382E+00    12.4675   2.8183    79.8047
 58      0.0000     0.0000E+00    0.0000E+00    1.015200E+08  0.05000  1.700E-03    0   0.7096   age116_m72            0.0000     2.7053E+00    11.4899   2.5049    83.6550
 59      0.0000     0.0000E+00    0.0000E+00    2.861200E+08  0.05000  7.384E-04    0   0.6633   age125_m72            0.0000     2.0954E+00    10.2413   1.9143    90.0608
 60      0.0000     0.0000E+00    0.0000E+00    5.088000E+08  0.05000  3.819E-04    0   0.6372   age130_m72            0.0000     1.6229E+00     9.3105   1.3790    93.1637
 61      0.0000     0.0000E+00    0.0000E+00    9.047900E+08  0.05000  1.676E-04    0   0.6110   age135_m72            0.0000     1.2818E+00     8.5270   0.6481    92.8922
 62      0.0000     0.0000E+00    0.0000E+00    1.434000E+09  0.05000  8.837E-05    0   0.5874   age139_m72            0.0000     1.2062E+00     8.3648   0.1856    92.8777
 63      0.0000     0.0000E+00    0.0000E+00    2.500000E+09  0.05000  4.233E-05    0   0.5598   age150_m72            0.0000     1.0902E+00     8.1292  -0.1517    92.7987
 64      0.0000     0.0000E+00    0.0000E+00    6.250000E+09  0.05000  1.435E-05    0   0.5249   age166_m72            0.0000     1.0841E+00     8.1853  -0.6216    92.2893
 65      0.0000     0.0000E+00    0.0000E+00    1.300000E+10  0.05000  6.513E-06    0   0.5036   age193_m72            0.0000     1.1621E+00     8.5423  -0.9254    94.1513
 66      0.0000     0.0000E+00    0.0000E+00    1.800000E+10  0.05000  4.527E-06    0   0.4945   age213_m72            0.0000     1.2796E+00     8.9316  -1.0000    91.2042


## Synthesis Results - Average & Chains ##

# j      x_j: min, <> & last-chain-values for 1 ...  7 chains
  1      0.0000      0.0043      0.0000      0.0000      0.0000      0.0000      0.0000      0.0000      0.0000
  2      0.0000      0.0214      0.0000      0.0000      0.0000      0.0000      0.0000      0.0000      0.0000
  3      0.0000      0.0106      0.0000      0.0000      0.0000      0.0000      0.0000      0.0000      0.0000
  4      0.0000      0.0096      0.0000      0.0000      0.0000      0.0000      0.0000      0.0000      0.0000
  5      0.0000      0.0272      0.1197      0.0000      0.0000      0.0000      0.0000      0.0000      0.0000
  6      0.0000      0.0176      0.0000      0.0000      0.0000      0.0000      0.0000      0.0000      0.0000
  7      0.0000      0.0275      0.0000      0.0000      0.0000      0.0000      0.0000      0.0000      0.0000
  8      0.0000      0.0191      0.0000      0.0000      0.0000      0.0000      0.0000      0.0000      0.0000
  9      0.0000      0.0449      0.0000      0.0000      0.0000      0.1691      0.0000      0.0000      0.0000
 10      0.0000      0.0238      0.0000      0.0000      0.0000      0.0000      0.0000      0.0000      0.0000
 11      0.0000      0.0880      0.0000      0.3670      0.0000      0.0000      0.0000      0.0000      0.0000
 12      0.0000      0.1283      0.0000      0.0505      0.0000      0.0000      0.2332      0.0000      0.0000
 13      0.0000      0.5241      2.2954      0.0000      0.0000      1.3309      0.0000      0.0000      0.0000
 14      0.0000      0.4292      0.9955      0.0000      0.0000      0.0000      0.0000      0.8082      0.7442
 15      0.0000      0.3862      0.0000      0.0000      0.0000      0.0000      0.0000      0.0000      0.0000
 16      0.0000      0.4672      0.1966      0.0093      0.6992      0.2240      0.0000      0.0000      0.0000
 17      0.0000      0.6973      0.0000      0.0000      0.0000      0.0000      0.0000      0.0000      0.0000
 18      0.0000      0.0047      0.0000      0.0000      0.0000      0.0000      0.0000      0.0000      0.0000
 19      0.0000      0.0136      0.0000      0.0000      0.0000      0.0000      0.0000      0.0000      0.0000
 20      0.0000      0.0222      0.0000      0.0000      0.0000      0.0000      0.0000      0.0000      0.0000
 21      0.0000      0.0207      0.0000      0.0000      0.0000      0.0000      0.0000      0.0000      0.0000
 22      0.0000      0.0195      0.0000      0.0000      0.0000      0.0000      0.0000      0.0000      0.0000
 23      0.0000      0.0123      0.1283      0.0000      0.1176      0.0000      0.0000      0.0000      0.0000
 24      0.0000      0.0238      0.0000      0.0000      0.0000      0.0412      0.0000      0.0000      0.0000
 25      0.0000      0.0197      0.0000      0.0000      0.0000      0.0000      0.0000      0.0000      0.0000
 26      0.0000      0.0478      0.0000      0.0000      0.0000      0.0000      0.0000      0.0000      0.0000
 27      0.0000      0.4076      0.0000      0.0000      0.0511      0.0000      0.0000      0.0000      1.3368
 28     20.0242      3.4848      5.1323      2.6716      3.7345      3.6824      7.7314      5.1592      4.3033
 29      0.0000      0.7134      0.0000      0.7659      0.0000      0.0000      0.8602      0.2394      0.2743
 30      0.0000      0.7920      0.0466      0.6193      0.0000      0.0000      0.0000      0.3336      0.0000
 31      0.0000      0.3876      0.0000      0.1247      0.0000      0.2002      0.8554      1.5654      0.0000
 32      0.0000      0.9107      2.5358      0.0000      0.0000      0.0000      0.0000      0.9723      0.8258
 33      0.0000      2.1286      0.0000      0.0000      0.7187      2.3796      0.0000      2.8986      0.2324
 34      0.0000      4.7129      0.0000      4.0971      6.5542      5.5590      4.8823      1.0603      3.8505
 35      0.0000      0.0049      0.0000      0.0000      0.0000      0.0000      0.0000      0.0000      0.0000
 36      0.0000      0.0044      0.0000      0.0000      0.0000      0.0000      0.0000      0.0000      0.0000
 37      0.0000      0.0118      0.0000      0.0000      0.0000      0.0000      0.0000      0.0000      0.0000
 38      0.0000      0.0053      0.0000      0.0000      0.0000      0.0000      0.0000      0.0000      0.0000
 39      0.0000      0.0222      0.0000      0.0000      0.0000      0.0000      0.0000      0.0000      0.0000
 40      0.0000      0.0156      0.0000      0.0000      0.0000      0.0000      0.0000      0.0000      0.0000
 41      0.0000      0.0142      0.0000      0.0000      0.0000      0.0000      0.0000      0.0000      0.0000
 42      0.0000      0.1432      0.0000      0.0000      0.3555      0.0242      0.0000      0.0000      0.0000
 43      0.0000      0.1239      0.0000      0.5456      0.0000      0.0000      0.0000      0.0000      0.0000
 44      1.6608      1.9727      2.8874      3.0508      2.9081      3.6730      1.3176      2.0699      2.7177
 45      0.0000      0.6569      0.0000      1.1537      2.2928      0.0000      1.1327      2.1697      0.0000
 46      0.0000      0.8234      1.3228      0.0000      0.0000      0.0000      2.4493      0.0000      0.0000
 47      0.0000      0.9754      0.0000      1.0091      4.4185      2.4169      3.0113      1.1339      0.0000
 48      0.0000      1.6291      0.0000      0.0000      0.0000      4.3647      4.4803      1.1028      2.2627
 49      0.0000     10.1884     13.7557      9.7540     13.4111     12.0451      9.0857     17.5665     10.7162
 50     72.0019     33.6699     40.9842     43.6707     40.4666     39.2610     38.8056     34.7693     36.2817
 51      0.0000      0.0022      0.0000      0.0000      0.0000      0.0000      0.0000      0.0000      0.0000
 52      0.0000      0.0467      0.0000      0.0000      0.0000      0.0000      0.0000      0.0000      0.0000
 53      0.0000      0.0043      0.0000      0.0000      0.0000      0.0000      0.0028      0.0000      0.0000
 54      0.0000      0.0103      0.1093      0.0000      0.0000      0.0000      0.0000      0.0000      0.0000
 55      0.0000      0.0109      0.0000      0.0000      0.0600      0.0000      0.0000      0.0000      0.0000
 56      0.0000      0.0182      0.0000      0.0000      0.0000      0.0000      0.0000      0.0000      0.0000
 57      0.0000      0.0395      0.0000      0.0000      0.0314      0.0000      0.2618      0.0000      0.1464
 58      0.0000      0.0521      0.0000      0.0000      0.0000      0.0000      0.0000      0.0000      0.0000
 59      0.0000      0.7141      1.0240      0.5160      0.0000      2.7627      0.5843      0.1927      1.5657
 60      0.0000      0.6596      1.6307      0.3322      3.8509      0.0000      0.0000      1.2214      0.6806
 61      0.0000      0.9048      0.0000      5.7995      0.0000      0.5974      0.0000      0.3415      0.9727
 62      0.0000      0.9170      1.7432      3.9230      0.0000      0.0000      0.0000      0.0000      0.5525
 63      0.0000      2.3125      0.0000      1.6407      0.0000      0.6117      3.2905      1.3031      5.2414
 64      0.0000      5.2535      0.0000      0.0000      0.1663      0.0000      1.8123      4.4236      4.4708
 65      0.0000      6.2469      7.2315      4.1458      2.6002      6.9306      4.5610      6.0636      5.4326
 66      0.0000      8.5078     10.7482      8.5204     11.1523      6.7681      7.8995      7.2712      9.9604

# j      m_j: min, <> & last-chain-values for 1 ...  7 chains
  1  0.0000E+00  8.2006E-06  0.0000E+00  0.0000E+00  0.0000E+00  0.0000E+00  0.0000E+00  0.0000E+00  0.0000E+00
  2  0.0000E+00  1.1014E-05  0.0000E+00  0.0000E+00  0.0000E+00  0.0000E+00  0.0000E+00  0.0000E+00  0.0000E+00
  3  0.0000E+00  8.1544E-06  0.0000E+00  0.0000E+00  0.0000E+00  0.0000E+00  0.0000E+00  0.0000E+00  0.0000E+00
  4  0.0000E+00  6.9706E-06  0.0000E+00  0.0000E+00  0.0000E+00  0.0000E+00  0.0000E+00  0.0000E+00  0.0000E+00
  5  0.0000E+00  3.7618E-05  1.5315E-04  0.0000E+00  0.0000E+00  0.0000E+00  0.0000E+00  0.0000E+00  0.0000E+00
  6  0.0000E+00  3.9591E-05  0.0000E+00  0.0000E+00  0.0000E+00  0.0000E+00  0.0000E+00  0.0000E+00  0.0000E+00
  7  0.0000E+00  8.8243E-05  0.0000E+00  0.0000E+00  0.0000E+00  0.0000E+00  0.0000E+00  0.0000E+00  0.0000E+00
  8  0.0000E+00  8.4886E-05  0.0000E+00  0.0000E+00  0.0000E+00  0.0000E+00  0.0000E+00  0.0000E+00  0.0000E+00
  9  0.0000E+00  2.2819E-04  0.0000E+00  0.0000E+00  0.0000E+00  8.3335E-04  0.0000E+00  0.0000E+00  0.0000E+00
 10  0.0000E+00  1.5916E-04  0.0000E+00  0.0000E+00  0.0000E+00  0.0000E+00  0.0000E+00  0.0000E+00  0.0000E+00
 11  0.0000E+00  1.1045E-03  0.0000E+00  4.4620E-03  0.0000E+00  0.0000E+00  0.0000E+00  0.0000E+00  0.0000E+00
 12  0.0000E+00  2.5542E-03  0.0000E+00  9.7445E-04  0.0000E+00  0.0000E+00  4.6912E-03  0.0000E+00  0.0000E+00
 13  0.0000E+00  2.9414E-02  1.1917E-01  0.0000E+00  0.0000E+00  7.2427E-02  0.0000E+00  0.0000E+00  0.0000E+00
 14  0.0000E+00  8.0790E-02  1.7334E-01  0.0000E+00  0.0000E+00  0.0000E+00  0.0000E+00  1.5310E-01  1.3613E-01
 15  0.0000E+00  1.1835E-01  0.0000E+00  0.0000E+00  0.0000E+00  0.0000E+00  0.0000E+00  0.0000E+00  0.0000E+00
 16  0.0000E+00  2.4207E-01  9.4215E-02  4.6476E-03  3.3611E-01  1.1256E-01  0.0000E+00  0.0000E+00  0.0000E+00
 17  0.0000E+00  4.6868E-01  0.0000E+00  0.0000E+00  0.0000E+00  0.0000E+00  0.0000E+00  0.0000E+00  0.0000E+00
 18  0.0000E+00  7.7648E-06  0.0000E+00  0.0000E+00  0.0000E+00  0.0000E+00  0.0000E+00  0.0000E+00  0.0000E+00
 19  0.0000E+00  9.0953E-06  0.0000E+00  0.0000E+00  0.0000E+00  0.0000E+00  0.0000E+00  0.0000E+00  0.0000E+00
 20  0.0000E+00  1.6250E-05  0.0000E+00  0.0000E+00  0.0000E+00  0.0000E+00  0.0000E+00  0.0000E+00  0.0000E+00
 21  0.0000E+00  1.8362E-05  0.0000E+00  0.0000E+00  0.0000E+00  0.0000E+00  0.0000E+00  0.0000E+00  0.0000E+00
 22  0.0000E+00  2.9213E-05  0.0000E+00  0.0000E+00  0.0000E+00  0.0000E+00  0.0000E+00  0.0000E+00  0.0000E+00
 23  0.0000E+00  2.4994E-05  2.4027E-04  0.0000E+00  2.2090E-04  0.0000E+00  0.0000E+00  0.0000E+00  0.0000E+00
 24  0.0000E+00  7.1745E-05  0.0000E+00  0.0000E+00  0.0000E+00  1.2029E-04  0.0000E+00  0.0000E+00  0.0000E+00
 25  0.0000E+00  8.1667E-05  0.0000E+00  0.0000E+00  0.0000E+00  0.0000E+00  0.0000E+00  0.0000E+00  0.0000E+00
 26  0.0000E+00  3.3182E-04  0.0000E+00  0.0000E+00  0.0000E+00  0.0000E+00  0.0000E+00  0.0000E+00  0.0000E+00
 27  0.0000E+00  5.6640E-03  0.0000E+00  0.0000E+00  6.5868E-04  0.0000E+00  0.0000E+00  0.0000E+00  1.8053E-02
 28  7.6608E-01  1.4053E-01  1.9146E-01  1.0436E-01  1.3972E-01  1.4400E-01  3.1497E-01  2.0938E-01  1.6865E-01
 29  0.0000E+00  5.0126E-02  0.0000E+00  5.2131E-02  0.0000E+00  0.0000E+00  6.1062E-02  1.6926E-02  1.8733E-02
 30  0.0000E+00  1.1627E-01  6.3309E-03  8.8058E-02  0.0000E+00  0.0000E+00  0.0000E+00  4.9286E-02  0.0000E+00
 31  0.0000E+00  1.0009E-01  0.0000E+00  3.1204E-02  0.0000E+00  5.0126E-02  2.2317E-01  4.0681E-01  0.0000E+00
 32  0.0000E+00  3.1644E-01  8.1511E-01  0.0000E+00  0.0000E+00  0.0000E+00  0.0000E+00  3.3998E-01  2.7885E-01
 33  0.0000E+00  1.6374E+00  0.0000E+00  0.0000E+00  5.1287E-01  1.7749E+00  0.0000E+00  2.2438E+00  1.7372E-01
 34  0.0000E+00  4.9092E+00  0.0000E+00  4.1338E+00  6.3341E+00  5.6151E+00  5.1377E+00  1.1115E+00  3.8979E+00
 35  0.0000E+00  6.5761E-06  0.0000E+00  0.0000E+00  0.0000E+00  0.0000E+00  0.0000E+00  0.0000E+00  0.0000E+00
 36  0.0000E+00  2.4023E-06  0.0000E+00  0.0000E+00  0.0000E+00  0.0000E+00  0.0000E+00  0.0000E+00  0.0000E+00
 37  0.0000E+00  6.8770E-06  0.0000E+00  0.0000E+00  0.0000E+00  0.0000E+00  0.0000E+00  0.0000E+00  0.0000E+00
 38  0.0000E+00  8.3959E-06  0.0000E+00  0.0000E+00  0.0000E+00  0.0000E+00  0.0000E+00  0.0000E+00  0.0000E+00
 39  0.0000E+00  5.0549E-05  0.0000E+00  0.0000E+00  0.0000E+00  0.0000E+00  0.0000E+00  0.0000E+00  0.0000E+00
 40  0.0000E+00  5.7364E-05  0.0000E+00  0.0000E+00  0.0000E+00  0.0000E+00  0.0000E+00  0.0000E+00  0.0000E+00
 41  0.0000E+00  8.1286E-05  0.0000E+00  0.0000E+00  0.0000E+00  0.0000E+00  0.0000E+00  0.0000E+00  0.0000E+00
 42  0.0000E+00  1.5080E-03  0.0000E+00  0.0000E+00  3.4724E-03  2.4697E-04  0.0000E+00  0.0000E+00  0.0000E+00
 43  0.0000E+00  1.9042E-03  0.0000E+00  8.1240E-03  0.0000E+00  0.0000E+00  0.0000E+00  0.0000E+00  0.0000E+00
 44  4.1703E-02  5.2216E-02  7.0700E-02  7.8217E-02  7.1414E-02  9.4275E-02  3.5233E-02  5.5136E-02  6.9908E-02
 45  0.0000E+00  3.4500E-02  0.0000E+00  5.8688E-02  1.1172E-01  0.0000E+00  6.0098E-02  1.1467E-01  0.0000E+00
 46  0.0000E+00  7.9491E-02  1.1812E-01  0.0000E+00  0.0000E+00  0.0000E+00  2.3885E-01  0.0000E+00  0.0000E+00
 47  0.0000E+00  1.9081E-01  0.0000E+00  1.9119E-01  8.0186E-01  4.5843E-01  5.9506E-01  2.2322E-01  0.0000E+00
 48  0.0000E+00  5.6202E-01  0.0000E+00  0.0000E+00  0.0000E+00  1.4601E+00  1.5614E+00  3.8285E-01  7.5860E-01
 49  0.0000E+00  7.9883E+00  9.9769E+00  7.4076E+00  9.7554E+00  9.1577E+00  7.1965E+00  1.3860E+01  8.1653E+00
 50  9.9192E+01  4.8895E+01  5.5056E+01  6.1427E+01  5.4519E+01  5.5286E+01  5.6928E+01  5.0811E+01  5.1203E+01
 51  0.0000E+00  1.7264E-06  0.0000E+00  0.0000E+00  0.0000E+00  0.0000E+00  0.0000E+00  0.0000E+00  0.0000E+00
 52  0.0000E+00  1.9060E-05  0.0000E+00  0.0000E+00  0.0000E+00  0.0000E+00  0.0000E+00  0.0000E+00  0.0000E+00
 53  0.0000E+00  2.6119E-06  0.0000E+00  0.0000E+00  0.0000E+00  0.0000E+00  1.7611E-06  0.0000E+00  0.0000E+00
 54  0.0000E+00  1.3027E-05  1.2734E-04  0.0000E+00  0.0000E+00  0.0000E+00  0.0000E+00  0.0000E+00  0.0000E+00
 55  0.0000E+00  2.1046E-05  0.0000E+00  0.0000E+00  1.0795E-04  0.0000E+00  0.0000E+00  0.0000E+00  0.0000E+00
 56  0.0000E+00  6.9803E-05  0.0000E+00  0.0000E+00  0.0000E+00  0.0000E+00  0.0000E+00  0.0000E+00  0.0000E+00
 57  0.0000E+00  2.0122E-04  0.0000E+00  0.0000E+00  1.4817E-04  0.0000E+00  1.3468E-03  0.0000E+00  7.2463E-04
 58  0.0000E+00  4.4909E-04  0.0000E+00  0.0000E+00  0.0000E+00  0.0000E+00  0.0000E+00  0.0000E+00  0.0000E+00
 59  0.0000E+00  1.3237E-02  1.7560E-02  9.2661E-03  0.0000E+00  4.9663E-02  1.0943E-02  3.5956E-03  2.8207E-02
 60  0.0000E+00  2.2711E-02  5.1942E-02  1.1079E-02  1.2302E-01  0.0000E+00  0.0000E+00  4.2323E-02  2.2775E-02
 61  0.0000E+00  6.8069E-02  0.0000E+00  4.2262E-01  0.0000E+00  4.3584E-02  0.0000E+00  2.5854E-02  7.1121E-02
 62  0.0000E+00  1.2579E-01  2.2120E-01  5.2124E-01  0.0000E+00  0.0000E+00  0.0000E+00  0.0000E+00  7.3656E-02
 63  0.0000E+00  6.3112E-01  0.0000E+00  4.3372E-01  0.0000E+00  1.6188E-01  9.0721E-01  3.5790E-01  1.3901E+00
 64  0.0000E+00  3.9657E+00  0.0000E+00  0.0000E+00  1.1648E-01  0.0000E+00  1.3820E+00  3.3604E+00  3.2798E+00
 65  0.0000E+00  9.9682E+00  1.0674E+01  6.4078E+00  3.8494E+00  1.0724E+01  7.3523E+00  9.7370E+00  8.4246E+00
 66  0.0000E+00  1.9179E+01  2.2413E+01  1.8604E+01  2.3324E+01  1.4794E+01  1.7989E+01  1.6495E+01  2.1821E+01

# AV, chi2 & Mass for <> & i_chain = 1 ...  7 solutions
AV      -0.4621     -0.5068     -0.5197     -0.4953     -0.5372     -0.5193     -0.4922     -0.5144     -0.5152
chi2 1.0433E+00  1.0627E+00  1.0575E+00  1.0572E+00  1.0555E+00  1.0560E+00  1.0564E+00  1.0573E+00  1.0591E+00
Mass 4.6615E-13  4.1642E-13  4.4243E-13  4.3662E-13  4.3092E-13  4.2231E-13  4.2040E-13  4.0958E-13  4.2372E-13
 119.17                                  [v0_min (km/s) before EX0s...]
 193.50                                  [vd_min (km/s) before EX0s...]


## Synthetic spectrum (Best Model) ##l_obs f_obs f_syn wei
 3478    [Nl_obs]
 3741.00   -0.17821   0.38944   -2.000
 3742.00    0.19253   0.40500    0.000
 3743.00    0.87294   0.40498    0.000
 3744.00    0.60463   0.39075    0.000
 3745.00    0.09756   0.36723   -1.000
 3746.00    0.04611   0.34055   -1.000
 3747.00    0.30906   0.31627   32.357
 3748.00    0.44315   0.29877   -1.000
 3749.00    0.43057   0.29156   -1.000
 3750.00    0.44095   0.29740   -1.000
 3751.00    0.42644   0.31737   23.450
 3752.00    0.33766   0.34962   29.615
 3753.00    0.30625   0.38891   32.653
 3754.00    0.50597   0.42746   19.764
 3755.00    0.69531   0.45711   -1.000
 3756.00    0.46495   0.47191   21.508
 3757.00   -0.07037   0.47046   -2.000
 3758.00    0.12210   0.45666   -1.000
 3759.00    0.89830   0.43804   -1.000
 3760.00    1.24240   0.42219   -1.000
 3761.00    1.26709   0.41336   -1.000
 3762.00    1.23803   0.41124   -1.000
 3763.00    1.14347   0.41267   -1.000
 3764.00    0.97229   0.41446   -1.000
 3765.00    0.93943   0.41520   -1.000
 3766.00    0.88017   0.41561   -1.000
 3767.00    0.25079   0.41757   -1.000
 3768.00   -0.20372   0.42314   -2.000
 3769.00    0.07099   0.43356   -1.000
 3770.00    0.37720   0.44877   26.511
 3771.00    0.19095   0.46732   -1.000
 3772.00   -0.12849   0.48699   -2.000
 3773.00    0.07477   0.50545   -1.000
 3774.00    0.43273   0.52099   23.109
 3775.00    0.47157   0.53307   21.206
 3776.00    0.42759   0.54243   23.387
 3777.00    0.94850   0.55078   -1.000
 3778.00    1.05311   0.55989   -1.000
 3779.00    0.23436   0.57077   -1.000
 3780.00    0.55845   0.58308   17.907
 3781.00    1.25872   0.59517   -1.000
 3782.00    0.82806   0.60453   -1.000
 3783.00    0.32210   0.60836   -1.000
 3784.00    0.40006   0.60409   -1.000
 3785.00    0.73563   0.59017   -1.000
 3786.00    0.72051   0.56696   -1.000
 3787.00    0.25255   0.53734   -1.000
 3788.00   -0.08644   0.50633   -2.000
 3789.00    0.21462   0.47929   -1.000
 3790.00    0.47842   0.45981   20.902
 3791.00    0.29479   0.44813   -1.000
 3792.00    0.11291   0.44138   -1.000
 3793.00    0.42668   0.43538   23.437
 3794.00    0.78260   0.42678   -1.000
 3795.00    0.64377   0.41463   -1.000
 3796.00    0.55007   0.40036   -1.000
 3797.00    0.60805   0.38698   -1.000
 3798.00    0.53533   0.37805   -1.000
 3799.00    0.36926   0.37691   27.081
 3800.00    0.38919   0.38579   25.694
 3801.00    0.60638   0.40484   -1.000
 3802.00    0.65835   0.43140   -1.000
 3803.00    0.48577   0.46055   20.586
 3804.00    0.37460   0.48665   26.695
 3805.00    0.54906   0.50560   18.213
 3806.00    0.70510   0.51629   -1.000
 3807.00    0.67223   0.52073   -1.000
 3808.00    0.66376   0.52254   -1.000
 3809.00    0.87426   0.52457   -1.000
 3810.00    1.04412   0.52694   -1.000
 3811.00    0.81238   0.52706   -1.000
 3812.00    0.35787   0.52136   27.943
 3813.00    0.21095   0.50778   -1.000
 3814.00    0.57946   0.48728   -1.000
 3815.00    0.98078   0.46351   -1.000
 3816.00    0.95547   0.44081   -1.000
 3817.00    0.52930   0.42209   -1.000
 3818.00    0.19612   0.40772   -1.000
 3819.00    0.34562   0.39628   28.933
 3820.00    0.67635   0.38609   -1.000
 3821.00    0.58224   0.37642   -1.000
 3822.00    0.35650   0.36725   28.050
 3823.00    0.40507   0.35842   -1.000
 3824.00    0.67001   0.34926   -1.000
 3825.00    0.81429   0.33933   -1.000
 3826.00    0.74815   0.32916   -1.000
 3827.00    0.57033   0.32028   -1.000
 3828.00    0.28303   0.31404   35.332
 3829.00    0.14427   0.31051   -1.000
 3830.00    0.37615   0.30827   -1.000
 3831.00    0.71793   0.30528   -1.000
 3832.00    0.62845   0.30025   -1.000
 3833.00    0.20276   0.29351   49.320
 3834.00    0.17423   0.28679   -1.000
 3835.00    0.29566   0.28206   33.823
 3836.00    0.31571   0.28034   31.675
 3837.00    0.39832   0.28139   -1.000
 3838.00    0.14268   0.28457   -1.000
 3839.00   -0.21752   0.29003   -2.000
 3840.00   -0.02829   0.29914   -2.000
 3841.00    0.28492   0.31368   35.098
 3842.00    0.24020   0.33435   41.632
 3843.00    0.01111   0.35971   -1.000
 3844.00    0.17179   0.38642   -1.000
 3845.00    0.46980   0.41052   21.286
 3846.00    0.48351   0.42902   20.682
 3847.00    0.52502   0.44071    0.000
 3848.00    0.61880   0.44612    0.000
 3849.00    0.57343   0.44696    0.000
 3850.00    0.43773   0.44548    0.000
 3851.00    0.54370   0.44363    0.000
 3852.00    0.87132   0.44234    0.000
 3853.00    0.98392   0.44110    0.000
 3854.00    0.81659   0.43842    0.000
 3855.00    0.53360   0.43289    0.000
 3856.00    0.43152   0.42409    0.000
 3857.00    0.86998   0.41299    0.000
 3858.00    1.26875   0.40171    0.000
 3859.00    0.97874   0.39299    0.000
 3860.00    0.68189   0.38958    0.000
 3861.00    0.71112   0.39327    0.000
 3862.00    0.83742   0.40392    0.000
 3863.00    0.92940   0.41904    0.000
 3864.00    1.02397   0.43459    0.000
 3865.00    1.14122   0.44668    0.000
 3866.00    1.14349   0.45303    0.000
 3867.00    0.86392   0.45333    0.000
 3868.00    0.53697   0.44865    0.000
 3869.00    0.60773   0.44054    0.000
 3870.00    0.84966   0.43088    0.000
 3871.00    0.96757   0.42194    0.000
 3872.00    0.96549   0.41628    0.000
 3873.00    0.89626   0.41587    0.000
 3874.00    0.71987   0.42081    0.000
 3875.00    0.52565   0.42866    0.000
 3876.00    0.67662   0.43539    0.000
 3877.00    0.97966   0.43735    0.000
 3878.00    0.97363   0.43335    0.000
 3879.00    0.69029   0.42512    0.000
 3880.00    0.64163   0.41603    0.000
 3881.00    0.86241   0.40915   -1.000
 3882.00    0.72664   0.40577   -1.000
 3883.00    0.53342   0.40513   -1.000
 3884.00    0.65160   0.40513   -1.000
 3885.00    0.82692   0.40361   -1.000
 3886.00    0.86803   0.39983   -1.000
 3887.00    0.87511   0.39550   -1.000
 3888.00    0.90568   0.39439   -1.000
 3889.00    0.59657   0.40056   -1.000
 3890.00    0.33257   0.41612   30.069
 3891.00    0.62063   0.43987   -1.000
 3892.00    0.75379   0.46772   -1.000
 3893.00    0.50322   0.49434   19.872
 3894.00    0.34633   0.51549   -1.000
 3895.00    0.60089   0.52940   16.642
 3896.00    0.88821   0.53687   -1.000
 3897.00    0.85677   0.54018   -1.000
 3898.00    0.80095   0.54164   -1.000
 3899.00    1.02532   0.54279   -1.000
 3900.00    1.17405   0.54424   -1.000
 3901.00    0.73862   0.54585   -1.000
 3902.00    0.56412   0.54701   17.727
 3903.00    0.85967   0.54706   -1.000
 3904.00    0.87441   0.54601   -1.000
 3905.00    0.76329   0.54518   -1.000
 3906.00    0.76237   0.54702   -1.000
 3907.00    0.78768   0.55410   -1.000
 3908.00    0.76087   0.56770   -1.000
 3909.00    0.64628   0.58685   15.473
 3910.00    0.59879   0.60862   16.700
 3911.00    0.89290   0.62931   -1.000
 3912.00    1.17944   0.64576   -1.000
 3913.00    1.00023   0.65609   -1.000
 3914.00    0.51483   0.65965   19.424
 3915.00    0.32727   0.65663   -1.000
 3916.00    0.61735   0.64761   16.198
 3917.00    0.93057   0.63333   -1.000
 3918.00    1.05987   0.61475   -1.000
 3919.00    0.89547   0.59319   -1.000
 3920.00    0.51597   0.57059   19.381
 3921.00    0.52321   0.54935   19.113
 3922.00    0.85894   0.53165   -1.000
 3923.00    0.81527   0.51836   -1.000
 3924.00    0.23389   0.50827   -1.000
 3925.00    0.20457   0.49829   -1.000
 3926.00    1.18165   0.48458   -1.000
 3927.00    1.53782   0.46413   -1.000
 3928.00    0.99209   0.43598   -1.000
 3929.00    0.43967   0.40135   22.744
 3930.00    0.31801   0.36303   31.445
 3931.00    0.25632   0.32452   39.014
 3932.00    0.05232   0.28942   -1.000
 3933.00    0.07930   0.26127   -1.000
 3934.00    0.35413   0.24332   -1.000
 3935.00    0.56347   0.23812   -1.000
 3936.00    0.42405   0.24677   -1.000
 3937.00    0.03114   0.26829   -1.000
 3938.00   -0.10110   0.29958   -2.000
 3939.00    0.29770   0.33596   33.591
 3940.00    0.60299   0.37237   -1.000
 3941.00    0.52184   0.40477   -1.000
 3942.00    0.34557   0.43118   28.938
 3943.00    0.38109   0.45214   26.240
 3944.00    0.50862   0.47011   19.661
 3945.00    0.61243   0.48807   -1.000
 3946.00    0.83741   0.50801   -1.000
 3947.00    0.85425   0.53008   -1.000
 3948.00    0.68693   0.55293   14.558
 3949.00    0.83984   0.57476   -1.000
 3950.00    0.85991   0.59410   -1.000
 3951.00    0.59739   0.61014   16.740
 3952.00    0.55156   0.62255   18.130
 3953.00    0.60958   0.63115   16.405
 3954.00    0.57369   0.63585   17.431
 3955.00    0.51168   0.63648   19.543
 3956.00    0.57441   0.63277   17.409
 3957.00    0.77579   0.62439   12.890
 3958.00    1.01398   0.61086   -1.000
 3959.00    1.16284   0.59152   -1.000
 3960.00    0.97184   0.56569    0.000
 3961.00    0.51088   0.53324    0.000
 3962.00    0.28872   0.49527    0.000
 3963.00    0.27954   0.45405    0.000
 3964.00    0.31724   0.41212    0.000
 3965.00    0.47219   0.37136    0.000
 3966.00    0.61175   0.33288    0.000
 3967.00    0.57064   0.29787    0.000
 3968.00    0.37453   0.26847    0.000
 3969.00    0.23237   0.24789    0.000
 3970.00    0.25273   0.23950    0.000
 3971.00    0.39401   0.24541    0.000
 3972.00    0.59145   0.26570    0.000
 3973.00    0.61378   0.29838    0.000
 3974.00    0.39342   0.34019    0.000
 3975.00    0.33052   0.38756    0.000
 3976.00    0.57705   0.43732    0.000
 3977.00    0.80565   0.48693    0.000
 3978.00    0.61080   0.53429    0.000
 3979.00    0.36781   0.57746    0.000
 3980.00    0.51972   0.61461    0.000
 3981.00    0.89122   0.64441   -1.000
 3982.00    1.07946   0.66665   -1.000
 3983.00    0.93114   0.68263   -1.000
 3984.00    0.68306   0.69490   14.640
 3985.00    0.65992   0.70623   15.153
 3986.00    0.81633   0.71850   12.250
 3987.00    0.84656   0.73208   11.813
 3988.00    0.71771   0.74602   13.933
 3989.00    0.69907   0.75893   14.305
 3990.00    0.93992   0.76982   10.639
 3991.00    1.13374   0.77842   -1.000
 3992.00    1.10857   0.78495   -1.000
 3993.00    0.99513   0.78945   10.049
 3994.00    0.99075   0.79165   10.093
 3995.00    0.97645   0.79135   10.241
 3996.00    0.93603   0.78925   10.683
 3997.00    1.07481   0.78737   -1.000
 3998.00    1.12020   0.78841   -1.000
 3999.00    0.97182   0.79445   10.290
 4000.00    0.89134   0.80549   11.219
 4001.00    0.80520   0.81893   12.419
 4002.00    0.71469   0.83040   13.992
 4003.00    0.75866   0.83571   13.181
 4004.00    0.85558   0.83286   11.688
 4005.00    0.95782   0.82334   10.440
 4006.00    1.03552   0.81174    9.657
 4007.00    0.98361   0.80375   10.167
 4008.00    1.01977   0.80355    9.806
 4009.00    1.18435   0.81191   -1.000
 4010.00    1.03090   0.82644    9.700
 4011.00    0.73514   0.84327   13.603
 4012.00    0.78348   0.85908   12.764
 4013.00    1.23439   0.87220   -1.000
 4014.00    1.51590   0.88241   -1.000
 4015.00    1.29890   0.89018   -1.000
 4016.00    0.92411   0.89598   10.821
 4017.00    0.84104   0.90019   11.890
 4018.00    1.01847   0.90316    9.819
 4019.00    1.09916   0.90516    9.098
 4020.00    1.03688   0.90618    9.644
 4021.00    0.86578   0.90595   11.550
 4022.00    0.73023   0.90419   13.694
 4023.00    0.90326   0.90121   11.071
 4024.00    0.99514   0.89809   10.049
 4025.00    0.80226   0.89617   12.465
 4026.00    0.96383   0.89602   10.375
 4027.00    1.24616   0.89639   -1.000
 4028.00    1.21133   0.89402   -1.000
 4029.00    1.06968   0.88493    9.349
 4030.00    1.00000   0.86661   10.000
 4031.00    0.98367   0.84009   10.166
 4032.00    0.91923   0.81045   10.879
 4033.00    0.78796   0.78536   12.691
 4034.00    0.61537   0.77212   16.250
 4035.00    0.52959   0.77503   -1.000
 4036.00    0.76747   0.79365   13.030
 4037.00    0.98293   0.82310   10.174
 4038.00    0.81331   0.85574   12.295
 4039.00    0.76270   0.88367   13.111
 4040.00    0.96303   0.90080   10.384
 4041.00    1.09666   0.90389    9.119
 4042.00    1.01173   0.89252    9.884
 4043.00    0.92614   0.86854   10.798
 4044.00    1.00936   0.83604    9.907
 4045.00    1.12186   0.80151   -1.000
 4046.00    1.19112   0.77319   -1.000
 4047.00    1.07404   0.75893   -1.000
 4048.00    0.73992   0.76297   13.515
 4049.00    0.77210   0.78364   12.952
 4050.00    1.02387   0.81394    9.767
 4051.00    0.85517   0.84435   11.694
 4052.00    0.74140   0.86675   13.488
 4053.00    1.04033   0.87689    9.612
 4054.00    1.42569   0.87486   -1.000
 4055.00    1.40193   0.86389   -1.000
 4056.00    1.13131   0.84852   -1.000
 4057.00    1.01977   0.83306    9.806
 4058.00    1.02576   0.82043    9.749
 4059.00    1.05423   0.81149   -1.000
 4060.00    1.04361   0.80495   -1.000
 4061.00    0.94998   0.79809   10.527
 4062.00    0.85966   0.78853   11.632
 4063.00    0.85831   0.77605   11.651
 4064.00    0.93180   0.76335   10.732
 4065.00    1.02882   0.75503   -1.000
 4066.00    1.12467   0.75497   -1.000
 4067.00    1.20957   0.76394   -1.000
 4068.00    1.24115   0.77909   -1.000
 4069.00    1.24655   0.79528   -1.000
 4070.00    1.21732   0.80768   -1.000
 4071.00    1.01226   0.81378    9.879
 4072.00    0.81769   0.81394   12.230
 4073.00    0.87919   0.81028   11.374
 4074.00    1.05187   0.80487   -1.000
 4075.00    1.09696   0.79865   -1.000
 4076.00    0.97630   0.79206   10.243
 4077.00    0.87539   0.78638   11.424
 4078.00    0.85286   0.78453   11.725
 4079.00    0.85728   0.78996   11.665
 4080.00    0.85461   0.80426   11.701
 4081.00    0.88111   0.82555   11.349
 4082.00    0.91317   0.84897   10.951
 4083.00    0.92728   0.86934   10.784
 4084.00    1.05783   0.88398    9.453
 4085.00    1.14287   0.89383    8.750
 4086.00    0.97835   0.90217   10.221
 4087.00    0.84647   0.91210   11.814
 4088.00    0.80285   0.92437   12.456
 4089.00    0.74764   0.93697   13.375
 4090.00    0.78551   0.94637   12.731
 4091.00    0.86336   0.94942   11.583
 4092.00    0.88691   0.94460    0.000
 4093.00    0.91789   0.93216    0.000
 4094.00    1.02190   0.91340    0.000
 4095.00    1.11370   0.88988    0.000
 4096.00    1.04408   0.86307    0.000
 4097.00    0.92128   0.83440    0.000
 4098.00    0.88061   0.80531    0.000
 4099.00    0.87280   0.77727    0.000
 4100.00    0.73421   0.75194    0.000
 4101.00    0.62670   0.73143    0.000
 4102.00    0.76456   0.71837    0.000
 4103.00    0.86021   0.71530    0.000
 4104.00    0.76687   0.72349    0.000
 4105.00    0.63505   0.74177    0.000
 4106.00    0.65172   0.76629    0.000
 4107.00    0.81780   0.79180    0.000
 4108.00    0.91965   0.81340    0.000
 4109.00    0.78968   0.82830    0.000
 4110.00    0.78191   0.83657    0.000
 4111.00    0.97437   0.84063    0.000
 4112.00    0.95029   0.84389    0.000
 4113.00    0.84929   0.84912   11.775
 4114.00    0.86383   0.85722   11.576
 4115.00    0.89732   0.86690   11.144
 4116.00    0.86968   0.87554   11.499
 4117.00    0.83249   0.88053   12.012
 4118.00    0.88219   0.88065   11.335
 4119.00    0.99337   0.87658   10.067
 4120.00    1.03645   0.87058    9.648
 4121.00    0.94544   0.86539   10.577
 4122.00    0.84781   0.86300   11.795
 4123.00    0.89449   0.86398   11.180
 4124.00    1.09082   0.86743    9.167
 4125.00    1.22030   0.87141   -1.000
 4126.00    0.97986   0.87364   10.206
 4127.00    0.57843   0.87222   -1.000
 4128.00    0.61830   0.86596   16.173
 4129.00    0.92910   0.85476   10.763
 4130.00    1.09726   0.83972   -1.000
 4131.00    1.05173   0.82299    9.508
 4132.00    1.03161   0.80755    9.694
 4133.00    1.06221   0.79677   -1.000
 4134.00    0.94858   0.79367   10.542
 4135.00    0.71838   0.79987   13.920
 4136.00    0.71705   0.81457   13.946
 4137.00    1.03406   0.83446    9.671
 4138.00    1.14113   0.85445   -1.000
 4139.00    1.02805   0.86907    9.727
 4140.00    0.97036   0.87399   10.305
 4141.00    0.94253   0.86734   10.610
 4142.00    0.88193   0.85043   11.339
 4143.00    0.82626   0.82772   12.103
 4144.00    0.84771   0.80560   11.796
 4145.00    0.86797   0.79017   11.521
 4146.00    0.88204   0.78490   11.337
 4147.00    0.97381   0.78921   10.269
 4148.00    1.03994   0.79917   -1.000
 4149.00    0.95329   0.80956   10.490
 4150.00    0.75400   0.81642   13.263
 4151.00    0.66757   0.81825   14.980
 4152.00    0.76002   0.81577   13.158
 4153.00    0.90397   0.81095   11.062
 4154.00    0.96312   0.80614   10.383
 4155.00    0.88520   0.80330   11.297
 4156.00    0.75199   0.80391   13.298
 4157.00    0.72009   0.80903   13.887
 4158.00    0.79754   0.81906   12.539
 4159.00    0.89527   0.83343   11.170
 4160.00    0.93401   0.85058   10.707
 4161.00    0.87524   0.86815   11.425
 4162.00    0.82418   0.88348   12.133
 4163.00    0.89638   0.89428   11.156
 4164.00    0.91654   0.89915   10.911
 4165.00    0.79883   0.89786   12.518
 4166.00    0.72417   0.89135   13.809
 4167.00    0.90355   0.88150   11.067
 4168.00    1.09388   0.87025    9.142
 4169.00    1.03877   0.85867    9.627
 4170.00    1.02404   0.84674    9.765
 4171.00    0.99062   0.83377   10.095
 4172.00    0.77019   0.81934   12.984
 4173.00    0.59211   0.80408   16.889
 4174.00    0.69725   0.79007   14.342
 4175.00    0.97261   0.77980   10.282
 4176.00    1.03870   0.77489   -1.000
 4177.00    0.87195   0.77552   11.469
 4178.00    0.65621   0.78051   15.239
 4179.00    0.55093   0.78810   -1.000
 4180.00    0.63965   0.79666   15.633
 4181.00    0.79931   0.80527   12.511
 4182.00    0.83973   0.81370   11.909
 4183.00    0.79536   0.82196   12.573
 4184.00    0.76217   0.82972   13.120
 4185.00    0.80991   0.83621   12.347
 4186.00    0.96473   0.84054   10.366
 4187.00    1.09930   0.84250    9.097
 4188.00    1.04950   0.84297    9.528
 4189.00    0.83822   0.84360   11.930
 4190.00    0.77350   0.84597   12.928
 4191.00    0.91686   0.85068   10.907
 4192.00    0.94039   0.85664   10.634
 4193.00    0.88508   0.86143   11.298
 4194.00    0.90571   0.86220   11.041
 4195.00    0.97542   0.85642   10.252
 4196.00    0.98246   0.84348   10.179
 4197.00    0.90523   0.82534   11.047
 4198.00    0.82760   0.80563   12.083
 4199.00    0.80795   0.78798   12.377
 4200.00    0.82393   0.77537   12.137
 4201.00    0.82437   0.76988   12.130
 4202.00    0.80785   0.77217   12.378
 4203.00    0.78670   0.78155   12.711
 4204.00    0.77981   0.79680   12.824
 4205.00    0.83769   0.81653   11.938
 4206.00    1.04629   0.83869    9.558
 4207.00    1.22243   0.86072   -1.000
 4208.00    1.03449   0.88031    9.667
 4209.00    0.83208   0.89533   12.018
 4210.00    0.96319   0.90431   10.382
 4211.00    1.24183   0.90702   -1.000
 4212.00    1.29142   0.90420   -1.000
 4213.00    1.07250   0.89708    9.324
 4214.00    0.85550   0.88782   11.689
 4215.00    0.75995   0.87944   13.159
 4216.00    0.83228   0.87551   12.015
 4217.00    1.04509   0.87884    9.569
 4218.00    1.22331   0.88986   -1.000
 4219.00    1.17588   0.90607    8.504
 4220.00    0.94873   0.92193   10.540
 4221.00    0.85777   0.93032   -2.000
 4222.00    0.96590   0.92474   -2.000
 4223.00    1.12167   0.90161   -2.000
 4224.00    1.13124   0.86243   -2.000
 4225.00    0.78296   0.81415   -2.000
 4226.00    0.40404   0.76678   -2.000
 4227.00    0.54465   0.73084   -2.000
 4228.00    0.74486   0.71466   -2.000
 4229.00    0.74338   0.72144   -2.000
 4230.00    0.84371   0.74768   -2.000
 4231.00    1.03867   0.78470   -2.000
 4232.00    1.05083   0.82213   -2.000
 4233.00    0.81890   0.85118   -2.000
 4234.00    0.76063   0.86714   -2.000
 4235.00    0.84642   0.87096   -2.000
 4236.00    0.82890   0.86784   12.064
 4237.00    0.82641   0.86362   12.101
 4238.00    0.95080   0.86295   10.517
 4239.00    1.06486   0.86856    9.391
 4240.00    0.93238   0.88061   10.725
 4241.00    0.74669   0.89789   13.392
 4242.00    0.73448   0.91872   13.615
 4243.00    0.84693   0.94011   11.807
 4244.00    0.97618   0.95840   10.244
 4245.00    1.05518   0.97037    9.477
 4246.00    1.07603   0.97322    9.293
 4247.00    1.05882   0.96531    9.444
 4248.00    0.99694   0.94760   10.031
 4249.00    0.92929   0.92351   10.761
 4250.00    0.97423   0.89721   10.265
 4251.00    0.98214   0.87330   10.182
 4252.00    0.85670   0.85576   11.673
 4253.00    0.85303   0.84629   11.723
 4254.00    0.89465   0.84409   11.178
 4255.00    0.83876   0.84711   11.922
 4256.00    0.82004   0.85327   12.194
 4257.00    0.90043   0.85986   11.106
 4258.00    0.95024   0.86432   10.524
 4259.00    0.85591   0.86650   11.683
 4260.00    0.86505   0.86846   11.560
 4261.00    0.99511   0.87268   10.049
 4262.00    0.99583   0.88162   10.042
 4263.00    0.94325   0.89738   10.602
 4264.00    0.96139   0.91993   10.402
 4265.00    1.02187   0.94498    9.786
 4266.00    1.01921   0.96519    9.811
 4267.00    1.02921   0.97327    9.716
 4268.00    1.05965   0.96443    9.437
 4269.00    0.90474   0.93870   11.053
 4270.00    0.89147   0.90075   11.217
 4271.00    1.19517   0.85732   -1.000
 4272.00    1.32194   0.81588   -1.000
 4273.00    1.10681   0.78425   -1.000
 4274.00    0.85581   0.76807   11.685
 4275.00    0.89151   0.76921   11.217
 4276.00    0.97227   0.78643   10.285
 4277.00    0.95514   0.81543   10.470
 4278.00    0.97514   0.84871   10.255
 4279.00    0.94898   0.87853   10.538
 4280.00    0.92037   0.90076   10.865
 4281.00    0.98136   0.91364   10.190
 4282.00    0.96489   0.91709   10.364
 4283.00    0.95064   0.91343   10.519
 4284.00    1.04740   0.90578    9.547
 4285.00    1.03301   0.89636    9.680
 4286.00    0.90418   0.88558   11.060
 4287.00    0.84275   0.87221   11.866
 4288.00    0.90839   0.85605   11.009
 4289.00    0.91064   0.83875   10.981
 4290.00    0.83933   0.82326   11.914
 4291.00    0.92426   0.81287   10.819
 4292.00    1.03122   0.80899    9.697
 4293.00    0.94483   0.81085   10.584
 4294.00    0.73890   0.81630   13.534
 4295.00    0.78480   0.82156   12.742
 4296.00    1.02500   0.82125    9.756
 4297.00    1.08422   0.81107   -1.000
 4298.00    0.95740   0.79049   10.445
 4299.00    0.84080   0.76295   11.893
 4300.00    0.82395   0.73338   12.137
 4301.00    0.79207   0.70579   12.625
 4302.00    0.80397   0.68331   12.438
 4303.00    0.85210   0.66763   11.736
 4304.00    0.74463   0.65819   13.430
 4305.00    0.71245   0.65244   14.036
 4306.00    0.88486   0.64690   -1.000
 4307.00    0.94559   0.64009   -1.000
 4308.00    0.70195   0.63400   14.246
 4309.00    0.54471   0.63203   18.358
 4310.00    0.85003   0.63805   11.764
 4311.00    0.89579   0.65574   11.163
 4312.00    0.63591   0.68702   15.726
 4313.00    0.69797   0.73160   14.327
 4314.00    0.94156   0.78675   10.621
 4315.00    1.09047   0.84787    9.170
 4316.00    1.09638   0.90995    9.121
 4317.00    1.06030   0.96778    9.431
 4318.00    1.06423   1.01574    9.397
 4319.00    1.12983   1.04881    8.851
 4320.00    1.21062   1.06309    8.260
 4321.00    1.15913   1.05601    8.627
 4322.00    1.01200   1.02923    9.881
 4323.00    0.99173   0.98901   10.083
 4324.00    1.02093   0.94349    9.795
 4325.00    0.99067   0.90137   10.094
 4326.00    0.93252   0.87122   10.724
 4327.00    0.86571   0.85915   11.551
 4328.00    0.85192   0.86771   11.738
 4329.00    0.93406   0.89514   10.706
 4330.00    1.01734   0.93503    0.000
 4331.00    1.05287   0.97797    0.000
 4332.00    1.06740   1.01414    0.000
 4333.00    1.07334   1.03744    0.000
 4334.00    1.03552   1.04675    0.000
 4335.00    0.96068   1.04319    0.000
 4336.00    0.92674   1.02717    0.000
 4337.00    0.90890   0.99876    0.000
 4338.00    0.90874   0.96065    0.000
 4339.00    0.98043   0.91864    0.000
 4340.00    0.98771   0.88007    0.000
 4341.00    0.87389   0.85256    0.000
 4342.00    0.79784   0.84291    0.000
 4343.00    0.90720   0.85243    0.000
 4344.00    1.04413   0.87695    0.000
 4345.00    0.93708   0.91085    0.000
 4346.00    0.68496   0.94708    0.000
 4347.00    0.65080   0.97821    0.000
 4348.00    0.95298   1.00059    0.000
 4349.00    1.16187   1.01334    0.000
 4350.00    1.07232   1.01523    0.000
 4351.00    0.86181   1.00750   11.604
 4352.00    0.79624   0.99470   12.559
 4353.00    0.87008   0.98117   11.493
 4354.00    0.94949   0.97042   10.532
 4355.00    0.98659   0.96696   10.136
 4356.00    1.01183   0.97440    9.883
 4357.00    1.01081   0.99060    9.893
 4358.00    0.97836   1.00898   10.221
 4359.00    1.07994   1.02552    9.260
 4360.00    1.16729   1.04060    8.567
 4361.00    1.00725   1.05485    9.928
 4362.00    0.92055   1.06838   10.863
 4363.00    1.04279   1.08225    9.590
 4364.00    1.19562   1.09645    8.364
 4365.00    1.24800   1.10739    8.013
 4366.00    1.17074   1.11112    8.542
 4367.00    1.05565   1.10725    9.473
 4368.00    1.03140   1.09791    9.696
 4369.00    1.01184   1.08406    9.883
 4370.00    0.99550   1.06648   10.045
 4371.00    1.11021   1.04815    9.007
 4372.00    1.06968   1.03175    9.349
 4373.00    0.89151   1.01725   11.217
 4374.00    0.94342   1.00354   10.600
 4375.00    0.99717   0.99184   10.028
 4376.00    0.92905   0.98408   10.764
 4377.00    0.87759   0.98056   11.395
 4378.00    0.76987   0.98036   12.989
 4379.00    0.77013   0.98061   12.985
 4380.00    1.01661   0.97603    9.837
 4381.00    1.15142   0.96069    8.685
 4382.00    1.02992   0.93228    9.710
 4383.00    0.82434   0.89519   12.131
 4384.00    0.75893   0.85825   13.176
 4385.00    0.94076   0.83017   10.630
 4386.00    1.12671   0.81626   -1.000
 4387.00    0.94631   0.81941   10.567
 4388.00    0.71545   0.83964   13.977
 4389.00    0.77658   0.87000   12.877
 4390.00    1.01215   0.90006    9.880
 4391.00    1.17511   0.92367    8.510
 4392.00    1.16821   0.94187    8.560
 4393.00    1.09351   0.95793    9.145
 4394.00    1.08538   0.97368    9.213
 4395.00    1.09055   0.99007    9.170
 4396.00    1.02587   1.00636    9.748
 4397.00    1.03437   1.02052    9.668
 4398.00    1.20186   1.03122    8.320
 4399.00    1.33617   1.03757    7.484
 4400.00    1.13326   1.03755    8.824
 4401.00    0.89447   1.02814   11.180
 4402.00    0.99566   1.00894   10.044
 4403.00    1.26510   0.98364    7.905
 4404.00    1.23622   0.95737    8.089
 4405.00    0.95386   0.93491   10.484
 4406.00    0.92616   0.91871   10.797
 4407.00    1.06054   0.91001    9.429
 4408.00    1.11844   0.91346    8.941
 4409.00    1.08299   0.93270    9.234
 4410.00    1.05360   0.96251    9.491
 4411.00    1.11628   0.99340    8.958
 4412.00    1.19822   1.02021    8.346
 4413.00    1.10651   1.04035    9.037
 4414.00    1.07026   1.05070    9.344
 4415.00    1.21195   1.05111    8.251
 4416.00    1.11706   1.04604    8.952
 4417.00    0.95593   1.04073   10.461
 4418.00    1.05939   1.03970    9.439
 4419.00    1.28098   1.04664    7.807
 4420.00    1.32032   1.05984    7.574
 4421.00    1.21061   1.07242    8.260
 4422.00    1.20762   1.07948    8.281
 4423.00    1.11285   1.07997    8.986
 4424.00    0.96969   1.07508   10.313
 4425.00    1.06181   1.06810    9.418
 4426.00    1.17250   1.06299    8.529
 4427.00    1.14321   1.06176    8.747
 4428.00    1.07381   1.06263    9.313
 4429.00    1.06998   1.06274    9.346
 4430.00    1.08246   1.06125    9.238
 4431.00    1.08588   1.05796    9.209
 4432.00    1.19387   1.05212    8.376
 4433.00    1.25959   1.04375    7.939
 4434.00    1.20659   1.03577    8.288
 4435.00    1.20427   1.03167    8.304
 4436.00    1.09614   1.03149    9.123
 4437.00    0.93534   1.03508   10.691
 4438.00    1.04612   1.04392    9.559
 4439.00    1.17365   1.05777    8.520
 4440.00    1.12124   1.07285    8.919
 4441.00    1.05758   1.08374    9.456
 4442.00    1.10509   1.08766    9.049
 4443.00    1.10555   1.08619    9.045
 4444.00    0.98009   1.08392   10.203
 4445.00    1.07462   1.08603    9.306
 4446.00    1.20164   1.09507    8.322
 4447.00    1.08382   1.10985    9.227
 4448.00    1.03835   1.12592    9.631
 4449.00    1.05536   1.13734    9.475
 4450.00    1.05379   1.14033    9.490
 4451.00    1.19636   1.13528    8.359
 4452.00    1.30092   1.12341    7.687
 4453.00    1.17337   1.10469    8.522
 4454.00    0.97211   1.08095   10.287
 4455.00    1.03613   1.05515    9.651
 4456.00    1.21302   1.02877    8.244
 4457.00    1.09646   1.00376    9.120
 4458.00    0.95179   0.98363   10.506
 4459.00    0.95015   0.97147   10.525
 4460.00    0.97497   0.96682   10.257
 4461.00    1.00804   0.96717    0.000
 4462.00    1.00448   0.97212    0.000
 4463.00    0.95083   0.98245    0.000
 4464.00    0.97158   0.99716    0.000
 4465.00    1.14916   1.01468    0.000
 4466.00    1.34168   1.03387    0.000
 4467.00    1.29342   1.05104    0.000
 4468.00    1.15028   1.06315    0.000
 4469.00    1.09169   1.07217    0.000
 4470.00    1.04163   1.08142    0.000
 4471.00    0.94248   1.09228    0.000
 4472.00    0.93437   1.10559    0.000
 4473.00    1.14272   1.12285    0.000
 4474.00    1.29782   1.14346    0.000
 4475.00    1.27518   1.16408    0.000
 4476.00    1.19504   1.18103    0.000
 4477.00    1.11521   1.19118    0.000
 4478.00    1.09665   1.19286    0.000
 4479.00    1.17633   1.18742    0.000
 4480.00    1.28261   1.17704    0.000
 4481.00    1.27390   1.16312    0.000
 4482.00    1.16367   1.14856    8.594
 4483.00    1.15150   1.13872    8.684
 4484.00    1.20050   1.13783    8.330
 4485.00    1.18793   1.14580    8.418
 4486.00    1.12274   1.15860    8.907
 4487.00    1.10670   1.17010    9.036
 4488.00    1.14142   1.17519    8.761
 4489.00    1.14446   1.17235    8.738
 4490.00    1.15029   1.16263    8.693
 4491.00    1.13040   1.14891    8.846
 4492.00    1.03939   1.13551    9.621
 4493.00    1.00172   1.12601    9.983
 4494.00    1.09149   1.12134    9.162
 4495.00    1.17314   1.11973    8.524
 4496.00    1.04766   1.11935    9.545
 4497.00    1.04555   1.12093    9.564
 4498.00    1.30407   1.12818    7.668
 4499.00    1.32356   1.14299    7.555
 4500.00    1.18420   1.16322    8.445
 4501.00    1.17353   1.18547    8.521
 4502.00    1.24267   1.20692    8.047
 4503.00    1.20543   1.22605    8.296
 4504.00    1.07358   1.24290    9.315
 4505.00    1.04054   1.25917    9.610
 4506.00    1.12849   1.27434    8.861
 4507.00    1.24771   1.28416    8.015
 4508.00    1.29963   1.28659    7.694
 4509.00    1.24987   1.28330    8.001
 4510.00    1.22111   1.27668    8.189
 4511.00    1.29789   1.26834    7.705
 4512.00    1.34562   1.25897    7.432
 4513.00    1.34098   1.24815    7.457
 4514.00    1.31997   1.23534    7.576
 4515.00    1.25173   1.22167    7.989
 4516.00    1.18563   1.21021    8.434
 4517.00    1.16701   1.20326    8.569
 4518.00    1.16466   1.20121    8.586
 4519.00    1.15602   1.20246    8.650
 4520.00    1.14564   1.20415    8.729
 4521.00    1.17360   1.20493    8.521
 4522.00    1.29309   1.20401    7.733
 4523.00    1.35976   1.19827    7.354
 4524.00    1.22099   1.18452    8.190
 4525.00    1.07931   1.16197    9.265
 4526.00    1.08978   1.13411    9.176
 4527.00    1.16823   1.10566    8.560
 4528.00    1.13236   1.07845    8.831
 4529.00    1.06484   1.05474    9.391
 4530.00    1.08539   1.03767    9.213
 4531.00    1.10735   1.02872    9.031
 4532.00    1.15595   1.02800    8.651
 4533.00    1.19730   1.03440    8.352
 4534.00    1.09827   1.04572    9.105
 4535.00    1.00905   1.06019    9.910
 4536.00    1.02260   1.07537    9.779
 4537.00    1.03668   1.09097    9.646
 4538.00    1.04495   1.10904    9.570
 4539.00    1.05769   1.13022    9.455
 4540.00    1.09300   1.15050    9.149
 4541.00    1.22071   1.16286    8.192
 4542.00    1.30336   1.16655    7.672
 4543.00    1.21006   1.16585    8.264
 4544.00    1.12345   1.16403    8.901
 4545.00    1.12871   1.16228    8.860
 4546.00    1.16952   1.15899    8.551
 4547.00    1.20341   1.15280    8.310
 4548.00    1.24730   1.14604    8.017
 4549.00    1.27691   1.14141    7.831
 4550.00    1.21876   1.13787    0.000
 4551.00    1.13829   1.13365    0.000
 4552.00    1.17442   1.12971    0.000
 4553.00    1.34370   1.12952    0.000
 4554.00    1.39975   1.13326    0.000
 4555.00    1.25195   1.13838    0.000
 4556.00    1.09682   1.14599    0.000
 4557.00    1.14687   1.15793    0.000
 4558.00    1.32938   1.17429    0.000
 4559.00    1.43274   1.19366    0.000
 4560.00    1.42866   1.21145    0.000
 4561.00    1.38475   1.22258    0.000
 4562.00    1.36286   1.22585    0.000
 4563.00    1.35899   1.22316    0.000
 4564.00    1.30381   1.21757    0.000
 4565.00    1.22961   1.21089    0.000
 4566.00    1.25699   1.20390    0.000
 4567.00    1.26951   1.19962    0.000
 4568.00    1.18906   1.20064    0.000
 4569.00    1.12788   1.20702    0.000
 4570.00    1.16334   1.21544    0.000
 4571.00    1.22413   1.22074    0.000
 4572.00    1.22040   1.22216    0.000
 4573.00    1.24720   1.22188    0.000
 4574.00    1.31518   1.22092    0.000
 4575.00    1.34346   1.22233    0.000
 4576.00    1.33021   1.22498    0.000
 4577.00    1.30399   1.22216    0.000
 4578.00    1.26180   1.21326    0.000
 4579.00    1.17682   1.20187    0.000
 4580.00    1.11213   1.18835    0.000
 4581.00    1.11530   1.17298    0.000
 4582.00    1.14117   1.15815    0.000
 4583.00    1.16489   1.14761    0.000
 4584.00    1.16813   1.14448    0.000
 4585.00    1.14276   1.14810    0.000
 4586.00    1.14223   1.15473    0.000
 4587.00    1.16830   1.16271    0.000
 4588.00    1.18850   1.17200    0.000
 4589.00    1.24059   1.18190    0.000
 4590.00    1.24682   1.19164    0.000
 4591.00    1.14997   1.19776    0.000
 4592.00    1.11959   1.19701    0.000
 4593.00    1.17010   1.18962    0.000
 4594.00    1.20823   1.17839    0.000
 4595.00    1.22286   1.16748    0.000
 4596.00    1.16915   1.15944    0.000
 4597.00    1.08151   1.15349    0.000
 4598.00    1.08871   1.14977    0.000
 4599.00    1.13547   1.14940    0.000
 4600.00    1.17858   1.15139    0.000
 4601.00    1.25649   1.15441    0.000
 4602.00    1.26816   1.15761    0.000
 4603.00    1.20639   1.16023    0.000
 4604.00    1.17903   1.16524    0.000
 4605.00    1.18677   1.17436    0.000
 4606.00    1.23750   1.18584    0.000
 4607.00    1.30380   1.19910    0.000
 4608.00    1.25506   1.21399    0.000
 4609.00    1.18631   1.23047    0.000
 4610.00    1.24716   1.24664    0.000
 4611.00    1.35216   1.25947    0.000
 4612.00    1.36637   1.26626    0.000
 4613.00    1.30232   1.26670    0.000
 4614.00    1.29504   1.26447    0.000
 4615.00    1.28919   1.26276    0.000
 4616.00    1.22035   1.26222    0.000
 4617.00    1.14827   1.26386    0.000
 4618.00    1.12358   1.26669    0.000
 4619.00    1.20960   1.26836    0.000
 4620.00    1.36792   1.26979    0.000
 4621.00    1.33278   1.27044    0.000
 4622.00    1.15332   1.26992    0.000
 4623.00    1.09459   1.27051    0.000
 4624.00    1.14058   1.27133    0.000
 4625.00    1.13816   1.26987    0.000
 4626.00    1.06438   1.26753    0.000
 4627.00    1.08858   1.26546    0.000
 4628.00    1.16982   1.26307    0.000
 4629.00    1.19474   1.26114    0.000
 4630.00    1.17358   1.25968    0.000
 4631.00    1.10258   1.25681    0.000
 4632.00    1.12278   1.25223    0.000
 4633.00    1.35375   1.24745    0.000
 4634.00    1.38682   1.24105    0.000
 4635.00    1.18031   1.23014    0.000
 4636.00    1.13550   1.21647    0.000
 4637.00    1.22342   1.20381    0.000
 4638.00    1.33077   1.19318    0.000
 4639.00    1.38345   1.18376    0.000
 4640.00    1.24815   1.17535    0.000
 4641.00    1.08204   1.16906    0.000
 4642.00    1.07148   1.16474    0.000
 4643.00    1.08861   1.16085    0.000
 4644.00    1.10453   1.15638    0.000
 4645.00    1.11456   1.14874    0.000
 4646.00    1.04040   1.13753    0.000
 4647.00    1.01022   1.12618    0.000
 4648.00    1.12288   1.11748    0.000
 4649.00    1.24567   1.11369    0.000
 4650.00    1.18037   1.11771    0.000
 4651.00    1.07317   1.12848    0.000
 4652.00    1.18021   1.14228    0.000
 4653.00    1.21995   1.15590    0.000
 4654.00    1.14081   1.16752    0.000
 4655.00    1.12908   1.17721    0.000
 4656.00    1.07795   1.18543    0.000
 4657.00    1.05249   1.19294    0.000
 4658.00    1.17068   1.20223    0.000
 4659.00    1.28182   1.21395    0.000
 4660.00    1.27737   1.22617    0.000
 4661.00    1.25121   1.23547    0.000
 4662.00    1.37499   1.23701    0.000
 4663.00    1.51548   1.22722    0.000
 4664.00    1.46020   1.20668    0.000
 4665.00    1.23794   1.18008    0.000
 4666.00    1.14166   1.15306    0.000
 4667.00    1.14382   1.12940    0.000
 4668.00    1.01170   1.11009    0.000
 4669.00    1.01460   1.09639    0.000
 4670.00    1.14177   1.09291    0.000
 4671.00    1.13401   1.10237    0.000
 4672.00    1.13081   1.12087    0.000
 4673.00    1.23381   1.14175    0.000
 4674.00    1.33894   1.15999    0.000
 4675.00    1.29473   1.17311    0.000
 4676.00    1.13805   1.18166    0.000
 4677.00    1.00086   1.18679    0.000
 4678.00    0.95142   1.18872    0.000
 4679.00    1.01059   1.18677    0.000
 4680.00    1.08578   1.18069    0.000
 4681.00    1.04885   1.17286    0.000
 4682.00    0.99956   1.16675    0.000
 4683.00    1.04784   1.16394    0.000
 4684.00    1.15342   1.16439    0.000
 4685.00    1.21443   1.16793    0.000
 4686.00    1.27037   1.17299    0.000
 4687.00    1.36604   1.17654    0.000
 4688.00    1.30850   1.17764    0.000
 4689.00    1.08973   1.17704    0.000
 4690.00    0.95935   1.17552    0.000
 4691.00    1.11879   1.17483    0.000
 4692.00    1.29412   1.17590    0.000
 4693.00    1.21872   1.17795    0.000
 4694.00    1.09276   1.18069    0.000
 4695.00    1.11577   1.18366    0.000
 4696.00    1.21673   1.18564    0.000
 4697.00    1.18561   1.18571    0.000
 4698.00    1.12546   1.18229    0.000
 4699.00    1.17335   1.17345    0.000
 4700.00    1.27468   1.15972    0.000
 4701.00    1.28565   1.14550    0.000
 4702.00    1.15975   1.13540    0.000
 4703.00    1.00713   1.12909    0.000
 4704.00    0.98535   1.12414    0.000
 4705.00    1.05657   1.12100    0.000
 4706.00    1.07681   1.12138    0.000
 4707.00    1.02618   1.12513    0.000
 4708.00    0.98225   1.12959    0.000
 4709.00    1.03061   1.13273    0.000
 4710.00    1.16984   1.13573    0.000
 4711.00    1.26130   1.14008    0.000
 4712.00    1.19820   1.14668    0.000
 4713.00    1.07355   1.15606    0.000
 4714.00    1.13774   1.16602    0.000
 4715.00    1.28846   1.17465    0.000
 4716.00    1.19991   1.18352    0.000
 4717.00    1.08204   1.19549    0.000
 4718.00    1.12706   1.21184    0.000
 4719.00    1.22699   1.22954    0.000
 4720.00    1.22126   1.24467    0.000
 4721.00    1.18188   1.25708    0.000
 4722.00    1.25084   1.26666    0.000
 4723.00    1.34213   1.27088    0.000
 4724.00    1.31789   1.26779    0.000
 4725.00    1.21575   1.25860    0.000
 4726.00    1.22933   1.24612    0.000
 4727.00    1.27222   1.23072    0.000
 4728.00    1.23226   1.21114    0.000
 4729.00    1.18305   1.18867    0.000
 4730.00    1.12751   1.16829    0.000
 4731.00    1.09939   1.15553    0.000
 4732.00    1.15441   1.15170    0.000
 4733.00    1.17943   1.15387    0.000
 4734.00    1.14923   1.16021    0.000
 4735.00    1.16974   1.17001    0.000
 4736.00    1.26105   1.18097    0.000
 4737.00    1.28100   1.19089    0.000
 4738.00    1.18223   1.19809    0.000
 4739.00    1.18622   1.20339    0.000
 4740.00    1.20478   1.21037    0.000
 4741.00    1.12440   1.21811    0.000
 4742.00    1.14365   1.22294    0.000
 4743.00    1.21575   1.22630    0.000
 4744.00    1.20780   1.23131    0.000
 4745.00    1.17165   1.23804    0.000
 4746.00    1.23751   1.24437    0.000
 4747.00    1.33967   1.24903    0.000
 4748.00    1.28565   1.25344    0.000
 4749.00    1.17146   1.25735    0.000
 4750.00    1.15468   1.25818    0.000
 4751.00    1.23538   1.25523    0.000
 4752.00    1.26382   1.24988    0.000
 4753.00    1.20967   1.24261    0.000
 4754.00    1.15233   1.23346    0.000
 4755.00    1.12031   1.22396    0.000
 4756.00    1.14986   1.21606    0.000
 4757.00    1.22453   1.21080    0.000
 4758.00    1.24099   1.20743    0.000
 4759.00    1.18824   1.20451    0.000
 4760.00    1.12595   1.20142    0.000
 4761.00    1.10602   1.19736    9.041
 4762.00    1.14850   1.19074    8.707
 4763.00    1.20173   1.18010    8.321
 4764.00    1.18517   1.16683    8.438
 4765.00    1.11484   1.15514    8.970
 4766.00    1.06826   1.14760    9.361
 4767.00    1.09150   1.14391    9.162
 4768.00    1.13489   1.14428    8.811
 4769.00    1.16280   1.15034    8.600
 4770.00    1.15113   1.16207    8.687
 4771.00    1.05366   1.17717    9.491
 4772.00    0.96237   1.19221   10.391
 4773.00    1.01583   1.20425    9.844
 4774.00    1.18672   1.21460    8.427
 4775.00    1.21417   1.22602    8.236
 4776.00    1.10073   1.23787    9.085
 4777.00    1.16003   1.24682    8.620
 4778.00    1.14887   1.25107    8.704
 4779.00    1.01152   1.25216    9.886
 4780.00    1.09875   1.25043    9.101
 4781.00    1.26265   1.24476    7.920
 4782.00    1.29272   1.23597    7.736
 4783.00    1.23604   1.22530    8.090
 4784.00    1.23917   1.21345    8.070
 4785.00    1.31676   1.20182    7.594
 4786.00    1.35663   1.19285    7.371
 4787.00    1.28519   1.18736    7.781
 4788.00    1.15088   1.18351    8.689
 4789.00    1.07494   1.18245    9.303
 4790.00    1.12362   1.18656    8.900
 4791.00    1.18941   1.19454    8.408
 4792.00    1.16918   1.20544    8.553
 4793.00    1.12508   1.21891    8.888
 4794.00    1.17377   1.23341    8.520
 4795.00    1.25301   1.24714    7.981
 4796.00    1.19811   1.25791    8.346
 4797.00    1.13683   1.26340    8.796
 4798.00    1.17254   1.26313    8.528
 4799.00    1.21230   1.25917    8.249
 4800.00    1.14737   1.25365    8.716
 4801.00    1.09205   1.24793    9.157
 4802.00    1.19108   1.24381    8.396
 4803.00    1.29524   1.24294    7.721
 4804.00    1.26449   1.24386    7.908
 4805.00    1.16199   1.24290    8.606
 4806.00    1.17691   1.23861    8.497
 4807.00    1.24802   1.23267    8.013
 4808.00    1.24289   1.22772    8.046
 4809.00    1.18893   1.22377    8.411
 4810.00    1.14020   1.22081    8.770
 4811.00    1.11207   1.22108    8.992
 4812.00    1.10816   1.22510    9.024
 4813.00    1.17965   1.23098    8.477
 4814.00    1.24852   1.23743    8.010
 4815.00    1.19293   1.24455    8.383
 4816.00    1.12366   1.25273    8.899
 4817.00    1.08115   1.26126    9.249
 4818.00    1.04507   1.26896    9.569
 4819.00    1.12283   1.27449    8.906
 4820.00    1.26740   1.27611    7.890
 4821.00    1.29701   1.27365    7.710
 4822.00    1.14981   1.26793    8.697
 4823.00    1.09143   1.25970    9.162
 4824.00    1.24632   1.24922    8.024
 4825.00    1.32106   1.23693    7.570
 4826.00    1.17975   1.22706    8.476
 4827.00    0.99535   1.22315   10.047
 4828.00    1.01933   1.22205    9.810
 4829.00    1.16585   1.21920    8.577
 4830.00    1.20732   1.21501    8.283
 4831.00    1.09916   1.21269    9.098
 4832.00    1.10161   1.21261    9.078
 4833.00    1.21767   1.21152    8.212
 4834.00    1.21924   1.20931    8.202
 4835.00    1.10342   1.20981    9.063
 4836.00    1.04165   1.21245    9.600
 4837.00    1.11068   1.21317    9.003
 4838.00    1.14687   1.21102    8.719
 4839.00    1.08497   1.20789    9.217
 4840.00    1.02802   1.20347    9.727
 4841.00    1.09556   1.19714    9.128
 4842.00    1.19875   1.19189    8.342
 4843.00    1.24063   1.19078    8.060
 4844.00    1.22970   1.19214    8.132
 4845.00    1.12304   1.19288    8.904
 4846.00    1.03883   1.19472    9.626
 4847.00    1.12647   1.19956    8.877
 4848.00    1.17368   1.20391    0.000
 4849.00    1.14978   1.20393    0.000
 4850.00    1.21258   1.19998    0.000
 4851.00    1.29061   1.19529    0.000
 4852.00    1.25539   1.19044    0.000
 4853.00    1.10142   1.18199    0.000
 4854.00    0.97520   1.16978    0.000
 4855.00    0.97314   1.15558    0.000
 4856.00    1.06436   1.13732    0.000
 4857.00    1.12566   1.11353    0.000
 4858.00    1.05885   1.08799    0.000
 4859.00    0.92629   1.06467    0.000
 4860.00    0.89334   1.04270    0.000
 4861.00    0.95084   1.02049    0.000
 4862.00    1.02835   1.00062    0.000
 4863.00    1.08323   0.98973    0.000
 4864.00    1.06890   0.99324    0.000
 4865.00    1.02748   1.00802    0.000
 4866.00    1.03722   1.02602    0.000
 4867.00    1.07205   1.04441    0.000
 4868.00    1.06385   1.06132    0.000
 4869.00    1.02588   1.07341    0.000
 4870.00    1.06292   1.08021    0.000
 4871.00    1.09016   1.08328    0.000
 4872.00    1.02465   1.08228    0.000
 4873.00    0.97527   1.07848    0.000
 4874.00    0.97876   1.07977    0.000
 4875.00    1.01215   1.09052    9.880
 4876.00    1.06785   1.10611    9.365
 4877.00    1.13443   1.12185    8.815
 4878.00    1.12960   1.13764    8.853
 4879.00    1.02944   1.15335    9.714
 4880.00    1.06637   1.16701    9.378
 4881.00    1.20102   1.17741    8.326
 4882.00    1.19962   1.18065    8.336
 4883.00    1.14681   1.17490    8.720
 4884.00    1.17826   1.16589    8.487
 4885.00    1.23941   1.15775    8.068
 4886.00    1.13868   1.14761    8.782
 4887.00    1.02574   1.13304    9.749
 4888.00    1.03912   1.11806    9.624
 4889.00    1.00129   1.10908    9.987
 4890.00    0.98830   1.10758   10.118
 4891.00    1.06890   1.11087    9.355
 4892.00    1.10849   1.11763    9.021
 4893.00    1.12559   1.13057    8.884
 4894.00    1.17112   1.15487    8.539
 4895.00    1.20908   1.18683    8.271
 4896.00    1.18453   1.21693    8.442
 4897.00    1.13293   1.24048    8.827
 4898.00    1.12936   1.25728    8.855
 4899.00    1.15040   1.26843    8.693
 4900.00    1.15255   1.27222    8.676
 4901.00    1.13139   1.26737    8.839
 4902.00    1.12588   1.25916    8.882
 4903.00    1.17216   1.25356    8.531
 4904.00    1.22512   1.24932    8.162
 4905.00    1.18211   1.24358    8.459
 4906.00    1.10495   1.23868    9.050
 4907.00    1.12291   1.23667    8.905
 4908.00    1.23224   1.23462    8.115
 4909.00    1.22284   1.22845    8.178
 4910.00    1.10239   1.21933    9.071
 4911.00    1.09708   1.21074    9.115
 4912.00    1.14521   1.20463    8.732
 4913.00    1.18746   1.20259    8.421
 4914.00    1.26510   1.20312    7.905
 4915.00    1.33480   1.20217    7.492
 4916.00    1.30798   1.19693    7.645
 4917.00    1.19600   1.18717    8.361
 4918.00    1.15760   1.17219    8.639
 4919.00    1.18309   1.15175    8.452
 4920.00    1.14788   1.12772    8.712
 4921.00    1.03439   1.10498    9.668
 4922.00    1.00221   1.09021    9.978
 4923.00    1.07652   1.08877    9.289
 4924.00    1.05742   1.10029    9.457
 4925.00    0.94719   1.11798   10.558
 4926.00    0.92616   1.13830   10.797
 4927.00    1.09682   1.16323    9.117
 4928.00    1.25474   1.19183    7.970
 4929.00    1.28090   1.21721    7.807
 4930.00    1.27408   1.23467    7.849
 4931.00    1.32022   1.24489    7.574
 4932.00    1.32234   1.24892    7.562
 4933.00    1.23838   1.24739    8.075
 4934.00    1.28501   1.23854    7.782
 4935.00    1.33815   1.22123    7.473
 4936.00    1.21213   1.20269    8.250
 4937.00    1.09385   1.18986    9.142
 4938.00    1.16832   1.18041    8.559
 4939.00    1.28670   1.17110    7.772
 4940.00    1.14560   1.16533    0.000
 4941.00    1.01626   1.16992    0.000
 4942.00    1.13365   1.18526    0.000
 4943.00    1.30550   1.20375    0.000
 4944.00    1.31189   1.22052    0.000
 4945.00    1.20937   1.23781    0.000
 4946.00    1.18860   1.25492    0.000
 4947.00    1.20788   1.26733    0.000
 4948.00    1.24278   1.27563    0.000
 4949.00    1.30433   1.28335    0.000
 4950.00    1.30119   1.28874    0.000
 4951.00    1.17457   1.28917    0.000
 4952.00    1.04977   1.28597    0.000
 4953.00    1.14731   1.27973    0.000
 4954.00    1.28915   1.26628    0.000
 4955.00    1.26266   1.24491    0.000
 4956.00    1.17206   1.22309    0.000
 4957.00    1.15423   1.20520    0.000
 4958.00    1.20235   1.18741    0.000
 4959.00    1.21156   1.16928    0.000
 4960.00    1.18771   1.16294    0.000
 4961.00    1.18176   1.17281    0.000
 4962.00    1.22399   1.18558    0.000
 4963.00    1.30874   1.19245    0.000
 4964.00    1.33214   1.19725    0.000
 4965.00    1.24388   1.20300    0.000
 4966.00    1.19510   1.20416    0.000
 4967.00    1.21051   1.19811    0.000
 4968.00    1.21400   1.19165    0.000
 4969.00    1.19260   1.18987    0.000
 4970.00    1.14483   1.19135    0.000
 4971.00    1.07978   1.19539    0.000
 4972.00    1.05626   1.20235    0.000
 4973.00    1.18975   1.21166    0.000
 4974.00    1.36889   1.22088    0.000
 4975.00    1.33001   1.22653    0.000
 4976.00    1.17885   1.22731    0.000
 4977.00    1.14756   1.22275    0.000
 4978.00    1.27249   1.21289    0.000
 4979.00    1.31681   1.19718    0.000
 4980.00    1.19062   1.17539    0.000
 4981.00    1.07789   1.15263    0.000
 4982.00    1.17862   1.13298    0.000
 4983.00    1.25121   1.11479    0.000
 4984.00    1.11302   1.09872    0.000
 4985.00    1.09018   1.09127    0.000
 4986.00    1.15230   1.09474    0.000
 4987.00    1.11930   1.10399    0.000
 4988.00    1.05929   1.11630    0.000
 4989.00    1.08426   1.13215    0.000
 4990.00    1.16567   1.14808    0.000
 4991.00    1.18789   1.15983    0.000
 4992.00    1.19709   1.16739    0.000
 4993.00    1.17936   1.17329    0.000
 4994.00    1.07833   1.17884    0.000
 4995.00    1.04533   1.18071    0.000
 4996.00    1.14208   1.17855    0.000
 4997.00    1.21966   1.17577    0.000
 4998.00    1.10917   1.17116    0.000
 4999.00    1.02994   1.16270    0.000
 5000.00    1.19131   1.15114    0.000
 5001.00    1.34332   1.13703    0.000
 5002.00    1.33150   1.12206    0.000
 5003.00    1.19872   1.10774    0.000
 5004.00    1.07083   1.09510    0.000
 5005.00    1.09130   1.08610    0.000
 5006.00    1.21226   1.08065    0.000
 5007.00    1.25494   1.07605    0.000
 5008.00    1.28321   1.07338    0.000
 5009.00    1.30027   1.07617    0.000
 5010.00    1.22143   1.08142    0.000
 5011.00    1.17716   1.08209    0.000
 5012.00    1.21493   1.07806    0.000
 5013.00    1.22634   1.07299    0.000
 5014.00    1.13690   1.06620    0.000
 5015.00    1.03005   1.05750    0.000
 5016.00    0.98819   1.05025    0.000
 5017.00    0.96167   1.04893    0.000
 5018.00    1.04553   1.05198    0.000
 5019.00    1.21977   1.05443    0.000
 5020.00    1.21905   1.05753    0.000
 5021.00    1.05888   1.06567    0.000
 5022.00    0.97383   1.07592    0.000
 5023.00    1.09820   1.08305    0.000
 5024.00    1.21897   1.08789    0.000
 5025.00    1.19358   1.09510    0.000
 5026.00    1.11528   1.10503    0.000
 5027.00    1.06870   1.11420    0.000
 5028.00    1.07979   1.12191    0.000
 5029.00    1.09784   1.12884    9.109
 5030.00    1.03952   1.13923    9.620
 5031.00    1.03174   1.15338    9.692
 5032.00    1.18580   1.16433    8.433
 5033.00    1.31646   1.16950    7.596
 5034.00    1.27683   1.17241    7.832
 5035.00    1.14519   1.17334    8.732
 5036.00    1.11605   1.16592    8.960
 5037.00    1.11743   1.14744    8.949
 5038.00    1.07753   1.12478    9.280
 5039.00    1.08867   1.10595    9.186
 5040.00    1.13159   1.08987    8.837
 5041.00    1.11610   1.07486    8.960
 5042.00    1.02949   1.06464    9.714
 5043.00    1.01448   1.06524    9.857
 5044.00    1.08793   1.07981    9.192
 5045.00    1.14029   1.10038    8.770
 5046.00    1.15676   1.11765    8.645
 5047.00    1.18705   1.13275    8.424
 5048.00    1.23651   1.14656    8.087
 5049.00    1.23188   1.15249    8.118
 5050.00    1.20855   1.14881    8.274
 5051.00    1.20353   1.14378    8.309
 5052.00    1.15712   1.14279    8.642
 5053.00    1.09873   1.14372    9.101
 5054.00    1.09275   1.14669    9.151
 5055.00    1.14815   1.15563    8.710
 5056.00    1.22100   1.16963    8.190
 5057.00    1.23824   1.18377    8.076
 5058.00    1.19194   1.19572    8.390
 5059.00    1.22326   1.20682    8.175
 5060.00    1.33561   1.21610    7.487
 5061.00    1.37346   1.21981    7.281
 5062.00    1.27498   1.21730    7.843
 5063.00    1.21960   1.21161    8.199
 5064.00    1.30933   1.20354    7.637
 5065.00    1.30849   1.19032    7.642
 5066.00    1.22553   1.17200    8.160
 5067.00    1.17671   1.15656    8.498
 5068.00    1.11819   1.14891    8.943
 5069.00    1.07887   1.14214    9.269
 5070.00    1.06962   1.13407    9.349
 5071.00    1.03548   1.13215    9.657
 5072.00    1.03155   1.13659    9.694
 5073.00    1.08889   1.13734    9.184
 5074.00    1.14187   1.13375    8.758
 5075.00    1.13600   1.13373    8.803
 5076.00    1.13373   1.13365    8.820
 5077.00    1.18721   1.12504    8.423
 5078.00    1.16603   1.11301    8.576
 5079.00    1.10245   1.10502    9.071
 5080.00    1.10961   1.09565    9.012
 5081.00    1.12603   1.08053    8.881
 5082.00    1.10228   1.07055    9.072
 5083.00    1.10872   1.07218    9.019
 5084.00    1.23031   1.07777    8.128
 5085.00    1.26578   1.08298    7.900
 5086.00    1.19143   1.09362    8.393
 5087.00    1.24453   1.11060    8.035
 5088.00    1.19870   1.12662    8.342
 5089.00    1.09380   1.13891    9.142
 5090.00    1.25155   1.15103    7.990
 5091.00    1.32593   1.16346    7.542
 5092.00    1.17444   1.17199    8.515
 5093.00    1.05793   1.17566    9.452
 5094.00    1.05356   1.17734    9.492
 5095.00    1.13595   1.17623    8.803
 5096.00    1.21970   1.16855    8.199
 5097.00    1.18500   1.15576    8.439
 5098.00    1.11502   1.14341    8.968
 5099.00    1.11074   1.13238    9.003
 5100.00    1.09264   1.12078    9.152
 5101.00    1.03604   1.11148    9.652
 5102.00    1.01605   1.10974    9.842
 5103.00    1.09073   1.11256    9.168
 5104.00    1.13939   1.11366    8.777
 5105.00    1.10640   1.11219    9.038
 5106.00    1.07451   1.11135    9.307
 5107.00    1.05820   1.11052    9.450
 5108.00    1.12633   1.10662    8.878
 5109.00    1.26306   1.10144    7.917
 5110.00    1.17942   1.09974    8.479
 5111.00    1.01869   1.10168    9.817
 5112.00    1.06773   1.10565    9.366
 5113.00    1.12779   1.11395    8.867
 5114.00    1.12185   1.12614    8.914
 5115.00    1.11562   1.13882    8.964
 5116.00    1.11136   1.15104    8.998
 5117.00    1.17476   1.16198    8.512
 5118.00    1.28588   1.16936    7.777
 5119.00    1.31105   1.17240    7.627
 5120.00    1.29339   1.17003    7.732
 5121.00    1.23446   1.16064    8.101
 5122.00    1.09711   1.14594    9.115
 5123.00    1.10158   1.12952    9.078
 5124.00    1.17142   1.11196    8.537
 5125.00    1.05497   1.09311    9.479
 5126.00    0.95868   1.07726   10.431
 5127.00    1.02631   1.06781    9.744
 5128.00    1.11988   1.06322    8.930
 5129.00    1.04378   1.06197    9.581
 5130.00    0.93274   1.06489   10.721
 5131.00    0.96918   1.07131   10.318
 5132.00    1.03907   1.08031    9.624
 5133.00    1.04933   1.09121    9.530
 5134.00    1.05477   1.10033    9.481
 5135.00    1.14981   1.10571    8.697
 5136.00    1.22093   1.10923    8.190
 5137.00    1.17241   1.11093    8.529
 5138.00    1.08584   1.10825    9.209
 5139.00    1.08584   1.10151    9.209
 5140.00    1.12424   1.09229    8.895
 5141.00    1.07264   1.08365    9.323
 5142.00    1.00380   1.07938    9.962
 5143.00    1.00893   1.07520    9.911
 5144.00    1.09143   1.06721    9.162
 5145.00    1.18296   1.06253    8.453
 5146.00    1.18117   1.06423    8.466
 5147.00    1.09648   1.06407    9.120
 5148.00    1.06821   1.05983    9.361
 5149.00    1.02281   1.05761    9.777
 5150.00    0.91225   1.05905   10.962
 5151.00    0.88935   1.06046   11.244
 5152.00    0.98389   1.06031   10.164
 5153.00    1.12591   1.06164    8.882
 5154.00    1.21637   1.06712    8.221
 5155.00    1.13957   1.07555    8.775
 5156.00    0.97625   1.08493   10.243
 5157.00    0.94330   1.09606   10.601
 5158.00    1.07921   1.10914    9.266
 5159.00    1.20439   1.12067    8.303
 5160.00    1.16762   1.12618    8.564
 5161.00    1.09385   1.12554    9.142
 5162.00    1.11487   1.11934    8.970
 5163.00    1.19456   1.10353    8.371
 5164.00    1.17437   1.07583    8.515
 5165.00    1.06504   1.04127    9.389
 5166.00    0.97770   1.00377   10.228
 5167.00    0.93579   0.96383   10.686
 5168.00    0.83011   0.92396   12.047
 5169.00    0.77277   0.88754   12.940
 5170.00    0.97051   0.85927   10.304
 5171.00    1.07560   0.84442    9.297
 5172.00    0.98943   0.84169   10.107
 5173.00    0.96560   0.84301   10.356
 5174.00    0.91714   0.84950   10.903
 5175.00    0.84087   0.87031   11.892
 5176.00    0.85944   0.90231   11.636
 5177.00    0.92930   0.93085   10.761
 5178.00    0.94972   0.95195   10.529
 5179.00    0.91785   0.97070   10.895
 5180.00    0.94769   0.98243   10.552
 5181.00    1.02013   0.97899    9.803
 5182.00    1.02397   0.96603    9.766
 5183.00    0.92806   0.95308   10.775
 5184.00    0.87482   0.93965   11.431
 5185.00    0.86344   0.92720   11.582
 5186.00    0.77195   0.92722   12.954
 5187.00    0.82960   0.94436   12.054
 5188.00    1.07374   0.96778    9.313
 5189.00    1.21311   0.98783    8.243
 5190.00    1.11487   1.00662    0.000
 5191.00    0.96108   1.02801    0.000
 5192.00    0.95240   1.04417    0.000
 5193.00    0.96828   1.04654    0.000
 5194.00    1.00134   1.04490    0.000
 5195.00    1.11665   1.05094    0.000
 5196.00    1.20994   1.05896    0.000
 5197.00    1.14259   1.06367    0.000
 5198.00    0.98755   1.07205    0.000
 5199.00    0.98858   1.08500    0.000
 5200.00    1.05465   1.09526    0.000
 5201.00    1.06336   1.10062    0.000
 5202.00    1.08069   1.10034    0.000
 5203.00    1.10763   1.09230    0.000
 5204.00    1.10064   1.07907    0.000
 5205.00    1.07836   1.06275    0.000
 5206.00    1.14764   1.04091    0.000
 5207.00    1.19646   1.01884    0.000
 5208.00    1.09151   1.00578    0.000
 5209.00    1.04238   1.00049    0.000
 5210.00    1.07085   0.99964    0.000
 5211.00    1.05040   1.00840    9.520
 5212.00    1.01325   1.02699    9.869
 5213.00    1.04910   1.04762    9.532
 5214.00    1.17628   1.06798    8.501
 5215.00    1.28363   1.08840    7.790
 5216.00    1.20980   1.10585    8.266
 5217.00    0.99594   1.11806   10.041
 5218.00    0.89302   1.12766   11.198
 5219.00    0.98624   1.13661   10.140
 5220.00    1.10514   1.14319    9.049
 5221.00    1.07934   1.14513    9.265
 5222.00    1.08512   1.14268    9.216
 5223.00    1.16930   1.13641    8.552
 5224.00    1.17008   1.12411    8.546
 5225.00    1.05405   1.10645    9.487
 5226.00    1.04769   1.08946    9.545
 5227.00    1.20984   1.07516    8.266
 5228.00    1.18096   1.06301    8.468
 5229.00    1.07227   1.05874    9.326
 5230.00    1.12078   1.06503    8.922
 5231.00    1.18437   1.07483    8.443
 5232.00    1.15181   1.08565    8.682
 5233.00    1.13215   1.09988    8.833
 5234.00    1.25848   1.11382    7.946
 5235.00    1.27533   1.12521    7.841
 5236.00    1.16453   1.13722    8.587
 5237.00    1.18732   1.14982    8.422
 5238.00    1.21220   1.16230    8.249
 5239.00    1.13674   1.17506    8.797
 5240.00    1.07692   1.18593    9.286
 5241.00    1.14692   1.19374    8.719
 5242.00    1.22962   1.20048    8.133
 5243.00    1.20816   1.20476    8.277
 5244.00    1.21584   1.20212    8.225
 5245.00    1.22709   1.19486    8.149
 5246.00    1.17204   1.18893    8.532
 5247.00    1.14322   1.18054    8.747
 5248.00    1.21072   1.16453    8.260
 5249.00    1.28796   1.14886    7.764
 5250.00    1.22373   1.14084    8.172
 5251.00    1.10276   1.13400    9.068
 5252.00    1.06336   1.12497    9.404
 5253.00    1.13315   1.12216    8.825
 5254.00    1.24701   1.12857    8.019
 5255.00    1.29425   1.13677    7.726
 5256.00    1.21835   1.14322    8.208
 5257.00    1.10397   1.15144    9.058
 5258.00    1.06957   1.16188    9.350
 5259.00    1.15129   1.16775    8.686
 5260.00    1.25673   1.16438    7.957
 5261.00    1.27118   1.15397    7.867
 5262.00    1.20501   1.13725    8.299
 5263.00    1.18339   1.11158    8.450
 5264.00    1.15471   1.07908    8.660
 5265.00    1.06446   1.04796    9.394
 5266.00    0.98958   1.01944   10.105
 5267.00    0.95509   0.98971   10.470
 5268.00    0.91075   0.96689   10.980
 5269.00    0.84279   0.96015   11.865
 5270.00    0.88767   0.95895   11.265
 5271.00    1.03293   0.95696    9.681
 5272.00    1.12198   0.96768    8.913
 5273.00    1.11926   0.99193    8.934
 5274.00    1.06414   1.01575    9.397
 5275.00    1.04315   1.03953    9.586
 5276.00    1.13184   1.06847    8.835
 5277.00    1.17926   1.09570    8.480
 5278.00    1.13560   1.11774    8.806
 5279.00    1.21872   1.13734    8.205
 5280.00    1.28138   1.15181    7.804
 5281.00    1.16896   1.15886    8.555
 5282.00    1.05604   1.16228    9.469
 5283.00    1.11182   1.16615    8.994
 5284.00    1.23097   1.17026    8.124
 5285.00    1.19082   1.17417    8.398
 5286.00    1.11385   1.18163    8.978
 5287.00    1.17260   1.19578    8.528
 5288.00    1.33928   1.21233    7.467
 5289.00    1.42144   1.22622    7.035
 5290.00    1.39818   1.23784    7.152
 5291.00    1.37890   1.24747   -2.000
 5292.00    1.37932   1.25242   -2.000
 5293.00    1.38607   1.25039   -2.000
 5294.00    1.29376   1.24146   -2.000
 5295.00    1.09054   1.22726   -2.000
 5296.00    1.47033   1.21060   -2.000
 5297.00    2.21373   1.19390   -2.000
 5298.00    2.05230   1.17631   -2.000
 5299.00    1.58643   1.15955   -2.000
 5300.00    1.41118   1.15070   -2.000
 5301.00    1.17986   1.15219   -2.000
 5302.00    1.15020   1.15837   -2.000
 5303.00    1.31809   1.16784   -2.000
 5304.00    1.34388   1.18395   -2.000
 5305.00    1.36083   1.20362    7.348
 5306.00    1.34271   1.22168    7.448
 5307.00    1.21416   1.23769    8.236
 5308.00    1.23645   1.25114    8.088
 5309.00    1.27473   1.26108    7.845
 5310.00    1.17954   1.26815    8.478
 5311.00    1.22782   1.27222    8.144
 5312.00    1.35307   1.27282    7.391
 5313.00    1.37640   1.27104    7.265
 5314.00    1.34265   1.26707    7.448
 5315.00    1.30406   1.26126    7.668
 5316.00    1.28336   1.25512    7.792
 5317.00    1.29686   1.24792    7.711
 5318.00    1.34501   1.23930    7.435
 5319.00    1.32216   1.23172    7.563
 5320.00    1.18322   1.22512    8.451
 5321.00    1.17143   1.21555    8.537
 5322.00    1.31342   1.20277    7.614
 5323.00    1.39221   1.19032    7.183
 5324.00    1.28870   1.17652    7.760
 5325.00    1.10238   1.15577    9.071
 5326.00    1.07008   1.13097    9.345
 5327.00    1.30150   1.11243    7.683
 5328.00    1.42850   1.09867    7.000
 5329.00    1.23094   1.08331    8.124
 5330.00    1.03226   1.07409    9.687
 5331.00    1.07002   1.08038    9.346
 5332.00    1.21961   1.09588    8.199
 5333.00    1.22172   1.11217    8.185
 5334.00    1.19590   1.13133    8.362
 5335.00    1.23842   1.15423    8.075
 5336.00    1.24759   1.17504    8.015
 5337.00    1.17534   1.18731    8.508
 5338.00    1.19443   1.19108    8.372
 5339.00    1.32313   1.19245    7.558
 5340.00    1.17145   1.19236    8.536
 5341.00    1.03447   1.18646    9.667
 5342.00    1.20964   1.17823    8.267
 5343.00    1.22965   1.17501    8.132
 5344.00    1.19444   1.17524    8.372
 5345.00    1.31231   1.17520    7.620
 5346.00    1.35012   1.17601    7.407
 5347.00    1.29818   1.17831    7.703
 5348.00    1.29740   1.18211    7.708
 5349.00    1.36722   1.18764    7.314
 5350.00    1.32401   1.19244    7.553
 5351.00    1.17380   1.19844    8.519
 5352.00    1.12168   1.21049    8.915
 5353.00    1.19996   1.22549    8.334
 5354.00    1.34028   1.23902    7.461
 5355.00    1.41823   1.25328    7.051
 5356.00    1.31525   1.26923    7.603
 5357.00    1.23623   1.28227    8.089
 5358.00    1.35169   1.28991    7.398
 5359.00    1.43409   1.29378    6.973
 5360.00    1.38120   1.29395    7.240
 5361.00    1.28552   1.28981    7.779
 5362.00    1.24773   1.28114    8.015
 5363.00    1.21740   1.26848    8.214
 5364.00    1.20214   1.25455    8.318
 5365.00    1.28356   1.24012    7.791
 5366.00    1.32657   1.22375    7.538
 5367.00    1.28476   1.20676    7.784
 5368.00    1.25405   1.19085    7.974
 5369.00    1.20836   1.17526    8.276
 5370.00    1.12599   1.16242    8.881
 5371.00    1.08810   1.15417    9.190
 5372.00    1.20090   1.14874    8.327
 5373.00    1.28256   1.14935    7.797
 5374.00    1.19268   1.15842    8.384
 5375.00    1.16739   1.17144    8.566
 5376.00    1.27442   1.18601    7.847
 5377.00    1.33818   1.20287    7.473
 5378.00    1.21988   1.21800    8.198
 5379.00    1.16122   1.22846    8.612
 5380.00    1.29444   1.23602    7.725
 5381.00    1.41372   1.23921    7.074
 5382.00    1.41898   1.23851    7.047
 5383.00    1.35882   1.23757    7.359
 5384.00    1.30521   1.23508    7.662
 5385.00    1.24266   1.23048    8.047
 5386.00    1.22482   1.22702    8.164
 5387.00    1.25270   1.22339    7.983
 5388.00    1.12558   1.21678    8.884
 5389.00    0.97592   1.20970   10.247
 5390.00    1.03692   1.20224    9.644
 5391.00    1.20185   1.19164    8.321
 5392.00    1.32800   1.17985    7.530
 5393.00    1.31983   1.16961    7.577
 5394.00    1.16988   1.15860    8.548
 5395.00    1.10472   1.14629    9.052
 5396.00    1.16846   1.13819    8.558
 5397.00    1.13580   1.13382    8.804
 5398.00    1.04631   1.12752    9.557
 5399.00    1.06333   1.12303   -2.000
 5400.00    1.20790   1.12576   -2.000
 5401.00    1.27322   1.12736   -2.000
 5402.00    1.19872   1.12319   -2.000
 5403.00    1.08980   1.12061   -2.000
 5404.00    1.07028   1.11842   -2.000
 5405.00    1.59249   1.11099   -2.000
 5406.00    1.77627   1.10144   -2.000
 5407.00   -0.23014   1.09425   -2.000
 5408.00   -0.39488   1.09024   -2.000
 5409.00    2.35360   1.09126   -2.000
 5410.00    2.00787   1.09692   -2.000
 5411.00    1.31185   1.10579   -2.000
 5412.00    1.69856   1.11983   -2.000
 5413.00   -0.72427   1.13817   -2.000
 5414.00   -1.09338   1.15610   -2.000
 5415.00    1.44424   1.17226   -2.000
 5416.00    1.56694   1.18807   -2.000
 5417.00    0.90200   1.20228   -2.000
 5418.00    1.05703   1.21234   -2.000
 5419.00    1.13777   1.21814   -2.000
 5420.00    1.21368   1.22158   -2.000
 5421.00    1.29053   1.22223   -2.000
 5422.00    1.18586   1.21909   -2.000
 5423.00    1.08567   1.21584    9.211
 5424.00    1.16801   1.21335    8.562
 5425.00    1.30831   1.20844    7.643
 5426.00    1.21708   1.20299    8.216
 5427.00    1.08123   1.19839    9.249
 5428.00    1.09535   1.19268    9.129
 5429.00    1.13830   1.18609    8.785
 5430.00    1.19176   1.17702    8.391
 5431.00    1.23749   1.16535    8.081
 5432.00    1.19050   1.15722    8.400
 5433.00    1.04855   1.15142    9.537
 5434.00    0.99573   1.14327   10.043
 5435.00    1.13984   1.14039    8.773
 5436.00    1.21484   1.14652    8.232
 5437.00    1.15823   1.15508    8.634
 5438.00    1.13994   1.16613    8.772
 5439.00    1.21535   1.18179    8.228
 5440.00    1.21314   1.19927    8.243
 5441.00    1.12393   1.21463    8.897
 5442.00    1.20001   1.22595    8.333
 5443.00    1.20723   1.23224    8.283
 5444.00    1.06919   1.23160    9.353
 5445.00    1.13737   1.22473    8.792
 5446.00    1.28855   1.21500    7.761
 5447.00    1.33311   1.20337    7.501
 5448.00    1.30119   1.19101    7.685
 5449.00    1.19957   1.18233    8.336
 5450.00    1.06116   1.17845    9.424
 5451.00    1.00671   1.17566    9.933
 5452.00    1.16080   1.17386    8.615
 5453.00    1.29813   1.17371    7.703
 5454.00    1.23230   1.17291    8.115
 5455.00    1.22074   1.17132    8.192
 5456.00    1.14421   1.16851    8.740
 5457.00    0.95279   1.16542   10.495
 5458.00    1.03053   1.16583    9.704
 5459.00    1.15275   1.16917    8.675
 5460.00    1.10260   1.17093    9.069
 5461.00    1.12810   1.17264    8.864
 5462.00    1.22845   1.17683    8.140
 5463.00    1.27358   1.18016    7.852
 5464.00    1.21415   1.17953    8.236
 5465.00    1.09059   1.17835    9.169
 5466.00    1.06272   1.18081    9.410
 5467.00    1.18622   1.18235    8.430
 5468.00    1.20001   1.18071    8.333
 5469.00    1.13320   1.18198    8.825
 5470.00    1.16107   1.18399    8.613
 5471.00    1.16517   1.17955    8.582
 5472.00    1.10638   1.17319    9.038
 5473.00    1.08252   1.16906    9.238
 5474.00    1.15443   1.16040    8.662
 5475.00    1.19202   1.14767    8.389
 5476.00    1.11442   1.14013    8.973
 5477.00    1.04128   1.13490    9.604
 5478.00    1.07509   1.12585    9.302
 5479.00    1.16398   1.12139    8.591
 5480.00    1.18160   1.12494    8.463
 5481.00    1.16065   1.12732    8.616
 5482.00    1.19553   1.12936    8.364
 5483.00    1.26354   1.13773    7.914
 5484.00    1.18928   1.14803    8.408
 5485.00    1.09860   1.15443    9.103
 5486.00    1.16473   1.16052    8.586
 5487.00    1.18130   1.16886    8.465
 5488.00    1.13179   1.17381    8.836
 5489.00    1.11536   1.17609    8.966
 5490.00    1.10010   1.18032    9.090
 5491.00    1.14068   1.18234    8.767
 5492.00    1.26274   1.18116    7.919
 5493.00    1.34968   1.18309    7.409
 5494.00    1.29241   1.18587    7.737
 5495.00    1.19835   1.18442    8.345
 5496.00    1.25626   1.18449    7.960
 5497.00    1.32094   1.18737    7.570
 5498.00    1.26359   1.18625    7.914
 5499.00    1.16694   1.18327    8.569
 5500.00    1.18183   1.18367    8.461
 5501.00    1.30589   1.18301    7.658
 5502.00    1.36392   1.17824    7.332
 5503.00    1.21119   1.17419    8.256
 5504.00    1.07657   1.17128    9.289
 5505.00    1.17204   1.16685    8.532
 5506.00    1.28685   1.16276    7.771
 5507.00    1.21743   1.15918    8.214
 5508.00    1.06641   1.15573    9.377
 5509.00    1.10984   1.15444    9.010
 5510.00    1.23782   1.15285    8.079
 5511.00    1.30034   1.14887    7.690
 5512.00    1.34367   1.14674    7.442
 5513.00    1.37462   1.14606    7.275
 5514.00    1.30301   1.14409    7.675
 5515.00    1.13987   1.14446    8.773
 5516.00    1.16525   1.14886    8.582
 5517.00    1.28244   1.15490    7.798
 5518.00    1.24062   1.16289    8.060
 5519.00    1.21621   1.17344    8.222
 5520.00    1.30603   1.18452    7.657
 5521.00    1.35639   1.19348    7.373
 5522.00    1.19360   1.19978    8.378
 5523.00    1.04663   1.20380    9.554
 5524.00    1.13096   1.20441    8.842
 5525.00    1.27597   1.20113    7.837
 5526.00    1.25261   1.19496    7.983
 5527.00    1.16958   1.18797    8.550
 5528.00    1.26794   1.18169    7.887
 5529.00    1.24011   1.17507    8.064
 5530.00    1.07675   1.16952    9.287
 5531.00    1.10408   1.16866    9.057
 5532.00    1.18650   1.16974    8.428
 5533.00    1.20510   1.16995    8.298
 5534.00    1.19623   1.17313    8.360
 5535.00    1.14823   1.17846    8.709
 5536.00    1.07710   1.18124    9.284
 5537.00    1.03847   1.18381    9.630
 5538.00    1.07449   1.18872    9.307
 5539.00    1.15638   1.19295    8.648
 5540.00    1.19191   1.19597    8.390
 5541.00    1.15224   1.20019    8.679
 5542.00    1.24339   1.20457    8.043
 5543.00    1.32998   1.20748    7.519
 5544.00    1.10522   1.20925    9.048
 5545.00    1.11073   1.21099    9.003
 5546.00    1.38589   1.21377    7.216
 5547.00    1.36920   1.21581    7.304
 5548.00    1.20169   1.21717    8.322
 5549.00    1.18078   1.22088    8.469
 5550.00    1.32470   1.22506    7.549
 5551.00    1.41806   1.22656    7.052
 5552.00    1.38774   1.22748    7.206
 5553.00    1.33220   1.22847    7.506
 5554.00    1.35639   1.22692    7.373
 5555.00    1.48112   1.22313    6.752
 5556.00    1.54511   1.21952    6.472
 5557.00    1.35412   1.21622    7.385
 5558.00    1.15678   1.21197    8.645
 5559.00    1.21639   1.20759    8.221
 5560.00    1.41142   1.20410    7.085
 5561.00    1.38640   1.20022    7.213
 5562.00    1.17488   1.19561    8.512
 5563.00    1.12820   1.19082    8.864
 5564.00    1.23211   1.18503    8.116
 5565.00    1.31272   1.17949    7.618
 5566.00    1.29966   1.17525    7.694
 5567.00    1.28353   1.16963    7.791
 5568.00    1.25313   1.16471    7.980
 5569.00    1.19204   1.16400    8.389
 5570.00    1.21489   1.16243    8.231
 5571.00    1.26615   1.15966    7.898
 5572.00    1.23655   1.16225    8.087
 5573.00    1.14493   1.16585    8.734
 5574.00    1.06313   1.16579    9.406
 5575.00    1.09325   1.16967    9.147
 5576.00    1.26979   1.17669    7.875
 5577.00    1.39702   1.17909    7.158
 5578.00    1.31509   1.18213    7.604
 5579.00    1.14399   1.18804    8.741
 5580.00    1.22144   1.18935    8.187
 5581.00    1.40938   1.18819    7.095
 5582.00    1.34077   1.18742    7.458
 5583.00    1.16608   1.18214    8.576
 5584.00    1.15714   1.17304    8.642
 5585.00    1.30358   1.16296    7.671
 5586.00    1.30622   1.15010    7.656
 5587.00    1.20745   1.13553    8.282
 5588.00    1.19696   1.12226    8.354
 5589.00    1.23616   1.11091    8.090
 5590.00    1.15857   1.10267    8.631
 5591.00    1.05428   1.09888    9.485
 5592.00    1.13450   1.09909    8.814
 5593.00    1.05337   1.10292    9.493
 5594.00    0.93242   1.11015   10.725
 5595.00    1.20149   1.11824    8.323
 5596.00    1.30858   1.12493    7.642
 5597.00    1.14485   1.13173    8.735
 5598.00    1.11790   1.13720    8.945
 5599.00    1.12849   1.13794    8.861
 5600.00    1.08990   1.13746    9.175
 5601.00    1.03564   1.13833    9.656
 5602.00    0.94916   1.13808   10.536
 5603.00    0.90550   1.13898   11.044
 5604.00    0.98557   1.14452   10.146
 5605.00    1.14430   1.15327    8.739
 5606.00    1.24764   1.16405    8.015
 5607.00    1.23395   1.17676    8.104
 5608.00    1.19734   1.18992    8.352
 5609.00    1.26931   1.20148    7.878
 5610.00    1.33637   1.20950    7.483
 5611.00    1.21134   1.21379    8.255
 5612.00    1.11618   1.21382    8.959
 5613.00    1.14590   1.20819    8.727
 5614.00    1.16712   1.19936    8.568
 5615.00    1.14912   1.18932    8.702
 5616.00    1.11374   1.17652    8.979
 5617.00    1.05462   1.16407    9.482
 5618.00    0.96775   1.15630   10.333
 5619.00    1.04689   1.15052    9.552
 5620.00    1.25433   1.14584    7.972
 5621.00    1.21677   1.14547    8.218
 5622.00    1.16361   1.14660    8.594
 5623.00    1.30964   1.14655    7.636
 5624.00    1.39092   1.14769    7.189
 5625.00    1.26518   1.14876    7.904
 5626.00    1.07644   1.14900    9.290
 5627.00    1.01878   1.15194    9.816
 5628.00    0.99098   1.15676   10.091
 5629.00    1.04290   1.16137    9.589
 5630.00    1.25969   1.16843    7.938
 5631.00    1.33726   1.17696    7.478
 5632.00    1.22333   1.18273    8.174
 5633.00    1.13734   1.18659    8.792
 5634.00    1.16528   1.18923    8.582
 5635.00    1.15657   1.18806    8.646
 5636.00    1.10229   1.18399    9.072
 5637.00    1.23673   1.17938    8.086
 5638.00    1.31876   1.17352    7.583
 5639.00    1.24262   1.16693    8.048
 5640.00    1.29230   1.16226    7.738
 5641.00    1.28261   1.15913    7.797
 5642.00    1.12614   1.15617    8.880
 5643.00    1.03907   1.15530    9.624
 5644.00    0.99958   1.15688   10.004
 5645.00    0.98711   1.15859   10.131
 5646.00    1.04480   1.16095    9.571
 5647.00    1.11907   1.16484    8.936
 5648.00    1.21065   1.16855    8.260
 5649.00    1.30735   1.17166    7.649
 5650.00    1.28869   1.17466    7.760
 5651.00    1.20893   1.17696    8.272
 5652.00    1.20316   1.17782    8.311
 5653.00    1.25824   1.17683    7.948
 5654.00    1.20071   1.17486    8.328
 5655.00    1.06181   1.17122    9.418
 5656.00    1.08370   1.16391    9.228
 5657.00    1.12319   1.15617    8.903
 5658.00    1.09903   1.14993    9.099
 5659.00    1.11303   1.14122    8.984
 5660.00    1.01718   1.13293    9.831
 5661.00    0.93791   1.13054   10.662
 5662.00    1.11165   1.12965    8.996
 5663.00    1.26811   1.12865    7.886
 5664.00    1.30524   1.13255    7.661
 5665.00    1.29416   1.13906    7.727
 5666.00    1.15596   1.14425    8.651
 5667.00    1.06058   1.15030    9.429
 5668.00    1.16702   1.15724    8.569
 5669.00    1.29521   1.16296    7.721
 5670.00    1.27278   1.16867    7.857
 5671.00    1.19270   1.17510    8.384
 5672.00    1.26600   1.18127    7.899
 5673.00    1.29771   1.18753    7.706
 5674.00    1.20951   1.19453    8.268
 5675.00    1.19440   1.20104    8.372
 5676.00    1.20320   1.20560    8.311
 5677.00    1.23681   1.20872    8.085
 5678.00    1.31381   1.21078    7.611
 5679.00    1.19986   1.21006    8.334
 5680.00    0.98310   1.20624   10.172
 5681.00    0.97578   1.20162   10.248
 5682.00    1.20260   1.19646    8.315
 5683.00    1.39727   1.18943    7.157
 5684.00    1.35712   1.18225    7.369
 5685.00    1.21071   1.17697    8.260
 5686.00    1.16788   1.17255    8.562
 5687.00    1.27860   1.16889    7.821
 5688.00    1.38870   1.16769    7.201
 5689.00    1.37221   1.16870    7.288
 5690.00    1.33595   1.17121    7.485
 5691.00    1.42372   1.17556    7.024
 5692.00    1.36727   1.18079    7.314
 5693.00    1.12641   1.18599    8.878
 5694.00    1.00256   1.19116    9.974
 5695.00    1.10173   1.19457    9.077
 5696.00    1.19317   1.19495    8.381
 5697.00    1.14345   1.19365    8.746
 5698.00    1.23767   1.19046    8.080
 5699.00    1.27144   1.18381    7.865
 5700.00    1.12270   1.17587    8.907
 5701.00    1.25843   1.16860    7.946
 5702.00    1.37732   1.16032    7.260
 5703.00    1.25481   1.15165    7.969
 5704.00    1.31829   1.14445    7.586
 5705.00    1.38418   1.13796    7.225
 5706.00    1.24651   1.13092    8.022
 5707.00    1.13595   1.12352    8.803
 5708.00    1.23760   1.11760   -2.000
 5709.00    1.38885   1.11266   -2.000
 5710.00    1.22658   1.10742   -2.000
 5711.00    0.74960   1.10610   -2.000
 5712.00    0.84890   1.10907   -2.000
 5713.00    1.67936   1.11298   -2.000
 5714.00    1.48944   1.12150   -2.000
 5715.00    0.94183   1.13427   -2.000
 5716.00    0.98470   1.14634   -2.000
 5717.00    0.35982   1.15994   -2.000
 5718.00    0.43903   1.17469   -2.000
 5719.00    1.83914   1.18658   -2.000
 5720.00    2.18265   1.19762   -2.000
 5721.00    1.45124   1.20787   -2.000
 5722.00    0.86753   1.21483   -2.000
 5723.00    0.90227   1.22039   -2.000
 5724.00    1.23984   1.22465   -2.000
 5725.00    1.37459   1.22556   -2.000
 5726.00    1.20352   1.22499   -2.000
 5727.00    1.18833   1.22392    8.415
 5728.00    1.33525   1.22073    7.489
 5729.00    1.31718   1.21679    7.592
 5730.00    1.23325   1.21436    8.109
 5731.00    1.21911   1.21240    8.203
 5732.00    1.30808   1.21031    7.645
 5733.00    1.44591   1.21005    6.916
 5734.00    1.37820   1.21156    7.256
 5735.00    1.18906   1.21275    8.410
 5736.00    1.30130   1.21406    7.685
 5737.00    1.34193   1.21621    7.452
 5738.00    1.18964   1.21752    8.406
 5739.00    1.30605   1.21793    7.657
 5740.00    1.45779   1.21829    0.000
 5741.00    1.31622   1.21799    0.000
 5742.00    1.06049   1.21745    0.000
 5743.00    1.20285   1.21715    0.000
 5744.00    1.41263   1.21659    0.000
 5745.00    1.20558   1.21613    0.000
 5746.00    1.19599   1.21557    0.000
 5747.00    1.35671   1.21455    0.000
 5748.00    1.27558   1.21314    0.000
 5749.00    1.14847   1.21058    0.000
 5750.00    1.16493   1.20745    0.000
 5751.00    1.27157   1.20436    0.000
 5752.00    1.30894   1.20017    0.000
 5753.00    1.30483   1.19626    0.000
 5754.00    1.31806   1.19378    0.000
 5755.00    1.31857   1.19143    0.000
 5756.00    1.30789   1.19034    0.000
 5757.00    1.31362   1.19113    0.000
 5758.00    1.31918   1.19163    0.000
 5759.00    1.23881   1.19242    0.000
 5760.00    1.17120   1.19348    0.000
 5761.00    1.21855   1.19304    0.000
 5762.00    1.20910   1.19285    0.000
 5763.00    1.26195   1.19355    0.000
 5764.00    1.40779   1.19413    0.000
 5765.00    1.26055   1.19709    0.000
 5766.00    1.15563   1.20229    0.000
 5767.00    1.29536   1.20718    0.000
 5768.00    1.19558   1.21314    0.000
 5769.00    1.16014   1.21930    0.000
 5770.00    1.29349   1.22270    0.000
 5771.00    1.12764   1.22472    0.000
 5772.00    0.99149   1.22559    0.000
 5773.00    1.16961   1.22363    0.000
 5774.00    1.41496   1.22085    0.000
 5775.00    1.45442   1.21765    0.000
 5776.00    1.29960   1.21241    0.000
 5777.00    1.15263   1.20686    0.000
 5778.00    1.09971   1.20054    0.000
 5779.00    1.07448   1.19148    0.000
 5780.00    1.10647   1.18147    0.000
 5781.00    1.33170   1.17095    0.000
 5782.00    1.24696   1.15880    0.000
 5783.00    0.83771   1.14723    0.000
 5784.00    0.97005   1.13855    0.000
 5785.00    1.15570   1.13228    0.000
 5786.00    0.95684   1.12851    0.000
 5787.00    0.90931   1.12959    0.000
 5788.00    1.07156   1.13466    0.000
 5789.00    1.21112   1.14060    0.000
 5790.00    1.20557   1.14913    0.000
 5791.00    1.10992   1.15964    0.000
 5792.00    1.07220   1.16821    0.000
 5793.00    1.15914   1.17699    0.000
 5794.00    1.23474   1.18616    0.000
 5795.00    1.19081   1.19265    0.000
 5796.00    1.08837   1.19854    0.000
 5797.00    1.11232   1.20483    0.000
 5798.00    1.29090   1.20935    0.000
 5799.00    1.35161   1.21281    0.000
 5800.00    1.03952   1.21706    0.000
 5801.00    0.91927   1.22074    0.000
 5802.00    1.24584   1.22235    0.000
 5803.00    1.44857   1.22401    0.000
 5804.00    1.35601   1.22524    0.000
 5805.00    1.16793   1.22390    0.000
 5806.00    1.10471   1.22225    0.000
 5807.00    1.18580   1.22105    0.000
 5808.00    1.30491   1.21899    0.000
 5809.00    1.34312   1.21769    0.000
 5810.00    1.26527   1.21746    0.000
 5811.00    1.19910   1.21727    0.000
 5812.00    1.24474   1.21765    0.000
 5813.00    1.30153   1.21794    0.000
 5814.00    1.35494   1.21763    0.000
 5815.00    1.42420   1.21753    0.000
 5816.00    1.42991   1.21750    0.000
 5817.00    1.29981   1.21746    0.000
 5818.00    1.15333   1.21857    0.000
 5819.00    1.17810   1.22115    0.000
 5820.00    1.17476   1.22415    0.000
 5821.00    1.05713   1.22776    0.000
 5822.00    1.03734   1.23216    0.000
 5823.00    1.19223   1.23585    0.000
 5824.00    1.32202   1.23868    0.000
 5825.00    1.23274   1.24104    0.000
 5826.00    1.11757   1.24254    0.000
 5827.00    1.20424   1.24331    0.000
 5828.00    1.39408   1.24363    0.000
 5829.00    1.31505   1.24356    0.000
 5830.00    1.15033   1.24322    0.000
 5831.00    1.18688   1.24259    0.000
 5832.00    1.25417   1.24133    0.000
 5833.00    1.27137   1.23967    0.000
 5834.00    1.24777   1.23809    0.000
 5835.00    1.19221   1.23616    0.000
 5836.00    1.20793   1.23395    0.000
 5837.00    1.23180   1.23281    0.000
 5838.00    1.12468   1.23249    0.000
 5839.00    1.10084   1.23205    0.000
 5840.00    1.24674   1.23290    0.000
 5841.00    1.36234   1.23482    0.000
 5842.00    1.27416   1.23591    0.000
 5843.00    1.12211   1.23681    0.000
 5844.00    1.13755   1.23748    0.000
 5845.00    1.26901   1.23628    0.000
 5846.00    1.32611   1.23357    0.000
 5847.00    1.23422   1.22996    0.000
 5848.00    1.12975   1.22476    0.000
 5849.00    1.10479   1.21854    0.000
 5850.00    1.16330   1.21212    0.000
 5851.00    1.24292   1.20492    0.000
 5852.00    1.22301   1.19740    0.000
 5853.00    1.13429   1.19017    0.000
 5854.00    1.11912   1.18247    0.000
 5855.00    1.12205   1.17477    0.000
 5856.00    1.06175   1.16809    0.000
 5857.00    0.99997   1.16205    0.000
 5858.00    1.09077   1.15688    0.000
 5859.00    1.16910   1.15403    0.000
 5860.00    1.07986   1.15327    0.000
 5861.00    1.11141   1.15366    0.000
 5862.00    1.25217   1.15631    0.000
 5863.00    1.32973   1.16052    0.000
 5864.00    1.35423   1.16462    0.000
 5865.00    1.21919   1.16945    0.000
 5866.00    1.06769   1.17460    0.000
 5867.00    1.23951   1.17883    0.000
 5868.00    1.35300   1.18304    0.000
 5869.00    1.20287   1.18764    0.000
 5870.00    1.12721   1.19154    0.000
 5871.00    1.19414   1.19489    0.000
 5872.00    1.23665   1.19836    0.000
 5873.00    1.18005   1.20094    0.000
 5874.00    1.22782   1.20188    0.000
 5875.00    1.29957   1.20202    0.000
 5876.00    1.25085   1.20111    0.000
 5877.00    1.31076   1.19825    0.000
 5878.00    1.38160   1.19434    0.000
 5879.00    1.32029   1.18974    0.000
 5880.00    1.32485   1.18408    0.000
 5881.00    1.32140   1.17738    0.000
 5882.00    1.23790   1.16992    0.000
 5883.00    1.23589   1.16172    0.000
 5884.00    1.28573   1.15103    0.000
 5885.00    1.29151   1.13716    0.000
 5886.00    1.21643   1.12089    0.000
 5887.00    1.02903   1.10021    0.000
 5888.00    0.90695   1.07446    0.000
 5889.00    1.03166   1.04786    0.000
 5890.00    1.17247   1.02047    0.000
 5891.00    1.17813   0.99194    0.000
 5892.00    1.08916   0.97023    0.000
 5893.00    0.95931   0.95457    0.000
 5894.00    0.94795   0.94140    0.000
 5895.00    1.05473   0.93943    0.000
 5896.00    1.01685   0.94474    0.000
 5897.00    0.94895   0.95087    0.000
 5898.00    1.03223   0.96683    0.000
 5899.00    1.15567   0.98799    0.000
 5900.00    1.19067   1.00730    0.000
 5901.00    1.15901   1.03228    8.628
 5902.00    1.14793   1.05885    8.711
 5903.00    1.08262   1.08043    9.237
 5904.00    1.06594   1.10169    9.381
 5905.00    1.24126   1.12118    8.056
 5906.00    1.33227   1.13500    7.506
 5907.00    1.25482   1.14587    7.969
 5908.00    1.21834   1.15493    8.208
 5909.00    1.33943   1.16064    7.466
 5910.00    1.42630   1.16400    7.011
 5911.00    1.31274   1.16622    7.618
 5912.00    1.17055   1.16662    8.543
 5913.00    1.13109   1.16563    8.841
 5914.00    1.16427   1.16374    8.589
 5915.00    1.17880   1.16112    8.483
 5916.00    1.20566   1.15921    8.294
 5917.00    1.23679   1.15744    8.085
 5918.00    1.21166   1.15648    8.253
 5919.00    1.24493   1.15790    8.033
 5920.00    1.32202   1.15957    7.564
 5921.00    1.30370   1.16221    7.670
 5922.00    1.25055   1.16623    7.996
 5923.00    1.24161   1.16908    8.054
 5924.00    1.26085   1.17211    7.931
 5925.00    1.24331   1.17498    8.043
 5926.00    1.20440   1.17581    8.303
 5927.00    1.15803   1.17662    8.635
 5928.00    1.07263   1.17672    9.323
 5929.00    1.13923   1.17528    8.778
 5930.00    1.36145   1.17421    7.345
 5931.00    1.42292   1.17270    7.028
 5932.00    1.43515   1.17118    6.968
 5933.00    1.51480   1.17042    6.602
 5934.00    1.51177   1.16975    6.615
 5935.00    1.41731   1.16992    7.056
 5936.00    1.31347   1.17041    7.613
 5937.00    1.26170   1.17140    7.926
 5938.00    1.26554   1.17255    7.902
 5939.00    1.25994   1.17303    7.937
 5940.00    1.21947   1.17436    8.200
 5941.00    1.23733   1.17509    8.082
 5942.00    1.26675   1.17444    7.894
 5943.00    1.25967   1.17506    7.939
 5944.00    1.32528   1.17539    7.546
 5945.00    1.36417   1.17436    7.330
 5946.00    1.27904   1.17445    7.818
 5947.00    1.20082   1.17431    8.328
 5948.00    1.23149   1.17292    8.120
 5949.00    1.27750   1.17176    7.828
 5950.00    1.20827   1.17009    8.276
 5951.00    1.22473   1.16790    8.165
 5952.00    1.28626   1.16599    7.774
 5953.00    1.18810   1.16377    8.417
 5954.00    1.22082   1.16195    8.191
 5955.00    1.36314   1.16144    7.336
 5956.00    1.36118   1.16107    7.347
 5957.00    1.36156   1.16103    7.345
 5958.00    1.33987   1.16300    7.463
 5959.00    1.21349   1.16574    8.241
 5960.00    1.17084   1.16827    8.541
 5961.00    1.26949   1.17207    7.877
 5962.00    1.38229   1.17661    7.234
 5963.00    1.35834   1.18054    7.362
 5964.00    1.19899   1.18394    8.340
 5965.00    1.11624   1.18742    8.959
 5966.00    1.25781   1.19035    7.950
 5967.00    1.26673   1.19217    7.894
 5968.00    1.19164   1.19446    8.392
 5969.00    1.36129   1.19646    7.346
 5970.00    1.33020   1.19739    7.518
 5971.00    1.19841   1.19887    8.344
 5972.00    1.32220   1.19952    7.563
 5973.00    1.19609   1.19842    8.361
 5974.00    1.08150   1.19682    9.246
 5975.00    1.35958   1.19408    7.355
 5976.00    1.39438   1.18982    7.172
 5977.00    1.19671   1.18505    8.356
 5978.00    1.13611   1.18056    8.802
 5979.00    1.18063   1.17595    8.470
 5980.00    1.25984   1.17157    7.938
 5981.00    1.35842   1.16860    7.361
 5982.00    1.42086   1.16565    7.038
 5983.00    1.27490   1.16277    7.844
 5984.00    1.06830   1.16119    9.361
 5985.00    1.11473   1.15926    8.971
 5986.00    1.21515   1.15816    8.229
 5987.00    1.20119   1.15868    8.325
 5988.00    1.15796   1.15912    8.636
 5989.00    1.18079   1.16127    8.469
 5990.00    1.21956   1.16487    8.200
 5991.00    1.20592   1.16810    8.292
 5992.00    1.20020   1.17165    8.332
 5993.00    1.18649   1.17519    8.428
 5994.00    1.16527   1.17820    8.582
 5995.00    1.20696   1.17947    8.285
 5996.00    1.18662   1.17953    8.427
 5997.00    1.10825   1.17959    9.023
 5998.00    1.16749   1.17769    8.565
 5999.00    1.23987   1.17502    8.065
 6000.00    1.24947   1.17289    8.003
 6001.00    1.29593   1.16964    7.716
 6002.00    1.32250   1.16691    7.561
 6003.00    1.25410   1.16455    7.974
 6004.00    1.16120   1.16131    8.612
 6005.00    1.22405   1.15934    8.170
 6006.00    1.30340   1.15698    7.672
 6007.00    1.23955   1.15382    8.067
 6008.00    1.23991   1.15263    8.065
 6009.00    1.23211   1.15087    8.116
 6010.00    1.10848   1.14918    9.021
 6011.00    1.06899   1.14944    9.355
 6012.00    1.18973   1.14860    8.405
 6013.00    1.30883   1.14836    7.640
 6014.00    1.23959   1.14898    8.067
 6015.00    1.12634   1.14793    8.878
 6016.00    1.04271   1.14716    9.590
 6017.00    0.95052   1.14593   10.521
 6018.00    1.08316   1.14423    9.232
 6019.00    1.26095   1.14370    7.931
 6020.00    1.13056   1.14222    8.845
 6021.00    0.98293   1.14129   10.174
 6022.00    1.03633   1.14270    9.649
 6023.00    1.18100   1.14406    8.467
 6024.00    1.23227   1.14627    8.115
 6025.00    1.21325   1.15022    8.242
 6026.00    1.20788   1.15518    8.279
 6027.00    1.19635   1.16090    8.359
 6028.00    1.25325   1.16634    7.979
 6029.00    1.37186   1.17291    7.289
 6030.00    1.37652   1.17955    7.265
 6031.00    1.20238   1.18462    8.317
 6032.00    1.05228   1.18999    9.503
 6033.00    1.14329   1.19509    8.747
 6034.00    1.23514   1.19870    8.096
 6035.00    1.17378   1.20142    8.520
 6036.00    1.11426   1.20390    8.975
 6037.00    1.22020   1.20541    8.195
 6038.00    1.30416   1.20580    7.668
 6039.00    1.18288   1.20607    8.454
 6040.00    1.10329   1.20585    9.064
 6041.00    1.08499   1.20538    9.217
 6042.00    1.06385   1.20558    9.400
 6043.00    1.14951   1.20565    8.699
 6044.00    1.18955   1.20625    8.407
 6045.00    1.10931   1.20799    9.015
 6046.00    1.08850   1.20931    9.187
 6047.00    1.07165   1.21099    9.331
 6048.00    1.05976   1.21297    9.436
 6049.00    1.13404   1.21369    8.818
 6050.00    1.06364   1.21376    9.402
 6051.00    0.89998   1.21338   -1.000
 6052.00    0.91669   1.21152   -1.000
 6053.00    0.98781   1.20870   10.123
 6054.00    0.91128   1.20554   -1.000
 6055.00    0.77101   1.20186   -1.000
 6056.00    0.91312   1.19815   10.951
 6057.00    1.19124   1.19445    8.395
 6058.00    1.27025   1.19144    7.872
 6059.00    1.16109   1.18936    8.613
 6060.00    0.96486   1.18730   10.364
 6061.00    0.89223   1.18556   -1.000
 6062.00    1.10541   1.18435    9.046
 6063.00    1.23125   1.18310    8.122
 6064.00    1.14275   1.18162    8.751
 6065.00    1.15442   1.18122    8.662
 6066.00    1.20988   1.18104    8.265
 6067.00    1.11005   1.18220    9.009
 6068.00    0.90206   1.18595   -1.000
 6069.00    0.94219   1.18954   10.614
 6070.00    1.14233   1.19473    8.754
 6071.00    1.13855   1.20163    8.783
 6072.00    0.96216   1.20691   10.393
 6073.00    0.91665   1.21110   -1.000
 6074.00    1.09593   1.21401    9.125
 6075.00    1.17004   1.21462    8.547
 6076.00    1.00871   1.21332    9.914
 6077.00    0.87972   1.20979   -1.000
 6078.00    1.07994   1.20465    9.260
 6079.00    1.22205   1.19855    8.183
 6080.00    1.13449   1.19148    8.815
 6081.00    1.13135   1.18504    8.839
 6082.00    1.11024   1.17863    9.007
 6083.00    1.04908   1.17243    9.532
 6084.00    1.12178   1.16916    8.914
 6085.00    1.25330   1.16631    7.979
 6086.00    1.26678   1.16296    7.894
 6087.00    1.15058   1.16221    8.691
 6088.00    1.12351   1.16203    8.901
 6089.00    1.14543   1.16096    8.730
 6090.00    1.08542   1.16063    9.213
 6091.00    1.04375   1.16057    9.581
 6092.00    1.10655   1.16089    9.037
 6093.00    1.17315   1.16165    8.524
 6094.00    1.07731   1.16187    9.282
 6095.00    0.99432   1.16326   10.057
 6096.00    1.05460   1.16574    9.482
 6097.00    1.14447   1.16664    8.738
 6098.00    1.22166   1.16690    8.186
 6099.00    1.26955   1.16753    7.877
 6100.00    1.26008   1.16605    7.936
 6101.00    1.20067   1.16257    8.329
 6102.00    1.10385   1.15943    9.059
 6103.00    1.04444   1.15553    9.574
 6104.00    1.14175   1.15183    8.759
 6105.00    1.16775   1.15106    8.563
 6106.00    1.11996   1.14979    8.929
 6107.00    1.41820   1.14988   -2.000
 6108.00    1.30071   1.15493   -2.000
 6109.00    0.73672   1.15959   -2.000
 6110.00    1.06234   1.16400   -2.000
 6111.00    1.44336   1.16933   -2.000
 6112.00    1.36685   1.17277   -2.000
 6113.00    1.62084   1.17648   -2.000
 6114.00    1.44886   1.17965   -2.000
 6115.00    0.86781   1.17945   -2.000
 6116.00    0.93091   1.17876   -2.000
 6117.00    1.34591   1.17704   -2.000
 6118.00    1.44274   1.17294    6.931
 6119.00    1.19226   1.16844    8.387
 6120.00    1.20722   1.16183    8.284
 6121.00    1.24085   1.15475    8.059
 6122.00    0.93519   1.14993   10.693
 6123.00    0.86818   1.14403   11.518
 6124.00    1.08473   1.13997    9.219
 6125.00    1.22276   1.13944    8.178
 6126.00    1.16795   1.13817    8.562
 6127.00    1.09406   1.13994    9.140
 6128.00    1.09073   1.14426    9.168
 6129.00    1.09306   1.14660    9.149
 6130.00    1.22956   1.14906    8.133
 6131.00    1.36788   1.15135    7.311
 6132.00    1.26125   1.15127    7.929
 6133.00    1.19049   1.14900    8.400
 6134.00    1.20303   1.14560    8.312
 6135.00    1.15768   1.13995    8.638
 6136.00    1.23209   1.13223    8.116
 6137.00    1.27146   1.12497    7.865
 6138.00    1.16463   1.11796    8.586
 6139.00    1.25573   1.11379    7.964
 6140.00    1.28560   1.11284    7.778
 6141.00    1.06770   1.11334    9.366
 6142.00    1.03182   1.11839    9.692
 6143.00    1.12506   1.12660    8.888
 6144.00    1.12099   1.13511    8.921
 6145.00    1.06097   1.14282    9.425
 6146.00    1.10568   1.14912    9.044
 6147.00    1.26366   1.15538    7.914
 6148.00    1.37429   1.15972    7.276
 6149.00    1.34402   1.16104    7.440
 6150.00    1.21619   1.16093    8.222
 6151.00    1.12628   1.15985    8.879
 6152.00    1.16431   1.15783    8.589
 6153.00    1.18257   1.15493    8.456
 6154.00    1.08884   1.15160    9.184
 6155.00    1.10243   1.14762    9.071
 6156.00    1.22483   1.14263    8.164
 6157.00    1.26643   1.13654    7.896
 6158.00    1.14610   1.12826    8.725
 6159.00    1.06797   1.11792    9.364
 6160.00    1.19444   1.10711    8.372
 6161.00    1.37976   1.09512    7.248
 6162.00    1.31239   1.08165    7.620
 6163.00    1.06490   1.07046    9.391
 6164.00    0.99458   1.06169   10.055
 6165.00    1.05231   1.05390    9.503
 6166.00    1.06572   1.04993    9.383
 6167.00    1.04970   1.04963    9.527
 6168.00    1.17742   1.05196    8.493
 6169.00    1.20563   1.05619    8.294
 6170.00    0.97557   1.06005   10.250
 6171.00    0.93794   1.06552   10.662
 6172.00    1.03918   1.07272    9.623
 6173.00    1.05004   1.07825    9.523
 6174.00    1.09627   1.08395    9.122
 6175.00    1.14829   1.09178    8.709
 6176.00    1.08867   1.09917    9.186
 6177.00    0.95748   1.10531   10.444
 6178.00    1.00231   1.11127    9.977
 6179.00    1.18951   1.11729    8.407
 6180.00    1.22870   1.12239    8.139
 6181.00    1.15001   1.12591    8.696
 6182.00    1.08363   1.12918    9.228
 6183.00    1.05010   1.13142    9.523
 6184.00    0.98374   1.13123   10.165
 6185.00    0.98215   1.12989   10.182
 6186.00    1.08955   1.12754    9.178
 6187.00    1.06888   1.12228    9.356
 6188.00    0.92683   1.11624   10.789
 6189.00    0.89059   1.11059   11.228
 6190.00    1.05516   1.10351    9.477
 6191.00    1.11418   1.09800    8.975
 6192.00    0.97204   1.09374   10.288
 6193.00    0.94089   1.09141   10.628
 6194.00    0.99627   1.09302   10.037
 6195.00    1.00128   1.09410    9.987
 6196.00    0.97100   1.09719   10.299
 6197.00    0.99903   1.10344   10.010
 6198.00    0.99258   1.10812   10.075
 6199.00    0.90253   1.11252   11.080
 6200.00    1.02922   1.11619    9.716
 6201.00    1.10496   1.11917    9.050
 6202.00    0.89762   1.12287   11.141
 6203.00    0.98955   1.12517   10.106
 6204.00    1.21374   1.12732    8.239
 6205.00    1.21080   1.13043    8.259
 6206.00    1.23448   1.13275    8.101
 6207.00    1.19449   1.13454    8.372
 6208.00    1.09089   1.13486    9.167
 6209.00    1.19109   1.13319    8.396
 6210.00    1.18328   1.13046    8.451
 6211.00    1.03987   1.12547    9.617
 6212.00    1.10951   1.11830    9.013
 6213.00    1.11186   1.11057    8.994
 6214.00    0.98971   1.10121   10.104
 6215.00    0.99795   1.09159   10.021
 6216.00    1.03542   1.08362    9.658
 6217.00    1.01203   1.07590    9.881
 6218.00    0.96560   1.07030   10.356
 6219.00    0.93701   1.06706   10.672
 6220.00    0.97310   1.06449   10.276
 6221.00    1.07260   1.06454    9.323
 6222.00    1.15152   1.06601    8.684
 6223.00    1.12674   1.06715    8.875
 6224.00    0.99267   1.06924   10.074
 6225.00    0.88296   1.07091   11.326
 6226.00    1.03518   1.07193    9.660
 6227.00    1.26285   1.07270    7.919
 6228.00    1.17236   1.07141    8.530
 6229.00    1.07504   1.06941    9.302
 6230.00    1.15680   1.06747    8.645
 6231.00    1.21119   1.06450    8.256
 6232.00    1.14203   1.06257    8.756
 6233.00    1.05836   1.06244    9.449
 6234.00    1.04905   1.06235    9.532
 6235.00    1.01878   1.06423    9.816
 6236.00    1.09084   1.06761    9.167
 6237.00    1.28027   1.07023    7.811
 6238.00    1.24318   1.07265    8.044
 6239.00    0.99498   1.07323   10.050
 6240.00    0.89120   1.07233   11.221
 6241.00    1.12206   1.06999    8.912
 6242.00    1.20354   1.06644    8.309
 6243.00    1.00010   1.06325    9.999
 6244.00    0.96939   1.05914   10.316
 6245.00    1.13114   1.05681    8.841
 6246.00    1.24198   1.05656    8.052
 6247.00    1.20090   1.05547    8.327
 6248.00    1.19662   1.05649    8.357
 6249.00    1.17075   1.05853    8.542
 6250.00    1.02040   1.05885    9.800
 6251.00    1.00292   1.05916    9.971
 6252.00    1.07144   1.05787    9.333
 6253.00    1.10253   1.05411    9.070
 6254.00    1.22002   1.04980    8.197
 6255.00    1.23798   1.04461    8.078
 6256.00    1.11208   1.03912    8.992
 6257.00    1.14087   1.03431    8.765
 6258.00    1.20183   1.03118    8.321
 6259.00    1.21458   1.03038    8.233
 6260.00    1.29872   1.03147    7.700
 6261.00    1.25591   1.03528    7.962
 6262.00    1.09523   1.04046    9.131
 6263.00    1.06261   1.04744    9.411
 6264.00    1.13433   1.05605    8.816
 6265.00    1.20384   1.06329    8.307
 6266.00    1.20782   1.06977    8.279
 6267.00    1.13388   1.07613    8.819
 6268.00    1.06918   1.08129    9.353
 6269.00    1.10030   1.08484    9.088
 6270.00    1.20281   1.08757    8.314
 6271.00    1.30035   1.09024    7.690
 6272.00    1.33897   1.09252    7.468
 6273.00    1.30563   1.09415    7.659
 6274.00    1.18637   1.09573    8.429
 6275.00    1.11526   1.09683    8.967
 6276.00    1.23325   1.09767    8.109
 6277.00    1.29283   1.09847    7.735
 6278.00    1.25195   1.09810    7.988
 6279.00    1.27528   1.09765    7.841
 6280.00    1.20854   1.09748    0.000
 6281.00    1.13437   1.09657    0.000
 6282.00    1.23750   1.09676    0.000
 6283.00    1.31672   1.09807    0.000
 6284.00    1.21605   1.09935    0.000
 6285.00    1.05448   1.10248    0.000
 6286.00    1.07385   1.10565    0.000
 6287.00    1.14008   1.10901    0.000
 6288.00    1.09366   1.11319    0.000
 6289.00    1.08303   1.11550    0.000
 6290.00    1.22644   1.11737    0.000
 6291.00    1.36744   1.11808    0.000
 6292.00    1.27184   1.11665    0.000
 6293.00    1.14186   1.11463    0.000
 6294.00    1.11241   1.11111    0.000
 6295.00    1.10732   1.10669    0.000
 6296.00    1.17014   1.10230    0.000
 6297.00    1.25068   1.09680    0.000
 6298.00    1.25206   1.09185    0.000
 6299.00    1.22424   1.08812    0.000
 6300.00    1.16521   1.08447    0.000
 6301.00    1.04614   1.08179    0.000
 6302.00    0.94084   1.08019    0.000
 6303.00    0.99754   1.08045    0.000
 6304.00    1.22550   1.08241    0.000
 6305.00    1.38308   1.08487    0.000
 6306.00    1.21213   1.08809    0.000
 6307.00    0.91156   1.09201    0.000
 6308.00    0.95611   1.09680    0.000
 6309.00    1.19418   1.10064    0.000
 6310.00    1.30974   1.10254    0.000
 6311.00    1.25708   1.10342    0.000
 6312.00    1.21645   1.10294    0.000
 6313.00    1.21245   1.10092    0.000
 6314.00    1.17657   1.09725    0.000
 6315.00    1.20818   1.09256    0.000
 6316.00    1.26532   1.08763    0.000
 6317.00    1.23604   1.08368    0.000
 6318.00    1.14559   1.08030    0.000
 6319.00    1.04237   1.07708    0.000
 6320.00    0.99799   1.07686    0.000
 6321.00    1.07910   1.07851    9.267
 6322.00    1.18525   1.08117    8.437
 6323.00    1.18366   1.08531    8.448
 6324.00    1.09843   1.09042    9.104
 6325.00    1.14053   1.09686    8.768
 6326.00    1.26566   1.10228    7.901
 6327.00    1.21397   1.10741    8.237
 6328.00    1.04254   1.11194    9.592
 6329.00    1.04311   1.11532    9.587
 6330.00    1.23314   1.11821    8.109
 6331.00    1.11835   1.11816    8.942
 6332.00    0.94527   1.11765   10.579
 6333.00    1.10414   1.11691    9.057
 6334.00    1.18844   1.11409    8.414
 6335.00    1.14901   1.11080    8.703
 6336.00    1.21039   1.10674    8.262
 6337.00    1.36669   1.10304    7.317
 6338.00    1.40819   1.10037    7.101
 6339.00    1.24043   1.09771    8.062
 6340.00    1.02035   1.09548    9.801
 6341.00    0.92755   1.09522   10.781
 6342.00    1.00750   1.09585    9.926
 6343.00    1.12721   1.09608    8.871
 6344.00    1.08716   1.09724    9.198
 6345.00    0.98120   1.09828   10.192
 6346.00    1.04269   1.10017    9.591
 6347.00    1.19057   1.10273    8.399
 6348.00    1.13660   1.10434    8.798
 6349.00    0.95766   1.10692   10.442
 6350.00    1.17527   1.10929    8.509
 6351.00    1.30253   1.11067    7.677
 6352.00    1.06069   1.11167    9.428
 6353.00    1.15054   1.11093    8.692
 6354.00    1.12114   1.10847    8.919
 6355.00    0.87405   1.10460   11.441
 6356.00    1.18447   1.09913    8.443
 6357.00    1.45672   1.09269    6.865
 6358.00    1.32317   1.08540    7.558
 6359.00    1.24926   1.07722    8.005
 6360.00    1.22237   1.06984    8.181
 6361.00    1.11380   1.06388    8.978
 6362.00    1.00547   1.05881    9.946
 6363.00    1.06457   1.05564    9.393
 6364.00    1.11258   1.05513    8.988
 6365.00    1.03008   1.05709    9.708
 6366.00    1.14821   1.06136    8.709
 6367.00    1.30989   1.06755    7.634
 6368.00    1.27790   1.07522    7.825
 6369.00    1.22850   1.08417    8.140
 6370.00    1.12072   1.09311    8.923
 6371.00    1.00806   1.10148    9.920
 6372.00    1.12299   1.10944    8.905
 6373.00    1.24710   1.11640    8.019
 6374.00    1.20258   1.12180    8.315
 6375.00    1.12341   1.12559    8.901
 6376.00    1.12698   1.12815    8.873
 6377.00    1.09080   1.12943    9.168
 6378.00    0.96886   1.12983   10.321
 6379.00    1.12133   1.12886    8.918
 6380.00    1.31096   1.12728    7.628
 6381.00    1.22083   1.12612    8.191
 6382.00    1.23617   1.12464    8.090
 6383.00    1.14972   1.12373    8.698
 6384.00    0.86491   1.12318   11.562
 6385.00    0.98013   1.12270   10.203
 6386.00    1.21057   1.12307    8.261
 6387.00    1.15382   1.12347    8.667
 6388.00    1.03488   1.12337    9.663
 6389.00    1.04717   1.12260    9.550
 6390.00    1.15715   1.12133    8.642
 6391.00    1.18665   1.11964    8.427
 6392.00    1.03699   1.11691    9.643
 6393.00    0.92675   1.11371   10.790
 6394.00    1.05523   1.10991    9.477
 6395.00    1.12182   1.10667    8.914
 6396.00    1.06586   1.10442    9.382
 6397.00    1.03816   1.10240    9.632
 6398.00    1.01872   1.10125    9.816
 6399.00    1.14753   1.10043    8.714
 6400.00    1.35654   1.10061    7.372
 6401.00    1.22833   1.10099    8.141
 6402.00    0.95710   1.10281   10.448
 6403.00    0.89635   1.10538   11.156
 6404.00    1.00952   1.10658    9.906
 6405.00    1.09693   1.10923    9.116
 6406.00    1.12714   1.11101    8.872
 6407.00    1.18736   1.11197    8.422
 6408.00    1.14113   1.11306    8.763
 6409.00    1.05409   1.11203    9.487
 6410.00    1.10731   1.11134    9.031
 6411.00    1.14399   1.11039    8.741
 6412.00    1.09940   1.10815    9.096
 6413.00    1.08557   1.10694    9.212
 6414.00    1.15571   1.10635    8.653
 6415.00    1.16301   1.10564    8.598
 6416.00    1.04884   1.10527    9.534
 6417.00    1.02117   1.10508    9.793
 6418.00    1.11031   1.10483    9.006
 6419.00    1.17581   1.10500    8.505
 6420.00    1.10882   1.10482    9.019
 6421.00    0.99183   1.10457   10.082
 6422.00    1.04492   1.10555    9.570
 6423.00    1.29260   1.10724    7.736
 6424.00    1.26116   1.10979    7.929
 6425.00    1.02825   1.11233    9.725
 6426.00    1.02305   1.11476    9.775
 6427.00    0.99322   1.11759   10.068
 6428.00    1.05833   1.11995    9.449
 6429.00    1.30949   1.12107    7.637
 6430.00    1.11215   1.12079    8.992
 6431.00    0.89048   1.11932   11.230
 6432.00    1.09755   1.11766    9.111
 6433.00    1.08605   1.11669    9.208
 6434.00    1.02095   1.11537    9.795
 6435.00    1.13817   1.11419    8.786
 6436.00    1.06748   1.11411    9.368
 6437.00    0.96259   1.11444   10.389
 6438.00    1.03494   1.11560    9.662
 6439.00    1.16866   1.11692    8.557
 6440.00    1.24557   1.11819    8.028
 6441.00    1.22000   1.12099    8.197
 6442.00    1.13484   1.12415    8.812
 6443.00    1.10126   1.12651    9.080
 6444.00    1.11413   1.12887    8.976
 6445.00    1.10303   1.13006    9.066
 6446.00    1.08147   1.13036    9.247
 6447.00    1.04903   1.12985    9.533
 6448.00    1.04936   1.12639    9.530
 6449.00    1.15660   1.12158    8.646
 6450.00    1.16781   1.11582    8.563
 6451.00    1.03323   1.10950    9.678
 6452.00    1.01126   1.10591    9.889
 6453.00    1.00131   1.10302    9.987
 6454.00    0.95291   1.10135   10.494
 6455.00    1.02378   1.10198    9.768
 6456.00    1.10736   1.10318    9.030
 6457.00    1.07422   1.10677    9.309
 6458.00    0.97675   1.11065   10.238
 6459.00    0.97804   1.11369   10.224
 6460.00    1.04941   1.11638    9.529
 6461.00    1.06416   1.11733    9.397
 6462.00    1.06150   1.11769    9.421
 6463.00    1.07923   1.11725    9.266
 6464.00    1.09529   1.11646    9.130
 6465.00    1.07060   1.11683    9.341
 6466.00    1.00276   1.11666    9.972
 6467.00    0.94090   1.11694   10.628
 6468.00    0.95244   1.11771   10.499
 6469.00    1.04504   1.11895    9.569
 6470.00    1.15619   1.12063    8.649
 6471.00    1.18507   1.12180    8.438
 6472.00    1.07266   1.12253    9.323
 6473.00    0.97713   1.12259   10.234
 6474.00    1.07827   1.12306    9.274
 6475.00    1.19912   1.12250    8.339
 6476.00    1.21741   1.12172    8.214
 6477.00    1.09587   1.12099    9.125
 6478.00    0.77368   1.11992   -1.000
 6479.00    0.71120   1.11889   -1.000
 6480.00    1.07664   1.11697    9.288
 6481.00    1.17289   1.11475    8.526
 6482.00    1.07751   1.11215    9.281
 6483.00    1.09125   1.10966    9.164
 6484.00    1.06648   1.10761    9.377
 6485.00    1.17093   1.10587    8.540
 6486.00    1.34338   1.10428    7.444
 6487.00    1.21968   1.10244    8.199
 6488.00    1.03340   1.10011    9.677
 6489.00    1.05243   1.09696    9.502
 6490.00    1.17570   1.09220    8.506
 6491.00    1.14554   1.08526    8.730
 6492.00    0.99549   1.07626   10.045
 6493.00    0.91638   1.06526   10.912
 6494.00    0.88924   1.05317   11.246
 6495.00    1.01730   1.04015    9.830
 6496.00    1.24366   1.02868    8.041
 6497.00    1.17302   1.02043    8.525
 6498.00    0.98150   1.01471   10.189
 6499.00    1.00105   1.01344    9.989
 6500.00    1.13570   1.01484    8.805
 6501.00    1.15025   1.02054    8.694
 6502.00    1.13080   1.03028    8.843
 6503.00    1.30918   1.04079    7.638
 6504.00    1.31401   1.05288    7.610
 6505.00    1.16920   1.06392    8.553
 6506.00    1.25636   1.07460    7.960
 6507.00    1.24343   1.08433    8.042
 6508.00    1.07566   1.09182    9.297
 6509.00    0.98628   1.09771   10.139
 6510.00    0.83502   1.10182   -1.000
 6511.00    0.71957   1.10481   -1.000
 6512.00    0.82849   1.10655   -1.000
 6513.00    1.01672   1.10696    9.836
 6514.00    1.08638   1.10634    9.205
 6515.00    1.05605   1.10511    9.469
 6516.00    1.10675   1.10358    9.035
 6517.00    1.12364   1.10168    8.900
 6518.00    1.01230   1.09988    9.879
 6519.00    0.92516   1.09837   10.809
 6520.00    0.98851   1.09750   10.116
 6521.00    1.12957   1.09782    8.853
 6522.00    1.18281   1.09845    8.454
 6523.00    1.16359   1.09968    8.594
 6524.00    1.15090   1.10126    8.689
 6525.00    1.16561   1.10278    8.579
 6526.00    1.16005   1.10450    8.620
 6527.00    1.16076   1.10538    8.615
 6528.00    1.25932   1.10533    0.000
 6529.00    1.45006   1.10548    0.000
 6530.00    1.43659   1.10536    0.000
 6531.00    1.20714   1.10504    0.000
 6532.00    1.19134   1.10456    0.000
 6533.00    1.19533   1.10373    0.000
 6534.00    1.06414   1.10410    0.000
 6535.00    1.07878   1.10514    0.000
 6536.00    1.20224   1.10627    0.000
 6537.00    1.20552   1.10762    0.000
 6538.00    1.08470   1.10834    0.000
 6539.00    1.21188   1.10948    0.000
 6540.00    1.27934   1.11045    0.000
 6541.00    0.91069   1.11061    0.000
 6542.00    0.86428   1.10953    0.000
 6543.00    1.13746   1.10690    0.000
 6544.00    1.20386   1.10371    0.000
 6545.00    1.17170   1.09971    0.000
 6546.00    1.16263   1.09538    0.000
 6547.00    1.16226   1.09010    0.000
 6548.00    1.13830   1.08520    0.000
 6549.00    1.05965   1.08103    0.000
 6550.00    1.06043   1.07661    0.000
 6551.00    1.27746   1.07258    0.000
 6552.00    1.35729   1.06767    0.000
 6553.00    1.25903   1.06312    0.000
 6554.00    1.27602   1.05832    0.000
 6555.00    1.17889   1.05188    0.000
 6556.00    1.03195   1.04401    0.000
 6557.00    1.10118   1.03458    0.000
 6558.00    1.13784   1.02401    0.000
 6559.00    1.11458   1.01217    0.000
 6560.00    1.05988   0.99915    0.000
 6561.00    0.78414   0.98499    0.000
 6562.00    0.95107   0.97132    0.000
 6563.00    1.59139   0.95901    0.000
 6564.00    1.52737   0.94971    0.000
 6565.00    1.50746   0.94735    0.000
 6566.00    2.00725   0.94923    0.000
 6567.00    1.97520   0.95431    0.000
 6568.00    1.54120   0.96209    0.000
 6569.00    1.22246   0.97222    0.000
 6570.00    1.08100   0.98667    0.000
 6571.00    1.01493   1.00092    0.000
 6572.00    0.91862   1.01227    0.000
 6573.00    0.78448   1.02151    0.000
 6574.00    0.74352   1.02863    0.000
 6575.00    0.92298   1.03464    0.000
 6576.00    1.18521   1.04018    0.000
 6577.00    1.15098   1.04566    0.000
 6578.00    1.00793   1.05072    0.000
 6579.00    1.08270   1.05503    0.000
 6580.00    1.24611   1.05937    0.000
 6581.00    1.29773   1.06361    0.000
 6582.00    1.16209   1.06764    0.000
 6583.00    0.98241   1.07173    0.000
 6584.00    1.11434   1.07491    0.000
 6585.00    1.47226   1.07714    0.000
 6586.00    1.64342   1.07885    0.000
 6587.00    1.76371   1.07937    0.000
 6588.00    1.81659   1.08004    0.000
 6589.00    1.59127   1.07998    0.000
 6590.00    1.27323   1.07861    0.000
 6591.00    1.09435   1.07623    0.000
 6592.00    1.13019   1.07260    0.000
 6593.00    1.26173   1.06868    0.000
 6594.00    1.10665   1.06478    0.000
 6595.00    0.77247   1.06194    0.000
 6596.00    0.97797   1.06048    0.000
 6597.00    1.33331   1.05971    0.000
 6598.00    1.33864   1.05973    0.000
 6599.00    1.23488   1.06074    0.000
 6600.00    1.05865   1.06350    0.000
 6601.00    0.90467   1.06754    0.000
 6602.00    0.97680   1.07083    0.000
 6603.00    1.09780   1.07302    0.000
 6604.00    1.10931   1.07419    0.000
 6605.00    1.03679   1.07447    0.000
 6606.00    0.93658   1.07418    0.000
 6607.00    1.00580   1.07318    0.000
 6608.00    1.23909   1.07133    0.000
 6609.00    1.19748   1.06968    8.351
 6610.00    0.94778   1.06824   10.551
 6611.00    0.87916   1.06821   11.374
 6612.00    1.04803   1.06966    9.542
 6613.00    1.05455   1.07152    9.483
 6614.00    0.85583   1.07428   11.685
 6615.00    0.93408   1.07724   10.706
 6616.00    1.13686   1.08135    8.796
 6617.00    1.21597   1.08551    8.224
 6618.00    1.26588   1.08845    7.900
 6619.00    1.38350   1.09064    7.228
 6620.00    1.39701   1.09206    7.158
 6621.00    1.14171   1.09282    8.759
 6622.00    0.98619   1.09265   10.140
 6623.00    1.43796   1.09102    6.954
 6624.00    2.11679   1.08862   -1.000
 6625.00    1.64466   1.08579   -1.000
 6626.00    0.68734   1.08243   -1.000
 6627.00    0.57275   1.07954   -1.000
 6628.00    0.98893   1.07624   10.112
 6629.00    1.24229   1.07276    8.050
 6630.00    0.99508   1.06952   10.049
 6631.00    0.50236   1.06620   -1.000
 6632.00    0.47138   1.06373   -1.000
 6633.00    0.92667   1.06112   10.791
 6634.00    1.16500   1.05874    8.584
 6635.00    1.11816   1.05709    8.943
 6636.00    1.05668   1.05637    9.464
 6637.00    1.09101   1.05659    9.166
 6638.00    1.07434   1.05709    9.308
 6639.00    1.20079   1.05790    8.328
 6640.00    1.48474   1.05900   -1.000
 6641.00    1.24609   1.06028    8.025
 6642.00    0.95119   1.06186   10.513
 6643.00    1.15048   1.06286    8.692
 6644.00    1.19720   1.06303    8.353
 6645.00    1.13280   1.06322    8.828
 6646.00    1.16165   1.06360    8.608
 6647.00    1.04643   1.06434    9.556
 6648.00    1.05075   1.06479    9.517
 6649.00    1.24693   1.06514    8.020
 6650.00    1.27709   1.06589    7.830
 6651.00    1.19693   1.06695    8.355
 6652.00    1.20766   1.06771    8.280
 6653.00    1.28327   1.06817    7.793
 6654.00    1.15571   1.06852    8.653
 6655.00    0.95746   1.06851   10.444
 6656.00    1.02532   1.06829    9.753
 6657.00    1.29042   1.06728    7.749
 6658.00    1.53846   1.06595   -1.000
 6659.00    1.59546   1.06418   -1.000
 6660.00    1.38421   1.06189    7.224
 6661.00    0.95243   1.05915   10.499
 6662.00    0.58567   1.05587   -1.000
 6663.00    0.61621   1.05273   -1.000
 6664.00    0.79255   1.04948   12.617
 6665.00    0.70568   1.04709   -1.000
 6666.00    0.39899   1.04569   -1.000
 6667.00    0.48817   1.04491   -1.000
 6668.00    0.92541   1.04516   10.806
 6669.00    1.08714   1.04631    9.198
 6670.00    1.02368   1.04843    9.769
 6671.00    0.82442   1.05125   12.130
 6672.00    0.58171   1.05356   -1.000
 6673.00    0.69017   1.05549   -1.000
 6674.00    1.03231   1.05677    9.687
 6675.00    1.19599   1.05692    8.361
 6676.00    1.13378   1.05635    8.820
 6677.00    1.17380   1.05445    8.519
 6678.00    1.34730   1.05205    7.422
 6679.00    1.28229   1.04917    7.799
 6680.00    1.27782   1.04745    7.826
 6681.00    1.40614   1.04679    7.112
 6682.00    1.26548   1.04636    7.902
 6683.00    1.13885   1.04704    8.781
 6684.00    1.10246   1.04828    9.071
 6685.00    0.90070   1.05082   11.103
 6686.00    0.79951   1.05359   12.508
 6687.00    0.98790   1.05608   10.122
 6688.00    1.22447   1.05843    8.167
 6689.00    1.12333   1.05991    8.902
 6690.00    1.00119   1.06103    9.988
 6691.00    1.16131   1.06128    8.611
 6692.00    1.15182   1.06100    8.682
 6693.00    1.07590   1.05999    9.295
 6694.00    1.17263   1.05840    8.528
 6695.00    1.24174   1.05647    8.053
 6696.00    1.26564   1.05427    0.000
 6697.00    1.25054   1.05181    0.000
 6698.00    1.07463   1.04976    0.000
 6699.00    0.76108   1.04841    0.000
 6700.00    0.69603   1.04721    0.000
 6701.00    1.07436   1.04688    0.000
 6702.00    1.14481   1.04639    0.000
 6703.00    0.81086   1.04639    0.000
 6704.00    0.68765   1.04644    0.000
 6705.00    0.91963   1.04642    0.000
 6706.00    1.19931   1.04678    0.000
 6707.00    1.31706   1.04670    0.000
 6708.00    1.46118   1.04638    0.000
 6709.00    1.52132   1.04525    0.000
 6710.00    1.42799   1.04377    0.000
 6711.00    1.40723   1.04157    0.000
 6712.00    1.28884   1.03902    0.000
 6713.00    1.15802   1.03627    0.000
 6714.00    1.32773   1.03255    0.000
 6715.00    1.16803   1.02895    0.000
 6716.00    0.73890   1.02502    0.000
 6717.00    0.91147   1.02175    0.000
 6718.00    1.53238   1.01936    0.000
 6719.00    1.73733   1.01773    0.000
 6720.00    1.26910   1.01815    0.000
 6721.00    1.20048   1.01897    0.000
 6722.00    1.46561   1.02093    0.000
 6723.00    1.35060   1.02330    0.000
 6724.00    1.10558   1.02642    0.000
 6725.00    1.07262   1.02980    0.000
 6726.00    1.16617   1.03275    0.000
 6727.00    1.07324   1.03536    0.000
 6728.00    1.02276   1.03774    0.000
 6729.00    1.02452   1.03984    0.000
 6730.00    0.74081   1.04144    0.000
 6731.00    0.68245   1.04283    0.000
 6732.00    1.13943   1.04355    0.000
 6733.00    1.64010   1.04412    0.000
 6734.00    1.66283   1.04396    0.000
 6735.00    1.19017   1.04380    0.000
 6736.00    0.79297   1.04302    0.000
 6737.00    1.05531   1.04179    0.000
 6738.00    1.18784   1.04007    0.000
 6739.00    0.47913   1.03783    0.000
 6740.00   -0.03523   1.03568   -2.000
 6741.00    0.08683   1.03349    0.000
 6742.00    0.50991   1.03169    0.000
 6743.00    0.92797   1.02966    0.000
 6744.00    1.25511   1.02775    0.000
 6745.00    1.35649   1.02622    0.000
 6746.00    1.12831   1.02508    0.000
 6747.00    1.00675   1.02374    0.000
 6748.00    0.81041   1.02290    0.000
 6749.00    0.31667   1.02195    0.000
 6750.00    0.91117   1.02148    0.000
 6751.00    1.35667   1.02113    0.000
 6752.00    0.17168   1.02133   -2.000
 6753.00    0.00000   1.02251   -2.000
 6754.00    0.00000   1.02343   -2.000
 6755.00    0.00000   1.02597   -2.000
 6756.00    0.00000   1.02859   -2.000
 6757.00    0.00000   1.03193   -2.000
 6758.00    0.00000   1.03559   -2.000
 6759.00    0.00000   1.03903   -2.000
 6760.00    0.00000   1.04251   -2.000
 6761.00    0.00000   1.04501   -2.000
 6762.00    0.00000   1.04704   -2.000
 6763.00    0.00000   1.04807   -2.000
 6764.00    0.00000   1.04814   -2.000
 6765.00    0.00000   1.04737   -2.000
 6766.00    0.00000   1.04574   -2.000
 6767.00    0.00000   1.04350   -2.000
 6768.00    0.00000   1.04112   -2.000
 6769.00    0.00000   1.03882   -2.000
 6770.00    0.00000   1.03742   -2.000
 6771.00    0.00000   1.03631   -2.000
 6772.00    0.00000   1.03603   -2.000
 6773.00    0.00000   1.03676   -2.000
 6774.00    0.00000   1.03838   -2.000
 6775.00    0.00000   1.04086   -2.000
 6776.00    0.00000   1.04327   -2.000
 6777.00    0.00000   1.04593   -2.000
 6778.00    0.00000   1.04793   -2.000
 6779.00    0.00000   1.04914   -2.000
 6780.00    0.00000   1.04979   -2.000
 6781.00    0.00000   1.04902   -2.000
 6782.00    0.00000   1.04736   -2.000
 6783.00    0.00000   1.04444   -2.000
 6784.00    0.00000   1.04104   -2.000
 6785.00    0.00000   1.03747   -2.000
 6786.00    0.00000   1.03437   -2.000
 6787.00    0.00000   1.03193   -2.000
 6788.00    0.00000   1.03008   -2.000
 6789.00    0.00000   1.02929   -2.000
 6790.00    0.00000   1.02883   -2.000
 6791.00    0.00000   1.02915   -2.000
 6792.00    0.00000   1.02971   -2.000
 6793.00    0.00000   1.03066   -2.000
 6794.00    0.00000   1.03135   -2.000
 6795.00    0.00000   1.03193   -2.000
 6796.00    0.00000   1.03273   -2.000
 6797.00    0.00000   1.03314   -2.000
 6798.00    0.00000   1.03382   -2.000
 6799.00    0.00000   1.03443   -2.000
 6800.00    0.00000   1.03530   -2.000
 6801.00    0.00000   1.03608   -2.000
 6802.00    0.00000   1.03699   -2.000
 6803.00    0.00000   1.03783   -2.000
 6804.00    0.00000   1.03836   -2.000
 6805.00    0.00000   1.03872   -2.000
 6806.00    0.00000   1.03880   -2.000
 6807.00    0.00000   1.03895   -2.000
 6808.00    0.00000   1.03839   -2.000
 6809.00    0.00000   1.03827   -2.000
 6810.00    0.00000   1.03791   -2.000
 6811.00    0.00000   1.03732   -2.000
 6812.00    0.00000   1.03721   -2.000
 6813.00    0.00000   1.03690   -2.000
 6814.00    0.00000   1.03699   -2.000
 6815.00    0.00000   1.03685   -2.000
 6816.00    0.00000   1.03703   -2.000
 6817.00    0.00000   1.03774   -2.000
 6818.00    0.00000   1.03848   -2.000
 6819.00    0.00000   1.03931   -2.000
 6820.00    0.00000   1.04030   -2.000
 6821.00    0.00000   1.04111   -2.000
 6822.00    0.00000   1.04229   -2.000
 6823.00    0.00000   1.04342   -2.000
 6824.00    0.00000   1.04458   -2.000
 6825.00    0.00000   1.04550   -2.000
 6826.00    0.00000   1.04589   -2.000
 6827.00    0.00000   1.04596   -2.000
 6828.00    0.00000   1.04576   -2.000
 6829.00    0.00000   1.04525   -2.000
 6830.00    0.00000   1.04498   -2.000
 6831.00    0.00000   1.04465   -2.000
 6832.00    0.00000   1.04423   -2.000
 6833.00    0.00000   1.04355   -2.000
 6834.00    0.00000   1.04272   -2.000
 6835.00    0.00000   1.04176   -2.000
 6836.00    0.00000   1.04032   -2.000
 6837.00    0.00000   1.03843   -2.000
 6838.00    0.00000   1.03590   -2.000
 6839.00    0.00000   1.03307   -2.000
 6840.00    0.00000   1.02939   -2.000
 6841.00    0.00000   1.02607   -2.000
 6842.00    0.00000   1.02287   -2.000
 6843.00    0.00000   1.02078   -2.000
 6844.00    0.00000   1.01959   -2.000
 6845.00    0.00000   1.01958   -2.000
 6846.00    0.00000   1.02066   -2.000
 6847.00    0.00000   1.02219   -2.000
 6848.00    0.00000   1.02431   -2.000
 6849.00    0.00000   1.02636   -2.000
 6850.00    0.00000   1.02828   -2.000
 6851.00    0.00000   1.02958   -2.000
 6852.00    0.00000   1.03023   -2.000
 6853.00    0.00000   1.02986   -2.000
 6854.00    0.00000   1.02863   -2.000
 6855.00    0.00000   1.02655   -2.000
 6856.00    0.00000   1.02388   -2.000
 6857.00    0.00000   1.02151   -2.000
 6858.00    0.00000   1.01939   -2.000
 6859.00    0.00000   1.01744   -2.000
 6860.00    0.00000   1.01602   -2.000
 6861.00    0.00000   1.01512   -2.000
 6862.00    0.00000   1.01441   -2.000
 6863.00    0.00000   1.01437   -2.000
 6864.00    0.00000   1.01510   -2.000
 6865.00    0.00000   1.01620   -2.000
 6866.00    0.00000   1.01672   -2.000
 6867.00    0.00000   1.01710   -2.000
 6868.00    0.00000   1.01708   -2.000
 6869.00    0.00000   1.01680   -2.000
 6870.00    0.00000   1.01665   -2.000
 6871.00    0.00000   1.01688   -2.000
 6872.00    0.00000   1.01683   -2.000
 6873.00    0.00000   1.01670   -2.000
 6874.00    0.00000   1.01696   -2.000
 6875.00    0.00000   1.01763   -2.000
 6876.00    0.00000   1.01856   -2.000
 6877.00    0.00000   1.01972   -2.000
 6878.00    0.00000   1.02134   -2.000
 6879.00    0.00000   1.02270   -2.000
 6880.00    0.00000   1.02361   -2.000
 6881.00    0.00000   1.02447   -2.000
 6882.00    0.00000   1.02500   -2.000
 6883.00    0.00000   1.02546   -2.000
 6884.00    0.00000   1.02600   -2.000
 6885.00    0.00000   1.02716   -2.000
 6886.00    0.00000   1.02872   -2.000
 6887.00    0.00000   1.03023   -2.000
 6888.00    0.00000   1.03256   -2.000
 6889.00    0.00000   1.03517   -2.000
 6890.00    0.00000   1.03787   -2.000
 6891.00    0.00000   1.04063   -2.000
 6892.00    0.00000   1.04316   -2.000
 6893.00    0.00000   1.04539   -2.000
 6894.00    0.00000   1.04661   -2.000
 6895.00    0.00000   1.04786   -2.000
 6896.00    0.00000   1.04829   -2.000
 6897.00    0.00000   1.04848   -2.000
 6898.00    0.00000   1.04857   -2.000
 6899.00    0.00000   1.04861   -2.000
 6900.00    0.00000   1.04866   -2.000
 6901.00    0.00000   1.04867   -2.000
 6902.00    0.00000   1.04911   -2.000
 6903.00    0.00000   1.04994   -2.000
 6904.00    0.00000   1.05059   -2.000
 6905.00    0.00000   1.05144   -2.000
 6906.00    0.00000   1.05222   -2.000
 6907.00    0.00000   1.05290   -2.000
 6908.00    0.00000   1.05350   -2.000
 6909.00    0.00000   1.05340   -2.000
 6910.00    0.00000   1.05321   -2.000
 6911.00    0.00000   1.05220   -2.000
 6912.00    0.00000   1.05089   -2.000
 6913.00    0.00000   1.04895   -2.000
 6914.00    0.00000   1.04704   -2.000
 6915.00    0.00000   1.04494   -2.000
 6916.00    0.00000   1.04311   -2.000
 6917.00    0.00000   1.04196   -2.000
 6918.00    0.00000   1.04067   -2.000
 6919.00    0.00000   1.04036   -2.000
 6920.00    0.00000   1.04004   -2.000
 6921.00    0.00000   1.04030   -2.000
 6922.00    0.00000   1.04025   -2.000
 6923.00    0.00000   1.04016   -2.000
 6924.00    0.00000   1.03986   -2.000
 6925.00    0.00000   1.03887   -2.000
 6926.00    0.00000   1.03814   -2.000
 6927.00    0.00000   1.03728   -2.000
 6928.00    0.00000   1.03693   -2.000
 6929.00    0.00000   1.03660   -2.000
 6930.00    0.00000   1.03647   -2.000
 6931.00    0.00000   1.03661   -2.000
 6932.00    0.00000   1.03691   -2.000
 6933.00    0.00000   1.03747   -2.000
 6934.00    0.00000   1.03811   -2.000
 6935.00    0.00000   1.03904   -2.000
 6936.00    0.00000   1.04042   -2.000
 6937.00    0.00000   1.04129   -2.000
 6938.00    0.00000   1.04232   -2.000
 6939.00    0.00000   1.04295   -2.000
 6940.00    0.00000   1.04359   -2.000
 6941.00    0.00000   1.04377   -2.000
 6942.00    0.00000   1.04361   -2.000
 6943.00    0.00000   1.04293   -2.000
 6944.00    0.00000   1.04174   -2.000
 6945.00    0.00000   1.04039   -2.000
 6946.00    0.00000   1.03881   -2.000
 6947.00    0.00000   1.03751   -2.000
 6948.00    0.00000   1.03667   -2.000
 6949.00    0.00000   1.03577   -2.000
 6950.00    0.00000   1.03518   -2.000
 6951.00    0.00000   1.03479   -2.000
 6952.00    0.00000   1.03436   -2.000
 6953.00    0.00000   1.03434   -2.000
 6954.00    0.00000   1.03479   -2.000
 6955.00    0.00000   1.03539   -2.000
 6956.00    0.00000   1.03656   -2.000
 6957.00    0.00000   1.03792   -2.000
 6958.00    0.00000   1.03986   -2.000
 6959.00    0.00000   1.04143   -2.000
 6960.00    0.00000   1.04374   -2.000
 6961.00    0.00000   1.04567   -2.000
 6962.00    0.00000   1.04792   -2.000
 6963.00    0.00000   1.04994   -2.000
 6964.00    0.00000   1.05171   -2.000
 6965.00    0.00000   1.05340   -2.000
 6966.00    0.00000   1.05453   -2.000
 6967.00    0.00000   1.05548   -2.000
 6968.00    0.00000   1.05608   -2.000
 6969.00    0.00000   1.05659   -2.000
 6970.00    0.00000   1.05621   -2.000
 6971.00    0.00000   1.05533   -2.000
 6972.00    0.00000   1.05364   -2.000
 6973.00    0.00000   1.05130   -2.000
 6974.00    0.00000   1.04845   -2.000
 6975.00    0.00000   1.04453   -2.000
 6976.00    0.00000   1.04012   -2.000
 6977.00    0.00000   1.03536   -2.000
 6978.00    0.00000   1.03098   -2.000
 6979.00    0.00000   1.02690   -2.000
 6980.00    0.00000   1.02409   -2.000
 6981.00    0.00000   1.02339   -2.000
 6982.00    0.00000   1.02417   -2.000
 6983.00    0.00000   1.02632   -2.000
 6984.00    0.00000   1.02960   -2.000
 6985.00    0.00000   1.03349   -2.000
 6986.00    0.00000   1.03774   -2.000
 6987.00    0.00000   1.04180   -2.000
 6988.00    0.00000   1.04541   -2.000
 6989.00    0.00000   1.04826   -2.000
 6990.00    0.00000   1.05046   -2.000
 6991.00    0.00000   1.05197   -2.000
 6992.00    0.00000   1.05304   -2.000
 6993.00    0.00000   1.05337   -2.000
 6994.00    0.00000   1.05345   -2.000
 6995.00    0.00000   1.05286   -2.000
 6996.00    0.00000   1.05213   -2.000
 6997.00    0.00000   1.05107   -2.000
 6998.00    0.00000   1.04971   -2.000
 6999.00    0.00000   1.04793   -2.000
 7000.00    0.00000   1.04587   -2.000
 7001.00    0.00000   1.04358   -2.000
 7002.00    0.00000   1.04176   -2.000
 7003.00    0.00000   1.03989   -2.000
 7004.00    0.00000   1.03838   -2.000
 7005.00    0.00000   1.03669   -2.000
 7006.00    0.00000   1.03581   -2.000
 7007.00    0.00000   1.03506   -2.000
 7008.00    0.00000   1.03486   -2.000
 7009.00    0.00000   1.03465   -2.000
 7010.00    0.00000   1.03468   -2.000
 7011.00    0.00000   1.03457   -2.000
 7012.00    0.00000   1.03410   -2.000
 7013.00    0.00000   1.03348   -2.000
 7014.00    0.00000   1.03247   -2.000
 7015.00    0.00000   1.03127   -2.000
 7016.00    0.00000   1.02970   -2.000
 7017.00    0.00000   1.02809   -2.000
 7018.00    0.00000   1.02712   -2.000
 7019.00    0.00000   1.02723   -2.000
 7020.00    0.00000   1.02743   -2.000
 7021.00    0.00000   1.02797   -2.000
 7022.00    0.00000   1.02863   -2.000
 7023.00    0.00000   1.02945   -2.000
 7024.00    0.00000   1.02990   -2.000
 7025.00    0.00000   1.03058   -2.000
 7026.00    0.00000   1.03123   -2.000
 7027.00    0.00000   1.03249   -2.000
 7028.00    0.00000   1.03351   -2.000
 7029.00    0.00000   1.03487   -2.000
 7030.00    0.00000   1.03605   -2.000
 7031.00    0.00000   1.03761   -2.000
 7032.00    0.00000   1.03906   -2.000
 7033.00    0.00000   1.04046   -2.000
 7034.00    0.00000   1.04177   -2.000
 7035.00    0.00000   1.04315   -2.000
 7036.00    0.00000   1.04437   -2.000
 7037.00    0.00000   1.04581   -2.000
 7038.00    0.00000   1.04715   -2.000
 7039.00    0.00000   1.04858   -2.000
 7040.00    0.00000   1.05070   -2.000
 7041.00    0.00000   1.05400   -2.000
 7042.00    0.00000   1.05748   -2.000
 7043.00    0.00000   1.06123   -2.000
 7044.00    0.00000   1.06487   -2.000
 7045.00    0.00000   1.06820   -2.000
 7046.00    0.00000   1.07087   -2.000
 7047.00    0.00000   1.07301   -2.000
 7048.00    0.00000   1.07415   -2.000
 7049.00    0.00000   1.07393   -2.000
 7050.00    0.00000   1.07248   -2.000
 7051.00    0.00000   1.06920   -2.000
 7052.00    0.00000   1.06466   -2.000
 7053.00    0.00000   1.05859   -2.000
 7054.00    0.00000   1.05156   -2.000
 7055.00    0.00000   1.04427   -2.000
 7056.00    0.00000   1.03694   -2.000
 7057.00    0.00000   1.03014   -2.000
 7058.00    0.00000   1.02367   -2.000
 7059.00    0.00000   1.01792   -2.000
 7060.00    0.00000   1.01256   -2.000
 7061.00    0.00000   1.00797   -2.000
 7062.00    0.00000   1.00427   -2.000
 7063.00    0.00000   1.00132   -2.000
 7064.00    0.00000   0.99878   -2.000
 7065.00    0.00000   0.99678   -2.000
 7066.00    0.00000   0.99525   -2.000
 7067.00    0.00000   0.99372   -2.000
 7068.00    0.00000   0.99290   -2.000
 7069.00    0.00000   0.99232   -2.000
 7070.00    0.00000   0.99285   -2.000
 7071.00    0.00000   0.99424   -2.000
 7072.00    0.00000   0.99647   -2.000
 7073.00    0.00000   0.99898   -2.000
 7074.00    0.00000   1.00194   -2.000
 7075.00    0.00000   1.00516   -2.000
 7076.00    0.00000   1.00803   -2.000
 7077.00    0.00000   1.01068   -2.000
 7078.00    0.00000   1.01247   -2.000
 7079.00    0.00000   1.01352   -2.000
 7080.00    0.00000   1.01331   -2.000
 7081.00    0.00000   1.01190   -2.000
 7082.00    0.00000   1.00917   -2.000
 7083.00    0.00000   1.00501   -2.000
 7084.00    0.00000   0.99957   -2.000
 7085.00    0.00000   0.99314   -2.000
 7086.00    0.00000   0.98623   -2.000
 7087.00    0.00000   0.97967   -2.000
 7088.00    0.00000   0.97289   -2.000
 7089.00    0.00000   0.96664   -2.000
 7090.00    0.00000   0.96103   -2.000
 7091.00    0.00000   0.95639   -2.000
 7092.00    0.00000   0.95261   -2.000
 7093.00    0.00000   0.95018   -2.000
 7094.00    0.00000   0.94841   -2.000
 7095.00    0.00000   0.94775   -2.000
 7096.00    0.00000   0.94810   -2.000
 7097.00    0.00000   0.94870   -2.000
 7098.00    0.00000   0.95084   -2.000
 7099.00    0.00000   0.95224   -2.000
 7100.00    0.00000   0.95548   -2.000
 7101.00    0.00000   0.95732   -2.000
 7102.00    0.00000   0.96026   -2.000
 7103.00    0.00000   0.96196   -2.000
 7104.00    0.00000   0.96410   -2.000
 7105.00    0.00000   0.96553   -2.000
 7106.00    0.00000   0.96679   -2.000
 7107.00    0.00000   0.96734   -2.000
 7108.00    0.00000   0.96734   -2.000
 7109.00    0.00000   0.96719   -2.000
 7110.00    0.00000   0.96678   -2.000
 7111.00    0.00000   0.96631   -2.000
 7112.00    0.00000   0.96554   -2.000
 7113.00    0.00000   0.96536   -2.000
 7114.00    0.00000   0.96537   -2.000
 7115.00    0.00000   0.96590   -2.000
 7116.00    0.00000   0.96635   -2.000
 7117.00    0.00000   0.96718   -2.000
 7118.00    0.00000   0.96790   -2.000
 7119.00    0.00000   0.96828   -2.000
 7120.00    0.00000   0.96870   -2.000
 7121.00    0.00000   0.96820   -2.000
 7122.00    0.00000   0.96782   -2.000
 7123.00    0.00000   0.96616   -2.000
 7124.00    0.00000   0.96468   -2.000
 7125.00    0.00000   0.96260   -2.000
 7126.00    0.00000   0.95995   -2.000
 7127.00    0.00000   0.95714   -2.000
 7128.00    0.00000   0.95409   -2.000
 7129.00    0.00000   0.95165   -2.000
 7130.00    0.00000   0.94906   -2.000
 7131.00    0.00000   0.94718   -2.000
 7132.00    0.00000   0.94563   -2.000
 7133.00    0.00000   0.94558   -2.000
 7134.00    0.00000   0.94605   -2.000
 7135.00    0.00000   0.94756   -2.000
 7136.00    0.00000   0.94950   -2.000
 7137.00    0.00000   0.95174   -2.000
 7138.00    0.00000   0.95441   -2.000
 7139.00    0.00000   0.95674   -2.000
 7140.00    0.00000   0.95886   -2.000
 7141.00    0.00000   0.96048   -2.000
 7142.00    0.00000   0.96202   -2.000
 7143.00    0.00000   0.96258   -2.000
 7144.00    0.00000   0.96287   -2.000
 7145.00    0.00000   0.96250   -2.000
 7146.00    0.00000   0.96197   -2.000
 7147.00    0.00000   0.96099   -2.000
 7148.00    0.00000   0.96029   -2.000
 7149.00    0.00000   0.95911   -2.000
 7150.00    0.00000   0.95906   -2.000
 7151.00    0.00000   0.95937   -2.000
 7152.00    0.00000   0.96037   -2.000
 7153.00    0.00000   0.96189   -2.000
 7154.00    0.00000   0.96402   -2.000
 7155.00    0.00000   0.96609   -2.000
 7156.00    0.00000   0.96823   -2.000
 7157.00    0.00000   0.96997   -2.000
 7158.00    0.00000   0.97198   -2.000
 7159.00    0.00000   0.97266   -2.000
 7160.00    0.00000   0.97306   -2.000
 7161.00    0.00000   0.97236   -2.000
 7162.00    0.00000   0.97164   -2.000
 7163.00    0.00000   0.97037   -2.000
 7164.00    0.00000   0.96897   -2.000
 7165.00    0.00000   0.96741   -2.000
 7166.00    0.00000   0.96618   -2.000
 7167.00    0.00000   0.96619   -2.000
 7168.00    0.00000   0.96678   -2.000
 7169.00    0.00000   0.96829   -2.000
 7170.00    0.00000   0.97007   -2.000
 7171.00    0.00000   0.97237   -2.000
 7172.00    0.00000   0.97486   -2.000
 7173.00    0.00000   0.97734   -2.000
 7174.00    0.00000   0.97937   -2.000
 7175.00    0.00000   0.98067   -2.000
 7176.00    0.00000   0.98121   -2.000
 7177.00    0.00000   0.98079   -2.000
 7178.00    0.00000   0.97993   -2.000
 7179.00    0.00000   0.97868   -2.000
 7180.00    0.00000   0.97665   -2.000
 7181.00    0.00000   0.97427   -2.000
 7182.00    0.00000   0.97163   -2.000
 7183.00    0.00000   0.96951   -2.000
 7184.00    0.00000   0.96756   -2.000
 7185.00    0.00000   0.96576   -2.000
 7186.00    0.00000   0.96371   -2.000
 7187.00    0.00000   0.96190   -2.000
 7188.00    0.00000   0.95986   -2.000
 7189.00    0.00000   0.95815   -2.000
 7190.00    0.00000   0.95697   -2.000
 7191.00    0.00000   0.95601   -2.000
 7192.00    0.00000   0.95595   -2.000
 7193.00    0.00000   0.95587   -2.000
 7194.00    0.00000   0.95654   -2.000
 7195.00    0.00000   0.95755   -2.000
 7196.00    0.00000   0.95932   -2.000
 7197.00    0.00000   0.96109   -2.000
 7198.00    0.00000   0.96285   -2.000
 7199.00    0.00000   0.96480   -2.000
 7200.00    0.00000   0.96673   -2.000
 7201.00    0.00000   0.96828   -2.000
 7202.00    0.00000   0.96945   -2.000
 7203.00    0.00000   0.97012   -2.000
 7204.00    0.00000   0.97048   -2.000
 7205.00    0.00000   0.97051   -2.000
 7206.00    0.00000   0.96997   -2.000
 7207.00    0.00000   0.96902   -2.000
 7208.00    0.00000   0.96767   -2.000
 7209.00    0.00000   0.96680   -2.000
 7210.00    0.00000   0.96652   -2.000
 7211.00    0.00000   0.96654   -2.000
 7212.00    0.00000   0.96752   -2.000
 7213.00    0.00000   0.96849   -2.000
 7214.00    0.00000   0.97014   -2.000
 7215.00    0.00000   0.97185   -2.000
 7216.00    0.00000   0.97409   -2.000
 7217.00    0.00000   0.97621   -2.000
 7218.00    0.00000   0.97857   -2.000
