###################################################################
## OUTPUT of StarlightChains_v04.for    [Cid@UFSC - 01/Apr/2007] ##
###################################################################

## Some input info
2008hv.txt                               [arq_obs]
Base.CB07.vall.4m                        [arq_base]
Masks.EmLines.NEW.gm                     [arq_masks]
StCv04.C11.config                        [arq_config]
   66                                    [N_base]
    0                                    [N_YAV_components = # of components with extra extinction!]
    0                                    [i_FitPowerLaw (1/0 = Yes/No)]
-9.99                                    [alpha_PowerLaw]
CCM                                      [red_law_option]
 1.458241                                [q_norm = A(l_norm)/A(V)]

## (Re)Sampling Parameters
 3741.00                                 [l_ini (A)]
 7218.00                                 [l_fin (A)]
    1.00                                 [dl    (A)]     (OBS: dl_cushion =    50.00 A)

## Normalization info
 4020.00                                 [l_norm (A) - for base]
 4010.00                                 [llow_norm (A) - window for f_obs]
 4060.00                                 [lupp_norm (A) - window for f_obs]
4.240353E-17                             [fobs_norm (in input units)]

## S/N
 3691.00                                 [llow_SN (A) - window for S/N]
 7268.00                                 [lupp_SN (A) - window for S/N]
   4.691                                 [S/N in S/N window]
   4.081                                 [S/N in norm. window]
   4.186                                 [S/N_err in S/N window]
   3.641                                 [S/N_err in norm. window]
  1.0000                                 [fscale_chi2]

## etc...
    -2007347                             [idum_orig]
  2373                                   [NOl_eff]
  2366                                   [Nl_eff]
     7    NSIGMA                         [Ntot_cliped & clip_method]
   684530                                [Nglobal_steps]
   7                                     [N_chains]
  14                                     [NEX0s_base = N_base in EX0s-fits]
 0   0   1       56   2.0   7.994E+00    [Clip-Bug, RC-Crash & Burn-In warning-flags, n_censored_weights, wei_nsig_threshold & wei_limit]
    10     10.315      9.810      0.505  [idt_all, wdt_TotTime, wdt_UsrTime & wdt_SysTime (sec)]

## Synthesis Results - Best model ##

 3.07829E-01                             [chi2/Nl_eff]
    12.07036                             [adev (%)]

   101.02129                             [sum-of-x (%)]
 3.03340E-17                             [Flux_tot (units of input spectrum!)]
 2.00279E-12                             [Mini_tot (???)]
 1.01300E-12                             [Mcor_tot (???)]

 146.30                                  [v0_min  (km/s)]
 205.66                                  [vd_min  (km/s)]
-0.2570                                  [AV_min  (mag)]
 0.0000                                  [YAV_min (mag)]

# j     x_j(%)      Mini_j(%)     Mcor_j(%)     age_j(yr)     Z_j      (L/M)_j    YAV?  Mstars   component_j        a/Fe...       SSP_chi2r SSP_adev(%)   SSP_AV   SSP_x(%)
  1      0.0000     0.0000E+00    0.0000E+00    1.000000E+06  0.00400  1.094E-02    0   1.0000   age020_m42            0.0000     3.8206E-01    16.5240   3.4354    93.2852
  2      0.0000     0.0000E+00    0.0000E+00    3.160000E+06  0.00400  4.007E-02    0   0.9999   age045_m42            0.0000     3.8056E-01    15.7696   2.7265    99.0497
  3      0.0000     0.0000E+00    0.0000E+00    5.010000E+06  0.00400  2.539E-02    0   0.9488   age055_m42            0.0000     3.8054E-01    16.1605   3.0356    97.0650
  4      0.0000     0.0000E+00    0.0000E+00    6.610000E+06  0.00400  2.620E-02    0   0.9220   age061_m42            0.0000     3.8113E-01    15.8458   2.6452    99.6532
  5      0.0000     0.0000E+00    0.0000E+00    1.000000E+07  0.00400  1.322E-02    0   0.8862   age070_m42            0.0000     4.0018E-01    16.8530   2.3076   104.5536
  6      0.0000     0.0000E+00    0.0000E+00    1.445000E+07  0.00400  7.883E-03    0   0.8571   age078_m42            0.0000     3.9774E-01    16.9800   2.6356   101.8198
  7      0.0000     0.0000E+00    0.0000E+00    2.512000E+07  0.00400  5.251E-03    0   0.8174   age090_m42            0.0000     4.0811E-01    17.0570   2.1669   105.6950
  8      0.0000     0.0000E+00    0.0000E+00    4.000000E+07  0.00400  3.649E-03    0   0.7851   age104_m42            0.0000     4.0300E-01    16.7521   1.9476   106.1931
  9      0.0000     0.0000E+00    0.0000E+00    5.500000E+07  0.00400  3.098E-03    0   0.7629   age110_m42            0.0000     3.9309E-01    16.1871   2.1294   104.7835
 10      0.0000     0.0000E+00    0.0000E+00    1.015200E+08  0.00400  2.228E-03    0   0.7207   age116_m42            0.0000     3.8784E-01    15.8425   2.1678   104.0895
 11      0.0000     0.0000E+00    0.0000E+00    2.861200E+08  0.00400  1.093E-03    0   0.6648   age125_m42            0.0000     3.9929E-01    15.9234   1.5868   107.9503
 12      0.0000     0.0000E+00    0.0000E+00    5.088000E+08  0.00400  6.597E-04    0   0.6365   age130_m42            0.0000     3.8147E-01    15.3132   1.6032   107.5056
 13      0.0000     0.0000E+00    0.0000E+00    1.434000E+09  0.00400  2.132E-04    0   0.5798   age139_m42            0.0000     3.5342E-01    14.2775   0.6408   109.2646
 14      0.0650     1.6532E-02    1.7574E-02    4.250000E+09  0.00400  5.895E-05    0   0.5377   age158_m42            0.0000     3.2532E-01    13.1766   0.2320   103.5276
 15      0.0000     0.0000E+00    0.0000E+00    7.500000E+09  0.00400  3.510E-05    0   0.5212   age171_m42            0.0000     3.1859E-01    12.7779   0.0589   102.1877
 16     71.3756     5.3372E+01    5.3120E+01    1.300000E+10  0.00400  2.005E-05    0   0.5034   age193_m42            0.0000     3.1177E-01    12.4397  -0.0924   101.0537
 17      0.0000     0.0000E+00    0.0000E+00    1.800000E+10  0.00400  1.525E-05    0   0.4967   age213_m42            0.0000     3.1338E-01    12.5059  -0.1196   100.7861
 18      0.0000     0.0000E+00    0.0000E+00    1.000000E+06  0.00800  1.238E-02    0   1.0000   age020_m52            0.0000     3.8195E-01    16.5159   3.4331    93.4069
 19      0.0639     3.1177E-05    6.1431E-05    3.160000E+06  0.00800  3.074E-02    0   0.9966   age045_m52            0.0000     3.8150E-01    16.4588   3.3577    94.1834
 20      0.0000     0.0000E+00    0.0000E+00    5.010000E+06  0.00800  2.668E-02    0   0.9443   age055_m52            0.0000     3.8025E-01    16.3013   3.1113    96.4877
 21      0.0000     0.0000E+00    0.0000E+00    6.610000E+06  0.00800  2.136E-02    0   0.9177   age061_m52            0.0000     3.7868E-01    16.3558   1.8124   105.5109
 22      0.0000     0.0000E+00    0.0000E+00    1.000000E+07  0.00800  1.215E-02    0   0.8827   age070_m52            0.0000     4.0889E-01    17.3179   2.4693   105.2053
 23      0.0000     0.0000E+00    0.0000E+00    1.445000E+07  0.00800  8.717E-03    0   0.8552   age078_m52            0.0000     3.9683E-01    16.9240   2.5986   103.3498
 24      0.0000     0.0000E+00    0.0000E+00    2.512000E+07  0.00800  5.592E-03    0   0.8162   age090_m52            0.0000     4.1013E-01    17.0858   2.2277   107.1207
 25      0.0000     0.0000E+00    0.0000E+00    4.000000E+07  0.00800  3.896E-03    0   0.7841   age104_m52            0.0000     4.0547E-01    16.7046   2.1559   107.1791
 26      0.0000     0.0000E+00    0.0000E+00    1.015200E+08  0.00800  2.148E-03    0   0.7226   age116_m52            0.0000     3.9321E-01    16.0068   2.1226   105.5823
 27      0.0000     0.0000E+00    0.0000E+00    2.861200E+08  0.00800  9.925E-04    0   0.6683   age125_m52            0.0000     3.8355E-01    15.3452   1.6690   108.4607
 28      0.0000     0.0000E+00    0.0000E+00    9.047900E+08  0.00800  3.141E-04    0   0.6138   age135_m52            0.0000     3.5561E-01    13.8460   0.9070   111.1885
 29      0.0000     0.0000E+00    0.0000E+00    1.434000E+09  0.00800  1.719E-04    0   0.5853   age139_m52            0.0000     3.3797E-01    13.5011   0.3238   109.1566
 30      0.0000     0.0000E+00    0.0000E+00    2.500000E+09  0.00800  7.872E-05    0   0.5600   age150_m52            0.0000     3.1792E-01    12.6921   0.0914   104.4858
 31      0.0083     2.8639E-03    3.0723E-03    4.250000E+09  0.00800  4.336E-05    0   0.5426   age158_m52            0.0000     3.1761E-01    12.5860   0.0783   103.4062
 32      0.0485     2.3030E-02    2.4218E-02    6.250000E+09  0.00800  3.159E-05    0   0.5319   age166_m52            0.0000     3.1220E-01    12.1745  -0.1022   102.4349
 33      0.0000     0.0000E+00    0.0000E+00    1.300000E+10  0.00800  1.361E-05    0   0.5073   age193_m52            0.0000     3.1056E-01    11.8263  -0.5460   100.7088
 34      0.0000     0.0000E+00    0.0000E+00    1.800000E+10  0.00800  9.886E-06    0   0.4990   age213_m52            0.0000     3.1210E-01    11.7220  -0.6300    99.1779
 35      0.0000     0.0000E+00    0.0000E+00    1.000000E+06  0.02000  1.544E-02    0   1.0000   age020_m62            0.0000     3.8183E-01    16.5410   3.4272    93.7003
 36      0.0000     0.0000E+00    0.0000E+00    3.160000E+06  0.02000  3.762E-02    0   0.9858   age045_m62            0.0000     3.8175E-01    16.5258   3.3673    94.4865
 37      0.0000     0.0000E+00    0.0000E+00    5.010000E+06  0.02000  3.296E-02    0   0.9342   age055_m62            0.0000     3.7853E-01    15.9260   3.0042    97.8744
 38      0.0000     0.0000E+00    0.0000E+00    8.710000E+06  0.02000  1.154E-02    0   0.8861   age067_m62            0.0000     5.1275E-01    20.4894   1.8124   114.0587
 39      0.0000     0.0000E+00    0.0000E+00    1.445000E+07  0.02000  7.663E-03    0   0.8472   age078_m62            0.0000     4.3134E-01    18.0627   2.0820   109.4534
 40      0.0000     0.0000E+00    0.0000E+00    2.512000E+07  0.02000  4.532E-03    0   0.8099   age090_m62            0.0000     4.4226E-01    18.2585   2.0696   109.4408
 41      0.0000     0.0000E+00    0.0000E+00    5.500000E+07  0.02000  2.733E-03    0   0.7595   age110_m62            0.0000     4.0108E-01    16.7106   2.1359   106.5351
 42      0.0000     0.0000E+00    0.0000E+00    1.609000E+08  0.02000  1.369E-03    0   0.6985   age120_m62            0.0000     3.9077E-01    15.8337   2.0148   107.4491
 43      0.0000     0.0000E+00    0.0000E+00    2.861200E+08  0.02000  9.013E-04    0   0.6714   age125_m62            0.0000     3.8434E-01    15.4036   1.7836   109.5519
 44      0.0000     0.0000E+00    0.0000E+00    5.088000E+08  0.02000  5.028E-04    0   0.6449   age130_m62            0.0000     3.6297E-01    14.3847   1.4465   110.4267
 45      0.0000     0.0000E+00    0.0000E+00    9.047900E+08  0.02000  2.428E-04    0   0.6179   age135_m62            0.0000     3.4055E-01    13.3665   0.8756   109.1125
 46      0.0000     0.0000E+00    0.0000E+00    1.434000E+09  0.02000  1.263E-04    0   0.5908   age139_m62            0.0000     3.2858E-01    12.8948   0.4375   107.2470
 47      0.0000     0.0000E+00    0.0000E+00    2.500000E+09  0.02000  5.985E-05    0   0.5673   age150_m62            0.0000     3.1670E-01    12.3288   0.1008   104.4173
 48     11.1856     5.1269E+00    5.5426E+00    4.250000E+09  0.02000  3.271E-05    0   0.5468   age158_m62            0.0000     3.1207E-01    11.8910  -0.1728   102.1273
 49      0.5074     5.5935E-01    5.7141E-01    1.000000E+10  0.02000  1.360E-05    0   0.5167   age181_m62            0.0000     3.1995E-01    11.7790  -0.4877   100.2966
 50      0.0000     0.0000E+00    0.0000E+00    1.800000E+10  0.02000  7.124E-06    0   0.5013   age213_m62            0.0000     3.3038E-01    11.8859  -0.6664    98.1898
 51      0.0000     0.0000E+00    0.0000E+00    1.000000E+06  0.05000  2.592E-02    0   0.9998   age020_m72            0.0000     3.8424E-01    16.6468   3.4153    93.8649
 52      0.0000     0.0000E+00    0.0000E+00    3.160000E+06  0.05000  4.845E-02    0   0.9577   age045_m72            0.0000     3.8147E-01    16.2600   3.2586    95.4091
 53      0.0000     0.0000E+00    0.0000E+00    5.010000E+06  0.05000  3.072E-02    0   0.9147   age055_m72            0.0000     4.0780E-01    17.4605   2.7082   103.3385
 54      0.0000     0.0000E+00    0.0000E+00    6.610000E+06  0.05000  1.455E-02    0   0.8877   age061_m72            0.0000     6.3980E-01    22.6718   1.8307   117.2902
 55      0.0000     0.0000E+00    0.0000E+00    1.000000E+07  0.05000  9.074E-03    0   0.8524   age070_m72            0.0000     4.3430E-01    17.8051   2.9046   102.7622
 56      0.0000     0.0000E+00    0.0000E+00    2.512000E+07  0.05000  4.250E-03    0   0.7902   age090_m72            0.0000     4.2702E-01    17.4491   2.5949   104.9509
 57      0.0000     0.0000E+00    0.0000E+00    4.000000E+07  0.05000  3.087E-03    0   0.7618   age104_m72            0.0000     4.3730E-01    17.5115   2.3606   107.0315
 58      0.0000     0.0000E+00    0.0000E+00    1.015200E+08  0.05000  1.700E-03    0   0.7096   age116_m72            0.0000     4.0631E-01    16.2730   2.1413   107.8185
 59      0.0000     0.0000E+00    0.0000E+00    2.861200E+08  0.05000  7.384E-04    0   0.6633   age125_m72            0.0000     3.7581E-01    14.9411   1.6735   109.9283
 60      0.0000     0.0000E+00    0.0000E+00    5.088000E+08  0.05000  3.819E-04    0   0.6372   age130_m72            0.0000     3.5131E-01    13.8617   1.2108   110.2302
 61      0.0000     0.0000E+00    0.0000E+00    9.047900E+08  0.05000  1.676E-04    0   0.6110   age135_m72            0.0000     3.3012E-01    12.7178   0.5577   106.2880
 62      0.0000     0.0000E+00    0.0000E+00    1.434000E+09  0.05000  8.837E-05    0   0.5874   age139_m72            0.0000     3.2343E-01    12.3247   0.1049   105.7245
 63      0.0000     0.0000E+00    0.0000E+00    2.500000E+09  0.05000  4.233E-05    0   0.5598   age150_m72            0.0000     3.1627E-01    11.8721  -0.1629   102.5160
 64      0.0000     0.0000E+00    0.0000E+00    6.250000E+09  0.05000  1.435E-05    0   0.5249   age166_m72            0.0000     3.2619E-01    11.8847  -0.5704    99.2472
 65     17.7670     4.0899E+01    4.0721E+01    1.300000E+10  0.05000  6.513E-06    0   0.5036   age193_m72            0.0000     3.4097E-01    12.0591  -0.8139    98.6571
 66      0.0000     0.0000E+00    0.0000E+00    1.800000E+10  0.05000  4.527E-06    0   0.4945   age213_m72            0.0000     3.5684E-01    12.3081  -0.9493    97.3940


## Synthesis Results - Average & Chains ##

# j      x_j: min, <> & last-chain-values for 1 ...  7 chains
  1      0.0000      0.1182      0.0000      0.0000      0.0000      0.0000      0.0000      0.0000      0.0000
  2      0.0000      0.2955      0.0000      0.0000      0.0000      0.0000      0.0730      0.5507      0.0000
  3      0.0000      0.0746      0.0000      0.0000      0.0000      0.0000      0.0000      0.0000      0.0000
  4      0.0000      0.1607      0.0000      0.0000      0.0000      0.0000      0.2651      0.0000      0.0000
  5      0.0000      0.2490      0.0000      0.0000      0.0000      0.0000      1.6799      0.0000      0.0000
  6      0.0000      0.0846      0.9538      0.0000      0.0000      0.0000      0.0000      0.0000      0.0000
  7      0.0000      0.1720      0.0000      0.0000      1.8798      0.0000      0.0000      0.0000      0.0000
  8      0.0000      0.1304      0.0000      0.0000      0.0000      0.0000      1.6015      0.0000      2.4593
  9      0.0000      0.0414      0.0000      0.0000      0.0000      0.0000      0.0000      0.0000      0.0000
 10      0.0000      0.1558      0.0000      0.0000      0.0000      2.2780      0.0000      0.0000      0.0000
 11      0.0000      0.2557      0.0000      0.0000      0.0000      0.0000      0.0000      0.0000      0.0000
 12      0.0000      0.2075      0.0000      0.0000      0.0000      0.0000      0.0000      0.0000      0.0000
 13      0.0000      0.9270      0.0000      0.0000      0.0000      0.0000      4.0469      0.0000      0.0000
 14      0.0650      5.6577      0.0000      4.3364      0.4168      0.0000      6.2102      6.6175      0.0000
 15      0.0000      7.2322      2.7941      2.5452      0.0000      9.4063      0.1090      7.2384      0.0000
 16     71.3756     12.0120     19.3222     26.3902     26.7060     15.0424     18.1498     16.6129      9.5239
 17      0.0000      4.9315      9.6996      0.0000      3.8793     11.1615      0.0000      0.0000      5.2197
 18      0.0000      0.0586      0.0000      0.0000      0.0000      0.0000      0.0000      0.0000      0.2688
 19      0.0639      0.0547      0.0000      0.8802      0.0000      0.0000      0.0000      0.0000      0.0000
 20      0.0000      0.1215      0.0000      0.0000      0.0000      0.0000      0.4292      0.0000      0.0000
 21      0.0000      0.1094      0.0000      0.0000      0.1360      0.0000      0.0000      0.0000      0.0000
 22      0.0000      0.0857      0.0000      0.0000      0.0000      0.0000      0.0000      0.0000      0.0000
 23      0.0000      0.1684      0.0000      0.0000      0.0000      0.0308      0.3268      0.3052      0.0000
 24      0.0000      0.1496      0.0000      0.0000      0.0000      1.4825      0.0000      0.0000      0.0000
 25      0.0000      0.1424      0.0000      0.4609      0.0000      0.0000      0.0000      0.0000      0.2864
 26      0.0000      0.0273      1.3515      0.0000      0.0000      0.0000      0.0000      0.0000      0.0000
 27      0.0000      0.1700      2.5548      0.0296      0.0000      0.0000      0.0000      0.0000      0.0000
 28      0.0000      0.5863      0.0000      0.0000      0.6250      0.0000      0.0000      0.0000     10.9363
 29      0.0000      1.5581      0.0000      0.0000      0.0000      0.0000      0.0000      0.0000      2.8230
 30      0.0000      8.2090      5.1640      1.1096      5.1371      0.0000     11.0127     16.1860      2.0809
 31      0.0083      9.2504      0.0000     12.7698     28.7741      6.4064      0.0000      5.9583      0.0000
 32      0.0485      6.8913      0.9590     10.6758      0.0000      0.2883      8.7596      0.0000      0.0000
 33      0.0000      1.3505      0.0000      3.6399      0.8876      0.0000      1.4618      0.0000      5.2711
 34      0.0000      0.5233      5.0728      0.0000      0.0000      1.2518      0.0000      0.0000      0.0000
 35      0.0000      0.0599      0.0000      0.5515      0.0000      0.0000      0.0000      0.0000      0.0000
 36      0.0000      0.1392      0.0000      0.0000      0.0000      0.0000      0.0000      0.0000      0.3772
 37      0.0000      0.2898      0.0000      0.0000      0.0000      0.0000      0.0000      1.7441      0.0000
 38      0.0000      0.2894      0.8121      0.0000      0.0000      0.0000      0.0000      0.0000      0.0000
 39      0.0000      0.0632      0.0000      0.0000      0.0000      0.0000      0.0000      0.0000      0.0000
 40      0.0000      0.1355      0.0000      0.0000      0.0000      0.0000      0.0000      2.1287      0.0000
 41      0.0000      0.0521      0.0000      0.0000      0.0000      0.0000      0.0000      0.0000      0.0000
 42      0.0000      0.1162      1.7113      0.0000      0.0000      0.0000      0.4562      0.0000      0.0000
 43      0.0000      0.3003      2.2719      0.0000      0.0000      3.3286      0.0000      0.0000      0.0000
 44      0.0000      0.1127      1.1967      0.0000      0.8779      0.0000      0.0000      0.0000      1.0063
 45      0.0000      0.7646      0.0000      0.0000      0.0000      2.8225      0.0000      0.0000      1.7360
 46      0.0000      0.9731      0.0000      1.4865      0.2144      0.0000      0.0000      4.7202      0.0000
 47      0.0000     10.4512     21.8300      1.6516      5.9747      8.5094     18.3203      4.7718     28.3688
 48     11.1856      9.6975      5.3346     19.4281     13.1833     19.9225     16.0668     18.4112     10.5750
 49      0.5074      2.0087      0.0000      2.2462      0.0000      0.1915      5.6247      2.2897      0.9407
 50      0.0000      1.0575      4.8212      0.0000      0.0000      2.1333      0.0000      0.0000      0.0000
 51      0.0000      0.0943      0.0000      0.0000      0.0000      0.0000      0.0000      0.0000      0.0000
 52      0.0000      0.0708      0.0000      0.0000      0.0000      1.7738      0.0000      0.0000      0.0000
 53      0.0000      0.0847      0.0000      0.0000      0.0000      0.0000      0.0000      0.0000      0.0000
 54      0.0000      0.1007      0.0000      0.0000      0.0000      2.5758      0.0000      0.0000      0.0000
 55      0.0000      0.1141      0.0000      0.0000      0.0000      0.0000      0.0000      0.0000      0.0000
 56      0.0000      0.0763      0.0000      0.6848      0.0000      0.0000      0.0000      0.0000      0.0000
 57      0.0000      0.1132      0.0000      0.0000      0.0000      0.0000      0.0000      0.0000      0.0000
 58      0.0000      0.1413      0.0000      0.0000      0.0000      0.0000      0.0000      0.0000      0.0000
 59      0.0000      0.1172      0.0000      0.0000      0.0000      0.0000      0.0000      0.1069      0.0000
 60      0.0000      0.1574      0.0000      0.0000      0.0000      0.0000      0.0000      0.0000      0.0000
 61      0.0000      0.7464      0.0000      0.0995      0.0000      0.0000      0.0000      0.0000      2.9966
 62      0.0000      4.0813      0.0000      0.0000      0.0000      0.0000      0.0000      0.0000      0.0000
 63      0.0000      8.8829     11.7608     12.9805     15.9091     11.9264      9.0457     12.4413     17.7704
 64      0.0000      0.6581      2.3033      0.0000      0.0000      4.3766      0.0000      3.6025      1.8299
 65     17.7670      0.2517      4.8438      0.8084      0.0000      0.0000      0.0000      0.0000      0.0000
 66      0.0000      0.1382      0.0000      0.0000      0.0000      0.0000      0.0000      0.0000      1.2096

# j      m_j: min, <> & last-chain-values for 1 ...  7 chains
  1  0.0000E+00  6.6557E-04  0.0000E+00  0.0000E+00  0.0000E+00  0.0000E+00  0.0000E+00  0.0000E+00  0.0000E+00
  2  0.0000E+00  4.5428E-04  0.0000E+00  0.0000E+00  0.0000E+00  0.0000E+00  1.1520E-04  8.9612E-04  0.0000E+00
  3  0.0000E+00  1.7177E-04  0.0000E+00  0.0000E+00  0.0000E+00  0.0000E+00  0.0000E+00  0.0000E+00  0.0000E+00
  4  0.0000E+00  3.4839E-04  0.0000E+00  0.0000E+00  0.0000E+00  0.0000E+00  5.8986E-04  0.0000E+00  0.0000E+00
  5  0.0000E+00  1.0285E-03  0.0000E+00  0.0000E+00  0.0000E+00  0.0000E+00  7.1202E-03  0.0000E+00  0.0000E+00
  6  0.0000E+00  5.6695E-04  4.3072E-03  0.0000E+00  0.0000E+00  0.0000E+00  0.0000E+00  0.0000E+00  0.0000E+00
  7  0.0000E+00  1.6498E-03  0.0000E+00  0.0000E+00  1.6999E-02  0.0000E+00  0.0000E+00  0.0000E+00  0.0000E+00
  8  0.0000E+00  1.7290E-03  0.0000E+00  0.0000E+00  0.0000E+00  0.0000E+00  2.1786E-02  0.0000E+00  3.3402E-02
  9  0.0000E+00  6.2877E-04  0.0000E+00  0.0000E+00  0.0000E+00  0.0000E+00  0.0000E+00  0.0000E+00  0.0000E+00
 10  0.0000E+00  3.1049E-03  0.0000E+00  0.0000E+00  0.0000E+00  3.8204E-02  0.0000E+00  0.0000E+00  0.0000E+00
 11  0.0000E+00  9.5795E-03  0.0000E+00  0.0000E+00  0.0000E+00  0.0000E+00  0.0000E+00  0.0000E+00  0.0000E+00
 12  0.0000E+00  1.2333E-02  0.0000E+00  0.0000E+00  0.0000E+00  0.0000E+00  0.0000E+00  0.0000E+00  0.0000E+00
 13  0.0000E+00  1.5531E-01  0.0000E+00  0.0000E+00  0.0000E+00  0.0000E+00  6.9585E-01  0.0000E+00  0.0000E+00
 14  1.7574E-02  3.1792E+00  0.0000E+00  2.0921E+00  2.2084E-01  0.0000E+00  3.5815E+00  3.9359E+00  0.0000E+00
 15  0.0000E+00  6.6160E+00  1.7233E+00  1.9990E+00  0.0000E+00  7.2415E+00  1.0237E-01  7.0085E+00  0.0000E+00
 16  5.3120E+01  1.8580E+01  2.0150E+01  3.5046E+01  3.8951E+01  1.9581E+01  2.8812E+01  2.7198E+01  1.5095E+01
 17  0.0000E+00  9.8953E+00  1.3122E+01  0.0000E+00  7.3400E+00  1.8848E+01  0.0000E+00  0.0000E+00  1.0732E+01
 18  0.0000E+00  2.9179E-04  0.0000E+00  0.0000E+00  0.0000E+00  0.0000E+00  0.0000E+00  0.0000E+00  1.3706E-03
 19  6.1431E-05  1.0931E-04  0.0000E+00  1.5093E-03  0.0000E+00  0.0000E+00  0.0000E+00  0.0000E+00  0.0000E+00
 20  0.0000E+00  2.6496E-04  0.0000E+00  0.0000E+00  0.0000E+00  0.0000E+00  9.6053E-04  0.0000E+00  0.0000E+00
 21  0.0000E+00  2.8945E-04  0.0000E+00  0.0000E+00  3.3947E-04  0.0000E+00  0.0000E+00  0.0000E+00  0.0000E+00
 22  0.0000E+00  3.8362E-04  0.0000E+00  0.0000E+00  0.0000E+00  0.0000E+00  0.0000E+00  0.0000E+00  0.0000E+00
 23  0.0000E+00  1.0180E-03  0.0000E+00  0.0000E+00  0.0000E+00  1.5691E-04  2.0273E-03  1.9525E-03  0.0000E+00
 24  0.0000E+00  1.3450E-03  0.0000E+00  0.0000E+00  0.0000E+00  1.1218E-02  0.0000E+00  0.0000E+00  0.0000E+00
 25  0.0000E+00  1.7652E-03  0.0000E+00  4.9063E-03  0.0000E+00  0.0000E+00  0.0000E+00  0.0000E+00  3.6391E-03
 26  0.0000E+00  5.6569E-04  1.8884E-02  0.0000E+00  0.0000E+00  0.0000E+00  0.0000E+00  0.0000E+00  0.0000E+00
 27  0.0000E+00  7.0529E-03  7.1453E-02  1.0532E-03  0.0000E+00  0.0000E+00  0.0000E+00  0.0000E+00  0.0000E+00
 28  0.0000E+00  7.0583E-02  0.0000E+00  0.0000E+00  7.0948E-02  0.0000E+00  0.0000E+00  0.0000E+00  1.3491E+00
 29  0.0000E+00  3.2682E-01  0.0000E+00  0.0000E+00  0.0000E+00  0.0000E+00  0.0000E+00  0.0000E+00  6.0677E-01
 30  0.0000E+00  3.5976E+00  1.5258E+00  4.1752E-01  2.1229E+00  0.0000E+00  4.9534E+00  7.5081E+00  9.3448E-01
 31  3.0723E-03  7.1314E+00  0.0000E+00  8.4523E+00  2.0917E+01  4.1564E+00  0.0000E+00  4.8618E+00  0.0000E+00
 32  2.4218E-02  7.1483E+00  6.7069E-01  9.5077E+00  0.0000E+00  2.5166E-01  9.3255E+00  0.0000E+00  0.0000E+00
 33  0.0000E+00  3.1011E+00  0.0000E+00  7.1763E+00  1.9218E+00  0.0000E+00  3.4451E+00  0.0000E+00  1.2403E+01
 34  0.0000E+00  1.6272E+00  1.0635E+01  0.0000E+00  0.0000E+00  3.2758E+00  0.0000E+00  0.0000E+00  0.0000E+00
 35  0.0000E+00  2.3903E-04  0.0000E+00  1.8893E-03  0.0000E+00  0.0000E+00  0.0000E+00  0.0000E+00  0.0000E+00
 36  0.0000E+00  2.2470E-04  0.0000E+00  0.0000E+00  0.0000E+00  0.0000E+00  0.0000E+00  0.0000E+00  6.2399E-04
 37  0.0000E+00  5.0611E-04  0.0000E+00  0.0000E+00  0.0000E+00  0.0000E+00  0.0000E+00  3.2235E-03  0.0000E+00
 38  0.0000E+00  1.3692E-03  2.5901E-03  0.0000E+00  0.0000E+00  0.0000E+00  0.0000E+00  0.0000E+00  0.0000E+00
 39  0.0000E+00  4.3036E-04  0.0000E+00  0.0000E+00  0.0000E+00  0.0000E+00  0.0000E+00  0.0000E+00  0.0000E+00
 40  0.0000E+00  1.4920E-03  0.0000E+00  0.0000E+00  0.0000E+00  0.0000E+00  0.0000E+00  2.4805E-02  0.0000E+00
 41  0.0000E+00  8.9172E-04  0.0000E+00  0.0000E+00  0.0000E+00  0.0000E+00  0.0000E+00  0.0000E+00  0.0000E+00
 42  0.0000E+00  3.6526E-03  3.6266E-02  0.0000E+00  0.0000E+00  0.0000E+00  1.4716E-02  0.0000E+00  0.0000E+00
 43  0.0000E+00  1.3782E-02  7.0294E-02  0.0000E+00  0.0000E+00  1.2855E-01  0.0000E+00  0.0000E+00  0.0000E+00
 44  0.0000E+00  8.9013E-03  6.3751E-02  0.0000E+00  6.5412E-02  0.0000E+00  0.0000E+00  0.0000E+00  8.1478E-02
 45  0.0000E+00  1.1987E-01  0.0000E+00  0.0000E+00  0.0000E+00  3.7241E-01  0.0000E+00  0.0000E+00  2.7888E-01
 46  0.0000E+00  2.8042E-01  0.0000E+00  3.6779E-01  5.8270E-02  0.0000E+00  0.0000E+00  1.4398E+00  0.0000E+00
 47  0.0000E+00  6.1029E+00  8.5945E+00  8.2802E-01  3.2899E+00  4.1818E+00  1.0980E+01  2.9493E+00  1.6975E+01
 48  5.5426E+00  9.9869E+00  3.7040E+00  1.7178E+01  1.2802E+01  1.7267E+01  1.6982E+01  2.0069E+01  1.1159E+01
 49  5.7141E-01  4.7016E+00  0.0000E+00  4.5139E+00  0.0000E+00  3.7723E-01  1.3512E+01  5.6723E+00  2.2560E+00
 50  0.0000E+00  4.5843E+00  1.4091E+01  0.0000E+00  0.0000E+00  7.7827E+00  0.0000E+00  0.0000E+00  0.0000E+00
 51  0.0000E+00  2.2411E-04  0.0000E+00  0.0000E+00  0.0000E+00  0.0000E+00  0.0000E+00  0.0000E+00  0.0000E+00
 52  0.0000E+00  8.6156E-05  0.0000E+00  0.0000E+00  0.0000E+00  1.8179E-03  0.0000E+00  0.0000E+00  0.0000E+00
 53  0.0000E+00  1.5538E-04  0.0000E+00  0.0000E+00  0.0000E+00  0.0000E+00  0.0000E+00  0.0000E+00  0.0000E+00
 54  0.0000E+00  3.7839E-04  0.0000E+00  0.0000E+00  0.0000E+00  8.1476E-03  0.0000E+00  0.0000E+00  0.0000E+00
 55  0.0000E+00  6.6058E-04  0.0000E+00  0.0000E+00  0.0000E+00  0.0000E+00  0.0000E+00  0.0000E+00  0.0000E+00
 56  0.0000E+00  8.7386E-04  0.0000E+00  6.7342E-03  0.0000E+00  0.0000E+00  0.0000E+00  0.0000E+00  0.0000E+00
 57  0.0000E+00  1.7213E-03  0.0000E+00  0.0000E+00  0.0000E+00  0.0000E+00  0.0000E+00  0.0000E+00  0.0000E+00
 58  0.0000E+00  3.6331E-03  0.0000E+00  0.0000E+00  0.0000E+00  0.0000E+00  0.0000E+00  0.0000E+00  0.0000E+00
 59  0.0000E+00  6.4832E-03  0.0000E+00  0.0000E+00  0.0000E+00  0.0000E+00  0.0000E+00  6.2591E-03  0.0000E+00
 60  0.0000E+00  1.6182E-02  0.0000E+00  0.0000E+00  0.0000E+00  0.0000E+00  0.0000E+00  0.0000E+00  0.0000E+00
 61  0.0000E+00  1.6764E-01  0.0000E+00  1.9177E-02  0.0000E+00  0.0000E+00  0.0000E+00  0.0000E+00  6.8963E-01
 62  0.0000E+00  1.6713E+00  0.0000E+00  0.0000E+00  0.0000E+00  0.0000E+00  0.0000E+00  0.0000E+00  0.0000E+00
 63  0.0000E+00  7.2371E+00  6.4601E+00  9.0797E+00  1.2222E+01  8.1772E+00  7.5637E+00  1.0728E+01  1.4835E+01
 64  0.0000E+00  1.4829E+00  3.4994E+00  0.0000E+00  0.0000E+00  8.3000E+00  0.0000E+00  8.5924E+00  4.2253E+00
 65  4.0721E+01  1.1992E+00  1.5556E+01  3.3062E+00  0.0000E+00  0.0000E+00  0.0000E+00  0.0000E+00  0.0000E+00
 66  0.0000E+00  9.3010E-01  0.0000E+00  0.0000E+00  0.0000E+00  0.0000E+00  0.0000E+00  0.0000E+00  8.3405E+00

# AV, chi2 & Mass for <> & i_chain = 1 ...  7 solutions
AV      -0.2570      0.0160     -0.0975     -0.0786     -0.0531     -0.0102     -0.0002      0.0005      0.0218
chi2 3.0783E-01  3.1450E-01  3.1212E-01  3.1121E-01  3.1310E-01  3.1351E-01  3.1284E-01  3.1304E-01  3.1464E-01
Mass 1.0130E-12  7.0325E-13  8.9561E-13  7.2133E-13  6.7966E-13  8.0672E-13  6.7049E-13  6.5075E-13  6.9167E-13
 146.30                                  [v0_min (km/s) before EX0s...]
 205.66                                  [vd_min (km/s) before EX0s...]


## Synthetic spectrum (Best Model) ##l_obs f_obs f_syn wei
 3478    [Nl_obs]
 3741.00    0.35034   0.52225    0.000
 3742.00    0.73961   0.54611    0.000
 3743.00    1.12465   0.55563    0.000
 3744.00    1.47468   0.54977    0.000
 3745.00    1.70470   0.53145    1.051
 3746.00    1.57111   0.50587    1.052
 3747.00    1.01551   0.47866    1.099
 3748.00    0.47105   0.45492    1.152
 3749.00    0.33804   0.43914    1.167
 3750.00    0.49249   0.43529    1.167
 3751.00    0.63721   0.44615    1.184
 3752.00    0.65387   0.47192    1.210
 3753.00    0.56949   0.50912    1.222
 3754.00    0.49105   0.55069    1.220
 3755.00    0.49892   0.58783    1.217
 3756.00    0.57203   0.61277    1.228
 3757.00    0.64953   0.62146    1.254
 3758.00    0.68356   0.61500    1.271
 3759.00    0.64945   0.59915    1.269
 3760.00    0.55436   0.58191    1.274
 3761.00    0.46251   0.56997    1.293
 3762.00    0.49048   0.56615    1.291
 3763.00    0.66709   0.56907    1.258
 3764.00    0.86937   0.57512    1.250
 3765.00    0.98779   0.58088    1.286
 3766.00    1.01645   0.58462    1.320
 3767.00    0.97296   0.58645    1.310
 3768.00    0.84911   0.58774    1.277
 3769.00    0.61134   0.59035    1.268
 3770.00    0.23693   0.59590    1.319
 3771.00   -0.11325   0.60531    0.000
 3772.00   -0.10273   0.61847    0.000
 3773.00    0.32129   0.63431    1.340
 3774.00    0.79939   0.65113    1.282
 3775.00    1.00132   0.66706    1.308
 3776.00    0.84527   0.68088    1.388
 3777.00    0.53539   0.69267    1.452
 3778.00    0.45074   0.70354    1.421
 3779.00    0.65773   0.71465    1.330
 3780.00    0.84886   0.72645    1.290
 3781.00    0.86976   0.73825    1.305
 3782.00    0.84051   0.74821    1.289
 3783.00    0.84459   0.75388    1.236
 3784.00    0.85518   0.75288    1.220
 3785.00    0.88095   0.74369    1.256
 3786.00    0.96671   0.72615    1.294
 3787.00    1.03474   0.70196    1.312
 3788.00    0.93012   0.67470    1.340
 3789.00    0.70777   0.64883    1.385
 3790.00    0.59816   0.62796    1.416
 3791.00    0.66218   0.61345    1.429
 3792.00    0.77416   0.60414    1.450
 3793.00    0.84748   0.59694    1.474
 3794.00    0.87638   0.58835    1.472
 3795.00    0.88082   0.57624    1.445
 3796.00    0.87116   0.56083    1.428
 3797.00    0.80216   0.54457    1.449
 3798.00    0.63236   0.53138    1.511
 3799.00    0.47701   0.52572    1.575
 3800.00    0.50471   0.53118    1.579
 3801.00    0.64991   0.54890    1.546
 3802.00    0.69539   0.57684    1.551
 3803.00    0.56137   0.61023    1.596
 3804.00    0.32973   0.64294    1.630
 3805.00    0.17196   0.66947    1.632
 3806.00    0.23356   0.68683    1.618
 3807.00    0.45873   0.69545    1.613
 3808.00    0.67727   0.69833    1.635
 3809.00    0.80315   0.69880    1.653
 3810.00    0.82012   0.69862    1.637
 3811.00    0.70599   0.69704    1.626
 3812.00    0.45994   0.69151    1.670
 3813.00    0.15965   0.67956    1.725
 3814.00   -0.08006   0.66067    0.000
 3815.00   -0.18090   0.63712    0.000
 3816.00   -0.14400   0.61316    0.000
 3817.00   -0.08669   0.59251    0.000
 3818.00   -0.13880   0.57668    0.000
 3819.00   -0.30577   0.56483    0.000
 3820.00   -0.49079   0.55482    0.000
 3821.00   -0.54972   0.54505    0.000
 3822.00   -0.39102   0.53513    0.000
 3823.00   -0.07712   0.52507    0.000
 3824.00    0.24466   0.51484    1.738
 3825.00    0.43499   0.50422    1.701
 3826.00    0.43074   0.49288    1.732
 3827.00    0.29840   0.48109    1.796
 3828.00    0.15916   0.47008    1.840
 3829.00    0.10681   0.46131    1.870
 3830.00    0.16443   0.45486    1.914
 3831.00    0.26246   0.44896    1.953
 3832.00    0.34270   0.44158    1.960
 3833.00    0.43764   0.43212    1.927
 3834.00    0.55844   0.42181    1.882
 3835.00    0.61250   0.41277    1.881
 3836.00    0.52681   0.40707    1.939
 3837.00    0.34232   0.40598    1.997
 3838.00    0.16351   0.40956    2.012
 3839.00    0.10498   0.41745    2.035
 3840.00    0.21201   0.43001    2.085
 3841.00    0.41804   0.44828    2.065
 3842.00    0.61843   0.47312    1.955
 3843.00    0.72952   0.50407    1.884
 3844.00    0.74066   0.53834    1.906
 3845.00    0.72488   0.57172    1.954
 3846.00    0.72175   0.60031    1.954
 3847.00    0.68544   0.62137    0.000
 3848.00    0.58392   0.63425    0.000
 3849.00    0.44908   0.64018    0.000
 3850.00    0.33921   0.64132    0.000
 3851.00    0.31040   0.64004    0.000
 3852.00    0.38087   0.63781    0.000
 3853.00    0.51456   0.63516    0.000
 3854.00    0.62668   0.63169    0.000
 3855.00    0.61750   0.62609    0.000
 3856.00    0.50330   0.61654    0.000
 3857.00    0.42304   0.60268    0.000
 3858.00    0.42974   0.58659    0.000
 3859.00    0.44478   0.57159    0.000
 3860.00    0.42330   0.56130    0.000
 3861.00    0.40581   0.55892    0.000
 3862.00    0.46013   0.56553    0.000
 3863.00    0.63157   0.58005    0.000
 3864.00    0.85277   0.59945    0.000
 3865.00    0.96723   0.61878    0.000
 3866.00    0.90594   0.63306    0.000
 3867.00    0.73263   0.63977    0.000
 3868.00    0.59707   0.63920    0.000
 3869.00    0.65422   0.63301    0.000
 3870.00    0.88091   0.62288    0.000
 3871.00    1.09024   0.61035    0.000
 3872.00    1.11953   0.59759    0.000
 3873.00    0.91471   0.58745    0.000
 3874.00    0.60399   0.58224    0.000
 3875.00    0.40545   0.58255    0.000
 3876.00    0.36180   0.58670    0.000
 3877.00    0.35728   0.59145    0.000
 3878.00    0.30885   0.59343    0.000
 3879.00    0.21152   0.59131    0.000
 3880.00    0.13469   0.58656    0.000
 3881.00    0.17035   0.58197    2.397
 3882.00    0.33067   0.57943    2.468
 3883.00    0.55181   0.57838    2.466
 3884.00    0.74381   0.57618    2.404
 3885.00    0.82575   0.57092    2.343
 3886.00    0.77082   0.56266    2.330
 3887.00    0.60754   0.55257    2.371
 3888.00    0.40615   0.54270    2.381
 3889.00    0.25146   0.53705    2.281
 3890.00    0.20278   0.54014    2.156
 3891.00    0.28859   0.55344    2.096
 3892.00    0.50713   0.57463    2.038
 3893.00    0.79913   0.59969    1.919
 3894.00    1.01510   0.62388    1.844
 3895.00    1.02995   0.64312    1.902
 3896.00    0.89992   0.65585    2.005
 3897.00    0.75277   0.66317    2.000
 3898.00    0.62162   0.66730    1.949
 3899.00    0.50628   0.67026    1.972
 3900.00    0.46935   0.67268    2.016
 3901.00    0.56329   0.67397    1.989
 3902.00    0.73699   0.67409    1.948
 3903.00    0.89939   0.67348    1.974
 3904.00    1.00038   0.67221    2.030
 3905.00    1.02102   0.67030    2.052
 3906.00    0.95507   0.66941    2.060
 3907.00    0.81523   0.67244    2.096
 3908.00    0.64080   0.68102    2.149
 3909.00    0.49415   0.69564    2.186
 3910.00    0.44911   0.71518    2.203
 3911.00    0.51847   0.73590    2.218
 3912.00    0.60417   0.75346    2.267
 3913.00    0.61924   0.76537    2.367
 3914.00    0.58456   0.77100    2.484
 3915.00    0.55178   0.77029    2.585
 3916.00    0.53853   0.76338    2.685
 3917.00    0.54618   0.75144    2.790
 3918.00    0.57553   0.73582    2.830
 3919.00    0.62040   0.71732    2.772
 3920.00    0.66625   0.69727    2.703
 3921.00    0.71735   0.67707    2.677
 3922.00    0.80373   0.65804    2.651
 3923.00    0.90840   0.64129    2.583
 3924.00    0.94032   0.62682    2.481
 3925.00    0.85194   0.61258    2.377
 3926.00    0.69797   0.59477    2.306
 3927.00    0.55973   0.56971    2.283
 3928.00    0.49205   0.53527    2.306
 3929.00    0.48245   0.49197    2.330
 3930.00    0.45144   0.44253    2.287
 3931.00    0.35735   0.39091    2.200
 3932.00    0.23690   0.34201    2.176
 3933.00    0.14275   0.30040    2.237
 3934.00    0.10853   0.27013    2.277
 3935.00    0.13299   0.25476    2.243
 3936.00    0.18268   0.25637    2.194
 3937.00    0.23084   0.27510    2.166
 3938.00    0.27199   0.30868    2.131
 3939.00    0.31245   0.35251    2.095
 3940.00    0.36130   0.40074    2.098
 3941.00    0.41280   0.44780    2.139
 3942.00    0.45324   0.48983    2.164
 3943.00    0.50707   0.52509    2.147
 3944.00    0.61511   0.55424    2.109
 3945.00    0.71001   0.58002    2.081
 3946.00    0.65048   0.60488    2.084
 3947.00    0.45604   0.63044    2.125
 3948.00    0.31030   0.65703    2.186
 3949.00    0.34717   0.68225    2.219
 3950.00    0.57498   0.70355    2.173
 3951.00    0.85329   0.72110    2.104
 3952.00    0.97767   0.73589    2.113
 3953.00    0.91268   0.74755    2.197
 3954.00    0.77983   0.75484    2.255
 3955.00    0.67169   0.75771    2.238
 3956.00    0.61066   0.75749    2.188
 3957.00    0.56715   0.75370    2.162
 3958.00    0.50860   0.74403    2.190
 3959.00    0.49356   0.72788    2.228
 3960.00    0.60849   0.70587    0.000
 3961.00    0.79555   0.67715    0.000
 3962.00    0.90825   0.64034    0.000
 3963.00    0.89168   0.59567    0.000
 3964.00    0.78438   0.54599    0.000
 3965.00    0.65230   0.49518    0.000
 3966.00    0.54682   0.44523    0.000
 3967.00    0.45608   0.39716    0.000
 3968.00    0.35068   0.35384    0.000
 3969.00    0.27136   0.32011    0.000
 3970.00    0.28553   0.30128    0.000
 3971.00    0.39661   0.30118    0.000
 3972.00    0.54506   0.32073    0.000
 3973.00    0.63468   0.35757    0.000
 3974.00    0.59577   0.40707    0.000
 3975.00    0.46504   0.46388    0.000
 3976.00    0.34103   0.52335    0.000
 3977.00    0.30842   0.58191    0.000
 3978.00    0.40943   0.63668    0.000
 3979.00    0.62081   0.68550    0.000
 3980.00    0.86014   0.72737    0.000
 3981.00    1.00365   0.76154    2.186
 3982.00    0.97410   0.78752    2.166
 3983.00    0.83091   0.80586    2.175
 3984.00    0.69093   0.81859    2.162
 3985.00    0.63272   0.82886    2.140
 3986.00    0.68328   0.83937    2.130
 3987.00    0.81577   0.85067    2.100
 3988.00    0.96468   0.86205    2.031
 3989.00    1.04530   0.87291    1.966
 3990.00    0.99854   0.88309    1.957
 3991.00    0.83293   0.89186    2.011
 3992.00    0.64991   0.89842    2.009
 3993.00    0.63964   0.90328    1.732
 3994.00    0.88727   0.90628    1.428
 3995.00    1.23899   0.90619    1.517
 3996.00    1.48548   0.90279    2.613
 3997.00    1.51726   0.89787   -1.000
 3998.00    1.37526   0.89433   -1.000
 3999.00    1.24588   0.89458    7.445
 4000.00    1.22350   0.89997    7.078
 4001.00    1.18669   0.90997    7.994
 4002.00    1.05887   0.92105    7.994
 4003.00    0.94985   0.92847    7.994
 4004.00    0.95289   0.92985    7.994
 4005.00    1.03091   0.92537    7.994
 4006.00    1.10971   0.91627    7.994
 4007.00    1.13984   0.90640    7.994
 4008.00    1.11838   0.90190    7.994
 4009.00    1.08570   0.90627    6.642
 4010.00    1.05673   0.91743    2.890
 4011.00    1.00000   0.93108    2.071
 4012.00    0.90910   0.94416    2.088
 4013.00    0.82707   0.95532    2.310
 4014.00    0.79488   0.96391    2.363
 4015.00    0.82409   0.97011    2.313
 4016.00    0.88605   0.97455    2.301
 4017.00    0.92109   0.97794    2.323
 4018.00    0.89217   0.98037    2.345
 4019.00    0.80617   0.98152    2.353
 4020.00    0.70892   0.98223    2.355
 4021.00    0.66775   0.98318    2.373
 4022.00    0.71883   0.98322    2.389
 4023.00    0.84860   0.98177    2.351
 4024.00    0.99827   0.97999    2.269
 4025.00    1.09065   0.97896    2.204
 4026.00    1.10741   0.97878    2.175
 4027.00    1.09611   0.97960    2.163
 4028.00    1.11447   0.98035    2.149
 4029.00    1.19543   0.97755    2.131
 4030.00    1.30071   0.96789    2.126
 4031.00    1.35022   0.95038    2.159
 4032.00    1.33460   0.92742    2.223
 4033.00    1.31116   0.90575    2.277
 4034.00    1.31502   0.89253    2.284
 4035.00    1.33783   0.89124    2.238
 4036.00    1.33439   0.90234    2.170
 4037.00    1.25323   0.92369    2.131
 4038.00    1.10008   0.95035    2.145
 4039.00    0.93531   0.97565    2.209
 4040.00    0.83564   0.99304    2.262
 4041.00    0.85069   0.99873    2.229
 4042.00    0.93558   0.99236    2.157
 4043.00    0.99922   0.97623    2.138
 4044.00    1.02000   0.95378    2.166
 4045.00    1.02488   0.92765    2.182
 4046.00    1.01316   0.90169    2.191
 4047.00    0.97738   0.88304    2.221
 4048.00    0.96004   0.87945    2.225
 4049.00    1.01245   0.89293    2.144
 4050.00    1.11530   0.91666    2.047
 4051.00    1.20543   0.94176    2.020
 4052.00    1.23625   0.96260    2.048
 4053.00    1.19200   0.97539    2.071
 4054.00    1.09385   0.97847    2.081
 4055.00    0.98422   0.97353    2.100
 4056.00    0.90387   0.96379    2.136
 4057.00    0.88324   0.95282    2.173
 4058.00    0.93292   0.94330    2.172
 4059.00    1.01074   0.93541    2.134
 4060.00    0.99362   0.92929    2.147
 4061.00    0.81501   0.92502    2.276
 4062.00    0.61195   0.92029    2.416
 4063.00    0.55076   0.91217    2.416
 4064.00    0.62690   0.90018    2.352
 4065.00    0.74133   0.88839    2.351
 4066.00    0.80364   0.88396    2.390
 4067.00    0.77318   0.88971    2.408
 4068.00    0.68629   0.90114    2.418
 4069.00    0.62447   0.91422    2.443
 4070.00    0.67455   0.92741    2.449
 4071.00    0.85334   0.93767    2.413
 4072.00    1.05822   0.94082    2.383
 4073.00    1.18591   0.93661    2.398
 4074.00    1.22640   0.93026    2.426
 4075.00    1.20242   0.92532    2.435
 4076.00    1.12061   0.91932    2.430
 4077.00    1.00107   0.91058    2.436
 4078.00    0.89618   0.90203    2.472
 4079.00    0.85197   0.89856    2.521
 4080.00    0.88102   0.90464    2.522
 4081.00    0.96859   0.92020    2.461
 4082.00    1.08080   0.94081    2.419
 4083.00    1.18427   0.96116    2.428
 4084.00    1.25826   0.97716    2.425
 4085.00    1.29530   0.98882    2.382
 4086.00    1.30135   0.99930    2.360
 4087.00    1.29646   1.01146    2.391
 4088.00    1.30819   1.02625    2.431
 4089.00    1.33614   1.04238    2.447
 4090.00    1.34238   1.05621    2.454
 4091.00    1.29598   1.06381    2.462
 4092.00    1.19802   1.06350    0.000
 4093.00    1.09085   1.05606    0.000
 4094.00    1.04375   1.04263    0.000
 4095.00    1.07512   1.02507    0.000
 4096.00    1.13398   1.00346    0.000
 4097.00    1.16710   0.97653    0.000
 4098.00    1.14603   0.94658    0.000
 4099.00    1.05929   0.91667    0.000
 4100.00    0.91521   0.88763    0.000
 4101.00    0.76379   0.86037    0.000
 4102.00    0.68217   0.83720    0.000
 4103.00    0.69752   0.82261    0.000
 4104.00    0.77068   0.82243    0.000
 4105.00    0.83312   0.83710    0.000
 4106.00    0.83027   0.86122    0.000
 4107.00    0.81155   0.88918    0.000
 4108.00    0.88458   0.91580    0.000
 4109.00    1.00609   0.93691    0.000
 4110.00    1.02344   0.95138    0.000
 4111.00    0.95406   0.96050    0.000
 4112.00    0.94892   0.96689    0.000
 4113.00    0.99921   0.97333    2.163
 4114.00    0.97293   0.98124    2.179
 4115.00    0.89040   0.99019    2.191
 4116.00    0.89003   0.99819    2.174
 4117.00    0.99279   1.00315    2.144
 4118.00    1.10822   1.00448    2.144
 4119.00    1.16876   1.00177    2.190
 4120.00    1.15119   0.99573    2.270
 4121.00    1.05817   0.99032    2.341
 4122.00    0.92082   0.98843    2.362
 4123.00    0.80971   0.98890    2.360
 4124.00    0.79823   0.99070    2.391
 4125.00    0.89294   0.99389    2.421
 4126.00    1.03684   0.99738    2.384
 4127.00    1.14009   0.99842    2.327
 4128.00    1.13335   0.99449    2.336
 4129.00    1.04312   0.98575    2.408
 4130.00    0.94794   0.97397    2.490
 4131.00    0.89200   0.96087    2.547
 4132.00    0.88084   0.94792    2.573
 4133.00    0.89499   0.93661    2.568
 4134.00    0.89564   0.92950    2.560
 4135.00    0.83270   0.93031    2.619
 4136.00    0.69301   0.93954    2.755
 4137.00    0.55666   0.95517    2.751
 4138.00    0.52308   0.97269    2.566
 4139.00    0.61162   0.98648    2.749
 4140.00    0.76754   0.99415    4.296
 4141.00    0.88932   0.99361    7.994
 4142.00    0.90848   0.98416    7.994
 4143.00    0.86715   0.96742    7.994
 4144.00    0.83142   0.94693    7.994
 4145.00    0.79805   0.92977    7.994
 4146.00    0.75950   0.92298    7.994
 4147.00    0.76940   0.92706    7.994
 4148.00    0.86086   0.93654    4.338
 4149.00    0.97147   0.94638    2.682
 4150.00    1.01296   0.95367    2.467
 4151.00    0.94170   0.95706    2.641
 4152.00    0.78239   0.95729    2.696
 4153.00    0.63222   0.95581    2.635
 4154.00    0.56918   0.95312    2.620
 4155.00    0.58544   0.95043    2.606
 4156.00    0.64235   0.94960    2.552
 4157.00    0.71616   0.95249    2.559
 4158.00    0.80350   0.95949    2.656
 4159.00    0.91721   0.97028    2.673
 4160.00    1.04532   0.98402    2.535
 4161.00    1.13454   0.99833    2.428
 4162.00    1.16050   1.01077    2.447
 4163.00    1.16201   1.02019    2.500
 4164.00    1.17181   1.02611    2.495
 4165.00    1.17915   1.02706    2.458
 4166.00    1.16140   1.02248    2.434
 4167.00    1.10660   1.01428    2.435
 4168.00    1.03060   1.00371    2.455
 4169.00    0.97667   0.99140    2.487
 4170.00    0.97033   0.97908    2.511
 4171.00    1.00047   0.96682    2.501
 4172.00    1.03993   0.95255    2.471
 4173.00    1.06274   0.93609    2.466
 4174.00    1.07354   0.92044    2.482
 4175.00    1.10633   0.91035    2.461
 4176.00    1.16486   0.90773    2.417
 4177.00    1.21379   0.91088    2.440
 4178.00    1.24528   0.91740    2.515
 4179.00    1.28593   0.92561    2.505
 4180.00    1.32175   0.93519    2.409
 4181.00    1.29118   0.94545    2.377
 4182.00    1.16267   0.95378    2.444
 4183.00    0.96269   0.95871    2.517
 4184.00    0.77276   0.96167    2.535
 4185.00    0.68892   0.96431    2.522
 4186.00    0.70266   0.96624    2.509
 4187.00    0.71342   0.96640    2.505
 4188.00    0.67717   0.96400    2.515
 4189.00    0.62448   0.96151    2.540
 4190.00    0.58363   0.96313    2.553
 4191.00    0.57288   0.96855    2.517
 4192.00    0.63818   0.97434    2.459
 4193.00    0.81962   0.97926    2.442
 4194.00    1.04582   0.98352    2.474
 4195.00    1.17171   0.98435    2.520
 4196.00    1.12892   0.97776    2.564
 4197.00    0.94932   0.96429    2.616
 4198.00    0.73405   0.94779    2.686
 4199.00    0.60047   0.93113    2.764
 4200.00    0.58829   0.91670    2.779
 4201.00    0.66483   0.90772    2.677
 4202.00    0.77570   0.90497    2.560
 4203.00    0.86920   0.90722    2.551
 4204.00    0.92242   0.91527    2.627
 4205.00    0.95333   0.92916    2.687
 4206.00    1.03019   0.94606    2.704
 4207.00    1.20665   0.96397    2.716
 4208.00    1.41551   0.98192    2.719
 4209.00    1.53753   0.99793    2.692
 4210.00    1.53675   1.00977    2.660
 4211.00    1.45447   1.01612    2.655
 4212.00    1.36502   1.01777    2.646
 4213.00    1.31168   1.01639    2.606
 4214.00    1.23236   1.01220    2.598
 4215.00    1.05751   1.00534    2.689
 4216.00    0.84908   0.99775    2.824
 4217.00    0.73202   0.99312    2.891
 4218.00    0.78209   0.99549    2.889
 4219.00    0.97838   1.00436    2.882
 4220.00    1.17417   1.01391    2.883
 4221.00    1.23755   1.01878    2.875
 4222.00    1.20578   1.01529    2.855
 4223.00    1.18856   1.00002    2.821
 4224.00    1.24423   0.97184    2.763
 4225.00    1.34560   0.93435    2.693
 4226.00    1.37092   0.89363    2.672
 4227.00    1.23965   0.85665    2.734
 4228.00    1.03119   0.83260    2.833
 4229.00    0.86643   0.83010    2.899
 4230.00    0.79199   0.84865    2.919
 4231.00    0.78931   0.87857    2.912
 4232.00    0.79778   0.91039    2.887
 4233.00    0.77646   0.93746    2.862
 4234.00    0.74605   0.95531    2.866
 4235.00    0.73367   0.96439    2.897
 4236.00    0.73324   0.96745    2.893
 4237.00    0.74400   0.96606    2.831
 4238.00    0.79377   0.96400    2.785
 4239.00    0.89273   0.96599    2.791
 4240.00    1.00453   0.97268    2.796
 4241.00    1.07273   0.98326    2.768
 4242.00    1.05119   0.99744    2.752
 4243.00    0.97678   1.01281    2.786
 4244.00    0.98200   1.02589    2.852
 4245.00    1.11558   1.03565    2.900
 4246.00    1.26568   1.04071    2.882
 4247.00    1.31517   1.03760    2.820
 4248.00    1.22756   1.02568    2.802
 4249.00    1.03520   1.00853    2.856
 4250.00    0.82143   0.99041    2.914
 4251.00    0.67454   0.97381    2.937
 4252.00    0.65698   0.96143    2.961
 4253.00    0.77020   0.95591    2.977
 4254.00    0.94935   0.95519    2.906
 4255.00    1.10919   0.95509    2.777
 4256.00    1.17767   0.95572    2.716
 4257.00    1.14693   0.95946    2.741
 4258.00    1.07470   0.96521    2.758
 4259.00    1.01089   0.96835    2.717
 4260.00    0.97460   0.96695    2.655
 4261.00    0.97628   0.96459    2.603
 4262.00    1.02222   0.96668    2.563
 4263.00    1.10075   0.97704    2.524
 4264.00    1.18425   0.99447    2.479
 4265.00    1.25020   1.01314    2.445
 4266.00    1.28335   1.02793    2.457
 4267.00    1.26128   1.03583    2.517
 4268.00    1.17125   1.03345    2.597
 4269.00    1.06869   1.01908    2.668
 4270.00    1.03457   0.99513    2.716
 4271.00    1.01965   0.96464    2.752
 4272.00    0.89630   0.93123    2.797
 4273.00    0.69458   0.90234    2.818
 4274.00    0.57011   0.88551    2.763
 4275.00    0.58195   0.88152    2.684
 4276.00    0.67813   0.88842    2.671
 4277.00    0.78833   0.90583    2.710
 4278.00    0.85381   0.93050    2.722
 4279.00    0.84470   0.95546    2.705
 4280.00    0.77499   0.97442    2.716
 4281.00    0.72243   0.98441    2.747
 4282.00    0.76312   0.98749    2.751
 4283.00    0.84436   0.98718    2.748
 4284.00    0.86048   0.98411    2.778
 4285.00    0.82883   0.97756    2.794
 4286.00    0.82336   0.96666    2.733
 4287.00    0.81180   0.95229    2.677
 4288.00    0.72288   0.93755    2.731
 4289.00    0.59576   0.92332    2.822
 4290.00    0.53075   0.90851    2.804
 4291.00    0.57716   0.89561    2.707
 4292.00    0.70702   0.88971    2.653
 4293.00    0.80855   0.89206    2.672
 4294.00    0.79398   0.89838    2.725
 4295.00    0.73826   0.90201    2.730
 4296.00    0.75180   0.89958    2.651
 4297.00    0.80006   0.89071   -2.000
 4298.00    0.78940   0.87435   -2.000
 4299.00    0.69783   0.85024   -2.000
 4300.00    0.56472   0.82083   -2.000
 4301.00    0.45682   0.79149   -2.000
 4302.00    0.41164   0.76815   -2.000
 4303.00    0.38782   0.75205   -2.000
 4304.00    0.35701   0.74101   -2.000
 4305.00    0.39095   0.73402   -2.000
 4306.00    0.52468   0.72957   -2.000
 4307.00    0.63203   0.72542   -2.000
 4308.00    0.59360   0.72105   -2.000
 4309.00    0.45257   0.71803   -2.000
 4310.00    0.32302   0.72076   -2.000
 4311.00    0.29385   0.73391   -2.000
 4312.00    0.38847   0.75852    2.759
 4313.00    0.54641   0.79384    2.824
 4314.00    0.69605   0.83887    2.851
 4315.00    0.81026   0.89108    2.868
 4316.00    0.88774   0.94800    2.896
 4317.00    0.93768   1.00678    2.899
 4318.00    0.98872   1.05979    2.853
 4319.00    1.08426   1.09861    2.800
 4320.00    1.20480   1.12012    2.782
 4321.00    1.23852   1.12441    2.816
 4322.00    1.11929   1.11249    2.878
 4323.00    0.90268   1.08775    2.905
 4324.00    0.69369   1.05411    2.883
 4325.00    0.58952   1.01703    2.892
 4326.00    0.61575   0.98559    2.962
 4327.00    0.70804   0.96908    3.027
 4328.00    0.79682   0.97279    3.042
 4329.00    0.85434   0.99415    3.051
 4330.00    0.89958   1.02430    0.000
 4331.00    0.98279   1.05498    0.000
 4332.00    1.10817   1.08267    0.000
 4333.00    1.21468   1.10556    0.000
 4334.00    1.25195   1.11994    0.000
 4335.00    1.21355   1.12239    0.000
 4336.00    1.13066   1.11229    0.000
 4337.00    1.05821   1.08955    0.000
 4338.00    1.03471   1.05460    0.000
 4339.00    1.06678   1.01322    0.000
 4340.00    1.13280   0.97381    0.000
 4341.00    1.19621   0.94221    0.000
 4342.00    1.24494   0.92504    0.000
 4343.00    1.28909   0.92707    0.000
 4344.00    1.30852   0.94436    0.000
 4345.00    1.25969   0.97054    0.000
 4346.00    1.14986   1.00201    0.000
 4347.00    1.03702   1.03347    0.000
 4348.00    0.96133   1.05927    0.000
 4349.00    0.92725   1.07780    0.000
 4350.00    0.91235   1.08846    0.000
 4351.00    0.88671   1.08862    2.849
 4352.00    0.85503   1.07781    2.802
 4353.00    0.85441   1.06302    2.823
 4354.00    0.92110   1.05400    2.860
 4355.00    1.06058   1.05336    2.805
 4356.00    1.20138   1.05802    2.718
 4357.00    1.24896   1.06686    2.737
 4358.00    1.22260   1.07948    2.821
 4359.00    1.21046   1.09281    2.826
 4360.00    1.21707   1.10461    2.767
 4361.00    1.18747   1.11644    2.764
 4362.00    1.11540   1.12971    2.794
 4363.00    1.03508   1.14239    2.766
 4364.00    0.96695   1.15194    2.721
 4365.00    0.91837   1.15885    2.750
 4366.00    0.90137   1.16356    2.811
 4367.00    0.91312   1.16320    2.801
 4368.00    0.90225   1.15580    2.748
 4369.00    0.83123   1.14403    2.744
 4370.00    0.77557   1.13155    2.791
 4371.00    0.82969   1.11888    2.818
 4372.00    0.95231   1.10581    2.733
 4373.00    1.04313   1.09313    2.613
 4374.00    1.07739   1.08075    2.855
 4375.00    1.06958   1.06885    4.263
 4376.00    1.00527   1.06007    7.994
 4377.00    0.88416   1.05756    7.994
 4378.00    0.77806   1.06070    7.994
 4379.00    0.74932   1.06402    7.994
 4380.00    0.75473   1.06176    7.994
 4381.00    0.74049   1.05208    7.994
 4382.00    0.75111   1.03575    7.994
 4383.00    0.83164   1.01175    4.382
 4384.00    0.92249   0.98091    2.664
 4385.00    0.96108   0.95260    2.520
 4386.00    0.98395   0.93832    2.845
 4387.00    1.03297   0.94048    2.966
 4388.00    1.06738   0.95298    2.848
 4389.00    1.05002   0.96961    2.800
 4390.00    1.02269   0.98811    2.834
 4391.00    1.03350   1.00757    2.852
 4392.00    1.07323   1.02687    2.801
 4393.00    1.09734   1.04483    2.711
 4394.00    1.05555   1.05958    2.674
 4395.00    0.95455   1.07016    2.733
 4396.00    0.88779   1.07884    2.827
 4397.00    0.91809   1.08930    2.880
 4398.00    1.00513   1.10122    2.883
 4399.00    1.09469   1.10905    2.869
 4400.00    1.17532   1.10866    2.875
 4401.00    1.23365   1.10083    2.911
 4402.00    1.23174   1.09034    2.954
 4403.00    1.15452   1.08053    2.981
 4404.00    1.03554   1.06737    2.994
 4405.00    0.93432   1.04805    2.992
 4406.00    0.91390   1.03069    2.960
 4407.00    0.99478   1.02469    2.904
 4408.00    1.13498   1.02898    2.851
 4409.00    1.25306   1.03861    2.823
 4410.00    1.26352   1.05338    2.826
 4411.00    1.18270   1.07424    2.852
 4412.00    1.13728   1.09751    2.888
 4413.00    1.17799   1.11727    2.927
 4414.00    1.22875   1.12915    2.970
 4415.00    1.23312   1.13134    2.998
 4416.00    1.20796   1.12737    2.971
 4417.00    1.19942   1.12444    2.901
 4418.00    1.24876   1.12552    2.856
 4419.00    1.33688   1.13022    2.862
 4420.00    1.39262   1.13804    2.899
 4421.00    1.39449   1.14590    2.933
 4422.00    1.37828   1.15075    2.940
 4423.00    1.33996   1.15227    2.940
 4424.00    1.23809   1.15178    2.987
 4425.00    1.10475   1.15062    3.054
 4426.00    1.03547   1.14797    3.051
 4427.00    1.05445   1.14364    2.991
 4428.00    1.10167   1.13995    2.973
 4429.00    1.11290   1.13881    3.008
 4430.00    1.05620   1.13830    3.027
 4431.00    0.96380   1.13501    3.023
 4432.00    0.90568   1.13079    3.046
 4433.00    0.90413   1.12817    3.088
 4434.00    0.93226   1.12470    3.094
 4435.00    0.96247   1.11916    3.058
 4436.00    0.98052   1.11447    3.023
 4437.00    0.98994   1.11600    3.009
 4438.00    1.00490   1.12566    3.010
 4439.00    1.03338   1.13870    3.002
 4440.00    1.07034   1.15012    2.970
 4441.00    1.09268   1.15765    2.947
 4442.00    1.08890   1.16059    2.971
 4443.00    1.11276   1.16015    2.998
 4444.00    1.21576   1.15921    2.960
 4445.00    1.31514   1.16117    2.915
 4446.00    1.28261   1.16765    2.948
 4447.00    1.12795   1.17621    3.019
 4448.00    0.95588   1.18394    3.015
 4449.00    0.84893   1.19120    2.933
 4450.00    0.84914   1.19653    2.845
 4451.00    0.95842   1.19589    2.798
 4452.00    1.13027   1.18935    2.799
 4453.00    1.26228   1.17829    2.796
 4454.00    1.26210   1.16208    2.743
 4455.00    1.13514   1.14108    2.685
 4456.00    0.96147   1.11860    2.680
 4457.00    0.84663   1.10011    2.719
 4458.00    0.83974   1.08736    2.761
 4459.00    0.85303   1.07806    2.782
 4460.00    0.79060   1.07168    2.785
 4461.00    0.69591   1.07007    0.000
 4462.00    0.65200   1.07297    0.000
 4463.00    0.66210   1.08019    0.000
 4464.00    0.69715   1.09270    0.000
 4465.00    0.75430   1.10729    0.000
 4466.00    0.84051   1.12022    0.000
 4467.00    0.95016   1.13135    0.000
 4468.00    1.05151   1.14154    0.000
 4469.00    1.08415   1.15072    0.000
 4470.00    1.03208   1.15831    0.000
 4471.00    0.97418   1.16632    0.000
 4472.00    0.97668   1.17750    0.000
 4473.00    1.01200   1.19226    0.000
 4474.00    1.03431   1.20935    0.000
 4475.00    1.04129   1.22603    0.000
 4476.00    1.06666   1.23942    0.000
 4477.00    1.16275   1.24937    0.000
 4478.00    1.33791   1.25599    0.000
 4479.00    1.52399   1.25699    0.000
 4480.00    1.64204   1.25043    0.000
 4481.00    1.64929   1.23822    0.000
 4482.00    1.55446   1.22583    2.943
 4483.00    1.41759   1.21803    2.988
 4484.00    1.30267   1.21682    3.068
 4485.00    1.24761   1.22066    3.117
 4486.00    1.25314   1.22676    3.101
 4487.00    1.28432   1.23350    3.065
 4488.00    1.30573   1.23853    3.051
 4489.00    1.29995   1.23887    3.056
 4490.00    1.26679   1.23386    3.073
 4491.00    1.21850   1.22660    3.102
 4492.00    1.16164   1.22066    3.151
 4493.00    1.09708   1.21619    3.222
 4494.00    1.05564   1.21104    3.276
 4495.00    1.09344   1.20489    3.245
 4496.00    1.21123   1.20118    3.169
 4497.00    1.34145   1.20230    3.179
 4498.00    1.42697   1.20812    3.281
 4499.00    1.45073   1.21779    3.342
 4500.00    1.42852   1.22983    3.318
 4501.00    1.39532   1.24299    3.308
 4502.00    1.37038   1.25628    3.344
 4503.00    1.35234   1.27154    3.357
 4504.00    1.34293   1.28956    3.337
 4505.00    1.34754   1.30594    3.343
 4506.00    1.35343   1.31740    3.372
 4507.00    1.33101   1.32430    3.370
 4508.00    1.25727   1.32829    3.372
 4509.00    1.13178   1.33011    3.465
 4510.00    1.00009   1.32899    3.583
 4511.00    0.93691   1.32489    3.542
 4512.00    0.98796   1.31818    3.398
 4513.00    1.14335   1.30872    3.358
 4514.00    1.31342   1.29802    3.413
 4515.00    1.38711   1.28815    3.417
 4516.00    1.37350   1.28020    3.363
 4517.00    1.36850   1.27441    3.355
 4518.00    1.41451   1.26894    3.390
 4519.00    1.49227   1.26414    3.392
 4520.00    1.56744   1.26286    3.364
 4521.00    1.61276   1.26391    3.366
 4522.00    1.63048   1.26314    3.404
 4523.00    1.63222   1.25610    3.445
 4524.00    1.59653   1.24367    3.454
 4525.00    1.49759   1.22978    3.425
 4526.00    1.36494   1.21304    3.410
 4527.00    1.25077   1.19198    3.462
 4528.00    1.16260   1.16937    3.539
 4529.00    1.09086   1.14925    3.561
 4530.00    1.06485   1.13454    3.548
 4531.00    1.11489   1.12508    3.552
 4532.00    1.20752   1.12048    3.545
 4533.00    1.27241   1.12192    3.488
 4534.00    1.25362   1.12649    3.457
 4535.00    1.14570   1.13223    3.530
 4536.00    1.02627   1.14082    3.652
 4537.00    0.98732   1.15546    3.698
 4538.00    1.04769   1.17671    3.629
 4539.00    1.16421   1.19728    3.512
 4540.00    1.25975   1.21263    3.473
 4541.00    1.26578   1.22400    3.570
 4542.00    1.16595   1.23355    3.680
 4543.00    1.00356   1.24180    3.666
 4544.00    0.87681   1.24503    3.602
 4545.00    0.85420   1.24103    3.600
 4546.00    0.89970   1.23380    3.632
 4547.00    0.94614   1.22860    3.632
 4548.00    0.96905   1.22504    3.606
 4549.00    0.98373   1.21933    3.582
 4550.00    1.03270   1.21067    0.000
 4551.00    1.14489   1.20461    0.000
 4552.00    1.30388   1.20387    0.000
 4553.00    1.45786   1.20383    0.000
 4554.00    1.53639   1.20306    0.000
 4555.00    1.50417   1.20413    0.000
 4556.00    1.39424   1.21026    0.000
 4557.00    1.26420   1.22230    0.000
 4558.00    1.16213   1.23770    0.000
 4559.00    1.11510   1.25316    0.000
 4560.00    1.12481   1.26661    0.000
 4561.00    1.18078   1.27729    0.000
 4562.00    1.26855   1.28541    0.000
 4563.00    1.36854   1.28973    0.000
 4564.00    1.45694   1.28767    0.000
 4565.00    1.51597   1.28166    0.000
 4566.00    1.53625   1.27669    0.000
 4567.00    1.49976   1.27543    0.000
 4568.00    1.38365   1.27778    0.000
 4569.00    1.22354   1.28065    0.000
 4570.00    1.12038   1.28333    0.000
 4571.00    1.12614   1.28531    0.000
 4572.00    1.20359   1.28475    0.000
 4573.00    1.29071   1.28523    0.000
 4574.00    1.33727   1.28874    0.000
 4575.00    1.33150   1.29071    0.000
 4576.00    1.30137   1.28876    0.000
 4577.00    1.27734   1.28541    0.000
 4578.00    1.27347   1.28266    0.000
 4579.00    1.27451   1.27794    0.000
 4580.00    1.24716   1.26757    0.000
 4581.00    1.19369   1.25430    0.000
 4582.00    1.15396   1.24360    0.000
 4583.00    1.14952   1.23746    0.000
 4584.00    1.16774   1.23411    0.000
 4585.00    1.17225   1.23267    0.000
 4586.00    1.12683   1.23445    0.000
 4587.00    1.05246   1.23968    0.000
 4588.00    1.01250   1.24847    0.000
 4589.00    1.02664   1.25810    0.000
 4590.00    1.06715   1.26529    0.000
 4591.00    1.11267   1.26861    0.000
 4592.00    1.15793   1.26807    0.000
 4593.00    1.20198   1.26535    0.000
 4594.00    1.25057   1.26176    0.000
 4595.00    1.32763   1.25689    0.000
 4596.00    1.45040   1.25113    0.000
 4597.00    1.57160   1.24677    0.000
 4598.00    1.61319   1.24482    0.000
 4599.00    1.56085   1.24505    0.000
 4600.00    1.46091   1.24630    0.000
 4601.00    1.37415   1.24626    0.000
 4602.00    1.33971   1.24650    0.000
 4603.00    1.32856   1.24902    0.000
 4604.00    1.28946   1.25293    0.000
 4605.00    1.24100   1.25796    0.000
 4606.00    1.23513   1.26380    0.000
 4607.00    1.27225   1.27212    0.000
 4608.00    1.31709   1.28350    0.000
 4609.00    1.34593   1.29668    0.000
 4610.00    1.36436   1.30905    0.000
 4611.00    1.41840   1.31791    0.000
 4612.00    1.52534   1.32321    0.000
 4613.00    1.58341   1.32655    0.000
 4614.00    1.48811   1.32799    0.000
 4615.00    1.29442   1.32809    0.000
 4616.00    1.13046   1.32736    0.000
 4617.00    1.06432   1.32581    0.000
 4618.00    1.09419   1.32605    0.000
 4619.00    1.16003   1.32733    0.000
 4620.00    1.20190   1.32774    0.000
 4621.00    1.21991   1.32904    0.000
 4622.00    1.23450   1.33176    0.000
 4623.00    1.23974   1.33335    0.000
 4624.00    1.22035   1.33351    0.000
 4625.00    1.17314   1.33323    0.000
 4626.00    1.10722   1.33218    0.000
 4627.00    1.04175   1.33040    0.000
 4628.00    1.00069   1.32888    0.000
 4629.00    1.00698   1.32672    0.000
 4630.00    1.07126   1.32261    0.000
 4631.00    1.18213   1.31937    0.000
 4632.00    1.30046   1.31863    0.000
 4633.00    1.36354   1.31590    0.000
 4634.00    1.34719   1.30884    0.000
 4635.00    1.30344   1.30130    0.000
 4636.00    1.29214   1.29515    0.000
 4637.00    1.33010   1.28817    0.000
 4638.00    1.39103   1.27907    0.000
 4639.00    1.41885   1.27058    0.000
 4640.00    1.39956   1.26479    0.000
 4641.00    1.39069   1.26107    0.000
 4642.00    1.42316   1.25977    0.000
 4643.00    1.45530   1.25876    0.000
 4644.00    1.45628   1.25562    0.000
 4645.00    1.44557   1.25101    0.000
 4646.00    1.44016   1.24535    0.000
 4647.00    1.42854   1.23765    0.000
 4648.00    1.38994   1.23013    0.000
 4649.00    1.30931   1.22628    0.000
 4650.00    1.19821   1.22673    0.000
 4651.00    1.09734   1.22999    0.000
 4652.00    1.04404   1.23481    0.000
 4653.00    1.05249   1.24185    0.000
 4654.00    1.09537   1.25022    0.000
 4655.00    1.11956   1.25639    0.000
 4656.00    1.13704   1.26107    0.000
 4657.00    1.22368   1.26723    0.000
 4658.00    1.37825   1.27602    0.000
 4659.00    1.50221   1.28709    0.000
 4660.00    1.52157   1.29796    0.000
 4661.00    1.43187   1.30658    0.000
 4662.00    1.29592   1.31056    0.000
 4663.00    1.20984   1.30808    0.000
 4664.00    1.20250   1.29895    0.000
 4665.00    1.22528   1.28508    0.000
 4666.00    1.21853   1.26792    0.000
 4667.00    1.14876   1.24685    0.000
 4668.00    1.05211   1.22518    0.000
 4669.00    1.00131   1.21084    0.000
 4670.00    0.98857   1.20676    0.000
 4671.00    0.94763   1.20930    0.000
 4672.00    0.88614   1.21607    0.000
 4673.00    0.87741   1.22679    0.000
 4674.00    0.96103   1.24015    0.000
 4675.00    1.12297   1.25322    0.000
 4676.00    1.30666   1.26399    0.000
 4677.00    1.44061   1.27202    0.000
 4678.00    1.48998   1.27522    0.000
 4679.00    1.46162   1.27320    0.000
 4680.00    1.39088   1.26924    0.000
 4681.00    1.31722   1.26523    0.000
 4682.00    1.24527   1.26085    0.000
 4683.00    1.16908   1.25710    0.000
 4684.00    1.12598   1.25662    0.000
 4685.00    1.15956   1.25885    0.000
 4686.00    1.24387   1.26178    0.000
 4687.00    1.31692   1.26503    0.000
 4688.00    1.35286   1.26803    0.000
 4689.00    1.35638   1.27068    0.000
 4690.00    1.33676   1.27317    0.000
 4691.00    1.30038   1.27451    0.000
 4692.00    1.24619   1.27525    0.000
 4693.00    1.17441   1.27802    0.000
 4694.00    1.09894   1.28241    0.000
 4695.00    1.04767   1.28597    0.000
 4696.00    1.05811   1.28870    0.000
 4697.00    1.14123   1.29062    0.000
 4698.00    1.24252   1.28873    0.000
 4699.00    1.29114   1.28104    0.000
 4700.00    1.26158   1.27149    0.000
 4701.00    1.18683   1.26354    0.000
 4702.00    1.15712   1.25465    0.000
 4703.00    1.22718   1.24350    0.000
 4704.00    1.33137   1.23410    0.000
 4705.00    1.37793   1.23102    0.000
 4706.00    1.34565   1.23130    0.000
 4707.00    1.26731   1.23029    0.000
 4708.00    1.20117   1.22896    0.000
 4709.00    1.17712   1.23070    0.000
 4710.00    1.16008   1.23460    0.000
 4711.00    1.11558   1.23930    0.000
 4712.00    1.06168   1.24589    0.000
 4713.00    1.03731   1.25351    0.000
 4714.00    1.07031   1.26041    0.000
 4715.00    1.14275   1.26668    0.000
 4716.00    1.17997   1.27514    0.000
 4717.00    1.14036   1.28660    0.000
 4718.00    1.06842   1.29739    0.000
 4719.00    1.03096   1.30614    0.000
 4720.00    1.06909   1.31590    0.000
 4721.00    1.17354   1.32695    0.000
 4722.00    1.28268   1.33513    0.000
 4723.00    1.35114   1.33780    0.000
 4724.00    1.38376   1.33729    0.000
 4725.00    1.40014   1.33543    0.000
 4726.00    1.41210   1.33030    0.000
 4727.00    1.41368   1.31958    0.000
 4728.00    1.38259   1.30432    0.000
 4729.00    1.30927   1.28955    0.000
 4730.00    1.21027   1.27811    0.000
 4731.00    1.12288   1.26859    0.000
 4732.00    1.09007   1.26096    0.000
 4733.00    1.10935   1.25798    0.000
 4734.00    1.13117   1.26022    0.000
 4735.00    1.14249   1.26583    0.000
 4736.00    1.17990   1.27284    0.000
 4737.00    1.24674   1.27786    0.000
 4738.00    1.29803   1.28230    0.000
 4739.00    1.30466   1.28962    0.000
 4740.00    1.27398   1.29666    0.000
 4741.00    1.23697   1.29945    0.000
 4742.00    1.23375   1.30158    0.000
 4743.00    1.28312   1.30723    0.000
 4744.00    1.37037   1.31382    0.000
 4745.00    1.44230   1.31752    0.000
 4746.00    1.43563   1.32004    0.000
 4747.00    1.36006   1.32525    0.000
 4748.00    1.28870   1.33106    0.000
 4749.00    1.26757   1.33345    0.000
 4750.00    1.29658   1.33355    0.000
 4751.00    1.34690   1.33385    0.000
 4752.00    1.38107   1.33247    0.000
 4753.00    1.38899   1.32728    0.000
 4754.00    1.38495   1.32049    0.000
 4755.00    1.38089   1.31395    0.000
 4756.00    1.38133   1.30790    0.000
 4757.00    1.38595   1.30191    0.000
 4758.00    1.38919   1.29639    0.000
 4759.00    1.37851   1.29142    0.000
 4760.00    1.34741   1.28748    0.000
 4761.00    1.31964   1.28361    3.881
 4762.00    1.32309   1.27668    3.843
 4763.00    1.33626   1.26687    3.771
 4764.00    1.31811   1.25821    3.759
 4765.00    1.27400   1.25138    3.804
 4766.00    1.23360   1.24432    3.850
 4767.00    1.19815   1.23916    3.875
 4768.00    1.15866   1.23951    3.885
 4769.00    1.13503   1.24442    3.871
 4770.00    1.15421   1.25220    3.830
 4771.00    1.21036   1.26178    3.797
 4772.00    1.26898   1.27094    3.803
 4773.00    1.28256   1.27958    3.841
 4774.00    1.22917   1.28990    3.878
 4775.00    1.15528   1.30061    3.889
 4776.00    1.11816   1.30751    3.868
 4777.00    1.11238   1.31153    3.826
 4778.00    1.11090   1.31648    3.789
 4779.00    1.12024   1.31999    3.797
 4780.00    1.15323   1.31809    3.855
 4781.00    1.19485   1.31334    3.891
 4782.00    1.22630   1.30873    3.854
 4783.00    1.25194   1.30149    3.818
 4784.00    1.28105   1.29160    3.846
 4785.00    1.30920   1.28420    3.877
 4786.00    1.33427   1.27913    3.842
 4787.00    1.37042   1.27231    3.777
 4788.00    1.42444   1.26768    3.744
 4789.00    1.47712   1.26838    3.752
 4790.00    1.51098   1.27098    3.786
 4791.00    1.53160   1.27491    3.815
 4792.00    1.54432   1.28316    3.836
 4793.00    1.53684   1.29397    3.886
 4794.00    1.49532   1.30510    3.993
 4795.00    1.41969   1.31665    4.124
 4796.00    1.33985   1.32649    4.208
 4797.00    1.31499   1.33193    4.165
 4798.00    1.35733   1.33413    4.020
 4799.00    1.39757   1.33385    3.915
 4800.00    1.38796   1.33082    3.932
 4801.00    1.35584   1.32655    4.048
 4802.00    1.32727   1.32367    4.175
 4803.00    1.28913   1.32254    4.195
 4804.00    1.24128   1.32107    4.099
 4805.00    1.21801   1.31844    4.023
 4806.00    1.24012   1.31594    4.034
 4807.00    1.29406   1.31451    4.072
 4808.00    1.35808   1.31163    4.073
 4809.00    1.41599   1.30739    4.024
 4810.00    1.45734   1.30541    3.951
 4811.00    1.47531   1.30673    3.899
 4812.00    1.45873   1.30863    3.905
 4813.00    1.39516   1.31140    3.990
 4814.00    1.29811   1.31646    4.097
 4815.00    1.20801   1.32271    4.103
 4816.00    1.15150   1.32853    4.012
 4817.00    1.13033   1.33430    3.968
 4818.00    1.14167   1.33998    4.014
 4819.00    1.18392   1.34415    4.061
 4820.00    1.25001   1.34566    4.050
 4821.00    1.32695   1.34463    4.001
 4822.00    1.40283   1.34203    3.971
 4823.00    1.46641   1.33661    4.007
 4824.00    1.49918   1.32734    4.073
 4825.00    1.48227   1.31839    4.074
 4826.00    1.42324   1.31354    4.026
 4827.00    1.35738   1.30970    4.030
 4828.00    1.32837   1.30368    4.067
 4829.00    1.35964   1.29903    4.029
 4830.00    1.39732   1.29875    3.948
 4831.00    1.35375   1.29953    3.949
 4832.00    1.24781   1.29709    4.017
 4833.00    1.17706   1.29363    4.040
 4834.00    1.17325   1.29450    4.021
 4835.00    1.19611   1.29783    4.057
 4836.00    1.19607   1.29802    4.135
 4837.00    1.14291   1.29652    4.174
 4838.00    1.05419   1.29780    4.201
 4839.00    0.98013   1.29831    4.293
 4840.00    0.96252   1.29415    4.377
 4841.00    1.02038   1.28934    4.312
 4842.00    1.13922   1.28846    4.181
 4843.00    1.27563   1.28805    4.142
 4844.00    1.37016   1.28559    4.137
 4845.00    1.37811   1.28560    4.048
 4846.00    1.31509   1.29040    3.968
 4847.00    1.24101   1.29471    4.038
 4848.00    1.22122   1.29496    0.000
 4849.00    1.27947   1.29381    0.000
 4850.00    1.34307   1.29436    0.000
 4851.00    1.32740   1.29376    0.000
 4852.00    1.25982   1.28773    0.000
 4853.00    1.21861   1.27893    0.000
 4854.00    1.23152   1.27128    0.000
 4855.00    1.28343   1.26025    0.000
 4856.00    1.34295   1.24197    0.000
 4857.00    1.37554   1.22165    0.000
 4858.00    1.35619   1.20130    0.000
 4859.00    1.28446   1.17696    0.000
 4860.00    1.19635   1.14946    0.000
 4861.00    1.12612   1.12269    0.000
 4862.00    1.06798   1.10071    0.000
 4863.00    1.01137   1.08957    0.000
 4864.00    0.97664   1.08890    0.000
 4865.00    0.98149   1.09308    0.000
 4866.00    1.00916   1.10527    0.000
 4867.00    1.03721   1.12762    0.000
 4868.00    1.06434   1.15019    0.000
 4869.00    1.09848   1.16674    0.000
 4870.00    1.14415   1.18123    0.000
 4871.00    1.19621   1.19118    0.000
 4872.00    1.23813   1.19331    0.000
 4873.00    1.26187   1.19545    0.000
 4874.00    1.28019   1.20245    0.000
 4875.00    1.30525   1.20841    4.104
 4876.00    1.33227   1.21378    4.090
 4877.00    1.33731   1.22508    4.092
 4878.00    1.28508   1.23906    4.146
 4879.00    1.18448   1.24990    4.245
 4880.00    1.10927   1.26048    4.296
 4881.00    1.10935   1.26929    4.271
 4882.00    1.16523   1.27098    4.283
 4883.00    1.24200   1.26976    4.360
 4884.00    1.31967   1.26978    4.361
 4885.00    1.38227   1.26507    4.246
 4886.00    1.41260   1.25432    4.172
 4887.00    1.39922   1.24473    4.189
 4888.00    1.34090   1.23817    4.182
 4889.00    1.24963   1.23203    4.124
 4890.00    1.15055   1.22704    4.141
 4891.00    1.07536   1.22517    4.253
 4892.00    1.05243   1.22848    4.316
 4893.00    1.07901   1.24042    4.284
 4894.00    1.12269   1.25845    4.291
 4895.00    1.17396   1.27756    4.352
 4896.00    1.25430   1.29776    4.324
 4897.00    1.36580   1.31908    4.210
 4898.00    1.47760   1.33739    4.170
 4899.00    1.54777   1.34881    4.219
 4900.00    1.54452   1.35204    4.213
 4901.00    1.48765   1.35023    4.111
 4902.00    1.43803   1.34809    4.012
 4903.00    1.42130   1.34394    3.981
 4904.00    1.41918   1.33605    4.013
 4905.00    1.41776   1.33045    4.055
 4906.00    1.41567   1.32985    4.035
 4907.00    1.40489   1.32845    3.969
 4908.00    1.37116   1.32400    3.935
 4909.00    1.30996   1.32028    3.942
 4910.00    1.22948   1.31676    3.943
 4911.00    1.14693   1.31125    3.933
 4912.00    1.08520   1.30669    3.941
 4913.00    1.06707   1.30471    3.947
 4914.00    1.10191   1.30242    3.906
 4915.00    1.16068   1.29949    3.824
 4916.00    1.20428   1.29727    3.744
 4917.00    1.25251   1.29228    3.688
 4918.00    1.34404   1.28134    3.655
 4919.00    1.43042   1.26624    3.648
 4920.00    1.42255   1.24950    3.671
 4921.00    1.31638   1.23259    3.714
 4922.00    1.18277   1.22021    3.759
 4923.00    1.10486   1.21610    3.777
 4924.00    1.13120   1.21799    3.755
 4925.00    1.21928   1.22490    3.724
 4926.00    1.28623   1.24034    3.720
 4927.00    1.30304   1.26198    3.743
 4928.00    1.29004   1.28211    3.764
 4929.00    1.28623   1.29929    3.775
 4930.00    1.32077   1.31509    3.778
 4931.00    1.38053   1.32645    3.775
 4932.00    1.42767   1.33209    3.780
 4933.00    1.43059   1.33190    3.834
 4934.00    1.38659   1.32407    3.962
 4935.00    1.34137   1.31252    4.100
 4936.00    1.33465   1.30296    4.155
 4937.00    1.33677   1.29280    4.123
 4938.00    1.30821   1.28049    4.074
 4939.00    1.27207   1.27150    4.077
 4940.00    1.27555   1.27024    0.000
 4941.00    1.33912   1.27526    0.000
 4942.00    1.44243   1.28254    0.000
 4943.00    1.52112   1.29143    0.000
 4944.00    1.52896   1.30573    0.000
 4945.00    1.49287   1.32295    0.000
 4946.00    1.46217   1.33580    0.000
 4947.00    1.45788   1.34544    0.000
 4948.00    1.47074   1.35655    0.000
 4949.00    1.46780   1.36524    0.000
 4950.00    1.43170   1.36841    0.000
 4951.00    1.38807   1.36999    0.000
 4952.00    1.37075   1.37099    0.000
 4953.00    1.39234   1.36620    0.000
 4954.00    1.43774   1.35430    0.000
 4955.00    1.46649   1.34036    0.000
 4956.00    1.45217   1.32618    0.000
 4957.00    1.40531   1.30774    0.000
 4958.00    1.34431   1.28595    0.000
 4959.00    1.27801   1.27208    0.000
 4960.00    1.22119   1.26915    0.000
 4961.00    1.19921   1.26753    0.000
 4962.00    1.21644   1.26656    0.000
 4963.00    1.24505   1.27296    0.000
 4964.00    1.26567   1.28316    0.000
 4965.00    1.28472   1.28743    0.000
 4966.00    1.30521   1.28633    0.000
 4967.00    1.31428   1.28573    0.000
 4968.00    1.29885   1.28543    0.000
 4969.00    1.25609   1.28308    0.000
 4970.00    1.20403   1.28176    0.000
 4971.00    1.17803   1.28425    0.000
 4972.00    1.19533   1.28946    0.000
 4973.00    1.24455   1.29569    0.000
 4974.00    1.30653   1.30200    0.000
 4975.00    1.36251   1.30746    0.000
 4976.00    1.39057   1.31016    0.000
 4977.00    1.37061   1.30908    0.000
 4978.00    1.30677   1.30358    0.000
 4979.00    1.22910   1.29236    0.000
 4980.00    1.17087   1.27768    0.000
 4981.00    1.15291   1.26232    0.000
 4982.00    1.16037   1.24469    0.000
 4983.00    1.15425   1.22610    0.000
 4984.00    1.12802   1.21337    0.000
 4985.00    1.10659   1.20753    0.000
 4986.00    1.09306   1.20484    0.000
 4987.00    1.06756   1.20727    0.000
 4988.00    1.02670   1.21686    0.000
 4989.00    0.99224   1.22900    0.000
 4990.00    1.00409   1.23976    0.000
 4991.00    1.09483   1.24946    0.000
 4992.00    1.23484   1.25852    0.000
 4993.00    1.34907   1.26630    0.000
 4994.00    1.38575   1.27030    0.000
 4995.00    1.34298   1.27147    0.000
 4996.00    1.28848   1.27348    0.000
 4997.00    1.30462   1.27362    0.000
 4998.00    1.37185   1.26964    0.000
 4999.00    1.40604   1.26432    0.000
 5000.00    1.37538   1.25713    0.000
 5001.00    1.30907   1.24750    0.000
 5002.00    1.26982   1.23738    0.000
 5003.00    1.30818   1.22694    0.000
 5004.00    1.39580   1.21731    0.000
 5005.00    1.45892   1.21041    0.000
 5006.00    1.45109   1.20429    0.000
 5007.00    1.36738   1.19893    0.000
 5008.00    1.24629   1.19800    0.000
 5009.00    1.14214   1.19946    0.000
 5010.00    1.08536   1.19847    0.000
 5011.00    1.08842   1.19663    0.000
 5012.00    1.16044   1.19571    0.000
 5013.00    1.29090   1.19197    0.000
 5014.00    1.42812   1.18478    0.000
 5015.00    1.50760   1.17756    0.000
 5016.00    1.49131   1.17344    0.000
 5017.00    1.38601   1.17188    0.000
 5018.00    1.25500   1.17089    0.000
 5019.00    1.16537   1.17261    0.000
 5020.00    1.13096   1.17934    0.000
 5021.00    1.13490   1.18757    0.000
 5022.00    1.15957   1.19358    0.000
 5023.00    1.19382   1.19945    0.000
 5024.00    1.23610   1.20754    0.000
 5025.00    1.28520   1.21513    0.000
 5026.00    1.33176   1.22056    0.000
 5027.00    1.36382   1.22670    0.000
 5028.00    1.37364   1.23336    0.000
 5029.00    1.36998   1.24060    4.287
 5030.00    1.38313   1.24969    4.244
 5031.00    1.42601   1.25772    4.284
 5032.00    1.46783   1.26394    4.338
 5033.00    1.46901   1.27026    4.351
 5034.00    1.41140   1.27474    4.392
 5035.00    1.31639   1.27289    4.480
 5036.00    1.24589   1.26425    4.474
 5037.00    1.23076   1.25239    4.334
 5038.00    1.23440   1.23877    4.246
 5039.00    1.22486   1.22155    4.296
 5040.00    1.21534   1.20362    4.363
 5041.00    1.22527   1.18972    4.362
 5042.00    1.25438   1.18109    4.379
 5043.00    1.27496   1.18084    4.490
 5044.00    1.24127   1.18782    4.657
 5045.00    1.15721   1.19785    4.733
 5046.00    1.09538   1.21284    4.568
 5047.00    1.11358   1.23105    4.414
 5048.00    1.21236   1.24393    4.836
 5049.00    1.33797   1.24979    6.173
 5050.00    1.40579   1.25412    7.586
 5051.00    1.39132   1.25674    7.581
 5052.00    1.35083   1.25529    7.240
 5053.00    1.33747   1.25407    7.347
 5054.00    1.36875   1.25789    7.361
 5055.00    1.44158   1.26483    6.964
 5056.00    1.53650   1.27268    6.508
 5057.00    1.60957   1.28215    6.233
 5058.00    1.61065   1.29303    6.168
 5059.00    1.55529   1.30271    6.343
 5060.00    1.51625   1.30871    6.754
 5061.00    1.51317   1.31131    6.898
 5062.00    1.50139   1.31119    6.101
 5063.00    1.45313   1.30780    5.100
 5064.00    1.37749   1.30026    4.678
 5065.00    1.30117   1.28825    4.717
 5066.00    1.25276   1.27604    4.790
 5067.00    1.23658   1.26729    4.733
 5068.00    1.23495   1.25751    4.697
 5069.00    1.23317   1.24708    4.741
 5070.00    1.22784   1.24352    4.797
 5071.00    1.23025   1.24477    4.807
 5072.00    1.25387   1.24269    4.767
 5073.00    1.28445   1.23991    4.727
 5074.00    1.29202   1.24250    4.742
 5075.00    1.27175   1.24398    4.806
 5076.00    1.23888   1.23826    4.855
 5077.00    1.19965   1.23197    4.834
 5078.00    1.15512   1.22850    4.743
 5079.00    1.12012   1.22062    4.695
 5080.00    1.11522   1.20699    4.791
 5081.00    1.14508   1.19764    4.918
 5082.00    1.19827   1.19427    4.865
 5083.00    1.25441   1.18992    4.673
 5084.00    1.29136   1.18760    4.533
 5085.00    1.29527   1.19420    4.522
 5086.00    1.26808   1.20568    4.614
 5087.00    1.23548   1.21586    4.672
 5088.00    1.22765   1.22703    4.579
 5089.00    1.24925   1.24089    4.442
 5090.00    1.27994   1.25375    4.414
 5091.00    1.28314   1.26290    4.468
 5092.00    1.23834   1.26988    4.508
 5093.00    1.17958   1.27601    4.513
 5094.00    1.16246   1.27940    4.511
 5095.00    1.21549   1.27807    4.514
 5096.00    1.31955   1.27297    4.524
 5097.00    1.39653   1.26655    4.547
 5098.00    1.38474   1.25859    4.588
 5099.00    1.31871   1.24785    4.640
 5100.00    1.26308   1.23758    4.684
 5101.00    1.23587   1.23211    4.699
 5102.00    1.22822   1.22894    4.684
 5103.00    1.23184   1.22566    4.672
 5104.00    1.24278   1.22467    4.682
 5105.00    1.26141   1.22557    4.681
 5106.00    1.28211   1.22511    4.663
 5107.00    1.28632   1.22217    4.710
 5108.00    1.26351   1.21831    4.823
 5109.00    1.22682   1.21634    4.808
 5110.00    1.19151   1.21526    4.600
 5111.00    1.15893   1.21375    4.464
 5112.00    1.13456   1.21708    4.538
 5113.00    1.13880   1.22472    4.640
 5114.00    1.17960   1.23204    4.599
 5115.00    1.23453   1.24192    4.509
 5116.00    1.26643   1.25359    4.509
 5117.00    1.24080   1.26247    4.623
 5118.00    1.16408   1.26955    4.799
 5119.00    1.09503   1.27419    4.909
 5120.00    1.06877   1.27335    4.876
 5121.00    1.06256   1.26778    4.760
 5122.00    1.06725   1.25921    4.637
 5123.00    1.11534   1.24717    4.525
 5124.00    1.20491   1.23148    4.431
 5125.00    1.27344   1.21618    4.370
 5126.00    1.27823   1.20427    4.379
 5127.00    1.23187   1.19345    4.505
 5128.00    1.16949   1.18517    4.703
 5129.00    1.12622   1.18292    4.800
 5130.00    1.11216   1.18398    4.755
 5131.00    1.10855   1.18671    4.744
 5132.00    1.09879   1.19330    4.807
 5133.00    1.08351   1.20129    4.778
 5134.00    1.08549   1.20772    4.636
 5135.00    1.13666   1.21456    4.547
 5136.00    1.22351   1.22047    4.550
 5137.00    1.28987   1.22143    4.541
 5138.00    1.31981   1.22001    4.521
 5139.00    1.34605   1.21755    4.612
 5140.00    1.37659   1.21059    4.783
 5141.00    1.38680   1.20462    4.841
 5142.00    1.37453   1.20036    4.782
 5143.00    1.36332   1.19187    4.809
 5144.00    1.35830   1.18721    4.920
 5145.00    1.34205   1.18792    4.915
 5146.00    1.30150   1.18427    4.818
 5147.00    1.23960   1.18061    4.833
 5148.00    1.18431   1.18173    4.956
 5149.00    1.16876   1.18169    4.997
 5150.00    1.17714   1.18017    4.936
 5151.00    1.16466   1.17947    4.912
 5152.00    1.13595   1.17955    4.922
 5153.00    1.13197   1.18160    4.867
 5154.00    1.15934   1.18485    4.769
 5155.00    1.19238   1.18942    4.725
 5156.00    1.21178   1.19740    4.722
 5157.00    1.21397   1.20810    4.690
 5158.00    1.21242   1.21949    4.673
 5159.00    1.22875   1.22998    4.758
 5160.00    1.27545   1.23776    4.877
 5161.00    1.34413   1.24242    4.888
 5162.00    1.39208   1.24060    4.825
 5163.00    1.37486   1.22894    4.808
 5164.00    1.30314   1.21104    4.815
 5165.00    1.22237   1.18692    4.773
 5166.00    1.16474   1.15398    4.752
 5167.00    1.13649   1.11745    4.841
 5168.00    1.11195   1.08152    4.934
 5169.00    1.05996   1.04676    4.874
 5170.00    0.98214   1.01734    4.751
 5171.00    0.90795   0.99670    4.709
 5172.00    0.87863   0.98343    4.690
 5173.00    0.91321   0.97780    4.590
 5174.00    0.97122   0.98474    4.475
 5175.00    0.99574   1.00105    4.453
 5176.00    0.97062   1.01841    4.542
 5177.00    0.92376   1.03926    4.682
 5178.00    0.91825   1.06573    4.747
 5179.00    0.99166   1.08711    4.664
 5180.00    1.09742   1.09663    4.562
 5181.00    1.16719   1.09926    4.568
 5182.00    1.17954   1.09704    4.661
 5183.00    1.15019   1.08678    4.752
 5184.00    1.11327   1.07190    4.779
 5185.00    1.08980   1.06351    4.734
 5186.00    1.06509   1.06415    4.668
 5187.00    1.03155   1.06855    4.620
 5188.00    1.02159   1.08060    4.572
 5189.00    1.05869   1.10095    4.492
 5190.00    1.11930   1.12281    0.000
 5191.00    1.16504   1.14235    0.000
 5192.00    1.17090   1.15466    0.000
 5193.00    1.13340   1.16293    0.000
 5194.00    1.07292   1.17326    0.000
 5195.00    1.01727   1.17855    0.000
 5196.00    0.98935   1.17942    0.000
 5197.00    1.00174   1.18762    0.000
 5198.00    1.05320   1.19885    0.000
 5199.00    1.12688   1.20526    0.000
 5200.00    1.19306   1.21293    0.000
 5201.00    1.23155   1.22096    0.000
 5202.00    1.24347   1.22126    0.000
 5203.00    1.24442   1.21648    0.000
 5204.00    1.25684   1.20944    0.000
 5205.00    1.29227   1.19556    0.000
 5206.00    1.34503   1.17716    0.000
 5207.00    1.40584   1.16266    0.000
 5208.00    1.46521   1.15015    0.000
 5209.00    1.49756   1.13785    0.000
 5210.00    1.46479   1.13548    0.000
 5211.00    1.36350   1.14264    4.822
 5212.00    1.23820   1.15152    4.865
 5213.00    1.15015   1.16604    4.857
 5214.00    1.15053   1.18573    4.867
 5215.00    1.23131   1.20395    4.919
 5216.00    1.32498   1.22000    4.970
 5217.00    1.37259   1.23444    4.997
 5218.00    1.35299   1.24638    5.018
 5219.00    1.29359   1.25493    5.036
 5220.00    1.25352   1.26055    5.026
 5221.00    1.25975   1.26394    4.988
 5222.00    1.29711   1.26500    4.951
 5223.00    1.34303   1.26140    4.945
 5224.00    1.37995   1.25223    4.980
 5225.00    1.39890   1.24089    5.004
 5226.00    1.39818   1.22858    4.947
 5227.00    1.37713   1.21415    4.860
 5228.00    1.33624   1.20256    4.854
 5229.00    1.28178   1.19928    4.912
 5230.00    1.22424   1.19876    4.914
 5231.00    1.17186   1.20112    4.833
 5232.00    1.13070   1.21293    4.749
 5233.00    1.10854   1.22510    4.723
 5234.00    1.11154   1.23387    4.767
 5235.00    1.13542   1.24662    4.793
 5236.00    1.16898   1.25827    4.707
 5237.00    1.20511   1.26685    4.599
 5238.00    1.24445   1.27791    4.607
 5239.00    1.29721   1.28870    4.635
 5240.00    1.36605   1.29732    4.508
 5241.00    1.41624   1.30542    4.353
 5242.00    1.40725   1.31185    4.371
 5243.00    1.35450   1.31432    4.498
 5244.00    1.30378   1.31316    4.541
 5245.00    1.27332   1.31108    4.517
 5246.00    1.25531   1.30614    4.554
 5247.00    1.23350   1.29545    4.620
 5248.00    1.19991   1.28411    4.619
 5249.00    1.17354   1.27583    4.588
 5250.00    1.18012   1.26476    4.613
 5251.00    1.22125   1.25220    4.670
 5252.00    1.28237   1.24763    4.675
 5253.00    1.34841   1.24729    4.591
 5254.00    1.40471   1.24623    4.462
 5255.00    1.43605   1.24978    4.412
 5256.00    1.43061   1.25739    4.500
 5257.00    1.38505   1.26591    4.591
 5258.00    1.30991   1.27320    4.561
 5259.00    1.23381   1.27650    4.565
 5260.00    1.19182   1.27733    4.748
 5261.00    1.21039   1.27339    4.939
 5262.00    1.28045   1.26094    4.904
 5263.00    1.33864   1.24191    4.744
 5264.00    1.33113   1.21950    4.653
 5265.00    1.27074   1.19539    4.670
 5266.00    1.20117   1.16920    4.757
 5267.00    1.15939   1.14455    4.843
 5268.00    1.15843   1.12887    4.860
 5269.00    1.17868   1.11766    4.785
 5270.00    1.19382   1.10679    4.667
 5271.00    1.19076   1.10843    4.620
 5272.00    1.16170   1.12032    4.699
 5273.00    1.10050   1.12869    4.846
 5274.00    1.02711   1.14299    4.963
 5275.00    0.99663   1.16930    4.977
 5276.00    1.04294   1.19198    4.877
 5277.00    1.14502   1.21129    4.717
 5278.00    1.25618   1.23502    4.566
 5279.00    1.32942   1.25374    4.470
 5280.00    1.35092   1.26589    4.418
 5281.00    1.35066   1.27724    4.346
 5282.00    1.35416   1.28432    4.254
 5283.00    1.35872   1.28767    4.219
 5284.00    1.35441   1.29034    4.233
 5285.00    1.33660   1.29354    4.167
 5286.00    1.30941   1.29991    4.022
 5287.00    1.28239   1.30792    3.966
 5288.00    1.24846   1.31673    4.038
 5289.00    1.18694   1.32815    4.094
 5290.00    1.12191   1.33907    4.048
 5291.00    1.12391   1.34634    3.970
 5292.00    1.20890   1.35026    3.936
 5293.00    1.31404   1.35055    3.973
 5294.00    1.37260   1.34614    4.069
 5295.00    1.35323   1.33727    4.182
 5296.00    1.28894   1.32521    4.253
 5297.00    1.25790   1.31103    4.239
 5298.00    1.28159   1.29613    4.177
 5299.00    1.31175   1.28327    4.155
 5300.00    1.30756   1.27487    4.183
 5301.00    1.26063   1.26985    4.201
 5302.00    1.18893   1.26945    4.218
 5303.00    1.12904   1.27695    4.302
 5304.00    1.11966   1.28806    4.394
 5305.00    1.18010   1.29950    4.339
 5306.00    1.26683   1.31358    4.193
 5307.00    1.30256   1.32795    4.147
 5308.00    1.28143   1.33922    4.201
 5309.00    1.26031   1.34873    4.209
 5310.00    1.26842   1.35626    4.157
 5311.00    1.29539   1.36019    4.140
 5312.00    1.31770   1.36242    4.165
 5313.00    1.31654   1.36328    4.164
 5314.00    1.30187   1.36110    4.128
 5315.00    1.30063   1.35791    4.105
 5316.00    1.32185   1.35438    4.120
 5317.00    1.35548   1.34872    4.176
 5318.00    1.38512   1.34301    4.266
 5319.00    1.39596   1.33798    4.363
 5320.00    1.38456   1.33097    4.402
 5321.00    1.35526   1.32307    4.346
 5322.00    1.31084   1.31513    4.313
 5323.00    1.25591   1.30502    4.431
 5324.00    1.20441   1.29213    4.609
 5325.00    1.16753   1.27674    4.645
 5326.00    1.13402   1.26117    4.589
 5327.00    1.08847   1.24613    4.613
 5328.00    1.04174   1.22934    4.727
 5329.00    1.01717   1.21619    4.838
 5330.00    1.02548   1.21189    4.870
 5331.00    1.06700   1.21103    4.812
 5332.00    1.13916   1.21401    4.728
 5333.00    1.23443   1.22633    4.691
 5334.00    1.33665   1.24243    4.721
 5335.00    1.42185   1.25735    4.799
 5336.00    1.46172   1.27213    4.886
 5337.00    1.44776   1.28419    4.946
 5338.00    1.41471   1.29205    4.977
 5339.00    1.40281   1.29624    4.994
 5340.00    1.41666   1.29543    5.006
 5341.00    1.43951   1.29174    5.003
 5342.00    1.45257   1.28965    4.959
 5343.00    1.44653   1.28721    4.870
 5344.00    1.42900   1.28354    4.792
 5345.00    1.40837   1.28396    4.782
 5346.00    1.37974   1.28607    4.860
 5347.00    1.33462   1.28687    4.966
 5348.00    1.27041   1.29044    4.929
 5349.00    1.19286   1.29449    4.727
 5350.00    1.11719   1.29793    4.605
 5351.00    1.06495   1.30511    4.673
 5352.00    1.05918   1.31344    4.737
 5353.00    1.10714   1.32179    4.651
 5354.00    1.19072   1.33335    4.571
 5355.00    1.28583   1.34648    4.612
 5356.00    1.37492   1.35786    4.673
 5357.00    1.44039   1.36767    4.645
 5358.00    1.46338   1.37676    4.549
 5359.00    1.44502   1.38232    4.465
 5360.00    1.41346   1.38316    4.460
 5361.00    1.38983   1.38146    4.538
 5362.00    1.37370   1.37609    4.621
 5363.00    1.37252   1.36714    4.634
 5364.00    1.40915   1.35703    4.562
 5365.00    1.47782   1.34452    4.472
 5366.00    1.53311   1.33080    4.464
 5367.00    1.54661   1.31836    4.542
 5368.00    1.52749   1.30498    4.591
 5369.00    1.48867   1.29195    4.546
 5370.00    1.43378   1.28232    4.475
 5371.00    1.37001   1.27398    4.454
 5372.00    1.31228   1.26834    4.510
 5373.00    1.27704   1.26909    4.595
 5374.00    1.27700   1.27347    4.601
 5375.00    1.31163   1.28044    4.551
 5376.00    1.36400   1.29274    4.589
 5377.00    1.40320   1.30604    4.706
 5378.00    1.39579   1.31677    4.717
 5379.00    1.34023   1.32772    4.621
 5380.00    1.26971   1.33580    4.610
 5381.00    1.22359   1.33876    4.711
 5382.00    1.22839   1.34082    4.773
 5383.00    1.27065   1.34094    4.749
 5384.00    1.30780   1.33784    4.740
 5385.00    1.32111   1.33567    4.778
 5386.00    1.31982   1.33366   -2.000
 5387.00    1.31118   1.32944   -2.000
 5388.00    1.29262   1.32580   -2.000
 5389.00    1.25329   1.32214   -2.000
 5390.00    1.18370   1.31574   -2.000
 5391.00    1.09653   1.30845   -2.000
 5392.00    1.01824   1.30102   -2.000
 5393.00    0.95932   1.29215   -2.000
 5394.00    0.92200   1.28231   -2.000
 5395.00    0.92966   1.27337   -2.000
 5396.00    1.00571   1.26635   -2.000
 5397.00    1.12041   1.25910   -2.000
 5398.00    1.21737   1.25288   -2.000
 5399.00    1.28224   1.25161   -2.000
 5400.00    1.32581   1.25058   -2.000
 5401.00    1.33229   1.24788    4.579
 5402.00    1.28704   1.24867    4.619
 5403.00    1.23621   1.24870    4.752
 5404.00    1.23861   1.24385    4.737
 5405.00    1.27601   1.23937    4.638
 5406.00    1.29328   1.23496    4.651
 5407.00    1.27865   1.22826    4.740
 5408.00    1.24657   1.22392    4.765
 5409.00    1.19770   1.22313    4.735
 5410.00    1.14021   1.22414    4.723
 5411.00    1.12242   1.22964    4.685
 5412.00    1.18273   1.23945    4.570
 5413.00    1.28401   1.25036    4.463
 5414.00    1.36175   1.26337    4.454
 5415.00    1.39079   1.27785    4.511
 5416.00    1.37617   1.29084    4.560
 5417.00    1.33319   1.30276    4.588
 5418.00    1.27817   1.31268    4.620
 5419.00    1.22156   1.31974    4.677
 5420.00    1.17697   1.32508    4.749
 5421.00    1.16874   1.32711    4.770
 5422.00    1.20821   1.32693    4.712
 5423.00    1.27252   1.32669    4.660
 5424.00    1.32903   1.32374    4.685
 5425.00    1.35955   1.32004    4.753
 5426.00    1.36266   1.31760    4.793
 5427.00    1.35232   1.31233    4.782
 5428.00    1.34256   1.30680    4.735
 5429.00    1.33536   1.30193    4.694
 5430.00    1.32284   1.29314    4.710
 5431.00    1.29189   1.28542    4.822
 5432.00    1.24075   1.27922    5.014
 5433.00    1.18861   1.27025    5.165
 5434.00    1.15934   1.26515    5.181
 5435.00    1.16898   1.26445    5.120
 5436.00    1.22117   1.26435    5.066
 5437.00    1.30392   1.26900    5.043
 5438.00    1.38610   1.27821    5.048
 5439.00    1.42333   1.28902    5.077
 5440.00    1.40402   1.30135    5.116
 5441.00    1.36509   1.31357    5.135
 5442.00    1.33017   1.32363    5.135
 5443.00    1.28497   1.33006    5.156
 5444.00    1.22971   1.33159    5.205
 5445.00    1.19830   1.32873    5.233
 5446.00    1.21379   1.32251    5.213
 5447.00    1.26994   1.31291    5.172
 5448.00    1.35046   1.30306    5.114
 5449.00    1.43812   1.29540    5.014
 5450.00    1.51321   1.28808    4.929
 5451.00    1.55630   1.28335    4.978
 5452.00    1.56202   1.28177    5.113
 5453.00    1.54216   1.27937    5.096
 5454.00    1.51469   1.27763    4.932
 5455.00    1.49597   1.27653    4.880
 5456.00    1.48865   1.27365    4.968
 5457.00    1.47899   1.27218    4.971
 5458.00    1.44327   1.27220    4.856
 5459.00    1.36398   1.27201    4.813
 5460.00    1.27306   1.27381    4.860
 5461.00    1.23589   1.27660    4.844
 5462.00    1.26098   1.27916    4.768
 5463.00    1.29640   1.28143    4.780
 5464.00    1.30126   1.28270    4.866
 5465.00    1.26720   1.28475    4.872
 5466.00    1.21794   1.28647    4.823
 5467.00    1.19472   1.28679    4.876
 5468.00    1.22059   1.28860    4.956
 5469.00    1.28834   1.29043    4.847
 5470.00    1.35527   1.28978    4.663
 5471.00    1.36942   1.28810    4.670
 5472.00    1.33039   1.28603    4.789
 5473.00    1.28141   1.28139    4.734
 5474.00    1.26157   1.27370    4.558
 5475.00    1.29059   1.26700    4.511
 5476.00    1.36005   1.26059    4.575
 5477.00    1.43885   1.25216    4.585
 5478.00    1.48769   1.24685    4.558
 5479.00    1.47759   1.24508    4.628
 5480.00    1.41721   1.24344    4.800
 5481.00    1.33985   1.24460    4.964
 5482.00    1.27256   1.24916    5.040
 5483.00    1.23167   1.25466    5.026
 5484.00    1.22430   1.26054    5.014
 5485.00    1.24690   1.26709    5.092
 5486.00    1.28330   1.27431    5.219
 5487.00    1.31778   1.28025    5.291
 5488.00    1.35350   1.28437    5.289
 5489.00    1.39874   1.28905    5.248
 5490.00    1.44498   1.29268    5.176
 5491.00    1.47333   1.29365    5.080
 5492.00    1.46731   1.29570    5.018
 5493.00    1.42348   1.29796    5.019
 5494.00    1.36126   1.29768    4.998
 5495.00    1.30579   1.29806    4.894
 5496.00    1.26738   1.29928    4.811
 5497.00    1.24799   1.29848   -2.000
 5498.00    1.24994   1.29697   -2.000
 5499.00    1.26433   1.29648   -2.000
 5500.00    1.26141   1.29523   -2.000
 5501.00    1.22444   1.29219   -2.000
 5502.00    1.18237   1.28993   -2.000
 5503.00    1.19341   1.28801   -2.000
 5504.00    1.30864   1.28401   -2.000
 5505.00    1.40113   1.28085   -2.000
 5506.00    1.08192   1.27876   -2.000
 5507.00    0.26169   1.27487   -2.000
 5508.00   -0.46848   1.27254   -2.000
 5509.00   -0.61130   1.27126   -2.000
 5510.00   -0.33229   1.26794   -2.000
 5511.00    0.04636   1.26631   -2.000
 5512.00    0.43139   1.26512   -2.000
 5513.00    0.79517   1.26247   -2.000
 5514.00    1.05638   1.26208   -2.000
 5515.00    1.17167   1.26294   -2.000
 5516.00    1.19045   1.26489   -2.000
 5517.00    1.18370   1.26979   -2.000
 5518.00    1.19377   1.27634   -2.000
 5519.00    1.21787   1.28449   -2.000
 5520.00    1.21362   1.29319    4.573
 5521.00    1.17622   1.30103    4.657
 5522.00    1.16482   1.30779    4.749
 5523.00    1.21153   1.31172    4.827
 5524.00    1.28371   1.31296    4.905
 5525.00    1.34368   1.31171    4.966
 5526.00    1.37788   1.30739    4.948
 5527.00    1.38714   1.30216    4.873
 5528.00    1.37706   1.29632    4.856
 5529.00    1.33976   1.28996    4.926
 5530.00    1.25837   1.28597    4.996
 5531.00    1.15896   1.28378    5.022
 5532.00    1.10646   1.28256    5.049
 5533.00    1.10357   1.28385    5.052
 5534.00    1.08380   1.28676    4.940
 5535.00    1.03531   1.28954    4.794
 5536.00    1.01889   1.29269    4.823
 5537.00    1.06510   1.29684    5.051
 5538.00    1.14779   1.30021    5.272
 5539.00    1.22113   1.30334    5.264
 5540.00    1.24645   1.30751    5.043
 5541.00    1.23377   1.31069    5.002
 5542.00    1.23129   1.31365    5.682
 5543.00    1.25732   1.31678    7.219
 5544.00    1.29349   1.31845    7.994
 5545.00    1.32307   1.32028    7.762
 5546.00    1.33717   1.32207    7.326
 5547.00    1.32218   1.32298    7.497
 5548.00    1.26846   1.32491    7.948
 5549.00    1.19918   1.32701    7.994
 5550.00    1.15524   1.32846    7.994
 5551.00    1.14435   1.33025    7.994
 5552.00    1.15028   1.33115    7.994
 5553.00    1.17913   1.33079    7.994
 5554.00    1.24544   1.32974    7.994
 5555.00    1.32341   1.32735    7.544
 5556.00    1.37100   1.32449    7.333
 5557.00    1.39594   1.32145    7.192
 5558.00    1.43354   1.31788    6.878
 5559.00    1.48247   1.31495    6.684
 5560.00    1.51392   1.31198    6.874
 5561.00    1.50889   1.30844    6.799
 5562.00    1.46366   1.30550    5.852
 5563.00    1.38758   1.30178    4.973
 5564.00    1.29996   1.29717    4.733
 5565.00    1.22570   1.29335    4.853
 5566.00    1.19196   1.28904    4.891
 5567.00    1.22305   1.28422    4.816
 5568.00    1.31740   1.28099    4.815
 5569.00    1.41981   1.27851    4.845
 5570.00    1.47061   1.27552    4.791
 5571.00    1.47292   1.27451    4.743
 5572.00    1.45610   1.27531    4.816
 5573.00    1.42113   1.27493    4.928
 5574.00    1.36565   1.27647    4.952
 5575.00    1.31888   1.28024    4.964
 5576.00    1.31091   1.28207    5.063
 5577.00    1.33564   1.28528    5.145
 5578.00    1.37076   1.29008    5.095
 5579.00    1.40256   1.29183    5.037
 5580.00    1.42039   1.29371    5.111
 5581.00    1.41018   1.29565    5.257
 5582.00    1.36854   1.29347    5.344
 5583.00    1.31471   1.29024    5.328
 5584.00    1.26991   1.28566    5.253
 5585.00    1.23988   1.27729    5.199
 5586.00    1.23191   1.26820    5.188
 5587.00    1.26608   1.25818    5.132
 5588.00    1.33810   1.24726    4.996
 5589.00    1.39609   1.23803    4.895
 5590.00    1.39867   1.23039    4.898
 5591.00    1.35755   1.22568    4.933
 5592.00    1.31484   1.22390    4.931
 5593.00    1.31847   1.22466    4.917
 5594.00    1.38063   1.22873    4.893
 5595.00    1.45736   1.23315    4.778
 5596.00    1.49465   1.23788    4.580
 5597.00    1.46257   1.24333    4.443
 5598.00    1.37625   1.24619    4.434
 5599.00    1.29764   1.24789    4.493
 5600.00    1.27836   1.24919    4.518
 5601.00    1.32691   1.24860    4.432
 5602.00    1.41160   1.24900    4.288
 5603.00    1.47356   1.25085    4.238
 5604.00    1.47983   1.25374    4.331
 5605.00    1.44485   1.26001    4.458
 5606.00    1.40268   1.26845    4.503
 5607.00    1.38501   1.27817    4.436
 5608.00    1.38683   1.28913    4.317
 5609.00    1.36594   1.29908    4.234
 5610.00    1.30602   1.30716    4.195
 5611.00    1.23310   1.31284    4.134
 5612.00    1.17050   1.31481    4.055
 5613.00    1.12224   1.31272    4.033
 5614.00    1.08203   1.30834    4.059
 5615.00    1.04303   1.30148    4.032
 5616.00    1.01866   1.29227    3.938
 5617.00    1.03676   1.28436    3.869
 5618.00    1.09575   1.27715    3.886
 5619.00    1.16398   1.27085    3.991
 5620.00    1.22537   1.26817    4.124
 5621.00    1.28581   1.26663    4.191
 5622.00    1.34726   1.26580    4.219
 5623.00    1.40212   1.26725    4.337
 5624.00    1.44055   1.26845    4.509
 5625.00    1.45077   1.26885    4.550
 5626.00    1.41466   1.27057    4.510
 5627.00    1.32181   1.27281    4.618
 5628.00    1.20669   1.27501    4.832
 5629.00    1.12931   1.27899    4.870
 5630.00    1.10807   1.28374    4.744
 5631.00    1.12010   1.28814    4.709
 5632.00    1.13905   1.29301    4.797
 5633.00    1.14895   1.29669    4.865
 5634.00    1.15395   1.29832    4.859
 5635.00    1.16654   1.29872    4.824
 5636.00    1.18057   1.29712    4.774
 5637.00    1.17991   1.29411    4.707
 5638.00    1.16485   1.29028    4.667
 5639.00    1.14516   1.28583    4.702
 5640.00    1.11928   1.28223    4.778
 5641.00    1.08350   1.27897    4.814
 5642.00    1.05304   1.27651    4.779
 5643.00    1.05139   1.27597    4.702
 5644.00    1.08760   1.27578    4.641
 5645.00    1.15083   1.27696    4.640
 5646.00    1.20916   1.27955    4.692
 5647.00    1.23345   1.28169    4.753
 5648.00    1.23026   1.28487    4.774
 5649.00    1.22312   1.28825    4.741
 5650.00    1.22173   1.29058    4.710
 5651.00    1.22965   1.29314    4.730
 5652.00    1.25804   1.29446    4.748
 5653.00    1.31067   1.29401    4.707
 5654.00    1.36507   1.29322    4.674
 5655.00    1.39119   1.29033    4.732
 5656.00    1.37549   1.28489    4.863
 5657.00    1.32794   1.27941    4.999
 5658.00    1.28338   1.27293    5.101
 5659.00    1.26430   1.26538    5.140
 5660.00    1.24612   1.25943    5.070
 5661.00    1.19317   1.25459    4.898
 5662.00    1.09788   1.25149    4.718
 5663.00    0.99237   1.25141    4.600
 5664.00    0.94818   1.25239    4.531
 5665.00    1.00410   1.25493    4.503
 5666.00    1.11195   1.25994    4.565
 5667.00    1.20822   1.26469    4.736
 5668.00    1.27348   1.26890    4.926
 5669.00    1.30959   1.27409    5.024
 5670.00    1.31901   1.27908    5.015
 5671.00    1.30742   1.28355    4.970
 5672.00    1.28564   1.28837    4.982
 5673.00    1.26168   1.29327    5.063
 5674.00    1.23683   1.29833    5.090
 5675.00    1.21626   1.30341    4.993
 5676.00    1.21393   1.30760    4.869
 5677.00    1.23869   1.31081    4.803
 5678.00    1.28541   1.31309    4.788
 5679.00    1.33596   1.31390    4.784
 5680.00    1.36530   1.31278    4.751
 5681.00    1.37075   1.31021    4.696
 5682.00    1.37835   1.30667    4.677
 5683.00    1.39278   1.30223    4.713
 5684.00    1.38038   1.29731    4.757
 5685.00    1.31610   1.29218    4.764
 5686.00    1.20691   1.28802    4.734
 5687.00    1.08905   1.28512    4.713
 5688.00    1.01650   1.28293    4.764
 5689.00    1.01975   1.28238    4.842
 5690.00    1.08879   1.28389    4.794
 5691.00    1.17934   1.28672    4.635
 5692.00    1.23058   1.29020    4.554
 5693.00    1.22107   1.29453    4.562
 5694.00    1.18103   1.29896    4.495
 5695.00    1.15668   1.30233    4.340
 5696.00    1.18561   1.30419    4.252
 5697.00    1.26069   1.30445    4.258
 5698.00    1.33586   1.30293    4.263
 5699.00    1.38492   1.29926    4.261
 5700.00    1.41134   1.29446    4.350
 5701.00    1.41825   1.28838    4.552
 5702.00    1.40123   1.28205    4.777
 5703.00    1.35569   1.27600    4.933
 5704.00    1.28604   1.26887    4.992
 5705.00    1.22324   1.26312    5.006
 5706.00    1.20796   1.25762    5.053
 5707.00    1.23608   1.25103    5.115
 5708.00    1.26721   1.24626    5.102
 5709.00    1.27975   1.24126    5.006
 5710.00    1.27653   1.23701    4.895
 5711.00    1.26628   1.23596    4.813
 5712.00    1.25807   1.23532    4.755
 5713.00    1.25888   1.23799    4.663
 5714.00    1.26662   1.24455    4.490
 5715.00    1.25813   1.25119    4.302
 5716.00    1.21151   1.26118    4.186
 5717.00    1.15204   1.27277    4.111
 5718.00    1.12559   1.28239    4.005
 5719.00    1.13500   1.29340    3.894
 5720.00    1.14967   1.30358    3.855
 5721.00    1.14317   1.31067    3.936
 5722.00    1.11651   1.31765    4.140
 5723.00    1.12235   1.32300    4.368
 5724.00    1.21067   1.32563    4.472
 5725.00    1.34280   1.32731    4.463
 5726.00    1.44065   1.32754    4.460
 5727.00    1.47631   1.32619    4.498
 5728.00    1.46690   1.32419    4.551
 5729.00    1.44796   1.32153    4.588
 5730.00    1.44512   1.31885    4.591
 5731.00    1.44433   1.31712    4.563
 5732.00    1.42216   1.31585    4.531
 5733.00    1.38627   1.31521    4.544
 5734.00    1.35698   1.31553    4.627
 5735.00    1.34074   1.31682    4.740
 5736.00    1.33568   1.31864    4.814
 5737.00    1.34043   1.31960    4.816
 5738.00    1.34934   1.32095    4.776
 5739.00    1.34860   1.32259    4.784
 5740.00    1.33860   1.32305    0.000
 5741.00    1.35211   1.32343    0.000
 5742.00    1.41148   1.32359    0.000
 5743.00    1.49046   1.32342    0.000
 5744.00    1.54511   1.32351    0.000
 5745.00    1.54556   1.32318    0.000
 5746.00    1.48954   1.32244    0.000
 5747.00    1.40841   1.32206    0.000
 5748.00    1.34112   1.32118    0.000
 5749.00    1.31119   1.31946    0.000
 5750.00    1.31205   1.31756    0.000
 5751.00    1.30412   1.31506    0.000
 5752.00    1.26448   1.31245    0.000
 5753.00    1.21712   1.31009    0.000
 5754.00    1.19754   1.30730    0.000
 5755.00    1.22430   1.30540    0.000
 5756.00    1.27873   1.30499    0.000
 5757.00    1.30576   1.30456    0.000
 5758.00    1.29013   1.30471    0.000
 5759.00    1.28623   1.30563    0.000
 5760.00    1.32882   1.30578    0.000
 5761.00    1.39050   1.30630    0.000
 5762.00    1.43116   1.30720    0.000
 5763.00    1.42945   1.30699    0.000
 5764.00    1.40094   1.30730    0.000
 5765.00    1.39270   1.30868    0.000
 5766.00    1.41890   1.31026    0.000
 5767.00    1.44248   1.31316    0.000
 5768.00    1.43132   1.31665    0.000
 5769.00    1.38505   1.31953    0.000
 5770.00    1.33810   1.32282    0.000
 5771.00    1.34041   1.32549    0.000
 5772.00    1.38035   1.32596    0.000
 5773.00    1.38430   1.32561    0.000
 5774.00    1.32861   1.32489    0.000
 5775.00    1.26189   1.32217    0.000
 5776.00    1.23253   1.31905    0.000
 5777.00    1.25731   1.31546    0.000
 5778.00    1.30766   1.30990    0.000
 5779.00    1.32688   1.30396    0.000
 5780.00    1.29624   1.29713    0.000
 5781.00    1.24145   1.28915    0.000
 5782.00    1.18929   1.28128    0.000
 5783.00    1.15699   1.27316    0.000
 5784.00    1.15987   1.26617    0.000
 5785.00    1.20343   1.26158    0.000
 5786.00    1.25800   1.25848    0.000
 5787.00    1.27310   1.25801    0.000
 5788.00    1.22926   1.25992    0.000
 5789.00    1.14673   1.26417    0.000
 5790.00    1.07415   1.27071    0.000
 5791.00    1.06081   1.27638    0.000
 5792.00    1.10354   1.28316    0.000
 5793.00    1.16291   1.29089    0.000
 5794.00    1.22072   1.29661    0.000
 5795.00    1.27602   1.30251    0.000
 5796.00    1.31401   1.30768    0.000
 5797.00    1.32088   1.31179    0.000
 5798.00    1.32136   1.31635    0.000
 5799.00    1.35047   1.32027    0.000
 5800.00    1.39354   1.32357    0.000
 5801.00    1.41173   1.32669    0.000
 5802.00    1.40085   1.32975    0.000
 5803.00    1.37898   1.33182    0.000
 5804.00    1.35198   1.33283    0.000
 5805.00    1.31278   1.33429    0.000
 5806.00    1.24935   1.33478    0.000
 5807.00    1.16400   1.33379    0.000
 5808.00    1.09641   1.33335    0.000
 5809.00    1.09187   1.33265    0.000
 5810.00    1.15536   1.33149    0.000
 5811.00    1.25380   1.33110   -2.000
 5812.00    1.32847   1.33065   -2.000
 5813.00    1.32551   1.33022   -2.000
 5814.00    1.23128   1.32971   -2.000
 5815.00    1.08670   1.32889   -2.000
 5816.00    0.99161   1.32860   -2.000
 5817.00    1.01875   1.32831   -2.000
 5818.00    1.12738   1.32826   -2.000
 5819.00    1.22231   1.32916   -2.000
 5820.00    1.22791   1.33079   -2.000
 5821.00    1.15046   1.33301   -2.000
 5822.00    1.11523   1.33540   -2.000
 5823.00    1.21372   1.33825   -2.000
 5824.00    1.37634   1.34113   -2.000
 5825.00    1.49149   1.34346   -2.000
 5826.00    1.51585   1.34519   -2.000
 5827.00    1.47335   1.34658   -2.000
 5828.00    1.43695   1.34780   -2.000
 5829.00    1.44307   1.34814   -2.000
 5830.00    1.44066   1.34843    0.000
 5831.00    1.39070   1.34870    0.000
 5832.00    1.33113   1.34812    0.000
 5833.00    1.31047   1.34739    0.000
 5834.00    1.34018   1.34661    0.000
 5835.00    1.39910   1.34553    0.000
 5836.00    1.44431   1.34439    0.000
 5837.00    1.44972   1.34335    0.000
 5838.00    1.42498   1.34260    0.000
 5839.00    1.39037   1.34256    0.000
 5840.00    1.36158   1.34262    0.000
 5841.00    1.34992   1.34261    0.000
 5842.00    1.36085   1.34322    0.000
 5843.00    1.38460   1.34374    0.000
 5844.00    1.39774   1.34337    0.000
 5845.00    1.39332   1.34213    0.000
 5846.00    1.38925   1.34050    0.000
 5847.00    1.39962   1.33772    0.000
 5848.00    1.42193   1.33364    0.000
 5849.00    1.44072   1.32907    0.000
 5850.00    1.43471   1.32324    0.000
 5851.00    1.39777   1.31692    0.000
 5852.00    1.34377   1.31068    0.000
 5853.00    1.29199   1.30388    0.000
 5854.00    1.25863   1.29709    0.000
 5855.00    1.24761   1.28998    0.000
 5856.00    1.25200   1.28334    0.000
 5857.00    1.26956   1.27809    0.000
 5858.00    1.30120   1.27345    0.000
 5859.00    1.32958   1.27006    0.000
 5860.00    1.32656   1.26767    0.000
 5861.00    1.29587   1.26742    0.000
 5862.00    1.27145   1.26936    0.000
 5863.00    1.27579   1.27114    0.000
 5864.00    1.30582   1.27392    0.000
 5865.00    1.32927   1.27762    0.000
 5866.00    1.31078   1.28154    0.000
 5867.00    1.27743   1.28565    0.000
 5868.00    1.29152   1.28919    0.000
 5869.00    1.34764   1.29239    0.000
 5870.00    1.38619   1.29566    0.000
 5871.00    1.37978   1.29913    0.000
 5872.00    1.34238   1.30178    0.000
 5873.00    1.30530   1.30366    0.000
 5874.00    1.29620   1.30515    0.000
 5875.00    1.30883   1.30554    0.000
 5876.00    1.31751   1.30480    0.000
 5877.00    1.31565   1.30309    0.000
 5878.00    1.31385   1.30006    0.000
 5879.00    1.32303   1.29617    0.000
 5880.00    1.34594   1.29182    0.000
 5881.00    1.36840   1.28644    0.000
 5882.00    1.36604   1.27997    0.000
 5883.00    1.31846   1.27242    0.000
 5884.00    1.23447   1.26357    0.000
 5885.00    1.18266   1.25269    0.000
 5886.00    1.22321   1.23872    0.000
 5887.00    1.30876   1.22050    0.000
 5888.00    1.35000   1.19932    0.000
 5889.00    1.32189   1.17804    0.000
 5890.00    1.25415   1.15415    0.000
 5891.00    1.19832   1.12990    0.000
 5892.00    1.18472   1.10874    0.000
 5893.00    1.17973   1.08873    0.000
 5894.00    1.14141   1.07612    0.000
 5895.00    1.08573   1.07064    0.000
 5896.00    1.05311   1.06759    0.000
 5897.00    1.06393   1.07239    0.000
 5898.00    1.11297   1.08214    0.000
 5899.00    1.17032   1.09416    0.000
 5900.00    1.20318   1.11293    0.000
 5901.00    1.19709   1.13290    4.072
 5902.00    1.15794   1.15221    4.078
 5903.00    1.11139   1.17435    4.118
 5904.00    1.09606   1.19504    4.162
 5905.00    1.15245   1.21262    4.180
 5906.00    1.27780   1.22804    4.187
 5907.00    1.39965   1.24012    4.280
 5908.00    1.45559   1.24961    4.488
 5909.00    1.45125   1.25694    4.658
 5910.00    1.41627   1.26176    4.652
 5911.00    1.36957   1.26457    4.573
 5912.00    1.32260   1.26547    4.559
 5913.00    1.28209   1.26561    4.628
 5914.00    1.24313   1.26491    4.734
 5915.00    1.19012   1.26354    4.798
 5916.00    1.13183   1.26197    4.800
 5917.00    1.11253   1.26016    4.830
 5918.00    1.14920   1.25998    4.906
 5919.00    1.20416   1.26009    4.909
 5920.00    1.24079   1.26067    4.806
 5921.00    1.25396   1.26280    4.730
 5922.00    1.26196   1.26484    4.718
 5923.00    1.29350   1.26747    4.646
 5924.00    1.34966   1.27007    4.502
 5925.00    1.39572   1.27166    4.425
 5926.00    1.40975   1.27354    4.451
 5927.00    1.40072   1.27471    4.461
 5928.00    1.38621   1.27474    4.406
 5929.00    1.37858   1.27529    4.360
 5930.00    1.37106   1.27518    4.353
 5931.00    1.34365   1.27446    4.337
 5932.00    1.30693   1.27390    4.329
 5933.00    1.30360   1.27293    4.410
 5934.00    1.35162   1.27326    4.537
 5935.00    1.42869   1.27371    4.535
 5936.00    1.49326   1.27353    4.423
 5937.00    1.50532   1.27422    4.410
 5938.00    1.46715   1.27470    4.524
 5939.00    1.42070   1.27537    4.603
 5940.00    1.39889   1.27611    4.607
 5941.00    1.40928   1.27626    4.658
 5942.00    1.43251   1.27682    4.766
 5943.00    1.43241   1.27723    4.809
 5944.00    1.38396   1.27697    4.766
 5945.00    1.28891   1.27716    4.729
 5946.00    1.19432   1.27700    4.757
 5947.00    1.16637   1.27628    4.845
 5948.00    1.21689   1.27603    4.937
 5949.00    1.30340   1.27534    4.956
 5950.00    1.37175   1.27365    4.894
 5951.00    1.38199   1.27157    4.818
 5952.00    1.34095   1.26983    4.827
 5953.00    1.29063   1.26854    4.971
 5954.00    1.26972   1.26711    5.094
 5955.00    1.29325   1.26562    4.969
 5956.00    1.33078   1.26495    4.737
 5957.00    1.33507   1.26579    4.661
 5958.00    1.30090   1.26722    4.707
 5959.00    1.25413   1.26858    4.707
 5960.00    1.21437   1.27100    4.668
 5961.00    1.19426   1.27429    4.685
 5962.00    1.20807   1.27776    4.724
 5963.00    1.25735   1.28130    4.699
 5964.00    1.30836   1.28432    4.653
 5965.00    1.32101   1.28756    4.673
 5966.00    1.29492   1.29018    4.745
 5967.00    1.25637   1.29224    4.803
 5968.00    1.23076   1.29407    4.816
 5969.00    1.23073   1.29509    4.795
 5970.00    1.24717   1.29652    4.768
 5971.00    1.27084   1.29728    4.766
 5972.00    1.31759   1.29742    4.806
 5973.00    1.39280   1.29708    4.868
 5974.00    1.45062   1.29567    4.879
 5975.00    1.44485   1.29364    4.817
 5976.00    1.38757   1.29089    4.809
 5977.00    1.32069   1.28760    4.949
 5978.00    1.27876   1.28404    5.113
 5979.00    1.27434   1.28027    5.140
 5980.00    1.28935   1.27699    5.087
 5981.00    1.29701   1.27400    5.067
 5982.00    1.28365   1.27111    5.069
 5983.00    1.25383   1.26947    5.066
 5984.00    1.23061   1.26792    5.100
 5985.00    1.23265   1.26662    5.185
 5986.00    1.25613   1.26584    5.218
 5987.00    1.28403   1.26527    5.132
 5988.00    1.29590   1.26637    5.018
 5989.00    1.27751   1.26792    4.959
 5990.00    1.22923   1.26976    4.944
 5991.00    1.17766   1.27256    4.916
 5992.00    1.17394   1.27562    4.820
 5993.00    1.22968   1.27878    4.682
 5994.00    1.28601   1.28121    4.612
 5995.00    1.29048   1.28296    4.657
 5996.00    1.24370   1.28457    4.755
 5997.00    1.17729   1.28533    4.829
 5998.00    1.13399   1.28493    4.858
 5999.00    1.13908   1.28396    4.866
 6000.00    1.18601   1.28198    4.899
 6001.00    1.24420   1.27966    4.943
 6002.00    1.27267   1.27782    4.915
 6003.00    1.26370   1.27533    4.825
 6004.00    1.25343   1.27271    4.806
 6005.00    1.26834   1.26989    4.883
 6006.00    1.30363   1.26650    4.931
 6007.00    1.34354   1.26478    4.914
 6008.00    1.37404   1.26328    4.949
 6009.00    1.39510   1.26108    5.059
 6010.00    1.41721   1.25983    5.116
 6011.00    1.42843   1.25829    5.090
 6012.00    1.39327   1.25850    5.101
 6013.00    1.29730   1.25962    5.192
 6014.00    1.16491   1.25921    5.278
 6015.00    1.05962   1.25923    5.295
 6016.00    1.05529   1.25913    5.249
 6017.00    1.14420   1.25893    5.155
 6018.00    1.24149   1.25893    5.029
 6019.00    1.29489   1.25772    4.931
 6020.00    1.30816   1.25679    4.930
 6021.00    1.30443   1.25681    4.977
 6022.00    1.30932   1.25645    4.938
 6023.00    1.33656   1.25698    4.824
 6024.00    1.38422   1.25840    4.752
 6025.00    1.43591   1.26034    4.707
 6026.00    1.46593   1.26397    4.599
 6027.00    1.45101   1.26765    4.509
 6028.00    1.38341   1.27216    4.585
 6029.00    1.29314   1.27733    4.751
 6030.00    1.22967   1.28189    4.765
 6031.00    1.21078   1.28721    4.614
 6032.00    1.21911   1.29191    4.485
 6033.00    1.21984   1.29583    4.441
 6034.00    1.18365   1.29935    4.448
 6035.00    1.12275   1.30211    4.479
 6036.00    1.07567   1.30453    4.524
 6037.00    1.06566   1.30599    4.577
 6038.00    1.09444   1.30672    4.635
 6039.00    1.14557   1.30726    4.702
 6040.00    1.19390   1.30727    4.773
 6041.00    1.22059   1.30744    4.810
 6042.00    1.22379   1.30745    4.796
 6043.00    1.22993   1.30743    4.838
 6044.00    1.26404   1.30828    5.029
 6045.00    1.30501   1.30902    5.232
 6046.00    1.30988   1.31033    5.227
 6047.00    1.25799   1.31169    5.123
 6048.00    1.16957   1.31289    5.119
 6049.00    1.11726   1.31409    5.152
 6050.00    1.15333   1.31466    5.087
 6051.00    1.22288   1.31475    4.988
 6052.00    1.24462   1.31401    4.949
 6053.00    1.21627   1.31289    4.903
 6054.00    1.18017   1.31109    4.779
 6055.00    1.17003   1.30877    4.681
 6056.00    1.19601   1.30618    4.711
 6057.00    1.23694   1.30361    4.819
 6058.00    1.26485   1.30111    4.874
 6059.00    1.27010   1.29870    4.763
 6060.00    1.26026   1.29674    4.535
 6061.00    1.25551   1.29478    4.417
 6062.00    1.27625   1.29331    4.515
 6063.00    1.33076   1.29125    4.669
 6064.00    1.40069   1.28984    4.679
 6065.00    1.43488   1.28920    4.580
 6066.00    1.39439   1.28842    4.512
 6067.00    1.28815   1.28908    4.562
 6068.00    1.16319   1.28980    4.736
 6069.00    1.08731   1.29248    4.918
 6070.00    1.09105   1.29703    4.979
 6071.00    1.13452   1.30112    4.909
 6072.00    1.16454   1.30542    4.801
 6073.00    1.15709   1.30919    4.767
 6074.00    1.12825   1.31207    4.825
 6075.00    1.12904   1.31427    4.857
 6076.00    1.17975   1.31433    4.808
 6077.00    1.24083   1.31264    4.781
 6078.00    1.27650   1.31025    4.829
 6079.00    1.28763   1.30599    4.872
 6080.00    1.28462   1.30135    4.847
 6081.00    1.27120   1.29630    4.787
 6082.00    1.24198   1.29130    4.734
 6083.00    1.18811   1.28735    4.690
 6084.00    1.12812   1.28344    4.643
 6085.00    1.11029   1.28029    4.583
 6086.00    1.15623   1.27840    4.537
 6087.00    1.23982   1.27716    4.560
 6088.00    1.31040   1.27599    4.636
 6089.00    1.31546   1.27551    4.671
 6090.00    1.24813   1.27542    4.642
 6091.00    1.15619   1.27568    4.625
 6092.00    1.10262   1.27605    4.633
 6093.00    1.13407   1.27626    4.602
 6094.00    1.22655   1.27710    4.549
 6095.00    1.29744   1.27844    4.572
 6096.00    1.31036   1.27962    4.692
 6097.00    1.29303   1.28081    4.828
 6098.00    1.27721   1.28183    4.914
 6099.00    1.27745   1.28168    4.955
 6100.00    1.28827   1.27987    4.989
 6101.00    1.29164   1.27742    5.067
 6102.00    1.27965   1.27541    5.196
 6103.00    1.25977   1.27266    5.335
 6104.00    1.25094   1.26971    5.412
 6105.00    1.27079   1.26583    5.363
 6106.00    1.30752   1.26339    5.217
 6107.00    1.33021   1.26533    5.066
 6108.00    1.32991   1.26758    4.974
 6109.00    1.32031   1.27004    4.960
 6110.00    1.31622   1.27281    5.004
 6111.00    1.32500   1.27594    5.056
 6112.00    1.33933   1.28103    5.067
 6113.00    1.34394   1.28529    5.003
 6114.00    1.33188   1.28718    4.875
 6115.00    1.30849   1.28853    4.735
 6116.00    1.29218   1.28949    4.670
 6117.00    1.30619   1.28901    4.737
 6118.00    1.36334   1.28714    4.859
 6119.00    1.45097   1.28319    4.894
 6120.00    1.51268   1.27811    4.846
 6121.00    1.49299   1.27425    4.808
 6122.00    1.41132   1.26940    4.787
 6123.00    1.32950   1.26418    4.751
 6124.00    1.28477   1.26016    4.709
 6125.00    1.27995   1.25640    4.697
 6126.00    1.28600   1.25613    4.724
 6127.00    1.27524   1.25774    4.784
 6128.00    1.26359   1.25897    4.875
 6129.00    1.27951   1.26099    4.989
 6130.00    1.31873   1.26272    5.109
 6131.00    1.36228   1.26478    5.206
 6132.00    1.40435   1.26609    5.243
 6133.00    1.44028   1.26544    5.215
 6134.00    1.45085   1.26267    5.185
 6135.00    1.42066   1.25765    5.193
 6136.00    1.35914   1.25273    5.175
 6137.00    1.29202   1.24727    5.102
 6138.00    1.24882   1.24145    5.090
 6139.00    1.24662   1.23597    5.195
 6140.00    1.27711   1.23150    5.225
 6141.00    1.32345   1.23206    5.021
 6142.00    1.37582   1.23581    4.733
 6143.00    1.42229   1.24018    4.540
 6144.00    1.44270   1.24469    4.484
 6145.00    1.43379   1.24988    4.538
 6146.00    1.42512   1.25706    4.630
 6147.00    1.43690   1.26384    4.712
 6148.00    1.45157   1.26833    4.806
 6149.00    1.45384   1.27104    4.921
 6150.00    1.45663   1.27239    4.982
 6151.00    1.46452   1.27274    4.948
 6152.00    1.45402   1.27182    4.888
 6153.00    1.41854   1.26952    4.810
 6154.00    1.39002   1.26716    4.604
 6155.00    1.38335   1.26376    4.295
 6156.00    1.36907   1.25980    4.061
 6157.00    1.32177   1.25382    3.968
 6158.00    1.24619   1.24623    3.942
 6159.00    1.15799   1.23781    3.943
 6160.00    1.07407   1.22755    4.024
 6161.00    1.02143   1.21686    4.198
 6162.00    1.03172   1.20556    4.383
 6163.00    1.09140   1.19440    4.518
 6164.00    1.13574   1.18319    4.628
 6165.00    1.13472   1.17404    4.631
 6166.00    1.11947   1.16858    4.351
 6167.00    1.11945   1.16545    3.952
 6168.00    1.13761   1.16494    3.760
 6169.00    1.16681   1.16578    3.772
 6170.00    1.19505   1.16862    3.752
 6171.00    1.19829   1.17277    3.712
 6172.00    1.15137   1.17653    3.954
 6173.00    1.07738   1.18161    4.575
 6174.00    1.04501   1.18832    5.145
 6175.00    1.09682   1.19501    5.135
 6176.00    1.22125   1.20100    4.710
 6177.00    1.34656   1.20684    4.253
 6178.00    1.37519   1.21258    3.941
 6179.00    1.29122   1.21850    3.800
 6180.00    1.16776   1.22347    3.803
 6181.00    1.09003   1.22808    3.922
 6182.00    1.11142   1.23161    4.133
 6183.00    1.19999   1.23351    4.397
 6184.00    1.26730   1.23469    4.651
 6185.00    1.27864   1.23448    4.817
 6186.00    1.26296   1.23287    4.845
 6187.00    1.26467   1.22981    4.784
 6188.00    1.31216   1.22562    4.745
 6189.00    1.37584   1.21972    4.801
 6190.00    1.39396   1.21416    4.957
 6191.00    1.34858   1.20933    5.106
 6192.00    1.26363   1.20503    5.105
 6193.00    1.16627   1.20229    5.048
 6194.00    1.08233   1.19961    5.116
 6195.00    1.04228   1.19963    5.198
 6196.00    1.06105   1.20255    5.060
 6197.00    1.10119   1.20538    4.838
 6198.00    1.11005   1.20880    4.787
 6199.00    1.09370   1.21238    4.884
 6200.00    1.09019   1.21600    4.967
 6201.00    1.10601   1.21978    5.007
 6202.00    1.12741   1.22210    5.058
 6203.00    1.15313   1.22450    5.073
 6204.00    1.18385   1.22755    4.970
 6205.00    1.20081   1.23036    4.763
 6206.00    1.18536   1.23280    4.526
 6207.00    1.14913   1.23431    4.322
 6208.00    1.12106   1.23519    4.187
 6209.00    1.12428   1.23515    4.143
 6210.00    1.16207   1.23394    4.201
 6211.00    1.20593   1.23066    4.350
 6212.00    1.22004   1.22611    4.573
 6213.00    1.19151   1.22024    4.858
 6214.00    1.13438   1.21318    5.159
 6215.00    1.08776   1.20645    5.334
 6216.00    1.08652   1.19877   -2.000
 6217.00    1.13182   1.19183   -2.000
 6218.00    1.20023   1.18639   -2.000
 6219.00    1.25811   1.18214   -2.000
 6220.00    1.28618   1.18001   -2.000
 6221.00    1.29792   1.17894   -2.000
 6222.00    1.30603   1.17785   -2.000
 6223.00    1.29587   1.17830   -2.000
 6224.00    1.26500   1.17935   -2.000
 6225.00    1.25107   1.18065   -2.000
 6226.00    1.27305   1.18180   -2.000
 6227.00    1.29083   1.18147   -2.000
 6228.00    1.26716   1.18081    3.739
 6229.00    1.21105   1.17959    3.817
 6230.00    1.13908   1.17808    3.948
 6231.00    1.05077   1.17643    4.190
 6232.00    0.96083   1.17485    4.576
 6233.00    0.91449   1.17326    4.974
 6234.00    0.93971   1.17271    5.193
 6235.00    1.02041   1.17406    5.206
 6236.00    1.12217   1.17543    5.151
 6237.00    1.21257   1.17796    5.203
 6238.00    1.28293   1.17978    5.345
 6239.00    1.35030   1.18074    5.306
 6240.00    1.40622   1.18116    5.027
 6241.00    1.40386   1.17957    4.806
 6242.00    1.33208   1.17818    4.787
 6243.00    1.23938   1.17543    4.887
 6244.00    1.16779   1.17315    4.933
 6245.00    1.12721   1.17135    4.794
 6246.00    1.12585   1.16913    4.722
 6247.00    1.16492   1.16870    5.305
 6248.00    1.15839   1.16863    7.247
 6249.00    0.96028   1.16878    7.994
 6250.00    0.60270   1.16921   -1.000
 6251.00    0.31769   1.16948   -1.000
 6252.00    0.26174   1.16875   -1.000
 6253.00    0.42328   1.16689   -1.000
 6254.00    0.67632   1.16378   -1.000
 6255.00    0.85677   1.15932    7.994
 6256.00    0.94095   1.15515    7.994
 6257.00    1.03411   1.15121    7.994
 6258.00    1.14818   1.14883    5.590
 6259.00    1.19034   1.14699    4.827
 6260.00    1.13976   1.14683    5.030
 6261.00    1.06114   1.14850    5.231
 6262.00    0.99260   1.15195    5.104
 6263.00    0.93612   1.15760    5.111
 6264.00    0.91733   1.16347    5.338
 6265.00    0.97327   1.17031    5.433
 6266.00    1.08351   1.17686    5.274
 6267.00    1.18329   1.18247    5.066
 6268.00    1.23507   1.18711    4.922
 6269.00    1.24033   1.19140    4.848
 6270.00    1.22651   1.19534    4.853
 6271.00    1.22378   1.19826    4.941
 6272.00    1.22444   1.20042    5.022
 6273.00    1.20117   1.20234    4.977
 6274.00    1.15921   1.20404    4.840
 6275.00    1.13092   1.20541    4.718
 6276.00    1.14531   1.20655    4.591
 6277.00    1.20278   1.20696    4.429
 6278.00    1.24402   1.20691    4.377
 6279.00    1.20677   1.20650    4.561
 6280.00    1.12550   1.20602    0.000
 6281.00    1.07823   1.20544    0.000
 6282.00    1.07875   1.20515    0.000
 6283.00    1.09839   1.20475    0.000
 6284.00    1.12335   1.20541    0.000
 6285.00    1.15484   1.20725    0.000
 6286.00    1.19682   1.20950    0.000
 6287.00    1.24411   1.21279    0.000
 6288.00    1.27120   1.21543    0.000
 6289.00    1.26413   1.21837    0.000
 6290.00    1.25844   1.22098    0.000
 6291.00    1.28737   1.22254    0.000
 6292.00    1.31886   1.22362    0.000
 6293.00    1.30581   1.22293    0.000
 6294.00    1.24940   1.22100    0.000
 6295.00    1.18340   1.21837    0.000
 6296.00    1.14806   1.21487    0.000
 6297.00    1.16385   1.21148    0.000
 6298.00    1.21018   1.20768    0.000
 6299.00    1.25121   1.20353    0.000
 6300.00    1.26306   1.20000    0.000
 6301.00    1.23959   1.19741    0.000
 6302.00    1.19480   1.19619    0.000
 6303.00    1.15638   1.19589    0.000
 6304.00    1.15652   1.19637    0.000
 6305.00    1.20265   1.19817    0.000
 6306.00    1.26089   1.20098    0.000
 6307.00    1.30797   1.20444    0.000
 6308.00    1.36421   1.20818    0.000
 6309.00    1.43609   1.21159    0.000
 6310.00    1.48140   1.21472    0.000
 6311.00    1.46807   1.21661    0.000
 6312.00    1.41124   1.21739    0.000
 6313.00    1.34205   1.21679    0.000
 6314.00    1.28472   1.21515    0.000
 6315.00    1.24954   1.21267    0.000
 6316.00    1.23152   1.20961    0.000
 6317.00    1.22366   1.20679    0.000
 6318.00    1.22416   1.20388    0.000
 6319.00    1.23340   1.20216    0.000
 6320.00    1.25055   1.20123    0.000
 6321.00    1.26588   1.20090    5.356
 6322.00    1.26187   1.20271    5.387
 6323.00    1.23742   1.20539    5.464
 6324.00    1.21358   1.20909    5.565
 6325.00    1.20628   1.21311    5.616
 6326.00    1.21679   1.21734    5.535
 6327.00    1.24575   1.22209    5.387
 6328.00    1.29572   1.22549    5.343
 6329.00    1.35581   1.22915    5.374
 6330.00    1.40090   1.23158    5.263
 6331.00    1.41229   1.23309    5.032
 6332.00    1.38644   1.23376    4.928
 6333.00    1.33635   1.23274    5.010
 6334.00    1.28778   1.23162    5.128
 6335.00    1.26541   1.22961    5.136
 6336.00    1.27834   1.22738    5.010
 6337.00    1.29094   1.22481    4.864
 6338.00    1.24596   1.22182    4.849
 6339.00    1.15978   1.21955    4.965
 6340.00    1.11332   1.21785    5.070
 6341.00    1.14375   1.21714    5.091
 6342.00    1.22965   1.21683    5.066
 6343.00    1.33710   1.21742    5.054
 6344.00    1.43097   1.21816    5.094
 6345.00    1.47097   1.21871    5.194
 6346.00    1.43153   1.21973    5.330
 6347.00    1.34964   1.22039    5.458
 6348.00    1.29258   1.22194    5.538
 6349.00    1.26109   1.22312    5.580
 6350.00    1.21249   1.22433    5.617
 6351.00    1.15562   1.22541    5.623
 6352.00    1.13430   1.22556    5.546
 6353.00    1.15320   1.22502    5.428
 6354.00    1.18118   1.22337    5.355
 6355.00    1.18730   1.22083    5.339
 6356.00    1.16362   1.21701    5.340
 6357.00    1.15107   1.21216    5.318
 6358.00    1.19468   1.20668    5.265
 6359.00    1.26295   1.20128    5.224
 6360.00    1.29370   1.19592    5.234
 6361.00    1.28687   1.19100    5.238
 6362.00    1.27038   1.18715    5.176
 6363.00    1.22851   1.18471    5.126
 6364.00    1.14229   1.18373    5.186
 6365.00    1.05941   1.18435    5.292
 6366.00    1.04401   1.18695    5.326
 6367.00    1.09691   1.19081    5.304
 6368.00    1.17652   1.19601    5.299
 6369.00    1.24011   1.20210    5.299
 6370.00    1.25963   1.20868    5.274
 6371.00    1.23507   1.21554    5.280
 6372.00    1.19708   1.22159    5.354
 6373.00    1.20397   1.22728    5.400
 6374.00    1.28615   1.23191    5.332
 6375.00    1.39196   1.23566    5.246
 6376.00    1.45150   1.23837    5.223
 6377.00    1.44609   1.23983    5.167
 6378.00    1.39099   1.24053    5.026
 6379.00    1.31156   1.24020    4.956
 6380.00    1.23785   1.23936    5.005
 6381.00    1.19861   1.23810    4.899
 6382.00    1.19583   1.23668    4.540
 6383.00    1.19029   1.23558    4.287
 6384.00    1.16587   1.23447    4.301
 6385.00    1.17192   1.23407    4.351
 6386.00    1.22956   1.23373    4.259
 6387.00    1.27110   1.23344    4.206
 6388.00    1.25407   1.23311    4.310
 6389.00    1.23298   1.23230    4.376
 6390.00    1.24781   1.23139    4.290
 6391.00    1.25633   1.22978    4.281
 6392.00    1.22538   1.22809    4.501
 6393.00    1.18326   1.22611    4.811
 6394.00    1.15316   1.22390    5.013
 6395.00    1.11827   1.22171    5.104
 6396.00    1.07257   1.21918    5.162
 6397.00    1.04338   1.21768    5.220
 6398.00    1.04388   1.21657    5.280
 6399.00    1.05343   1.21656    5.334
 6400.00    1.05705   1.21736    5.397
 6401.00    1.06260   1.21831    5.502
 6402.00    1.07981   1.21946    5.618
 6403.00    1.10974   1.22038    5.631
 6404.00    1.14686   1.22248    5.546
 6405.00    1.18184   1.22459    5.520
 6406.00    1.20877   1.22700    5.576
 6407.00    1.22745   1.22927    5.556
 6408.00    1.23986   1.23048    5.406
 6409.00    1.24692   1.23091    5.247
 6410.00    1.24243   1.23068    5.181
 6411.00    1.21676   1.23002    5.231
 6412.00    1.17841   1.22948    5.303
 6413.00    1.15097   1.22872    5.213
 6414.00    1.13568   1.22791    4.892
 6415.00    1.11272   1.22735    4.460
 6416.00    1.08803   1.22653    4.107
 6417.00    1.09354   1.22594    3.963
 6418.00    1.14015   1.22565    4.001
 6419.00    1.20806   1.22558    4.104
 6420.00    1.26313   1.22542    4.223
 6421.00    1.27626   1.22558    4.395
 6422.00    1.26136   1.22580    4.598
 6423.00    1.25910   1.22631    4.740
 6424.00    1.26906   1.22733    4.811
 6425.00    1.25646   1.22899    4.898
 6426.00    1.21178   1.23108    5.063
 6427.00    1.15522   1.23308    5.295
 6428.00    1.11212   1.23503    5.481
 6429.00    1.10179   1.23606    5.473
 6430.00    1.12633   1.23663    5.313
 6431.00    1.17260   1.23655    5.162
 6432.00    1.22130   1.23608    5.054
 6433.00    1.25120   1.23513    4.964
 6434.00    1.24402   1.23385    4.961
 6435.00    1.19676   1.23303    5.116
 6436.00    1.14125   1.23247    5.288
 6437.00    1.11867   1.23276    5.238
 6438.00    1.13073   1.23360    5.048
 6439.00    1.15282   1.23465    4.933
 6440.00    1.16981   1.23607    4.888
 6441.00    1.18445   1.23755    4.824
 6442.00    1.21961   1.23935    4.803
 6443.00    1.28854   1.24151    4.919
 6444.00    1.35337   1.24364    5.106
 6445.00    1.36353   1.24547    5.213
 6446.00    1.31572   1.24660    5.203
 6447.00    1.24146   1.24620    5.117
 6448.00    1.17926   1.24460    4.945
 6449.00    1.16097   1.24210    4.686
 6450.00    1.19871   1.23853    4.413
 6451.00    1.27638   1.23466    4.213
 6452.00    1.34412   1.23055    4.160
 6453.00    1.35050   1.22711    4.293
 6454.00    1.27955   1.22502    4.593
 6455.00    1.16053   1.22411    4.973
 6456.00    1.06768   1.22538    5.249
 6457.00    1.05066   1.22733    5.274
 6458.00    1.07301   1.22910    5.154
 6459.00    1.08744   1.23096    5.020
 6460.00    1.10671   1.23243    4.825
 6461.00    1.15678   1.23347    4.570
 6462.00    1.23110   1.23446    4.407
 6463.00    1.30166   1.23479    4.431
 6464.00    1.33331   1.23490    4.598
 6465.00    1.30018   1.23406    4.801
 6466.00    1.20069   1.23387    4.935
 6467.00    1.07896   1.23360    4.916
 6468.00    1.02667   1.23413    4.734
 6469.00    1.08587   1.23580    4.457
 6470.00    1.19383   1.23704    4.187
 6471.00    1.28137   1.23809    4.008
 6472.00    1.33516   1.23837    3.973
 6473.00    1.35693   1.23855    4.094
 6474.00    1.33753   1.23767    4.333
 6475.00    1.27102   1.23685    4.631
 6476.00    1.16834   1.23574    4.923
 6477.00    1.08091   1.23416    5.139
 6478.00    1.09150   1.23257    5.225
 6479.00    1.19783   1.23049    5.173
 6480.00    1.28381   1.22837    5.032
 6481.00    1.28844   1.22610    4.886
 6482.00    1.26806   1.22414    4.812
 6483.00    1.27850   1.22195    4.792
 6484.00    1.32059   1.21967    4.721
 6485.00    1.35895   1.21767    4.592
 6486.00    1.34607   1.21557    4.522
 6487.00    1.28188   1.21353    4.581
 6488.00    1.22282   1.21151    4.753
 6489.00    1.21772   1.20903    4.942
 6490.00    1.27788   1.20511    4.982
 6491.00    1.36572   1.19974    4.808
 6492.00    1.41307   1.19272    4.529
 6493.00    1.39739   1.18424    4.297
 6494.00    1.35196   1.17482    4.212
 6495.00    1.30785   1.16454    4.254
 6496.00    1.27467   1.15515    4.321
 6497.00    1.24415   1.14641    4.408
 6498.00    1.20245   1.14020    4.610
 6499.00    1.16150   1.13616    4.897
 6500.00    1.15047   1.13572    5.072
 6501.00    1.16663   1.13915    5.106
 6502.00    1.17964   1.14469    5.171
 6503.00    1.17945   1.15318    5.300
 6504.00    1.17957   1.16214    5.358
 6505.00    1.19234   1.17217    5.280
 6506.00    1.21548   1.18196    5.135
 6507.00    1.21705   1.19085    5.058
 6508.00    1.16288   1.19867    5.150
 6509.00    1.08321   1.20494    5.300
 6510.00    1.04616   1.20981    5.268
 6511.00    1.07212   1.21317    5.058
 6512.00    1.14257   1.21514    4.859
 6513.00    1.25271   1.21606    4.753
 6514.00    1.39365   1.21602    4.738
 6515.00    1.50192   1.21549    4.805
 6516.00    1.50385   1.21457    4.921
 6517.00    1.40830   1.21316    4.990
 6518.00    1.28246   1.21192    4.916
 6519.00    1.18370   1.21068    4.762
 6520.00    1.14306   1.20996    4.648
 6521.00    1.15811   1.20967    4.602
 6522.00    1.20474   1.21004    4.619
 6523.00    1.25659   1.21095    4.732
 6524.00    1.29259   1.21210    4.961
 6525.00    1.30363   1.21392    5.180
 6526.00    1.29626   1.21542    5.214
 6527.00    1.29462   1.21670    5.112
 6528.00    1.31310   1.21755    0.000
 6529.00    1.32455   1.21815    0.000
 6530.00    1.29838   1.21865    0.000
 6531.00    1.24798   1.21879    0.000
 6532.00    1.19981   1.21892    0.000
 6533.00    1.15465   1.21925    0.000
 6534.00    1.11228   1.21982    0.000
 6535.00    1.09870   1.22044    0.000
 6536.00    1.12754   1.22112    0.000
 6537.00    1.16348   1.22186    0.000
 6538.00    1.17538   1.22258    0.000
 6539.00    1.18422   1.22337    0.000
 6540.00    1.20408   1.22375    0.000
 6541.00    1.19300   1.22357    0.000
 6542.00    1.12644   1.22223    0.000
 6543.00    1.05422   1.22043    0.000
 6544.00    1.02033   1.21776    0.000
 6545.00    1.00279   1.21457    0.000
 6546.00    0.98020   1.21046    0.000
 6547.00    0.97850   1.20602    0.000
 6548.00    1.01430   1.20151    0.000
 6549.00    1.05767   1.19702    0.000
 6550.00    1.07562   1.19271    0.000
 6551.00    1.06230   1.18807    0.000
 6552.00    1.03041   1.18396    0.000
 6553.00    1.00246   1.17977    0.000
 6554.00    0.99863   1.17484    0.000
 6555.00    1.02830   1.16878    0.000
 6556.00    1.08345   1.16146    0.000
 6557.00    1.13935   1.15265    0.000
 6558.00    1.17770   1.14161    0.000
 6559.00    1.19652   1.12888    0.000
 6560.00    1.19560   1.11564    0.000
 6561.00    1.17005   1.10167    0.000
 6562.00    1.11767   1.08817    0.000
 6563.00    1.04480   1.07556    0.000
 6564.00    0.97602   1.06535    0.000
 6565.00    0.94710   1.05820    0.000
 6566.00    0.95774   1.05538    0.000
 6567.00    0.96978   1.05597    0.000
 6568.00    0.98262   1.06118    0.000
 6569.00    1.03827   1.07290    0.000
 6570.00    1.12266   1.08664    0.000
 6571.00    1.16212   1.10011    0.000
 6572.00    1.14829   1.11340    0.000
 6573.00    1.14783   1.12548    0.000
 6574.00    1.17958   1.13581    0.000
 6575.00    1.20232   1.14488    0.000
 6576.00    1.21259   1.15268    0.000
 6577.00    1.24825   1.15921    0.000
 6578.00    1.30241   1.16498    0.000
 6579.00    1.32368   1.17053    0.000
 6580.00    1.29248   1.17551    0.000
 6581.00    1.23339   1.18057    0.000
 6582.00    1.18711   1.18501    0.000
 6583.00    1.18853   1.18902    0.000
 6584.00    1.23266   1.19228    0.000
 6585.00    1.28454   1.19503    0.000
 6586.00    1.32312   1.19696    0.000
 6587.00    1.34021   1.19857    0.000
 6588.00    1.31434   1.19943    0.000
 6589.00    1.23075   1.19919    0.000
 6590.00    1.13472   1.19842    0.000
 6591.00    1.09460   1.19681    0.000
 6592.00    1.10652   1.19469    0.000
 6593.00    1.12151   1.19240    0.000
 6594.00    1.13265   1.18956    0.000
 6595.00    1.15741   1.18721    0.000
 6596.00    1.17691   1.18520    0.000
 6597.00    1.15775   1.18397    0.000
 6598.00    1.10686   1.18349    0.000
 6599.00    1.05995   1.18450    0.000
 6600.00    1.04729   1.18679    0.000
 6601.00    1.08062   1.18911    0.000
 6602.00    1.14273   1.19159    0.000
 6603.00    1.20312   1.19368    0.000
 6604.00    1.24302   1.19529    0.000
 6605.00    1.26045   1.19650    0.000
 6606.00    1.27143   1.19702    0.000
 6607.00    1.29786   1.19684    0.000
 6608.00    1.35069   1.19620    0.000
 6609.00    1.41397   1.19532    5.071
 6610.00    1.43262   1.19455    5.041
 6611.00    1.37408   1.19436    5.157
 6612.00    1.29364   1.19466    5.259
 6613.00    1.25015   1.19563    5.184
 6614.00    1.21408   1.19710    5.105
 6615.00    1.15159   1.19935    5.185
 6616.00    1.11252   1.20210    5.261
 6617.00    1.14449   1.20454    5.146
 6618.00    1.20870   1.20687    4.969
 6619.00    1.25536   1.20841    4.893
 6620.00    1.29358   1.20991    4.898
 6621.00    1.33034   1.21035    4.900
 6622.00    1.32168   1.21037    4.849
 6623.00    1.25541   1.20950    4.779
 6624.00    1.20919   1.20814    4.801
 6625.00    1.24138   1.20634    4.927
 6626.00    1.31230   1.20402    4.947
 6627.00    1.35968   1.20163    4.784
 6628.00    1.35944   1.19885    4.704
 6629.00    1.33052   1.19626    4.845
 6630.00    1.32563   1.19354    5.000
 6631.00    1.36464   1.19157    4.970
 6632.00    1.40166   1.18953    4.859
 6633.00    1.39537   1.18787    4.825
 6634.00    1.35108   1.18640    4.915
 6635.00    1.30154   1.18528    5.077
 6636.00    1.28561   1.18453    5.163
 6637.00    1.30127   1.18426    5.130
 6638.00    1.29584   1.18433    5.127
 6639.00    1.24912   1.18462    5.189
 6640.00    1.20257   1.18538    5.150
 6641.00    1.18372   1.18619    5.000
 6642.00    1.17839   1.18691    4.950
 6643.00    1.18077   1.18735    5.038
 6644.00    1.20372   1.18746    5.049
 6645.00    1.21911   1.18746    4.914
 6646.00    1.16016   1.18730    4.823
 6647.00    1.04012   1.18728    4.878
 6648.00    0.96614   1.18690    5.016
 6649.00    0.99969   1.18690    5.054
 6650.00    1.11127   1.18708    4.846
 6651.00    1.22290   1.18734    4.748
 6652.00    1.25168   1.18758    5.433
 6653.00    1.19933   1.18769    7.373
 6654.00    1.14677   1.18774    7.994
 6655.00    1.13518   1.18745    7.994
 6656.00    1.14479   1.18700    7.994
 6657.00    1.15377   1.18613    7.994
 6658.00    1.15597   1.18514    7.994
 6659.00    1.15670   1.18360    7.994
 6660.00    1.16865   1.18201    7.994
 6661.00    1.20437   1.18002    7.994
 6662.00    1.26022   1.17784    7.800
 6663.00    1.28239   1.17574    7.636
 6664.00    1.21065   1.17350    7.994
 6665.00    1.10270   1.17190    7.994
 6666.00    1.07903   1.17043    7.473
 6667.00    1.12884   1.16995    5.333
 6668.00    1.14652   1.16972    4.807
 6669.00    1.10845   1.17055    5.136
 6670.00    1.06539   1.17188    5.347
 6671.00    1.04589   1.17344    5.179
 6672.00    1.04604   1.17524    5.107
 6673.00    1.04988   1.17645    5.194
 6674.00    1.04641   1.17734    5.206
 6675.00    1.05190   1.17744    5.136
 6676.00    1.09199   1.17693    5.123
 6677.00    1.16359   1.17554    5.136
 6678.00    1.22957   1.17369    5.083
 6679.00    1.22427   1.17155    5.074
 6680.00    1.11670   1.16949    5.240
 6681.00    1.00039   1.16783    5.414
 6682.00    0.99254   1.16662    5.322
 6683.00    1.07133   1.16615    5.094
 6684.00    1.14536   1.16653    4.990
 6685.00    1.18062   1.16774    5.030
 6686.00    1.18620   1.16926    5.111
 6687.00    1.17314   1.17130    5.143
 6688.00    1.15272   1.17295    5.095
 6689.00    1.13991   1.17455    5.031
 6690.00    1.14050   1.17571    5.023
 6691.00    1.13806   1.17644    5.070
 6692.00    1.12528   1.17673    5.122
 6693.00    1.13521   1.17645    5.129
 6694.00    1.18180   1.17601    5.079
 6695.00    1.20313   1.17506    5.033
 6696.00    1.15736   1.17416    0.000
 6697.00    1.11203   1.17297    0.000
 6698.00    1.12781   1.17197    0.000
 6699.00    1.15339   1.17096    0.000
 6700.00    1.13758   1.17028    0.000
 6701.00    1.12666   1.16975    0.000
 6702.00    1.17310   1.16956    0.000
 6703.00    1.25690   1.16958    0.000
 6704.00    1.32435   1.16972    0.000
 6705.00    1.32852   1.17006    0.000
 6706.00    1.26679   1.17017    0.000
 6707.00    1.19761   1.17017    0.000
 6708.00    1.17123   1.16993    0.000
 6709.00    1.18219   1.16924    0.000
 6710.00    1.18893   1.16836    0.000
 6711.00    1.14076   1.16691    0.000
 6712.00    1.05234   1.16517    0.000
 6713.00    1.02654   1.16281    0.000
 6714.00    1.11079   1.16005    0.000
 6715.00    1.23026   1.15683    0.000
 6716.00    1.30687   1.15341    0.000
 6717.00    1.32456   1.15014    0.000
 6718.00    1.30219   1.14691    0.000
 6719.00    1.27150   1.14458    0.000
 6720.00    1.24886   1.14263    0.000
 6721.00    1.22642   1.14178    0.000
 6722.00    1.19711   1.14168    0.000
 6723.00    1.16566   1.14254    0.000
 6724.00    1.14242   1.14411    0.000
 6725.00    1.13767   1.14615    0.000
 6726.00    1.15098   1.14866    0.000
 6727.00    1.17018   1.15104    0.000
 6728.00    1.18538   1.15329    0.000
 6729.00    1.19526   1.15522    0.000
 6730.00    1.20892   1.15710    0.000
 6731.00    1.23596   1.15848    0.000
 6732.00    1.25105   1.15967    0.000
 6733.00    1.20351   1.16032    0.000
 6734.00    1.09060   1.16081    0.000
 6735.00    0.96690   1.16094    0.000
 6736.00    0.89481   1.16054    0.000
 6737.00    0.91371   1.15993    0.000
 6738.00    0.99918   1.15877    0.000
 6739.00    1.07985   1.15755    0.000
 6740.00    1.11729   1.15589    0.000
 6741.00    1.12121   1.15436    0.000
 6742.00    1.12727   1.15261    0.000
 6743.00    1.16139   1.15101    0.000
 6744.00    1.17012   1.14937    0.000
 6745.00    1.08256   1.14784    0.000
 6746.00    0.99142   1.14644    0.000
 6747.00    1.06597   1.14525    0.000
 6748.00    1.26889   1.14425    0.000
 6749.00    1.41611   1.14328    0.000
 6750.00    1.43425   1.14254    0.000
 6751.00    1.36663   1.14209    0.000
 6752.00    1.27448   1.14221    0.000
 6753.00    1.20019   1.14248    3.996
 6754.00    1.13891   1.14343    4.026
 6755.00    1.07997   1.14485    4.036
 6756.00    1.08501   1.14682    4.057
 6757.00    1.20820   1.14931    4.054
 6758.00    1.34698   1.15203    4.090
 6759.00    1.35114   1.15520    4.250
 6760.00    1.22944   1.15775    4.456
 6761.00    1.09317   1.16048    4.555
 6762.00    1.02258   1.16244    4.579
 6763.00    1.04016   1.16393    4.651
 6764.00    1.10386   1.16459    4.735
 6765.00    1.15138   1.16459    4.729
 6766.00    1.15978   1.16395    4.672
 6767.00    1.14037   1.16277    4.659
 6768.00    1.12115   1.16145    4.716
 6769.00    1.12781   1.15984    4.798
 6770.00    1.16320   1.15869    4.807
 6771.00    1.20187   1.15776    4.689
 6772.00    1.19308   1.15750    4.527
 6773.00    1.13841   1.15767    4.335
 6774.00    1.15897   1.15861    3.944
 6775.00    1.32432   1.16000    3.390
 6776.00    1.49121   1.16196    2.944
 6777.00    1.49649   1.16383    2.702
 6778.00    1.34899   1.16549    2.597
 6779.00    1.15847   1.16680    2.578
 6780.00    1.04591   1.16752    2.660
 6781.00    1.05124   1.16739    2.849
 6782.00    1.07808   1.16649    3.048
 6783.00    1.04540   1.16472    3.140
 6784.00    1.00242   1.16243    3.135
 6785.00    1.03397   1.15969    3.112
 6786.00    1.17504   1.15703    3.115
 6787.00    1.36372   1.15434    3.177
 6788.00    1.44065   1.15215    3.337
 6789.00    1.35544   1.15034    3.572
 6790.00    1.26848   1.14917    3.719
 6791.00    1.28521   1.14850    3.682
 6792.00    1.31217   1.14837    3.614
 6793.00    1.26259   1.14858    3.629
 6794.00    1.17236   1.14900    3.669
 6795.00    1.10772   1.14962    3.678
 6796.00    1.10361   1.15022    3.689
 6797.00    1.14172   1.15090    3.745
 6798.00    1.15895   1.15164    3.855
 6799.00    1.14414   1.15251    3.932
 6800.00    1.16416   1.15334    3.817
 6801.00    1.24688   1.15423    3.548
 6802.00    1.33968   1.15516    3.344
 6803.00    1.38605   1.15590    3.284
 6804.00    1.36342   1.15658    3.321
 6805.00    1.28693   1.15699    3.413
 6806.00    1.20149   1.15718    3.558
 6807.00    1.14575   1.15716    3.741
 6808.00    1.13334   1.15690    3.908
 6809.00    1.13928   1.15652    3.995
 6810.00    1.12087   1.15605    3.966
 6811.00    1.10803   1.15552    3.834
 6812.00    1.18504   1.15510    3.660
 6813.00    1.31930   1.15471    3.525
 6814.00    1.37313   1.15447    3.491
 6815.00    1.32923   1.15436    3.525
 6816.00    1.29691   1.15449    3.537
 6817.00    1.30734   1.15464    3.570
 6818.00    1.29437   1.15516    3.770
 6819.00    1.22231   1.15570    4.085
 6820.00    1.11591   1.15647    4.203
 6821.00    1.03770   1.15730    4.061
 6822.00    1.06027   1.15814    3.903
 6823.00    1.21335   1.15910    3.750
 6824.00    1.45104   1.15991    3.499
 6825.00    1.61091   1.16070    3.251
 6826.00    1.52215   1.16115    3.164
 6827.00    1.26357   1.16151    3.245
 6828.00    1.06518   1.16156    3.418
 6829.00    0.97626   1.16158    3.651
 6830.00    0.90474   1.16139    3.923
 6831.00    0.84119   1.16118    4.082
 6832.00    0.85753   1.16091    3.937
 6833.00    1.01342   1.16054    3.597
 6834.00    1.27831   1.16019    3.284
 6835.00    1.43473   1.15955    3.056
 6836.00    1.28090   1.15886    2.908
 6837.00    0.98994   1.15773    2.862
 6838.00    0.88087   1.15636    2.948
 6839.00    0.96181   1.15457    3.149
 6840.00    1.05440   1.15247    3.405
 6841.00    1.09209   1.15029    3.649
 6842.00    1.10651   1.14806    3.829
 6843.00    1.14034   1.14629    3.936
 6844.00    1.20175   1.14484    4.018
 6845.00    1.22579   1.14415    4.153
 6846.00    1.16921   1.14394    4.347
 6847.00    1.12789   1.14448    4.373
 6848.00    1.18635   1.14533    4.084
 6849.00    1.23322   1.14651    3.777
 6850.00    1.16869   1.14763    3.648
 6851.00    1.14579   1.14856    3.530
 6852.00    1.30236   1.14905    3.294
 6853.00    1.46609   1.14902    3.128
 6854.00    1.44058   1.14837    3.180
 6855.00    1.30970   1.14724    3.371
 6856.00    1.20879   1.14569    3.531
 6857.00    1.09315   1.14401    3.554
 6858.00    0.93590   1.14228    3.433
 6859.00    0.90076   1.14072    3.223
 6860.00    1.07306   1.13944    2.977
 6861.00    1.24832   1.13856    2.728
 6862.00    1.24801   1.13808    2.536
 6863.00    1.16645   1.13800    2.500
 6864.00    1.13952   1.13822    2.657
 6865.00    1.16253   1.13873    2.928
 6866.00    1.19047   1.13940    3.200
 6867.00    1.21588   1.14001    3.493
 6868.00    1.22859   1.14051    3.831
 6869.00    1.19572   1.14093    4.033
 6870.00    1.13910   1.14113    3.968
 6871.00    1.16072   1.14135    3.829
 6872.00    1.27624   1.14159    3.778
 6873.00    1.34798   1.14193    3.790
 6874.00    1.31250   1.14230    3.825
 6875.00    1.27386   1.14288    3.902
 6876.00    1.25765   1.14365    4.011
 6877.00    1.13359   1.14467    4.061
 6878.00    0.94501   1.14574    3.983
 6879.00    0.97923   1.14701    3.801
 6880.00    1.24693   1.14798    3.607
 6881.00    1.36570   1.14890    3.490
 6882.00    1.23692   1.14958    3.434
 6883.00    1.20452   1.15028    3.348
 6884.00    1.33619   1.15073    3.275
 6885.00    1.28201   1.15133    3.374
 6886.00    1.02856   1.15199    3.607
 6887.00    1.00663   1.15291    3.623
 6888.00    1.26533   1.15408    3.323
 6889.00    1.36397   1.15546    3.007
 6890.00    1.18853   1.15715    2.823
 6891.00    1.07033   1.15881    2.759
 6892.00    1.12507   1.16059    2.803
 6893.00    1.15488   1.16213    2.956
 6894.00    1.10317   1.16350    3.175
 6895.00    1.10505   1.16441    3.355
 6896.00    1.16898   1.16501    3.480
 6897.00    1.16583   1.16531    3.657
 6898.00    1.09031   1.16536    3.868
 6899.00    1.06205   1.16526    3.936
 6900.00    1.11445   1.16515    3.863
 6901.00    1.18126   1.16514    3.836
 6902.00    1.21708   1.16524    3.884
 6903.00    1.21801   1.16562    3.901
 6904.00    1.19256   1.16617    3.890
 6905.00    1.16645   1.16694    3.927
 6906.00    1.20844   1.16777    3.946
 6907.00    1.36424   1.16869    3.821
 6908.00    1.50630   1.16943    3.665
 6909.00    1.45467   1.16999    3.656
 6910.00    1.28490   1.17019    3.725
 6911.00    1.20878   1.17006    3.681
 6912.00    1.22420   1.16949    3.548
 6913.00    1.19266   1.16851    3.481
 6914.00    1.10439   1.16731    3.506
 6915.00    1.03383   1.16585    3.534
 6916.00    0.97957   1.16446    3.412
 6917.00    0.91006   1.16311    3.191
 6918.00    0.88030   1.16202    3.343
 6919.00    0.96434   1.16123    4.632
 6920.00    1.12465   1.16065    7.994
 6921.00    1.26261   1.16043    7.994
 6922.00    1.32165   1.16021    7.724
 6923.00    1.29160   1.16022    7.381
 6924.00    1.19306   1.16003    7.994
 6925.00    1.06342   1.15994    7.994
 6926.00    0.94121   1.15962    7.994
 6927.00    0.86382   1.15938    7.994
 6928.00    0.86468   1.15908    7.994
 6929.00    0.93883   1.15881    6.084
 6930.00    1.01025   1.15874    3.937
 6931.00    1.02203   1.15869    3.517
 6932.00    1.03025   1.15889    3.644
 6933.00    1.08505   1.15913    3.702
 6934.00    1.10928   1.15950    3.676
 6935.00    1.04786   1.15996    3.744
 6936.00    1.01084   1.16042    3.794
 6937.00    1.09867   1.16098    3.696
 6938.00    1.23975   1.16145    3.608
 6939.00    1.32712   1.16191    3.659
 6940.00    1.34605   1.16223    3.730
 6941.00    1.31645   1.16238    3.691
 6942.00    1.24003   1.16240    3.626
 6943.00    1.13541   1.16215    3.629
 6944.00    1.06241   1.16179    3.670
 6945.00    1.06878   1.16120    3.682
 6946.00    1.14740   1.16061    3.646
 6947.00    1.22824   1.15995    3.600
 6948.00    1.19676   1.15934    3.617
 6949.00    1.04432   1.15890    3.680
 6950.00    0.93520   1.15853    3.627
 6951.00    0.98746   1.15844    3.438
 6952.00    1.14517   1.15838    3.323
 6953.00    1.27278   1.15858    3.364
 6954.00    1.24345   1.15882    3.433
 6955.00    1.08786   1.15934    3.397
 6956.00    1.01836   1.15996    3.256
 6957.00    1.11691   1.16091    3.093
 6958.00    1.22571   1.16206    2.987
 6959.00    1.25237   1.16343    2.953
 6960.00    1.27634   1.16499    2.947
 6961.00    1.30035   1.16667    2.943
 6962.00    1.19200   1.16843    2.952
 6963.00    0.96763   1.17013    3.001
 6964.00    0.84700   1.17179    3.111
 6965.00    0.93418   1.17319    3.247
 6966.00    1.11859   1.17443    3.311
 6967.00    1.23777   1.17535    3.308
 6968.00    1.18289   1.17599    3.365
 6969.00    1.03166   1.17625    3.493
 6970.00    0.99989   1.17614    3.545
 6971.00    1.10099   1.17563    3.467
 6972.00    1.13682   1.17459    3.378
 6973.00    1.07464   1.17311    3.342
 6974.00    1.06841   1.17102    3.343
 6975.00    1.12110   1.16853    3.349
 6976.00    1.09028   1.16558    3.333
 6977.00    1.02549   1.16249    3.293
 6978.00    1.11763   1.15941    3.251
 6979.00    1.27692   1.15666    3.243
 6980.00    1.21540   1.15454    3.291
 6981.00    0.97625   1.15321    3.348
 6982.00    0.86392   1.15294    3.333
 6983.00    0.91885   1.15363    3.290
 6984.00    0.95031   1.15533    3.327
 6985.00    0.92714   1.15769    3.404
 6986.00    0.95874   1.16053    3.386
 6987.00    1.04539   1.16349    3.303
 6988.00    1.11186   1.16629    3.281
 6989.00    1.19324   1.16872    3.313
 6990.00    1.36000   1.17065    3.302
 6991.00    1.49809   1.17208    3.237
 6992.00    1.43625   1.17296    3.172
 6993.00    1.25834   1.17343    3.121
 6994.00    1.17649   1.17353    3.079
 6995.00    1.20771   1.17332    3.082
 6996.00    1.23327   1.17288    3.162
 6997.00    1.19394   1.17222    3.253
 6998.00    1.10154   1.17141    3.253
 6999.00    1.00365   1.17040    3.186
 7000.00    0.95884   1.16928    3.140
 7001.00    1.00586   1.16804   -2.000
 7002.00    1.11910   1.16679   -2.000
 7003.00    1.16311   1.16557   -2.000
 7004.00    1.06353   1.16449   -2.000
 7005.00    1.02208   1.16354   -2.000
 7006.00    1.20759   1.16284   -2.000
 7007.00    1.36215   1.16230   -2.000
 7008.00    1.22261   1.16201   -2.000
 7009.00    1.04568   1.16181   -2.000
 7010.00    1.15863   1.16171   -2.000
 7011.00    1.41227   1.16150   -2.000
 7012.00    1.51777   1.16122   -2.000
 7013.00    1.45670   1.16071   -2.000
 7014.00    1.34152   1.16006   -2.000
 7015.00    1.23413   1.15920   -2.000
 7016.00    1.15917   1.15828   -2.000
 7017.00    1.13187   1.15737   -2.000
 7018.00    1.14901   1.15665   -2.000
 7019.00    1.18075   1.15622   -2.000
 7020.00    1.19064   1.15612   -2.000
 7021.00    1.15741   1.15644   -2.000
 7022.00    1.10952   1.15705   -2.000
 7023.00    1.13371   1.15801   -2.000
 7024.00    1.23104   1.15907   -2.000
 7025.00    1.24085   1.16036   -2.000
 7026.00    1.10424   1.16160   -2.000
 7027.00    1.01630   1.16299   -2.000
 7028.00    1.11999   1.16428   -2.000
 7029.00    1.31517   1.16571   -2.000
 7030.00    1.43774   1.16706   -2.000
 7031.00    1.39549   1.16848   -2.000
 7032.00    1.23660   1.16980   -2.000
 7033.00    1.14416   1.17105   -2.000
 7034.00    1.18700   1.17217   -2.000
 7035.00    1.22322   1.17314   -2.000
 7036.00    1.16906   1.17408   -2.000
 7037.00    1.11158   1.17496   -2.000
 7038.00    1.10929   1.17603   -2.000
 7039.00    1.11006   1.17726   -2.000
 7040.00    1.07109   1.17894   -2.000
 7041.00    1.01148   1.18093   -2.000
 7042.00    0.97236   1.18345   -2.000
 7043.00    0.98604   1.18619   -2.000
 7044.00    1.02981   1.18922   -2.000
 7045.00    1.03831   1.19214   -2.000
 7046.00    1.03189   1.19485   -2.000
 7047.00    1.11367   1.19698   -2.000
 7048.00    1.25806   1.19833   -2.000
 7049.00    1.31197   1.19867   -2.000
 7050.00    1.29371   1.19785   -2.000
 7051.00    1.38169   1.19581   -2.000
 7052.00    1.50572   1.19252   -2.000
 7053.00    1.38020   1.18811   -2.000
 7054.00    1.06014   1.18275   -2.000
 7055.00    0.92173   1.17672   -2.000
 7056.00    1.05434   1.17027   -2.000
 7057.00    1.21734   1.16374   -2.000
 7058.00    1.25872   1.15736   -2.000
 7059.00    1.19680   1.15143   -2.000
 7060.00    1.10212   1.14604   -2.000
 7061.00    1.04530   1.14138   -2.000
 7062.00    1.05171   1.13736   -2.000
 7063.00    1.09591   1.13409   -2.000
 7064.00    1.11830   1.13139   -2.000
 7065.00    1.07802   1.12937   -2.000
 7066.00    1.05807   1.12781   -2.000
 7067.00    1.17110   1.12686   -2.000
 7068.00    1.31433   1.12636   -2.000
 7069.00    1.28534   1.12644   -2.000
 7070.00    1.11636   1.12702   -2.000
 7071.00    0.98532   1.12813   -2.000
 7072.00    0.91960   1.12974   -2.000
 7073.00    0.85739   1.13172   -2.000
 7074.00    0.85649   1.13400   -2.000
 7075.00    1.00696   1.13635   -2.000
 7076.00    1.22384   1.13863   -2.000
 7077.00    1.34866   1.14057   -2.000
 7078.00    1.36526   1.14199   -2.000
 7079.00    1.33983   1.14269   -2.000
 7080.00    1.28083   1.14247   -2.000
 7081.00    1.20205   1.14127   -2.000
 7082.00    1.23132   1.13893   -2.000
 7083.00    1.40903   1.13554   -2.000
 7084.00    1.42297   1.13110   -2.000
 7085.00    1.04979   1.12578   -2.000
 7086.00    0.72278   1.11977   -2.000
 7087.00    0.90793   1.11330   -2.000
 7088.00    1.30237   1.10671   -2.000
 7089.00    1.39629   1.10021   -2.000
 7090.00    1.20654   1.09415   -2.000
 7091.00    1.02234   1.08871   -2.000
 7092.00    1.03294   1.08407   -2.000
 7093.00    1.23562   1.08040   -2.000
 7094.00    1.40520   1.07763   -2.000
 7095.00    1.36571   1.07597   -2.000
 7096.00    1.23470   1.07510   -2.000
 7097.00    1.18377   1.07525   -2.000
 7098.00    1.20612   1.07597   -2.000
 7099.00    1.20397   1.07747   -2.000
 7100.00    1.09571   1.07927   -2.000
 7101.00    0.93351   1.08147   -2.000
 7102.00    0.94992   1.08377   -2.000
 7103.00    1.19875   1.08605   -2.000
 7104.00    1.34322   1.08828   -2.000
 7105.00    1.21307   1.09019   -2.000
 7106.00    1.13842   1.09196   -2.000
 7107.00    1.29937   1.09325   -2.000
 7108.00    1.35637   1.09441   -2.000
 7109.00    1.14074   1.09512   -2.000
 7110.00    1.01880   1.09578   -2.000
 7111.00    1.19766   1.09616   -2.000
 7112.00    1.37198   1.09661   -2.000
 7113.00    1.29983   1.09699   -2.000
 7114.00    1.10438   1.09755   -2.000
 7115.00    0.97827   1.09818   -2.000
 7116.00    1.00397   1.09898   -2.000
 7117.00    1.13379   1.09983   -2.000
 7118.00    1.22171   1.10067   -2.000
 7119.00    1.21002   1.10138   -2.000
 7120.00    1.18292   1.10182   -2.000
 7121.00    1.18114   1.10188   -2.000
 7122.00    1.14843   1.10146   -2.000
 7123.00    1.08806   1.10049   -2.000
 7124.00    1.08999   1.09897   -2.000
 7125.00    1.15024   1.09692   -2.000
 7126.00    1.14986   1.09443   -2.000
 7127.00    1.07139   1.09159   -2.000
 7128.00    1.02875   1.08861   -2.000
 7129.00    1.05830   1.08563   -2.000
 7130.00    1.08315   1.08286   -2.000
 7131.00    1.06515   1.08051   -2.000
 7132.00    1.03619   1.07871   -2.000
 7133.00    1.02025   1.07764   -2.000
 7134.00    1.01265   1.07732   -2.000
 7135.00    0.99894   1.07782   -2.000
 7136.00    0.96364   1.07898   -2.000
 7137.00    0.89732   1.08080   -2.000
 7138.00    0.81012   1.08299   -2.000
 7139.00    0.76126   1.08549   -2.000
 7140.00    0.81632   1.08802   -2.000
 7141.00    0.92004   1.09050   -2.000
 7142.00    0.96795   1.09277   -2.000
 7143.00    1.05641   1.09476   -2.000
 7144.00    1.35323   1.09647   -2.000
 7145.00    1.66692   1.09786   -2.000
 7146.00    1.64443   1.09905   -2.000
 7147.00    1.40809   1.10010   -2.000
 7148.00    1.33962   1.10118   -2.000
 7149.00    1.35960   1.10240   -2.000
 7150.00    1.16367   1.10395   -2.000
 7151.00    0.95767   1.10594   -2.000
 7152.00    1.15270   1.10846   -2.000
 7153.00    1.55772   1.11147   -2.000
 7154.00    1.67231   1.11494   -2.000
 7155.00    1.44397   1.11859   -2.000
 7156.00    1.13639   1.12228   -2.000
 7157.00    0.89762   1.12553   -2.000
 7158.00    0.76630   1.12820   -2.000
 7159.00    0.78907   1.12970   -2.000
 7160.00    0.96702   1.13010   -2.000
 7161.00    1.15924   1.12884   -2.000
 7162.00    1.22390   1.12626   -2.000
 7163.00    1.22170   1.12211   -2.000
 7164.00    1.25059   1.11690   -2.000
 7165.00    1.20804   1.11079   -2.000
 7166.00    1.00437   1.10427   -2.000
 7167.00    0.84218   1.09788   -2.000
 7168.00    0.91449   1.09183   -2.000
 7169.00    1.03873   1.08680   -2.000
 7170.00    0.99705   1.08255   -2.000
 7171.00    0.93247   1.07966   -2.000
 7172.00    1.03050   1.07755   -2.000
 7173.00    1.16546   1.07652   -2.000
 7174.00    1.16964   1.07588   -2.000
 7175.00    1.11660   1.07574   -2.000
 7176.00    1.12576   1.07554   -2.000
 7177.00    1.16551   1.07532   -2.000
 7178.00    1.16442   1.07479   -2.000
 7179.00    1.12523   1.07402   -2.000
 7180.00    1.12222   1.07295   -2.000
 7181.00    1.26626   1.07166   -2.000
 7182.00    1.49595   1.07022   -2.000
 7183.00    1.47517   1.06871   -2.000
 7184.00    1.07948   1.06718   -2.000
 7185.00    0.69476   1.06569   -2.000
 7186.00    0.66406   1.06425   -2.000
 7187.00    0.92004   1.06289   -2.000
 7188.00    1.28345   1.06163   -2.000
 7189.00    1.66004   1.06050   -2.000
 7190.00    1.90667   1.05957   -2.000
 7191.00    1.79860   1.05887   -2.000
 7192.00    1.38918   1.05844   -2.000
 7193.00    1.11127   1.05834   -2.000
 7194.00    1.11054   1.05854   -2.000
 7195.00    1.01159   1.05901   -2.000
 7196.00    0.72935   1.05968   -2.000
 7197.00    0.73368   1.06045   -2.000
 7198.00    1.13516   1.06123   -2.000
 7199.00    1.40377   1.06193   -2.000
 7200.00    1.28809   1.06248   -2.000
 7201.00    1.11777   1.06282   -2.000
 7202.00    1.13203   1.06294   -2.000
 7203.00    1.23627   1.06281   -2.000
 7204.00    1.30400   1.06248   -2.000
 7205.00    1.29305   1.06196   -2.000
 7206.00    1.16978   1.06134   -2.000
 7207.00    0.92168   1.06068   -2.000
 7208.00    0.72113   1.06010   -2.000
 7209.00    0.84380   1.05971   -2.000
 7210.00    1.17016   1.05960   -2.000
 7211.00    1.23029   1.05989   -2.000
 7212.00    0.94642   1.06060   -2.000
 7213.00    0.68769   1.06177   -2.000
 7214.00    0.64090   1.06336   -2.000
 7215.00    0.71070   1.06529   -2.000
 7216.00    0.83541   1.06747   -2.000
 7217.00    1.01973   1.06981   -2.000
 7218.00    1.15475   1.07219   -2.000
