###################################################################
## OUTPUT of StarlightChains_v04.for    [Cid@UFSC - 01/Apr/2007] ##
###################################################################

## Some input info
2009iz.txt                               [arq_obs]
Base.CB07.vall.4m                        [arq_base]
Masks.EmLines.NEW.gm                     [arq_masks]
StCv04.C11.config                        [arq_config]
   66                                    [N_base]
    0                                    [N_YAV_components = # of components with extra extinction!]
    0                                    [i_FitPowerLaw (1/0 = Yes/No)]
-9.99                                    [alpha_PowerLaw]
CCM                                      [red_law_option]
 1.458241                                [q_norm = A(l_norm)/A(V)]

## (Re)Sampling Parameters
 3741.00                                 [l_ini (A)]
 7218.00                                 [l_fin (A)]
    1.00                                 [dl    (A)]     (OBS: dl_cushion =    50.00 A)

## Normalization info
 4020.00                                 [l_norm (A) - for base]
 4010.00                                 [llow_norm (A) - window for f_obs]
 4060.00                                 [lupp_norm (A) - window for f_obs]
5.219817E-17                             [fobs_norm (in input units)]

## S/N
 3691.00                                 [llow_SN (A) - window for S/N]
 7268.00                                 [lupp_SN (A) - window for S/N]
   1.819                                 [S/N in S/N window]
   3.334                                 [S/N in norm. window]
  10.000                                 [S/N_err in S/N window]
  18.328                                 [S/N_err in norm. window]
  1.0000                                 [fscale_chi2]

## etc...
    -2007362                             [idum_orig]
  2374                                   [NOl_eff]
  1858                                   [Nl_eff]
   516    NSIGMA                         [Ntot_cliped & clip_method]
   734720                                [Nglobal_steps]
   7                                     [N_chains]
  14                                     [NEX0s_base = N_base in EX0s-fits]
 0   0   1       66   2.0   4.254E+01    [Clip-Bug, RC-Crash & Burn-In warning-flags, n_censored_weights, wei_nsig_threshold & wei_limit]
    11     10.989     10.488      0.501  [idt_all, wdt_TotTime, wdt_UsrTime & wdt_SysTime (sec)]

## Synthesis Results - Best model ##

 2.13583E+00                             [chi2/Nl_eff]
    12.19937                             [adev (%)]

    83.47114                             [sum-of-x (%)]
 4.67584E-17                             [Flux_tot (units of input spectrum!)]
 2.93531E-14                             [Mini_tot (???)]
 2.02508E-14                             [Mcor_tot (???)]

-277.47                                  [v0_min  (km/s)]
 221.71                                  [vd_min  (km/s)]
 0.0526                                  [AV_min  (mag)]
 0.0000                                  [YAV_min (mag)]

# j     x_j(%)      Mini_j(%)     Mcor_j(%)     age_j(yr)     Z_j      (L/M)_j    YAV?  Mstars   component_j        a/Fe...       SSP_chi2r SSP_adev(%)   SSP_AV   SSP_x(%)
  1      0.0000     0.0000E+00    0.0000E+00    1.000000E+06  0.00400  1.094E-02    0   1.0000   age020_m42            0.0000     2.5062E+00    12.9706   1.5055    73.0599
  2      0.0000     0.0000E+00    0.0000E+00    3.160000E+06  0.00400  4.007E-02    0   0.9999   age045_m42            0.0000     2.3305E+00    12.6101   0.7825    78.0185
  3      0.0000     0.0000E+00    0.0000E+00    5.010000E+06  0.00400  2.539E-02    0   0.9488   age055_m42            0.0000     2.3795E+00    12.7142   1.0993    76.2077
  4      0.0000     0.0000E+00    0.0000E+00    6.610000E+06  0.00400  2.620E-02    0   0.9220   age061_m42            0.0000     2.2935E+00    12.5338   0.7060    78.3137
  5      0.0000     0.0000E+00    0.0000E+00    1.000000E+07  0.00400  1.322E-02    0   0.8862   age070_m42            0.0000     2.2400E+00    12.4365   0.4107    80.5101
  6      0.0000     0.0000E+00    0.0000E+00    1.445000E+07  0.00400  7.883E-03    0   0.8571   age078_m42            0.0000     2.2690E+00    12.4955   0.7373    78.4971
  7      0.0000     0.0000E+00    0.0000E+00    2.512000E+07  0.00400  5.251E-03    0   0.8174   age090_m42            0.0000     2.2372E+00    12.4349   0.2777    81.0758
  8      0.0000     0.0000E+00    0.0000E+00    4.000000E+07  0.00400  3.649E-03    0   0.7851   age104_m42            0.0000     2.2280E+00    12.4149   0.0515    81.6932
  9      0.0000     0.0000E+00    0.0000E+00    5.500000E+07  0.00400  3.098E-03    0   0.7629   age110_m42            0.0000     2.2170E+00    12.3943   0.2105    81.5085
 10      0.0000     0.0000E+00    0.0000E+00    1.015200E+08  0.00400  2.228E-03    0   0.7207   age116_m42            0.0000     2.2213E+00    12.4004   0.2353    81.4940
 11     32.8791     5.7408E+01    5.5319E+01    2.861200E+08  0.00400  1.093E-03    0   0.6648   age125_m42            0.0000     2.1528E+00    12.2283  -0.3289    83.8538
 12      0.0000     0.0000E+00    0.0000E+00    5.088000E+08  0.00400  6.597E-04    0   0.6365   age130_m42            0.0000     2.1926E+00    12.3133  -0.3315    84.2378
 13      0.0000     0.0000E+00    0.0000E+00    1.434000E+09  0.00400  2.132E-04    0   0.5798   age139_m42            0.0000     2.5967E+00    13.3821  -1.0000    75.6053
 14      0.0000     0.0000E+00    0.0000E+00    4.250000E+09  0.00400  5.895E-05    0   0.5377   age158_m42            0.0000     3.9164E+00    15.9788  -1.0000    59.6608
 15      0.0000     0.0000E+00    0.0000E+00    7.500000E+09  0.00400  3.510E-05    0   0.5212   age171_m42            0.0000     4.6924E+00    17.2896  -1.0000    54.2886
 16      0.0000     0.0000E+00    0.0000E+00    1.300000E+10  0.00400  2.005E-05    0   0.5034   age193_m42            0.0000     5.4472E+00    18.4329  -1.0000    49.9154
 17      0.0000     0.0000E+00    0.0000E+00    1.800000E+10  0.00400  1.525E-05    0   0.4967   age213_m42            0.0000     5.5617E+00    18.6289  -1.0000    49.1343
 18      0.0000     0.0000E+00    0.0000E+00    1.000000E+06  0.00800  1.238E-02    0   1.0000   age020_m52            0.0000     2.5078E+00    12.9743   1.5018    73.2009
 19      0.0000     0.0000E+00    0.0000E+00    3.160000E+06  0.00800  3.074E-02    0   0.9966   age045_m52            0.0000     2.4990E+00    12.9699   1.4242    73.8725
 20      0.0000     0.0000E+00    0.0000E+00    5.010000E+06  0.00800  2.668E-02    0   0.9443   age055_m52            0.0000     2.4014E+00    12.7665   1.1803    75.5718
 21      0.0000     0.0000E+00    0.0000E+00    6.610000E+06  0.00800  2.136E-02    0   0.9177   age061_m52            0.0000     2.3017E+00    12.5369  -0.0848    81.1705
 22      0.0000     0.0000E+00    0.0000E+00    1.000000E+07  0.00800  1.215E-02    0   0.8827   age070_m52            0.0000     2.2410E+00    12.4388   0.5863    80.5085
 23      0.0000     0.0000E+00    0.0000E+00    1.445000E+07  0.00800  8.717E-03    0   0.8552   age078_m52            0.0000     2.2593E+00    12.4764   0.7024    79.5924
 24      0.0000     0.0000E+00    0.0000E+00    2.512000E+07  0.00800  5.592E-03    0   0.8162   age090_m52            0.0000     2.2226E+00    12.4118   0.3393    82.1437
 25      0.0000     0.0000E+00    0.0000E+00    4.000000E+07  0.00800  3.896E-03    0   0.7841   age104_m52            0.0000     2.1981E+00    12.3529   0.2555    82.6515
 26      0.0000     0.0000E+00    0.0000E+00    1.015200E+08  0.00800  2.148E-03    0   0.7226   age116_m52            0.0000     2.2032E+00    12.3518   0.2027    82.1651
 27      0.1022     1.9643E-01    1.9028E-01    2.861200E+08  0.00800  9.925E-04    0   0.6683   age125_m52            0.0000     2.2039E+00    12.3558  -0.2717    85.1775
 28      0.0000     0.0000E+00    0.0000E+00    9.047900E+08  0.00800  3.141E-04    0   0.6138   age135_m52            0.0000     2.3429E+00    12.6411  -1.0000    86.1205
 29      0.0000     0.0000E+00    0.0000E+00    1.434000E+09  0.00800  1.719E-04    0   0.5853   age139_m52            0.0000     3.5143E+00    15.1934  -1.0000    65.6237
 30      0.0000     0.0000E+00    0.0000E+00    2.500000E+09  0.00800  7.872E-05    0   0.5600   age150_m52            0.0000     4.6070E+00    17.1210  -1.0000    56.3567
 31      0.0000     0.0000E+00    0.0000E+00    4.250000E+09  0.00800  4.336E-05    0   0.5426   age158_m52            0.0000     4.6833E+00    17.2160  -1.0000    55.4277
 32      0.0000     0.0000E+00    0.0000E+00    6.250000E+09  0.00800  3.159E-05    0   0.5319   age166_m52            0.0000     5.6268E+00    18.6435  -1.0000    50.3379
 33      0.0000     0.0000E+00    0.0000E+00    1.300000E+10  0.00800  1.361E-05    0   0.5073   age193_m52            0.0000     8.1137E+00    22.0655  -1.0000    39.6596
 34      0.0000     0.0000E+00    0.0000E+00    1.800000E+10  0.00800  9.886E-06    0   0.4990   age213_m52            0.0000     8.6854E+00    22.6971  -1.0000    37.4244
 35      0.0000     0.0000E+00    0.0000E+00    1.000000E+06  0.02000  1.544E-02    0   1.0000   age020_m62            0.0000     2.5128E+00    12.9868   1.4987    73.3450
 36      0.0000     0.0000E+00    0.0000E+00    3.160000E+06  0.02000  3.762E-02    0   0.9858   age045_m62            0.0000     2.5020E+00    12.9693   1.4355    74.0639
 37      0.0000     0.0000E+00    0.0000E+00    5.010000E+06  0.02000  3.296E-02    0   0.9342   age055_m62            0.0000     2.3565E+00    12.6676   1.0592    77.1569
 38      0.0000     0.0000E+00    0.0000E+00    8.710000E+06  0.02000  1.154E-02    0   0.8861   age067_m62            0.0000     2.4862E+00    12.9528   0.0119    83.8091
 39      0.0000     0.0000E+00    0.0000E+00    1.445000E+07  0.02000  7.663E-03    0   0.8472   age078_m62            0.0000     2.2485E+00    12.4445   0.2255    82.6849
 40      0.0000     0.0000E+00    0.0000E+00    2.512000E+07  0.02000  4.532E-03    0   0.8099   age090_m62            0.0000     2.2421E+00    12.4441   0.2163    82.5462
 41      0.0000     0.0000E+00    0.0000E+00    5.500000E+07  0.02000  2.733E-03    0   0.7595   age110_m62            0.0000     2.2078E+00    12.3673   0.2397    81.9890
 42      0.0000     0.0000E+00    0.0000E+00    1.609000E+08  0.02000  1.369E-03    0   0.6985   age120_m62            0.0000     2.1980E+00    12.3454   0.0864    83.9358
 43      0.0056     1.1870E-02    1.1552E-02    2.861200E+08  0.02000  9.013E-04    0   0.6714   age125_m62            0.0000     2.2413E+00    12.4532  -0.1622    86.2353
 44      0.0000     0.0000E+00    0.0000E+00    5.088000E+08  0.02000  5.028E-04    0   0.6449   age130_m62            0.0000     2.3439E+00    12.6380  -0.5248    87.9068
 45      0.0000     0.0000E+00    0.0000E+00    9.047900E+08  0.02000  2.428E-04    0   0.6179   age135_m62            0.0000     2.4684E+00    12.9185  -1.0000    83.4364
 46      0.0000     0.0000E+00    0.0000E+00    1.434000E+09  0.02000  1.263E-04    0   0.5908   age139_m62            0.0000     3.3624E+00    14.8870  -1.0000    67.8638
 47      0.0000     0.0000E+00    0.0000E+00    2.500000E+09  0.02000  5.985E-05    0   0.5673   age150_m62            0.0000     4.7445E+00    17.2801  -1.0000    56.5534
 48      0.0000     0.0000E+00    0.0000E+00    4.250000E+09  0.02000  3.271E-05    0   0.5468   age158_m62            0.0000     6.1975E+00    19.4302  -1.0000    48.4668
 49      0.0000     0.0000E+00    0.0000E+00    1.000000E+10  0.02000  1.360E-05    0   0.5167   age181_m62            0.0000     8.0292E+00    21.7898  -1.0000    40.6763
 50      0.0000     0.0000E+00    0.0000E+00    1.800000E+10  0.02000  7.124E-06    0   0.5013   age213_m62            0.0000     9.1594E+00    23.1087  -1.0000    36.3561
 51      0.0000     0.0000E+00    0.0000E+00    1.000000E+06  0.05000  2.592E-02    0   0.9998   age020_m72            0.0000     2.5341E+00    13.0327   1.4894    73.3748
 52      0.0000     0.0000E+00    0.0000E+00    3.160000E+06  0.05000  4.845E-02    0   0.9577   age045_m72            0.0000     2.4536E+00    12.8775   1.3192    75.0301
 53      0.0000     0.0000E+00    0.0000E+00    5.010000E+06  0.05000  3.072E-02    0   0.9147   age055_m72            0.0000     2.2339E+00    12.3863   0.8266    79.0966
 54      2.2885     3.0017E-01    3.8623E-01    6.610000E+06  0.05000  1.455E-02    0   0.8877   age061_m72            0.0000     2.6662E+00    13.2389   0.0620    84.9858
 55      1.4375     3.0232E-01    3.7353E-01    1.000000E+07  0.05000  9.074E-03    0   0.8524   age070_m72            0.0000     2.2211E+00    12.3215   1.0177    78.8474
 56      0.0000     0.0000E+00    0.0000E+00    2.512000E+07  0.05000  4.250E-03    0   0.7902   age090_m72            0.0000     2.1637E+00    12.2462   0.7088    80.4861
 57     40.2102     2.4858E+01    2.7449E+01    4.000000E+07  0.05000  3.087E-03    0   0.7618   age104_m72            0.0000     2.1502E+00    12.2298   0.4782    81.9334
 58      0.0000     0.0000E+00    0.0000E+00    1.015200E+08  0.05000  1.700E-03    0   0.7096   age116_m72            0.0000     2.1697E+00    12.2859   0.2245    83.8035
 59      6.5480     1.6923E+01    1.6271E+01    2.861200E+08  0.05000  7.384E-04    0   0.6633   age125_m72            0.0000     2.2876E+00    12.5362  -0.2886    87.1861
 60      0.0000     0.0000E+00    0.0000E+00    5.088000E+08  0.05000  3.819E-04    0   0.6372   age130_m72            0.0000     2.4270E+00    12.7860  -0.7690    88.0153
 61      0.0000     0.0000E+00    0.0000E+00    9.047900E+08  0.05000  1.676E-04    0   0.6110   age135_m72            0.0000     3.2517E+00    14.6405  -1.0000    70.9703
 62      0.0000     0.0000E+00    0.0000E+00    1.434000E+09  0.05000  8.837E-05    0   0.5874   age139_m72            0.0000     4.8043E+00    17.3733  -1.0000    57.3534
 63      0.0000     0.0000E+00    0.0000E+00    2.500000E+09  0.05000  4.233E-05    0   0.5598   age150_m72            0.0000     6.2348E+00    19.4361  -1.0000    48.8798
 64      0.0000     0.0000E+00    0.0000E+00    6.250000E+09  0.05000  1.435E-05    0   0.5249   age166_m72            0.0000     8.5713E+00    22.4714  -1.0000    38.5890
 65      0.0000     0.0000E+00    0.0000E+00    1.300000E+10  0.05000  6.513E-06    0   0.5036   age193_m72            0.0000     1.0089E+01    24.2186  -1.0000    33.8515
 66      0.0000     0.0000E+00    0.0000E+00    1.800000E+10  0.05000  4.527E-06    0   0.4945   age213_m72            0.0000     1.0966E+01    25.2006  -1.0000    31.1405


## Synthesis Results - Average & Chains ##

# j      x_j: min, <> & last-chain-values for 1 ...  7 chains
  1      0.0000      0.0845      0.0000      0.0000      0.0000      0.0000      0.0000      0.0000      0.0000
  2      0.0000      0.2873      0.0000      0.0000      0.0000      0.0000      0.0000      0.0000      0.0000
  3      0.0000      0.2060      0.0000      2.2769      0.0000      0.4681      0.0000      0.0000      0.0000
  4      0.0000      0.6698      3.6740      0.4612      0.0000      0.0563      0.0000      4.9545      0.7931
  5      0.0000      0.4548      0.0000      0.0000      0.0000      0.0000      0.0000      0.0000      0.0000
  6      0.0000      0.3337      0.0000      0.0000      2.2635      0.0000      0.0000      0.0000      0.0000
  7      0.0000      0.4599      0.0000      0.0000      0.0000      0.0000      0.2790      0.0000      0.0000
  8      0.0000      0.6212      0.0000      0.0000      0.7712      0.0000      0.0000      0.0000      0.0000
  9      0.0000      1.7827      0.0000      0.0000      0.0401      1.9003      1.7979      0.0000      0.0000
 10      0.0000      3.8760      1.9352      0.0000      2.0211     13.9563      3.6851     10.7125      2.2642
 11     32.8791      3.6698      6.4807      5.0157      2.6466      4.4373      5.7461      7.9964      8.0544
 12      0.0000      2.6648      0.0000      5.9578      2.3625      4.9854      3.5341      3.7609      4.8553
 13      0.0000      0.0168      0.0000      0.0000      0.0000      0.0000      0.0000      0.0000      0.0000
 14      0.0000      0.0092      0.0000      0.0000      0.0000      0.0000      0.0000      0.0000      0.0000
 15      0.0000      0.0049      0.0000      0.0000      0.0000      0.0000      0.0000      0.0000      0.0000
 16      0.0000      0.0049      0.1498      0.0000      0.0000      0.0000      0.0000      0.0000      0.0000
 17      0.0000      0.0009      0.0000      0.0000      0.0000      0.0000      0.0000      0.0000      0.0000
 18      0.0000      0.0769      0.0000      0.0000      0.0000      0.7231      0.0000      0.9132      0.0000
 19      0.0000      0.1081      0.0000      0.0000      0.0000      0.0000      0.0000      0.0000      1.8032
 20      0.0000      0.1393      0.0000      0.0000      0.8458      0.0000      0.0000      0.0000      0.0000
 21      0.0000      0.1813      0.0000      0.0000      0.0000      0.0000      0.0000      0.0000      0.0000
 22      0.0000      0.2185      0.5960      0.0000      0.0000      0.0000      0.4443      0.0000      0.0000
 23      0.0000      0.4358      0.0343      0.0000      0.0000      0.0000      0.0000      0.0000      0.0000
 24      0.0000      0.4992      0.0000      0.0000      0.0000      0.0000      0.0000      0.0000      0.0000
 25      0.0000      1.3989      0.0000      0.0000      0.0000      0.0000      0.0000      0.0000      0.0000
 26      0.0000      2.1632      2.8023      2.8181      0.0000      0.0000      0.0000      0.0000      0.0000
 27      0.1022      5.8210     14.2715      4.6517      4.8805      7.1452      2.5795      8.0407     11.4282
 28      0.0000      0.0596      0.0000      0.0000      0.2239      0.0000      0.0000      0.0000      0.0000
 29      0.0000      0.0597      0.0000      0.0000      0.0000      0.0000      0.0000      0.0000      0.0000
 30      0.0000      0.0013      0.0000      0.0000      0.0000      0.0000      0.0000      0.1130      0.0000
 31      0.0000      0.0081      0.0000      0.0000      0.0000      0.0000      0.0000      0.0000      0.0000
 32      0.0000      0.0068      0.0000      0.0000      0.0000      0.0000      0.0000      0.0000      0.0000
 33      0.0000      0.0009      0.0000      0.0000      0.0000      0.0000      0.0000      0.0000      0.0000
 34      0.0000      0.0034      0.0000      0.0000      0.0000      0.0000      0.0000      0.0000      0.0000
 35      0.0000      0.0501      0.0000      0.0000      0.0000      0.0000      0.0000      0.0000      1.4505
 36      0.0000      0.0762      0.0000      0.0000      0.0000      0.0000      0.0000      0.0000      0.0000
 37      0.0000      0.3232      0.0000      0.8055      0.0000      0.0000      1.0965      1.4853      0.0000
 38      0.0000      0.1110      0.0000      0.0000      0.0000      0.1080      0.0000      0.0000      0.0000
 39      0.0000      0.4300      0.0000      0.0000      0.0000      0.0000      0.0462      0.0000      0.0000
 40      0.0000      0.4868      0.0000      0.0000      0.0000      0.0000      0.0000      0.0000      0.0000
 41      0.0000      0.5453      0.0000      0.0000      0.0000      1.2190      0.0000      0.0000      0.0000
 42      0.0000      9.5308      4.3740      3.0170     13.1988      6.2988     10.2403      6.4975      6.7916
 43      0.0056      5.0162      0.6566      8.6954     10.0119      4.1183      3.9641      7.1950     12.5118
 44      0.0000      0.6569      0.3485      0.0000      1.2333      1.1824      2.4063      0.0000      2.5589
 45      0.0000      0.0593      0.0000      0.0000      0.0000      0.0000      0.0000      0.0000      0.0000
 46      0.0000      0.0063      0.0000      0.0000      0.0000      0.0000      0.0000      0.0000      0.0000
 47      0.0000      0.0034      0.0000      0.0000      0.0000      0.0000      0.0000      0.0000      0.0000
 48      0.0000      0.0008      0.0000      0.0000      0.0000      0.0000      0.0000      0.0000      0.0000
 49      0.0000      0.0002      0.0000      0.0000      0.0000      0.0000      0.0000      0.0000      0.0000
 50      0.0000      0.0002      0.0000      0.0000      0.0000      0.0000      0.0000      0.0000      0.0000
 51      0.0000      0.1098      0.0000      0.0000      0.0000      0.0000      0.0000      0.0000      0.0000
 52      0.0000      0.2384      0.0000      0.0000      0.0000      0.0000      1.4803      0.6173      0.0000
 53      0.0000      0.5376      0.7317      5.7904      0.0000      0.0000      0.0000      0.0000      0.0000
 54      2.2885     12.8576     11.5204     10.5336     11.6604     14.3122     11.9425     15.6376     12.3868
 55      1.4375      1.1621      1.5650      1.6505      2.3779      0.3215      1.1948      0.0000      2.1336
 56      0.0000      3.5906      3.1379      2.5751      0.0000      7.4184      7.3029      2.6958      5.4572
 57     40.2102      8.7130     13.1482     13.3033     21.9949     10.0009     13.6802      9.6171     11.0903
 58      0.0000      9.3617     14.6337     11.7076      3.6695      4.2686      7.3713      0.0000      0.0000
 59      6.5480      3.2825      3.8272      4.4088      3.4778      0.0000      5.0623      3.5331      0.0000
 60      0.0000      0.0734      0.0037      0.0000      0.0000      0.0000      0.0168      0.0000      0.0000
 61      0.0000      0.0196      0.0000      0.0000      0.0000      0.0000      0.0000      0.0000      0.0000
 62      0.0000      0.0077      0.0000      0.0000      0.0000      0.0000      0.0000      0.0000      0.0000
 63      0.0000      0.0009      0.0000      0.0000      0.0000      0.0000      0.0000      0.0000      0.0000
 64      0.0000      0.0001      0.0000      0.0000      0.0000      0.0000      0.0000      0.0000      0.0000
 65      0.0000      0.0011      0.0000      0.0000      0.0000      0.0000      0.0000      0.0000      0.0000
 66      0.0000      0.0001      0.0000      0.0000      0.0000      0.0000      0.0000      0.0000      0.0000

# j      m_j: min, <> & last-chain-values for 1 ...  7 chains
  1  0.0000E+00  2.2760E-02  0.0000E+00  0.0000E+00  0.0000E+00  0.0000E+00  0.0000E+00  0.0000E+00  0.0000E+00
  2  0.0000E+00  2.1119E-02  0.0000E+00  0.0000E+00  0.0000E+00  0.0000E+00  0.0000E+00  0.0000E+00  0.0000E+00
  3  0.0000E+00  2.2672E-02  0.0000E+00  2.4591E-01  0.0000E+00  5.4568E-02  0.0000E+00  0.0000E+00  0.0000E+00
  4  0.0000E+00  6.9430E-02  3.5446E-01  4.6903E-02  0.0000E+00  6.1777E-03  0.0000E+00  5.1048E-01  7.1629E-02
  5  0.0000E+00  8.9806E-02  0.0000E+00  0.0000E+00  0.0000E+00  0.0000E+00  0.0000E+00  0.0000E+00  0.0000E+00
  6  0.0000E+00  1.0686E-01  0.0000E+00  0.0000E+00  6.9304E-01  0.0000E+00  0.0000E+00  0.0000E+00  0.0000E+00
  7  0.0000E+00  2.1087E-01  0.0000E+00  0.0000E+00  0.0000E+00  0.0000E+00  1.2440E-01  0.0000E+00  0.0000E+00
  8  0.0000E+00  3.9367E-01  0.0000E+00  0.0000E+00  4.6726E-01  0.0000E+00  0.0000E+00  0.0000E+00  0.0000E+00
  9  0.0000E+00  1.2931E+00  0.0000E+00  0.0000E+00  2.7836E-02  1.4597E+00  1.2683E+00  0.0000E+00  0.0000E+00
 10  0.0000E+00  3.6930E+00  1.7162E+00  0.0000E+00  1.8410E+00  1.4082E+01  3.4147E+00  1.0145E+01  1.8795E+00
 11  5.5319E+01  6.5746E+00  1.0806E+01  8.8173E+00  4.5331E+00  8.4188E+00  1.0012E+01  1.4240E+01  1.2572E+01
 12  0.0000E+00  7.5732E+00  0.0000E+00  1.6614E+01  6.4189E+00  1.5004E+01  9.7678E+00  1.0624E+01  1.2022E+01
 13  0.0000E+00  1.3420E-01  0.0000E+00  0.0000E+00  0.0000E+00  0.0000E+00  0.0000E+00  0.0000E+00  0.0000E+00
 14  0.0000E+00  2.4767E-01  0.0000E+00  0.0000E+00  0.0000E+00  0.0000E+00  0.0000E+00  0.0000E+00  0.0000E+00
 15  0.0000E+00  2.1220E-01  0.0000E+00  0.0000E+00  0.0000E+00  0.0000E+00  0.0000E+00  0.0000E+00  0.0000E+00
 16  0.0000E+00  3.6019E-01  1.0309E+01  0.0000E+00  0.0000E+00  0.0000E+00  0.0000E+00  0.0000E+00  0.0000E+00
 17  0.0000E+00  8.6476E-02  0.0000E+00  0.0000E+00  0.0000E+00  0.0000E+00  0.0000E+00  0.0000E+00  0.0000E+00
 18  0.0000E+00  1.8292E-02  0.0000E+00  0.0000E+00  0.0000E+00  1.8219E-01  0.0000E+00  2.1597E-01  0.0000E+00
 19  0.0000E+00  1.0325E-02  0.0000E+00  0.0000E+00  0.0000E+00  0.0000E+00  0.0000E+00  0.0000E+00  1.5003E-01
 20  0.0000E+00  1.4523E-02  0.0000E+00  0.0000E+00  8.4303E-02  0.0000E+00  0.0000E+00  0.0000E+00  0.0000E+00
 21  0.0000E+00  2.2946E-02  0.0000E+00  0.0000E+00  0.0000E+00  0.0000E+00  0.0000E+00  0.0000E+00  0.0000E+00
 22  0.0000E+00  4.6767E-02  1.1871E-01  0.0000E+00  0.0000E+00  0.0000E+00  9.2472E-02  0.0000E+00  0.0000E+00
 23  0.0000E+00  1.2594E-01  9.2263E-03  0.0000E+00  0.0000E+00  0.0000E+00  0.0000E+00  0.0000E+00  0.0000E+00
 24  0.0000E+00  2.1462E-01  0.0000E+00  0.0000E+00  0.0000E+00  0.0000E+00  0.0000E+00  0.0000E+00  0.0000E+00
 25  0.0000E+00  8.2928E-01  0.0000E+00  0.0000E+00  0.0000E+00  0.0000E+00  0.0000E+00  0.0000E+00  0.0000E+00
 26  0.0000E+00  2.1434E+00  2.5845E+00  2.7400E+00  0.0000E+00  0.0000E+00  0.0000E+00  0.0000E+00  0.0000E+00
 27  1.9028E-01  1.1545E+01  2.6345E+01  9.0529E+00  9.2542E+00  1.5008E+01  4.9756E+00  1.5852E+01  1.9748E+01
 28  0.0000E+00  3.4293E-01  0.0000E+00  0.0000E+00  1.2318E+00  0.0000E+00  0.0000E+00  0.0000E+00  0.0000E+00
 29  0.0000E+00  5.9885E-01  0.0000E+00  0.0000E+00  0.0000E+00  0.0000E+00  0.0000E+00  0.0000E+00  0.0000E+00
 30  0.0000E+00  2.6217E-02  0.0000E+00  0.0000E+00  0.0000E+00  0.0000E+00  0.0000E+00  2.3532E+00  0.0000E+00
 31  0.0000E+00  2.9871E-01  0.0000E+00  0.0000E+00  0.0000E+00  0.0000E+00  0.0000E+00  0.0000E+00  0.0000E+00
 32  0.0000E+00  3.3884E-01  0.0000E+00  0.0000E+00  0.0000E+00  0.0000E+00  0.0000E+00  0.0000E+00  0.0000E+00
 33  0.0000E+00  9.7386E-02  0.0000E+00  0.0000E+00  0.0000E+00  0.0000E+00  0.0000E+00  0.0000E+00  0.0000E+00
 34  0.0000E+00  5.0318E-01  0.0000E+00  0.0000E+00  0.0000E+00  0.0000E+00  0.0000E+00  0.0000E+00  0.0000E+00
 35  0.0000E+00  9.5522E-03  0.0000E+00  0.0000E+00  0.0000E+00  0.0000E+00  0.0000E+00  0.0000E+00  2.4108E-01
 36  0.0000E+00  5.8804E-03  0.0000E+00  0.0000E+00  0.0000E+00  0.0000E+00  0.0000E+00  0.0000E+00  0.0000E+00
 37  0.0000E+00  2.6982E-02  0.0000E+00  6.5983E-02  0.0000E+00  0.0000E+00  8.9027E-02  1.2325E-01  0.0000E+00
 38  0.0000E+00  2.5105E-02  0.0000E+00  0.0000E+00  0.0000E+00  2.5868E-02  0.0000E+00  0.0000E+00  0.0000E+00
 39  0.0000E+00  1.4002E-01  0.0000E+00  0.0000E+00  0.0000E+00  0.0000E+00  1.4629E-02  0.0000E+00  0.0000E+00
 40  0.0000E+00  2.5625E-01  0.0000E+00  0.0000E+00  0.0000E+00  0.0000E+00  0.0000E+00  0.0000E+00  0.0000E+00
 41  0.0000E+00  4.4636E-01  0.0000E+00  0.0000E+00  0.0000E+00  1.0567E+00  0.0000E+00  0.0000E+00  0.0000E+00
 42  0.0000E+00  1.4324E+01  6.1183E+00  4.4491E+00  1.8964E+01  1.0025E+01  1.4967E+01  9.7063E+00  8.8928E+00
 43  1.1552E-02  1.1006E+01  1.3409E+00  1.8721E+01  2.1002E+01  9.5695E+00  8.4591E+00  1.5692E+01  2.3919E+01
 44  0.0000E+00  2.4816E+00  1.2253E+00  0.0000E+00  4.4545E+00  4.7305E+00  8.8412E+00  0.0000E+00  8.4228E+00
 45  0.0000E+00  4.4441E-01  0.0000E+00  0.0000E+00  0.0000E+00  0.0000E+00  0.0000E+00  0.0000E+00  0.0000E+00
 46  0.0000E+00  8.6644E-02  0.0000E+00  0.0000E+00  0.0000E+00  0.0000E+00  0.0000E+00  0.0000E+00  0.0000E+00
 47  0.0000E+00  9.4250E-02  0.0000E+00  0.0000E+00  0.0000E+00  0.0000E+00  0.0000E+00  0.0000E+00  0.0000E+00
 48  0.0000E+00  4.0417E-02  0.0000E+00  0.0000E+00  0.0000E+00  0.0000E+00  0.0000E+00  0.0000E+00  0.0000E+00
 49  0.0000E+00  1.9393E-02  0.0000E+00  0.0000E+00  0.0000E+00  0.0000E+00  0.0000E+00  0.0000E+00  0.0000E+00
 50  0.0000E+00  4.4923E-02  0.0000E+00  0.0000E+00  0.0000E+00  0.0000E+00  0.0000E+00  0.0000E+00  0.0000E+00
 51  0.0000E+00  1.2480E-02  0.0000E+00  0.0000E+00  0.0000E+00  0.0000E+00  0.0000E+00  0.0000E+00  0.0000E+00
 52  0.0000E+00  1.3879E-02  0.0000E+00  0.0000E+00  0.0000E+00  0.0000E+00  8.3820E-02  3.5726E-02  0.0000E+00
 53  0.0000E+00  4.7152E-02  5.9726E-02  4.9831E-01  0.0000E+00  0.0000E+00  0.0000E+00  0.0000E+00  0.0000E+00
 54  3.8623E-01  2.3106E+00  1.9269E+00  1.8574E+00  2.0033E+00  2.7238E+00  2.0872E+00  2.7933E+00  1.9394E+00
 55  3.7353E-01  3.2156E-01  4.0305E-01  4.4811E-01  6.2903E-01  9.4193E-02  3.2152E-01  0.0000E+00  5.1435E-01
 56  0.0000E+00  1.9664E+00  1.5995E+00  1.3838E+00  0.0000E+00  4.3025E+00  3.8896E+00  1.4675E+00  2.6039E+00
 57  2.7449E+01  6.3333E+00  8.8953E+00  9.4884E+00  1.5285E+01  7.6985E+00  9.6708E+00  6.9485E+00  7.0235E+00
 58  0.0000E+00  1.1510E+01  1.6746E+01  1.4124E+01  4.3132E+00  5.5579E+00  8.8140E+00  0.0000E+00  0.0000E+00
 59  1.6271E+01  8.6851E+00  9.4251E+00  1.1447E+01  8.7975E+00  0.0000E+00  1.3027E+01  9.2921E+00  0.0000E+00
 60  0.0000E+00  3.6051E-01  1.6979E-02  0.0000E+00  0.0000E+00  0.0000E+00  8.0061E-02  0.0000E+00  0.0000E+00
 61  0.0000E+00  2.1074E-01  0.0000E+00  0.0000E+00  0.0000E+00  0.0000E+00  0.0000E+00  0.0000E+00  0.0000E+00
 62  0.0000E+00  1.4999E-01  0.0000E+00  0.0000E+00  0.0000E+00  0.0000E+00  0.0000E+00  0.0000E+00  0.0000E+00
 63  0.0000E+00  3.5676E-02  0.0000E+00  0.0000E+00  0.0000E+00  0.0000E+00  0.0000E+00  0.0000E+00  0.0000E+00
 64  0.0000E+00  9.1067E-03  0.0000E+00  0.0000E+00  0.0000E+00  0.0000E+00  0.0000E+00  0.0000E+00  0.0000E+00
 65  0.0000E+00  2.5790E-01  0.0000E+00  0.0000E+00  0.0000E+00  0.0000E+00  0.0000E+00  0.0000E+00  0.0000E+00
 66  0.0000E+00  3.4791E-02  0.0000E+00  0.0000E+00  0.0000E+00  0.0000E+00  0.0000E+00  0.0000E+00  0.0000E+00

# AV, chi2 & Mass for <> & i_chain = 1 ...  7 solutions
AV       0.0526      0.1151      0.0986      0.1375      0.1234      0.1287      0.1256      0.0713      0.0561
chi2 2.1358E+00  2.1494E+00  2.1439E+00  2.1449E+00  2.1440E+00  2.1469E+00  2.1441E+00  2.1451E+00  2.1442E+00
Mass 2.0251E-14  2.0684E-14  2.1735E-14  2.1724E-14  2.1878E-14  1.9892E-14  2.1571E-14  1.9620E-14  2.1931E-14
-277.47                                  [v0_min (km/s) before EX0s...]
 221.71                                  [vd_min (km/s) before EX0s...]


## Synthetic spectrum (Best Model) ##l_obs f_obs f_syn wei
 3478    [Nl_obs]
 3741.00    1.83017   0.59312    0.000
 3742.00    1.74086   0.56762    0.000
 3743.00    1.16080   0.53892    0.000
 3744.00    0.54079   0.51150    0.000
 3745.00    0.25156   0.49009   -1.000
 3746.00    0.11322   0.47872   -1.000
 3747.00   -0.04013   0.47986   -2.000
 3748.00   -0.00539   0.49366   -2.000
 3749.00    0.38967   0.51784   25.663
 3750.00    1.02949   0.54855   -1.000
 3751.00    1.63403   0.58144   -1.000
 3752.00    1.89272   0.61259   -1.000
 3753.00    1.74044   0.63928   -1.000
 3754.00    1.45318   0.66034   -1.000
 3755.00    1.32156   0.67560   -1.000
 3756.00    1.45627   0.68516   -1.000
 3757.00    1.72680   0.68908   -1.000
 3758.00    1.81707   0.68692   -1.000
 3759.00    1.60489   0.67806   -1.000
 3760.00    1.28145   0.66200   -1.000
 3761.00    1.07789   0.63861   -1.000
 3762.00    1.10484   0.60882   -1.000
 3763.00    1.21863   0.57516   -1.000
 3764.00    1.09887   0.54147   -1.000
 3765.00    0.74163   0.51239   -1.000
 3766.00    0.51035   0.49251   19.594
 3767.00    0.62386   0.48515   -1.000
 3768.00    0.99458   0.49179   -1.000
 3769.00    1.33466   0.51163   -1.000
 3770.00    1.31685   0.54174   -1.000
 3771.00    0.94585   0.57814   -1.000
 3772.00    0.55003   0.61677   18.181
 3773.00    0.40520   0.65410   -1.000
 3774.00    0.60323   0.68769   16.577
 3775.00    1.01570   0.71637   -1.000
 3776.00    1.37195   0.73981   -1.000
 3777.00    1.48161   0.75800   -1.000
 3778.00    1.30720   0.77100   -1.000
 3779.00    0.98994   0.77890   -1.000
 3780.00    0.75328   0.78193   13.275
 3781.00    0.67594   0.78038   14.794
 3782.00    0.70716   0.77454   14.141
 3783.00    0.80898   0.76465   12.361
 3784.00    0.91666   0.75085   10.909
 3785.00    0.80687   0.73302   12.394
 3786.00    0.29671   0.71074   -1.000
 3787.00   -0.35001   0.68369   -2.000
 3788.00   -0.64780   0.65180   -2.000
 3789.00   -0.41335   0.61555   -2.000
 3790.00    0.23105   0.57671   -1.000
 3791.00    1.01136   0.53851   -1.000
 3792.00    1.61588   0.50518   -1.000
 3793.00    1.83539   0.48106   -1.000
 3794.00    1.65425   0.46955   -1.000
 3795.00    1.33541   0.47253   -1.000
 3796.00    1.16579   0.48961   -1.000
 3797.00    1.10822   0.51815   -1.000
 3798.00    1.00289   0.55413   -1.000
 3799.00    0.87609   0.59339   -1.000
 3800.00    0.84855   0.63227   -1.000
 3801.00    0.97501   0.66821   -1.000
 3802.00    1.18045   0.69998   -1.000
 3803.00    1.22889   0.72736   -1.000
 3804.00    0.95753   0.75053   10.444
 3805.00    0.50836   0.76951   -1.000
 3806.00    0.11283   0.78440   -1.000
 3807.00   -0.13783   0.79537   -2.000
 3808.00   -0.21969   0.80262   -2.000
 3809.00   -0.09768   0.80641   -2.000
 3810.00    0.18526   0.80704   -1.000
 3811.00    0.44774   0.80470   -1.000
 3812.00    0.57416   0.79981   17.417
 3813.00    0.66054   0.79339   15.139
 3814.00    0.79469   0.78662   12.584
 3815.00    0.89841   0.78036   11.131
 3816.00    0.88937   0.77512   11.244
 3817.00    0.79958   0.77085   12.506
 3818.00    0.72192   0.76696   13.852
 3819.00    0.75100   0.76221   13.316
 3820.00    0.87269   0.75504   11.459
 3821.00    0.93060   0.74418   -1.000
 3822.00    0.84000   0.72860   11.905
 3823.00    0.69343   0.70771   14.421
 3824.00    0.61682   0.68151   16.212
 3825.00    0.68628   0.65032   14.571
 3826.00    0.93872   0.61486   -1.000
 3827.00    1.35982   0.57638   -1.000
 3828.00    1.78993   0.53720   -1.000
 3829.00    1.94515   0.50111   -1.000
 3830.00    1.72272   0.47231   -1.000
 3831.00    1.29492   0.45449   -1.000
 3832.00    0.89223   0.45012   -1.000
 3833.00    0.67594   0.45977   -1.000
 3834.00    0.62621   0.48222   -1.000
 3835.00    0.57754   0.51454   17.315
 3836.00    0.51415   0.55294   19.450
 3837.00    0.59776   0.59364   16.729
 3838.00    0.86507   0.63323   -1.000
 3839.00    1.17658   0.66958   -1.000
 3840.00    1.41291   0.70165   -1.000
 3841.00    1.53840   0.72914   -1.000
 3842.00    1.58555   0.75217   -1.000
 3843.00    1.61066   0.77113   -1.000
 3844.00    1.58497   0.78658   -1.000
 3845.00    1.41882   0.79893   -1.000
 3846.00    1.11226   0.80867   -1.000
 3847.00    0.78215   0.81614    0.000
 3848.00    0.62038   0.82159    0.000
 3849.00    0.77580   0.82530    0.000
 3850.00    1.11019   0.82795    0.000
 3851.00    1.30643   0.83001    0.000
 3852.00    1.23673   0.83156    0.000
 3853.00    0.98268   0.83275    0.000
 3854.00    0.69842   0.83395    0.000
 3855.00    0.52515   0.83509    0.000
 3856.00    0.48616   0.83611    0.000
 3857.00    0.53710   0.83710    0.000
 3858.00    0.69180   0.83793    0.000
 3859.00    0.94234   0.83824    0.000
 3860.00    1.09140   0.83794    0.000
 3861.00    0.93815   0.83730    0.000
 3862.00    0.61308   0.83642    0.000
 3863.00    0.39595   0.83480    0.000
 3864.00    0.36407   0.83207    0.000
 3865.00    0.46636   0.82826    0.000
 3866.00    0.69956   0.82352    0.000
 3867.00    1.04671   0.81803    0.000
 3868.00    1.36976   0.81197    0.000
 3869.00    1.52148   0.80527    0.000
 3870.00    1.49924   0.79760    0.000
 3871.00    1.39177   0.78858    0.000
 3872.00    1.29096   0.77803    0.000
 3873.00    1.24388   0.76580    0.000
 3874.00    1.21678   0.75138    0.000
 3875.00    1.16639   0.73400    0.000
 3876.00    1.11354   0.71327    0.000
 3877.00    1.09600   0.68900    0.000
 3878.00    1.11397   0.66078    0.000
 3879.00    1.11679   0.62845    0.000
 3880.00    1.00546   0.59251    0.000
 3881.00    0.72707   0.55432   -1.000
 3882.00    0.34905   0.51668   28.649
 3883.00   -0.00114   0.48390   -2.000
 3884.00   -0.19617   0.46043   -2.000
 3885.00   -0.16021   0.44919   -2.000
 3886.00    0.09324   0.45132   -1.000
 3887.00    0.44799   0.46638   22.322
 3888.00    0.71660   0.49214   -1.000
 3889.00    0.90260   0.52514   -1.000
 3890.00    1.29045   0.56181   -1.000
 3891.00    1.90205   0.59870   -1.000
 3892.00    2.26349   0.63295   -1.000
 3893.00    2.08451   0.66321   -1.000
 3894.00    1.59432   0.68944   -1.000
 3895.00    1.11623   0.71204   -1.000
 3896.00    0.82301   0.73145   12.150
 3897.00    0.75471   0.74819   13.250
 3898.00    0.84650   0.76256   11.813
 3899.00    0.99066   0.77469   10.094
 3900.00    1.08928   0.78514   -1.000
 3901.00    1.15147   0.79456   -1.000
 3902.00    1.28052   0.80325   -1.000
 3903.00    1.43821   0.81125   -1.000
 3904.00    1.42611   0.81856   -1.000
 3905.00    1.21040   0.82506   -1.000
 3906.00    0.98218   0.83045   10.181
 3907.00    0.89213   0.83459   11.209
 3908.00    0.96068   0.83746   10.409
 3909.00    1.12500   0.83903   -1.000
 3910.00    1.27770   0.83917   -1.000
 3911.00    1.33275   0.83803   -1.000
 3912.00    1.24915   0.83569   -1.000
 3913.00    1.03476   0.83242    9.664
 3914.00    0.75457   0.82887   13.253
 3915.00    0.54852   0.82587   -1.000
 3916.00    0.56420   0.82382   -1.000
 3917.00    0.77040   0.82239   12.980
 3918.00    1.00109   0.82147    9.989
 3919.00    1.18771   0.82062   -1.000
 3920.00    1.34558   0.81914   -1.000
 3921.00    1.40599   0.81701   -1.000
 3922.00    1.27702   0.81395   -1.000
 3923.00    1.05901   0.80924   -1.000
 3924.00    0.95930   0.80280   10.424
 3925.00    1.02328   0.79473   -1.000
 3926.00    1.16611   0.78491   -1.000
 3927.00    1.34161   0.77422   -1.000
 3928.00    1.54414   0.76509   -1.000
 3929.00    1.75194   0.75937   -1.000
 3930.00    1.91412   0.75781   -1.000
 3931.00    1.94830   0.76061   -1.000
 3932.00    1.78025   0.76712   -1.000
 3933.00    1.40854   0.77611   -1.000
 3934.00    0.94690   0.78645   10.561
 3935.00    0.65784   0.79669   15.201
 3936.00    0.72290   0.80514   13.833
 3937.00    0.93573   0.81105   10.687
 3938.00    1.00964   0.81476    9.905
 3939.00    1.01769   0.81694    9.826
 3940.00    1.13250   0.81800   -1.000
 3941.00    1.25246   0.81818   -1.000
 3942.00    1.20563   0.81771   -1.000
 3943.00    1.02904   0.81662    9.718
 3944.00    0.87063   0.81492   11.486
 3945.00    0.84349   0.81254   11.855
 3946.00    0.96401   0.80926   10.373
 3947.00    1.11421   0.80488   -1.000
 3948.00    1.15037   0.79961   -1.000
 3949.00    1.01578   0.79339    9.845
 3950.00    0.78784   0.78578   12.693
 3951.00    0.68318   0.77675   14.638
 3952.00    0.80314   0.76638   12.451
 3953.00    0.95819   0.75444   -1.000
 3954.00    1.01074   0.74026   -1.000
 3955.00    1.11608   0.72308   -1.000
 3956.00    1.38462   0.70274   -1.000
 3957.00    1.65451   0.67894   -1.000
 3958.00    1.77417   0.65126   -1.000
 3959.00    1.78380   0.61972   -1.000
 3960.00    1.72676   0.58458    0.000
 3961.00    1.54551   0.54656    0.000
 3962.00    1.25689   0.50755    0.000
 3963.00    1.02391   0.47061    0.000
 3964.00    0.91888   0.43954    0.000
 3965.00    0.82499   0.41856    0.000
 3966.00    0.66500   0.41031    0.000
 3967.00    0.50756   0.41537    0.000
 3968.00    0.45321   0.43283    0.000
 3969.00    0.56433   0.46054    0.000
 3970.00    0.82591   0.49525    0.000
 3971.00    1.13749   0.53339    0.000
 3972.00    1.35505   0.57169    0.000
 3973.00    1.35163   0.60754    0.000
 3974.00    1.18181   0.63968    0.000
 3975.00    1.06469   0.66770    0.000
 3976.00    1.05609   0.69152    0.000
 3977.00    1.00225   0.71159    0.000
 3978.00    0.84466   0.72867    0.000
 3979.00    0.68624   0.74329    0.000
 3980.00    0.62449   0.75576    0.000
 3981.00    0.68190   0.76659   14.665
 3982.00    0.77815   0.77616   12.851
 3983.00    0.79038   0.78453   12.652
 3984.00    0.75177   0.79174   13.302
 3985.00    0.81384   0.79800   12.287
 3986.00    0.97635   0.80346   10.242
 3987.00    1.09647   0.80808   -1.000
 3988.00    1.11376   0.81168   -1.000
 3989.00    1.06431   0.81428   -1.000
 3990.00    0.96710   0.81604   10.340
 3991.00    0.83030   0.81704   12.044
 3992.00    0.72942   0.81754   13.710
 3993.00    0.76009   0.81794   13.156
 3994.00    0.90017   0.81848   11.109
 3995.00    1.03198   0.81896    9.690
 3996.00    1.04937   0.81908    9.530
 3997.00    0.91463   0.81871   10.933
 3998.00    0.71900   0.81786   13.908
 3999.00    0.59467   0.81641   16.816
 4000.00    0.54355   0.81447   -1.000
 4001.00    0.50066   0.81240   -1.000
 4002.00    0.48765   0.81038   -1.000
 4003.00    0.58167   0.80861   17.192
 4004.00    0.82496   0.80775   12.122
 4005.00    1.18154   0.80842   -1.000
 4006.00    1.50188   0.81048   -1.000
 4007.00    1.63572   0.81330   -1.000
 4008.00    1.58950   0.81644   -1.000
 4009.00    1.46855   0.81966   -1.000
 4010.00    1.37258   0.82268   -1.000
 4011.00    1.35880   0.82506   -1.000
 4012.00    1.41476   0.82652   -1.000
 4013.00    1.48002   0.82704   -1.000
 4014.00    1.47782   0.82656   -1.000
 4015.00    1.35775   0.82465   -1.000
 4016.00    1.13775   0.82105   -1.000
 4017.00    0.90270   0.81580   11.078
 4018.00    0.78617   0.80890   12.720
 4019.00    0.84086   0.80049   11.893
 4020.00    0.93660   0.79168   10.677
 4021.00    0.94157   0.78456   10.621
 4022.00    0.87978   0.78080   11.367
 4023.00    0.82906   0.78034   12.062
 4024.00    0.82430   0.78235   12.132
 4025.00    0.84884   0.78618   11.781
 4026.00    0.84695   0.79130   11.807
 4027.00    0.82714   0.79710   12.090
 4028.00    0.91462   0.80281   10.934
 4029.00    1.18750   0.80774   -1.000
 4030.00    1.56991   0.81192   -1.000
 4031.00    1.89255   0.81576   -1.000
 4032.00    1.96260   0.81928   -1.000
 4033.00    1.72241   0.82202   -1.000
 4034.00    1.31717   0.82374   -1.000
 4035.00    0.93858   0.82453   10.654
 4036.00    0.72641   0.82436   13.766
 4037.00    0.73884   0.82322   13.535
 4038.00    0.93706   0.82114   10.672
 4039.00    1.18010   0.81822   -1.000
 4040.00    1.27324   0.81518   -1.000
 4041.00    1.19748   0.81292   -1.000
 4042.00    1.14101   0.81182   -1.000
 4043.00    1.16992   0.81160   -1.000
 4044.00    1.14467   0.81179   -1.000
 4045.00    0.98114   0.81231   10.192
 4046.00    0.74311   0.81299   13.457
 4047.00    0.56927   0.81340   -1.000
 4048.00    0.58788   0.81326   17.010
 4049.00    0.72699   0.81250   13.755
 4050.00    0.76262   0.81143   13.113
 4051.00    0.70130   0.81035   14.259
 4052.00    0.77236   0.80930   12.947
 4053.00    0.99926   0.80832   10.007
 4054.00    1.18198   0.80748   -1.000
 4055.00    1.24715   0.80669   -1.000
 4056.00    1.27512   0.80551   -1.000
 4057.00    1.28404   0.80371   -1.000
 4058.00    1.22232   0.80143   -1.000
 4059.00    1.10529   0.79919   -1.000
 4060.00    1.00000   0.79752   10.000
 4061.00    0.90429   0.79597   11.058
 4062.00    0.78159   0.79440   12.794
 4063.00    0.70291   0.79343   14.227
 4064.00    0.78103   0.79273   12.804
 4065.00    0.96734   0.79132   10.338
 4066.00    1.10103   0.78910   -1.000
 4067.00    1.09209   0.78660   -1.000
 4068.00    0.95251   0.78419   10.499
 4069.00    0.78086   0.78142   12.806
 4070.00    0.68246   0.77793   14.653
 4071.00    0.64092   0.77440   15.602
 4072.00    0.58978   0.77168   16.956
 4073.00    0.56110   0.76993   17.822
 4074.00    0.61276   0.76883   16.320
 4075.00    0.68540   0.76799   14.590
 4076.00    0.69064   0.76711   14.479
 4077.00    0.66421   0.76571   15.055
 4078.00    0.69524   0.76352   14.384
 4079.00    0.80254   0.76032   12.460
 4080.00    0.94286   0.75613   10.606
 4081.00    1.04491   0.75114   -1.000
 4082.00    1.05124   0.74530   -1.000
 4083.00    0.96074   0.73820   -1.000
 4084.00    0.80136   0.72945   12.479
 4085.00    0.59711   0.71895   16.747
 4086.00    0.40120   0.70644   -1.000
 4087.00    0.32707   0.69140   -1.000
 4088.00    0.46872   0.67370   21.335
 4089.00    0.81615   0.65320   12.253
 4090.00    1.22887   0.62939   -1.000
 4091.00    1.44315   0.60224   -1.000
 4092.00    1.30585   0.57240    0.000
 4093.00    0.95478   0.54089    0.000
 4094.00    0.61561   0.50923    0.000
 4095.00    0.42250   0.47929    0.000
 4096.00    0.41187   0.45376    0.000
 4097.00    0.53863   0.43685    0.000
 4098.00    0.76041   0.43168    0.000
 4099.00    1.07721   0.43786    0.000
 4100.00    1.38940   0.45348    0.000
 4101.00    1.45259   0.47651    0.000
 4102.00    1.21611   0.50459    0.000
 4103.00    0.97290   0.53523    0.000
 4104.00    0.94738   0.56574    0.000
 4105.00    1.07818   0.59403    0.000
 4106.00    1.22350   0.61939    0.000
 4107.00    1.29112   0.64195    0.000
 4108.00    1.27427   0.66157    0.000
 4109.00    1.24301   0.67810    0.000
 4110.00    1.22436   0.69193    0.000
 4111.00    1.16761   0.70334    0.000
 4112.00    1.05785   0.71243    0.000
 4113.00    0.95048   0.71939   -1.000
 4114.00    0.88911   0.72449   11.247
 4115.00    0.87045   0.72828   11.488
 4116.00    0.85127   0.73184   11.747
 4117.00    0.77267   0.73564   12.942
 4118.00    0.63593   0.73924   15.725
 4119.00    0.51282   0.74242   -1.000
 4120.00    0.48045   0.74492   -1.000
 4121.00    0.57948   0.74619   17.257
 4122.00    0.75816   0.74561   13.190
 4123.00    0.89303   0.74375   11.198
 4124.00    0.90768   0.74202   11.017
 4125.00    0.80407   0.74049   12.437
 4126.00    0.64286   0.73949   15.556
 4127.00    0.51834   0.74035   -1.000
 4128.00    0.50830   0.74321   -1.000
 4129.00    0.63796   0.74743   15.675
 4130.00    0.82800   0.75230   12.077
 4131.00    0.94174   0.75696   10.619
 4132.00    0.92521   0.76064   10.808
 4133.00    0.82141   0.76288   12.174
 4134.00    0.72434   0.76342   13.806
 4135.00    0.72069   0.76229   13.876
 4136.00    0.79460   0.75961   12.585
 4137.00    0.87205   0.75534   11.467
 4138.00    0.94268   0.75028   10.608
 4139.00    1.02044   0.74654   -1.000
 4140.00    1.03200   0.74566   -1.000
 4141.00    0.89245   0.74709   11.205
 4142.00    0.66494   0.74960   15.039
 4143.00    0.49041   0.75270   -1.000
 4144.00    0.43340   0.75620   -1.000
 4145.00    0.50335   0.75954   -1.000
 4146.00    0.72132   0.76216   13.863
 4147.00    1.07347   0.76360   -1.000
 4148.00    1.43630   0.76400   -1.000
 4149.00    1.64400   0.76407   -1.000
 4150.00    1.59554   0.76425   -1.000
 4151.00    1.31916   0.76458   -1.000
 4152.00    1.02159   0.76502   -1.000
 4153.00    0.89959   0.76562   11.116
 4154.00    0.92319   0.76638   10.832
 4155.00    0.96739   0.76701   10.337
 4156.00    0.98214   0.76715   10.182
 4157.00    0.98398   0.76667   10.163
 4158.00    1.02424   0.76581   -1.000
 4159.00    1.13386   0.76491   -1.000
 4160.00    1.27553   0.76391   -1.000
 4161.00    1.37011   0.76272   -1.000
 4162.00    1.33331   0.76135   -1.000
 4163.00    1.15467   0.75972   -1.000
 4164.00    0.94696   0.75810   10.560
 4165.00    0.81103   0.75667   12.330
 4166.00    0.73549   0.75493   13.596
 4167.00    0.69191   0.75264   14.453
 4168.00    0.70583   0.75041   14.168
 4169.00    0.81041   0.74900   12.339
 4170.00    1.00220   0.74860   -1.000
 4171.00    1.18968   0.74880   -1.000
 4172.00    1.19563   0.74907   -1.000
 4173.00    0.97482   0.74934   10.258
 4174.00    0.70879   0.75018   14.108
 4175.00    0.55683   0.75177   17.959
 4176.00    0.52446   0.75330   -1.000
 4177.00    0.56991   0.75410   17.547
 4178.00    0.66029   0.75448   15.145
 4179.00    0.73746   0.75477   13.560
 4180.00    0.72071   0.75489   13.875
 4181.00    0.60828   0.75463   16.440
 4182.00    0.49870   0.75388   -1.000
 4183.00    0.46382   0.75316   -1.000
 4184.00    0.49614   0.75292   -1.000
 4185.00    0.53653   0.75311   18.638
 4186.00    0.50925   0.75353   -1.000
 4187.00    0.40651   0.75392   -1.000
 4188.00    0.30028   0.75420   -1.000
 4189.00    0.26110   0.75422   -1.000
 4190.00    0.32164   0.75362   -1.000
 4191.00    0.45997   0.75229   -1.000
 4192.00    0.61241   0.75040   16.329
 4193.00    0.73141   0.74810   13.672
 4194.00    0.80589   0.74572   12.409
 4195.00    0.86269   0.74374   11.592
 4196.00    0.92866   0.74229   10.768
 4197.00    0.92777   0.74146   10.779
 4198.00    0.74338   0.74139   13.452
 4199.00    0.45502   0.74196   -1.000
 4200.00    0.28313   0.74288   -1.000
 4201.00    0.29709   0.74408   -1.000
 4202.00    0.41265   0.74557   -1.000
 4203.00    0.55782   0.74711   17.927
 4204.00    0.70056   0.74832   14.274
 4205.00    0.82121   0.74902   12.177
 4206.00    0.89924   0.74937   11.121
 4207.00    0.90056   0.74941   11.104
 4208.00    0.81455   0.74890   12.277
 4209.00    0.72515   0.74785   13.790
 4210.00    0.72581   0.74644   13.778
 4211.00    0.74974   0.74499   13.338
 4212.00    0.68705   0.74410   14.555
 4213.00    0.62389   0.74386   16.028
 4214.00    0.69659   0.74392   14.356
 4215.00    0.81030   0.74372   12.341
 4216.00    0.82267   0.74278   12.156
 4217.00    0.86531   0.74105   11.557
 4218.00    1.10955   0.73851   -1.000
 4219.00    1.39243   0.73525   -1.000
 4220.00    1.44912   0.73147   -1.000
 4221.00    1.27375   0.72773   -1.000
 4222.00    1.01804   0.72488   -1.000
 4223.00    0.80947   0.72357   12.354
 4224.00    0.72192   0.72369   13.852
 4225.00    0.76706   0.72459   13.037
 4226.00    0.89747   0.72568   11.142
 4227.00    1.01772   0.72660   -1.000
 4228.00    1.06227   0.72704   -1.000
 4229.00    1.06490   0.72724   -1.000
 4230.00    1.06836   0.72779   -1.000
 4231.00    1.03893   0.72842   -1.000
 4232.00    0.93410   0.72870   10.705
 4233.00    0.77009   0.72918   12.986
 4234.00    0.62258   0.73016   16.062
 4235.00    0.60557   0.73138   16.513
 4236.00    0.72811   0.73246   13.734
 4237.00    0.81631   0.73300   12.250
 4238.00    0.77422   0.73313   12.916
 4239.00    0.74519   0.73329   13.419
 4240.00    0.84533   0.73319   11.830
 4241.00    0.99331   0.73207   -1.000
 4242.00    1.07211   0.73004   -1.000
 4243.00    1.04523   0.72803   -1.000
 4244.00    0.97317   0.72638   -1.000
 4245.00    0.98647   0.72457   -1.000
 4246.00    1.09552   0.72280   -1.000
 4247.00    1.13338   0.72194   -1.000
 4248.00    1.03808   0.72192   -1.000
 4249.00    0.95576   0.72184   -1.000
 4250.00    0.97784   0.72154   -1.000
 4251.00    1.03572   0.72155   -1.000
 4252.00    1.05127   0.72184   -1.000
 4253.00    1.01117   0.72183   -1.000
 4254.00    0.96354   0.72120   -1.000
 4255.00    0.98338   0.72043   -1.000
 4256.00    1.04580   0.71984   -1.000
 4257.00    1.02774   0.71919   -1.000
 4258.00    0.91607   0.71838   10.916
 4259.00    0.83324   0.71752   12.001
 4260.00    0.83351   0.71632   11.997
 4261.00    0.86021   0.71437   11.625
 4262.00    0.85886   0.71144   11.643
 4263.00    0.81491   0.70833   12.271
 4264.00    0.74535   0.70638   13.417
 4265.00    0.68549   0.70516   14.588
 4266.00    0.65948   0.70384   15.164
 4267.00    0.66722   0.70290   14.988
 4268.00    0.67449   0.70330   14.826
 4269.00    0.63930   0.70481   15.642
 4270.00    0.58511   0.70632   17.091
 4271.00    0.57828   0.70789   17.293
 4272.00    0.62759   0.70989   15.934
 4273.00    0.68974   0.71176   14.498
 4274.00    0.73852   0.71280   13.541
 4275.00    0.76997   0.71311   12.987
 4276.00    0.77858   0.71296   12.844
 4277.00    0.75229   0.71223   13.293
 4278.00    0.67444   0.71088   14.827
 4279.00    0.55541   0.70938   18.005
 4280.00    0.48710   0.70769   -1.000
 4281.00    0.56384   0.70545   17.736
 4282.00    0.73077   0.70306   13.684
 4283.00    0.86542   0.70097   11.555
 4284.00    0.95271   0.69894   -1.000
 4285.00    1.02553   0.69661   -1.000
 4286.00    1.03318   0.69454   -1.000
 4287.00    0.92199   0.69357   -1.000
 4288.00    0.77613   0.69331   12.884
 4289.00    0.73314   0.69259   13.640
 4290.00    0.84036   0.69098   -2.000
 4291.00    1.03695   0.68915   -2.000
 4292.00    1.16591   0.68735   -2.000
 4293.00    1.12362   0.68506   -2.000
 4294.00    1.02294   0.68196   -2.000
 4295.00    1.00258   0.67846   -2.000
 4296.00    1.00413   0.67574   -2.000
 4297.00    0.93460   0.67415   -2.000
 4298.00    0.85233   0.67270   -2.000
 4299.00    0.83732   0.67145   -2.000
 4300.00    0.85292   0.67106   -2.000
 4301.00    0.84449   0.67103   -2.000
 4302.00    0.83504   0.67076   -2.000
 4303.00    0.84189   0.67013   -2.000
 4304.00    0.80677   0.66961   -2.000
 4305.00    0.68922   0.66970   14.509
 4306.00    0.53871   0.67025   18.563
 4307.00    0.41238   0.67119   -1.000
 4308.00    0.31427   0.67254   -1.000
 4309.00    0.25241   0.67408   -1.000
 4310.00    0.27356   0.67571   -1.000
 4311.00    0.39407   0.67762   -1.000
 4312.00    0.56033   0.67929   17.847
 4313.00    0.71186   0.67989   14.048
 4314.00    0.82539   0.67891   12.116
 4315.00    0.92344   0.67647   -1.000
 4316.00    1.06034   0.67251   -1.000
 4317.00    1.22236   0.66708   -1.000
 4318.00    1.29963   0.66078   -1.000
 4319.00    1.23687   0.65382   -1.000
 4320.00    1.09284   0.64622   -1.000
 4321.00    0.93181   0.63811   -1.000
 4322.00    0.77512   0.63036   12.901
 4323.00    0.63683   0.62334   15.703
 4324.00    0.54142   0.61576   18.470
 4325.00    0.52343   0.60640   19.105
 4326.00    0.60786   0.59515   16.451
 4327.00    0.73587   0.58189   13.589
 4328.00    0.77819   0.56579   -1.000
 4329.00    0.69833   0.54634   -1.000
 4330.00    0.58192   0.52393    0.000
 4331.00    0.51485   0.49917    0.000
 4332.00    0.53930   0.47294    0.000
 4333.00    0.65910   0.44746    0.000
 4334.00    0.84229   0.42568    0.000
 4335.00    1.02278   0.40916    0.000
 4336.00    1.12728   0.39936    0.000
 4337.00    1.14928   0.39908    0.000
 4338.00    1.14362   0.40868    0.000
 4339.00    1.15243   0.42520    0.000
 4340.00    1.17956   0.44607    0.000
 4341.00    1.18056   0.46988    0.000
 4342.00    1.10125   0.49442    0.000
 4343.00    0.97249   0.51738    0.000
 4344.00    0.87518   0.53801    0.000
 4345.00    0.81301   0.55637    0.000
 4346.00    0.73216   0.57211    0.000
 4347.00    0.62314   0.58523    0.000
 4348.00    0.52960   0.59703    0.000
 4349.00    0.51964   0.60859    0.000
 4350.00    0.61562   0.61935    0.000
 4351.00    0.68343   0.62876   14.632
 4352.00    0.57350   0.63733   17.437
 4353.00    0.39019   0.64506   -1.000
 4354.00    0.34178   0.65158   -1.000
 4355.00    0.42743   0.65703   -1.000
 4356.00    0.51531   0.66190   19.406
 4357.00    0.53797   0.66612   18.588
 4358.00    0.50140   0.66949   19.944
 4359.00    0.45353   0.67204   -1.000
 4360.00    0.44875   0.67401   -1.000
 4361.00    0.50649   0.67553   19.744
 4362.00    0.61210   0.67629   16.337
 4363.00    0.72603   0.67628   13.773
 4364.00    0.80346   0.67590   12.446
 4365.00    0.81711   0.67561   12.238
 4366.00    0.77177   0.67514   12.957
 4367.00    0.71263   0.67446   14.033
 4368.00    0.67040   0.67401   14.917
 4369.00    0.61180   0.67394   16.345
 4370.00    0.53327   0.67394   18.752
 4371.00    0.53988   0.67405   18.523
 4372.00    0.66822   0.67462   14.965
 4373.00    0.74583   0.67536   13.408
 4374.00    0.66070   0.67522   15.135
 4375.00    0.57329   0.67352   17.443
 4376.00    0.64447   0.67064   15.517
 4377.00    0.81795   0.66715   12.226
 4378.00    0.96223   0.66284   -1.000
 4379.00    0.99683   0.65747   -1.000
 4380.00    0.92883   0.65243   -1.000
 4381.00    0.85309   0.64961   11.722
 4382.00    0.81272   0.64869   12.304
 4383.00    0.72836   0.64840   13.729
 4384.00    0.55103   0.64936   18.148
 4385.00    0.35011   0.65239   -1.000
 4386.00    0.24268   0.65621   -1.000
 4387.00    0.32574   0.65968   -1.000
 4388.00    0.55414   0.66323   18.046
 4389.00    0.72237   0.66684   13.843
 4390.00    0.71528   0.66962   13.980
 4391.00    0.61262   0.67139   16.323
 4392.00    0.55129   0.67285   18.139
 4393.00    0.63574   0.67427   15.730
 4394.00    0.85485   0.67514   11.698
 4395.00    1.07868   0.67498   -1.000
 4396.00    1.20150   0.67383   -1.000
 4397.00    1.20372   0.67267   -1.000
 4398.00    1.14677   0.67211   -1.000
 4399.00    1.13474   0.67133   -1.000
 4400.00    1.18680   0.66982   -1.000
 4401.00    1.22733   0.66894   -1.000
 4402.00    1.21914   0.66954   -1.000
 4403.00    1.18972   0.67045   -1.000
 4404.00    1.16017   0.67110   -1.000
 4405.00    1.13145   0.67210   -1.000
 4406.00    1.11580   0.67308   -1.000
 4407.00    1.12679   0.67328   -1.000
 4408.00    1.12446   0.67298   -1.000
 4409.00    1.04517   0.67235   -1.000
 4410.00    0.92084   0.67101   -1.000
 4411.00    0.84655   0.66948   11.813
 4412.00    0.82111   0.66873   12.179
 4413.00    0.77544   0.66872   12.896
 4414.00    0.73224   0.66889   13.657
 4415.00    0.76418   0.66952   13.086
 4416.00    0.82174   0.67076   12.169
 4417.00    0.77692   0.67186   12.871
 4418.00    0.59228   0.67216   16.884
 4419.00    0.35329   0.67209   -1.000
 4420.00    0.25447   0.67226   -1.000
 4421.00    0.44792   0.67220   -1.000
 4422.00    0.78549   0.67136   12.731
 4423.00    0.98261   0.67020   -1.000
 4424.00    0.97090   0.66954   -1.000
 4425.00    0.85851   0.66896   11.648
 4426.00    0.76741   0.66764   13.031
 4427.00    0.77210   0.66606   12.952
 4428.00    0.85025   0.66496   11.761
 4429.00    0.92971   0.66397   -1.000
 4430.00    0.96488   0.66288   -1.000
 4431.00    0.95022   0.66230   -1.000
 4432.00    0.92208   0.66246   -1.000
 4433.00    0.93345   0.66289   -1.000
 4434.00    1.01983   0.66351   -1.000
 4435.00    1.16233   0.66429   -1.000
 4436.00    1.25748   0.66485   -1.000
 4437.00    1.21706   0.66500   -1.000
 4438.00    1.07437   0.66494   -1.000
 4439.00    0.91267   0.66484   -1.000
 4440.00    0.78235   0.66493   12.782
 4441.00    0.71731   0.66533   13.941
 4442.00    0.75456   0.66558   13.253
 4443.00    0.89718   0.66550   -1.000
 4444.00    1.08360   0.66542   -1.000
 4445.00    1.22517   0.66521   -1.000
 4446.00    1.24671   0.66425   -1.000
 4447.00    1.13957   0.66275   -1.000
 4448.00    0.98860   0.66142   -1.000
 4449.00    0.86888   0.66011   11.509
 4450.00    0.77695   0.65830   12.871
 4451.00    0.70734   0.65638   14.138
 4452.00    0.69884   0.65517   14.310
 4453.00    0.76116   0.65437   13.138
 4454.00    0.83575   0.65334   11.965
 4455.00    0.86786   0.65242   11.523
 4456.00    0.84879   0.65199   11.782
 4457.00    0.78982   0.65157   12.661
 4458.00    0.70505   0.65072   14.183
 4459.00    0.60769   0.64968   16.456
 4460.00    0.51392   0.64840   19.458
 4461.00    0.47000   0.64651    0.000
 4462.00    0.54994   0.64374    0.000
 4463.00    0.77996   0.64017    0.000
 4464.00    1.10378   0.63661    0.000
 4465.00    1.39340   0.63419    0.000
 4466.00    1.49453   0.63283    0.000
 4467.00    1.38805   0.63225    0.000
 4468.00    1.20962   0.63349    0.000
 4469.00    1.06299   0.63694    0.000
 4470.00    0.96536   0.64084    0.000
 4471.00    0.92390   0.64377    0.000
 4472.00    0.95236   0.64541    0.000
 4473.00    1.02801   0.64552    0.000
 4474.00    1.09043   0.64452    0.000
 4475.00    1.08612   0.64334    0.000
 4476.00    1.00191   0.64177    0.000
 4477.00    0.91749   0.64015    0.000
 4478.00    0.95056   0.64054    0.000
 4479.00    1.06448   0.64330    0.000
 4480.00    1.10460   0.64634    0.000
 4481.00    1.03452   0.64878    0.000
 4482.00    0.93832   0.65115   -1.000
 4483.00    0.86984   0.65317   11.496
 4484.00    0.83228   0.65410   12.015
 4485.00    0.82016   0.65417   12.193
 4486.00    0.82329   0.65386   12.146
 4487.00    0.81432   0.65344   12.280
 4488.00    0.77312   0.65318   12.935
 4489.00    0.73934   0.65306   13.525
 4490.00    0.77491   0.65288   12.905
 4491.00    0.87427   0.65289   11.438
 4492.00    0.98439   0.65324   -1.000
 4493.00    1.06975   0.65354   -1.000
 4494.00    1.10422   0.65380   -1.000
 4495.00    1.04040   0.65449   -1.000
 4496.00    0.86425   0.65539   11.571
 4497.00    0.68158   0.65589   14.672
 4498.00    0.61446   0.65627   16.275
 4499.00    0.63616   0.65691   15.719
 4500.00    0.66668   0.65737   15.000
 4501.00    0.73119   0.65722   13.676
 4502.00    0.87207   0.65682   11.467
 4503.00    1.01427   0.65637   -1.000
 4504.00    1.05641   0.65563   -1.000
 4505.00    0.99777   0.65471   -1.000
 4506.00    0.88489   0.65397   -1.000
 4507.00    0.73781   0.65317   13.554
 4508.00    0.59765   0.65208   16.732
 4509.00    0.57480   0.65105   17.397
 4510.00    0.72321   0.65013   13.827
 4511.00    0.92386   0.64901   -1.000
 4512.00    1.04242   0.64788   -1.000
 4513.00    1.08013   0.64698   -1.000
 4514.00    1.08948   0.64584   -1.000
 4515.00    1.08754   0.64427   -1.000
 4516.00    1.06006   0.64270   -1.000
 4517.00    0.97630   0.64119   -1.000
 4518.00    0.83660   0.63935   11.953
 4519.00    0.69978   0.63734   14.290
 4520.00    0.61306   0.63558   16.312
 4521.00    0.56611   0.63409   17.665
 4522.00    0.54470   0.63277   18.359
 4523.00    0.56379   0.63169   17.737
 4524.00    0.62754   0.63088   15.935
 4525.00    0.70786   0.63035   14.127
 4526.00    0.78134   0.63000   12.799
 4527.00    0.84840   0.62982   -1.000
 4528.00    0.90876   0.63015   -1.000
 4529.00    0.95112   0.63102   -1.000
 4530.00    0.97610   0.63199   -1.000
 4531.00    1.00297   0.63320   -1.000
 4532.00    1.04042   0.63502   -1.000
 4533.00    1.07277   0.63698   -1.000
 4534.00    1.06658   0.63858   -1.000
 4535.00    0.98627   0.63985   -1.000
 4536.00    0.84583   0.64058   11.823
 4537.00    0.71502   0.64049   13.986
 4538.00    0.65155   0.63995   15.348
 4539.00    0.67202   0.63921   14.880
 4540.00    0.75207   0.63783   13.297
 4541.00    0.83887   0.63564   11.921
 4542.00    0.89367   0.63327   -1.000
 4543.00    0.90403   0.63146   -1.000
 4544.00    0.87227   0.62982   -1.000
 4545.00    0.81334   0.62774   12.295
 4546.00    0.76100   0.62622   13.141
 4547.00    0.75129   0.62598   13.310
 4548.00    0.76977   0.62593   12.991
 4549.00    0.76108   0.62595   13.139
 4550.00    0.69818   0.62696    0.000
 4551.00    0.60328   0.62835    0.000
 4552.00    0.54876   0.62958    0.000
 4553.00    0.60707   0.63140    0.000
 4554.00    0.73355   0.63348    0.000
 4555.00    0.80812   0.63480    0.000
 4556.00    0.79293   0.63553    0.000
 4557.00    0.73789   0.63615    0.000
 4558.00    0.71347   0.63647    0.000
 4559.00    0.76251   0.63627    0.000
 4560.00    0.83754   0.63580    0.000
 4561.00    0.86322   0.63558    0.000
 4562.00    0.87164   0.63565    0.000
 4563.00    0.93640   0.63558    0.000
 4564.00    1.01777   0.63520    0.000
 4565.00    1.02448   0.63488    0.000
 4566.00    0.95736   0.63478    0.000
 4567.00    0.88261   0.63439    0.000
 4568.00    0.85295   0.63361    0.000
 4569.00    0.88099   0.63318    0.000
 4570.00    0.92167   0.63315    0.000
 4571.00    0.92382   0.63265    0.000
 4572.00    0.90002   0.63162    0.000
 4573.00    0.88298   0.63070    0.000
 4574.00    0.86085   0.62977    0.000
 4575.00    0.81524   0.62847    0.000
 4576.00    0.77220   0.62684    0.000
 4577.00    0.75582   0.62540    0.000
 4578.00    0.73448   0.62455    0.000
 4579.00    0.67684   0.62399    0.000
 4580.00    0.61347   0.62334    0.000
 4581.00    0.59911   0.62298    0.000
 4582.00    0.66628   0.62330    0.000
 4583.00    0.79589   0.62368    0.000
 4584.00    0.90337   0.62359    0.000
 4585.00    0.93050   0.62349    0.000
 4586.00    0.91788   0.62364    0.000
 4587.00    0.92608   0.62364    0.000
 4588.00    0.96759   0.62332    0.000
 4589.00    1.01873   0.62313    0.000
 4590.00    1.03822   0.62324    0.000
 4591.00    1.00936   0.62336    0.000
 4592.00    0.96219   0.62343    0.000
 4593.00    0.92066   0.62351    0.000
 4594.00    0.87376   0.62363    0.000
 4595.00    0.82813   0.62371    0.000
 4596.00    0.82965   0.62383    0.000
 4597.00    0.88407   0.62395    0.000
 4598.00    0.92666   0.62405    0.000
 4599.00    0.92396   0.62432    0.000
 4600.00    0.91478   0.62489    0.000
 4601.00    0.91827   0.62558    0.000
 4602.00    0.89775   0.62623    0.000
 4603.00    0.82872   0.62703    0.000
 4604.00    0.72897   0.62770    0.000
 4605.00    0.63709   0.62814    0.000
 4606.00    0.59526   0.62841    0.000
 4607.00    0.62224   0.62846    0.000
 4608.00    0.70111   0.62806    0.000
 4609.00    0.77824   0.62732    0.000
 4610.00    0.78940   0.62667    0.000
 4611.00    0.75537   0.62579    0.000
 4612.00    0.76913   0.62452    0.000
 4613.00    0.82587   0.62352    0.000
 4614.00    0.81362   0.62303    0.000
 4615.00    0.68401   0.62243    0.000
 4616.00    0.49419   0.62194    0.000
 4617.00    0.35521   0.62205    0.000
 4618.00    0.37484   0.62220    0.000
 4619.00    0.54587   0.62205    0.000
 4620.00    0.75678   0.62188    0.000
 4621.00    0.90945   0.62139    0.000
 4622.00    0.95954   0.62033    0.000
 4623.00    0.93263   0.61921    0.000
 4624.00    0.89579   0.61826    0.000
 4625.00    0.88202   0.61715    0.000
 4626.00    0.88591   0.61592    0.000
 4627.00    0.89509   0.61498    0.000
 4628.00    0.89453   0.61440    0.000
 4629.00    0.86091   0.61379    0.000
 4630.00    0.77849   0.61285    0.000
 4631.00    0.67144   0.61194    0.000
 4632.00    0.59332   0.61132    0.000
 4633.00    0.59485   0.61065    0.000
 4634.00    0.68984   0.60993    0.000
 4635.00    0.81038   0.60944    0.000
 4636.00    0.86374   0.60897    0.000
 4637.00    0.83432   0.60852    0.000
 4638.00    0.76409   0.60825    0.000
 4639.00    0.69693   0.60766    0.000
 4640.00    0.65696   0.60686    0.000
 4641.00    0.63232   0.60631    0.000
 4642.00    0.61371   0.60582    0.000
 4643.00    0.64386   0.60523    0.000
 4644.00    0.74686   0.60503    0.000
 4645.00    0.83942   0.60521    0.000
 4646.00    0.82914   0.60552    0.000
 4647.00    0.73805   0.60596    0.000
 4648.00    0.65059   0.60642    0.000
 4649.00    0.63674   0.60693    0.000
 4650.00    0.70061   0.60748    0.000
 4651.00    0.74683   0.60801    0.000
 4652.00    0.69921   0.60856    0.000
 4653.00    0.60917   0.60913    0.000
 4654.00    0.55372   0.60953    0.000
 4655.00    0.53770   0.60964    0.000
 4656.00    0.53594   0.60927    0.000
 4657.00    0.53709   0.60835    0.000
 4658.00    0.54779   0.60704    0.000
 4659.00    0.59010   0.60524    0.000
 4660.00    0.67560   0.60304    0.000
 4661.00    0.78565   0.60116    0.000
 4662.00    0.87249   0.59981    0.000
 4663.00    0.87299   0.59860    0.000
 4664.00    0.79016   0.59790    0.000
 4665.00    0.72424   0.59804    0.000
 4666.00    0.72652   0.59854    0.000
 4667.00    0.72819   0.59927    0.000
 4668.00    0.67321   0.60031    0.000
 4669.00    0.58962   0.60118    0.000
 4670.00    0.53466   0.60179    0.000
 4671.00    0.55468   0.60226    0.000
 4672.00    0.64762   0.60246    0.000
 4673.00    0.75694   0.60233    0.000
 4674.00    0.83292   0.60206    0.000
 4675.00    0.86028   0.60168    0.000
 4676.00    0.84488   0.60122    0.000
 4677.00    0.80655   0.60084    0.000
 4678.00    0.77694   0.60069    0.000
 4679.00    0.78748   0.60068    0.000
 4680.00    0.82729   0.60057    0.000
 4681.00    0.84256   0.60059    0.000
 4682.00    0.79560   0.60085    0.000
 4683.00    0.69063   0.60082    0.000
 4684.00    0.58342   0.60063    0.000
 4685.00    0.55438   0.60090    0.000
 4686.00    0.61421   0.60128    0.000
 4687.00    0.69884   0.60131    0.000
 4688.00    0.74832   0.60144    0.000
 4689.00    0.73541   0.60181    0.000
 4690.00    0.67477   0.60180    0.000
 4691.00    0.61036   0.60123    0.000
 4692.00    0.57550   0.60054    0.000
 4693.00    0.57988   0.59972    0.000
 4694.00    0.60537   0.59854    0.000
 4695.00    0.62495   0.59707    0.000
 4696.00    0.64749   0.59582    0.000
 4697.00    0.69086   0.59489    0.000
 4698.00    0.70332   0.59410    0.000
 4699.00    0.61593   0.59329    0.000
 4700.00    0.48119   0.59257    0.000
 4701.00    0.41710   0.59222    0.000
 4702.00    0.44729   0.59178    0.000
 4703.00    0.51466   0.59099    0.000
 4704.00    0.56280   0.59049    0.000
 4705.00    0.55378   0.59008    0.000
 4706.00    0.47387   0.58919    0.000
 4707.00    0.35825   0.58868    0.000
 4708.00    0.32265   0.58884    0.000
 4709.00    0.45622   0.58869    0.000
 4710.00    0.66371   0.58878    0.000
 4711.00    0.78834   0.58976    0.000
 4712.00    0.81038   0.59090    0.000
 4713.00    0.79579   0.59198    0.000
 4714.00    0.79272   0.59337    0.000
 4715.00    0.81705   0.59445    0.000
 4716.00    0.85296   0.59516    0.000
 4717.00    0.87919   0.59573    0.000
 4718.00    0.89681   0.59572    0.000
 4719.00    0.90254   0.59517    0.000
 4720.00    0.86036   0.59437    0.000
 4721.00    0.74728   0.59311    0.000
 4722.00    0.59937   0.59166    0.000
 4723.00    0.47649   0.59033    0.000
 4724.00    0.42230   0.58893    0.000
 4725.00    0.44331   0.58789    0.000
 4726.00    0.49811   0.58746    0.000
 4727.00    0.54084   0.58731    0.000
 4728.00    0.55640   0.58748    0.000
 4729.00    0.53940   0.58790    0.000
 4730.00    0.47916   0.58818    0.000
 4731.00    0.38862   0.58850    0.000
 4732.00    0.32171   0.58891    0.000
 4733.00    0.33652   0.58894    0.000
 4734.00    0.46279   0.58888    0.000
 4735.00    0.66399   0.58913    0.000
 4736.00    0.82918   0.58943    0.000
 4737.00    0.86947   0.58975    0.000
 4738.00    0.77796   0.59000    0.000
 4739.00    0.62522   0.59040    0.000
 4740.00    0.53215   0.59109    0.000
 4741.00    0.55004   0.59140    0.000
 4742.00    0.61728   0.59145    0.000
 4743.00    0.66915   0.59171    0.000
 4744.00    0.68989   0.59174    0.000
 4745.00    0.68560   0.59131    0.000
 4746.00    0.66982   0.59078    0.000
 4747.00    0.66225   0.59016    0.000
 4748.00    0.68102   0.58926    0.000
 4749.00    0.71343   0.58816    0.000
 4750.00    0.71587   0.58697    0.000
 4751.00    0.66027   0.58568    0.000
 4752.00    0.55293   0.58436    0.000
 4753.00    0.43428   0.58285    0.000
 4754.00    0.36440   0.58118    0.000
 4755.00    0.37638   0.57951    0.000
 4756.00    0.46270   0.57771    0.000
 4757.00    0.58486   0.57589    0.000
 4758.00    0.68815   0.57414    0.000
 4759.00    0.73467   0.57271    0.000
 4760.00    0.71747   0.57187    0.000
 4761.00    0.67032   0.57124   14.918
 4762.00    0.64205   0.57113   15.575
 4763.00    0.62519   0.57173   15.995
 4764.00    0.57993   0.57219   17.244
 4765.00    0.53640   0.57265   18.643
 4766.00    0.56530   0.57348   17.690
 4767.00    0.65480   0.57405   15.272
 4768.00    0.73008   0.57430   13.697
 4769.00    0.75628   0.57455   13.223
 4770.00    0.74020   0.57476   13.510
 4771.00    0.68867   0.57474   14.521
 4772.00    0.61185   0.57445   16.344
 4773.00    0.54461   0.57403   18.362
 4774.00    0.52335   0.57351   19.108
 4775.00    0.53949   0.57282   18.536
 4776.00    0.55925   0.57201   17.881
 4777.00    0.56957   0.57124   17.557
 4778.00    0.57654   0.57068   17.345
 4779.00    0.59042   0.57015   16.937
 4780.00    0.61293   0.56949   16.315
 4781.00    0.62405   0.56930   16.024
 4782.00    0.61209   0.56933   16.337
 4783.00    0.61404   0.56922   16.286
 4784.00    0.66849   0.56959   14.959
 4785.00    0.75099   0.57026   13.316
 4786.00    0.81194   0.57082   -1.000
 4787.00    0.83170   0.57166   -1.000
 4788.00    0.81597   0.57252   -1.000
 4789.00    0.78211   0.57300   12.786
 4790.00    0.74473   0.57342   13.428
 4791.00    0.70377   0.57356   14.209
 4792.00    0.66535   0.57318   15.030
 4793.00    0.65969   0.57255   15.159
 4794.00    0.69789   0.57175   14.329
 4795.00    0.73496   0.57084   13.606
 4796.00    0.71969   0.56987   13.895
 4797.00    0.64178   0.56886   15.582
 4798.00    0.53255   0.56799   18.778
 4799.00    0.45436   0.56706   22.009
 4800.00    0.43631   0.56607   22.920
 4801.00    0.43574   0.56519   22.950
 4802.00    0.42325   0.56414   23.627
 4803.00    0.43736   0.56321   22.865
 4804.00    0.51443   0.56264   19.439
 4805.00    0.64033   0.56191   15.617
 4806.00    0.76611   0.56121   -1.000
 4807.00    0.82965   0.56102   -1.000
 4808.00    0.81330   0.56086   -1.000
 4809.00    0.76499   0.56059   13.072
 4810.00    0.72212   0.56067   13.848
 4811.00    0.67804   0.56084   14.748
 4812.00    0.63934   0.56085   15.641
 4813.00    0.64563   0.56056   15.489
 4814.00    0.71166   0.56008   14.052
 4815.00    0.80473   0.55965   -1.000
 4816.00    0.87855   0.55871   -1.000
 4817.00    0.89753   0.55715   -1.000
 4818.00    0.86920   0.55607   -1.000
 4819.00    0.83733   0.55523   -1.000
 4820.00    0.79911   0.55384   -1.000
 4821.00    0.69993   0.55282   14.287
 4822.00    0.54303   0.55240   18.415
 4823.00    0.40911   0.55171   24.444
 4824.00    0.37389   0.55105   -1.000
 4825.00    0.46268   0.55049   21.613
 4826.00    0.60398   0.54966   16.557
 4827.00    0.67000   0.54888   14.925
 4828.00    0.64645   0.54799   15.469
 4829.00    0.62587   0.54674   15.978
 4830.00    0.63265   0.54540   15.807
 4831.00    0.61574   0.54388   16.240
 4832.00    0.57138   0.54209   17.502
 4833.00    0.54992   0.53997   18.184
 4834.00    0.58447   0.53752   17.109
 4835.00    0.66923   0.53512   14.943
 4836.00    0.75473   0.53240   -1.000
 4837.00    0.77940   0.52924   -1.000
 4838.00    0.74064   0.52614   -1.000
 4839.00    0.67968   0.52267   14.713
 4840.00    0.61610   0.51848   16.231
 4841.00    0.55221   0.51383   18.109
 4842.00    0.50861   0.50846   19.661
 4843.00    0.50697   0.50215   19.725
 4844.00    0.52658   0.49519   18.991
 4845.00    0.52905   0.48702   18.902
 4846.00    0.51402   0.47757   19.454
 4847.00    0.50360   0.46754   19.857
 4848.00    0.50169   0.45598    0.000
 4849.00    0.49403   0.44252    0.000
 4850.00    0.45968   0.42860    0.000
 4851.00    0.39310   0.41374    0.000
 4852.00    0.33092   0.39771    0.000
 4853.00    0.31805   0.38293    0.000
 4854.00    0.35814   0.36975    0.000
 4855.00    0.42667   0.35834    0.000
 4856.00    0.49832   0.35182    0.000
 4857.00    0.58331   0.35043    0.000
 4858.00    0.75840   0.35263    0.000
 4859.00    1.06249   0.35996    0.000
 4860.00    1.38582   0.37198    0.000
 4861.00    1.57799   0.38547    0.000
 4862.00    1.57405   0.39986    0.000
 4863.00    1.40643   0.41520    0.000
 4864.00    1.19317   0.42951    0.000
 4865.00    1.03048   0.44209    0.000
 4866.00    0.90359   0.45383    0.000
 4867.00    0.77485   0.46449    0.000
 4868.00    0.66105   0.47356    0.000
 4869.00    0.58254   0.48166    0.000
 4870.00    0.52251   0.48928    0.000
 4871.00    0.47241   0.49598    0.000
 4872.00    0.46091   0.50160    0.000
 4873.00    0.49444   0.50676    0.000
 4874.00    0.52383   0.51122    0.000
 4875.00    0.52034   0.51462   19.218
 4876.00    0.51924   0.51755   19.259
 4877.00    0.55876   0.52010   17.897
 4878.00    0.63976   0.52198   15.631
 4879.00    0.72713   0.52347   -1.000
 4880.00    0.76313   0.52496   -1.000
 4881.00    0.72919   0.52625   -1.000
 4882.00    0.66772   0.52725   14.976
 4883.00    0.61728   0.52849   16.200
 4884.00    0.58285   0.52983   17.157
 4885.00    0.56098   0.53096   17.826
 4886.00    0.55218   0.53280   18.110
 4887.00    0.55753   0.53493   17.936
 4888.00    0.57677   0.53669   17.338
 4889.00    0.60740   0.53903   16.464
 4890.00    0.64164   0.54126   15.585
 4891.00    0.65607   0.54272   15.242
 4892.00    0.61918   0.54414   16.150
 4893.00    0.53406   0.54496   18.724
 4894.00    0.44515   0.54512   22.464
 4895.00    0.40495   0.54531   24.695
 4896.00    0.44823   0.54516   22.310
 4897.00    0.54969   0.54478   18.192
 4898.00    0.63330   0.54475   15.790
 4899.00    0.64317   0.54474   15.548
 4900.00    0.56866   0.54454   17.585
 4901.00    0.45030   0.54455   22.207
 4902.00    0.35942   0.54439   -1.000
 4903.00    0.34063   0.54398   -1.000
 4904.00    0.39753   0.54364   25.155
 4905.00    0.49827   0.54315   20.069
 4906.00    0.59290   0.54269   16.866
 4907.00    0.64986   0.54208   15.388
 4908.00    0.66118   0.54132   15.124
 4909.00    0.63442   0.54039   15.762
 4910.00    0.58720   0.53880   17.030
 4911.00    0.53976   0.53686   18.527
 4912.00    0.50909   0.53414   19.643
 4913.00    0.50062   0.53107   19.975
 4914.00    0.50458   0.52829   19.818
 4915.00    0.49374   0.52525   20.254
 4916.00    0.44936   0.52317   22.254
 4917.00    0.40410   0.52266   24.747
 4918.00    0.41020   0.52284   24.378
 4919.00    0.47793   0.52418   20.924
 4920.00    0.58246   0.52717   17.169
 4921.00    0.68939   0.53041   14.506
 4922.00    0.76415   0.53352   -1.000
 4923.00    0.78072   0.53686   -1.000
 4924.00    0.73617   0.53935   13.584
 4925.00    0.66660   0.54085   15.002
 4926.00    0.61879   0.54176   16.161
 4927.00    0.61292   0.54160   16.315
 4928.00    0.64343   0.54077   15.542
 4929.00    0.68673   0.53992   14.562
 4930.00    0.71799   0.53874   13.928
 4931.00    0.72818   0.53747   13.733
 4932.00    0.72012   0.53679   13.887
 4933.00    0.70169   0.53632   14.251
 4934.00    0.67578   0.53625   14.798
 4935.00    0.63360   0.53693   15.783
 4936.00    0.57863   0.53757   17.282
 4937.00    0.54456   0.53859   18.363
 4938.00    0.55564   0.54014   17.997
 4939.00    0.59473   0.54114   16.814
 4940.00    0.63049   0.54210    0.000
 4941.00    0.64239   0.54326    0.000
 4942.00    0.62961   0.54379    0.000
 4943.00    0.61261   0.54383    0.000
 4944.00    0.60510   0.54376    0.000
 4945.00    0.59771   0.54321    0.000
 4946.00    0.58250   0.54185    0.000
 4947.00    0.56761   0.54019    0.000
 4948.00    0.56190   0.53811    0.000
 4949.00    0.56598   0.53548    0.000
 4950.00    0.57890   0.53321    0.000
 4951.00    0.60179   0.53083    0.000
 4952.00    0.63481   0.52852    0.000
 4953.00    0.67501   0.52749    0.000
 4954.00    0.71420   0.52672    0.000
 4955.00    0.74165   0.52598    0.000
 4956.00    0.76144   0.52611    0.000
 4957.00    0.79181   0.52637    0.000
 4958.00    0.82569   0.52630    0.000
 4959.00    0.82462   0.52611    0.000
 4960.00    0.76812   0.52604    0.000
 4961.00    0.67003   0.52595    0.000
 4962.00    0.55870   0.52565    0.000
 4963.00    0.46807   0.52565    0.000
 4964.00    0.43496   0.52599    0.000
 4965.00    0.48486   0.52633    0.000
 4966.00    0.58834   0.52679    0.000
 4967.00    0.67116   0.52725    0.000
 4968.00    0.69415   0.52761    0.000
 4969.00    0.66697   0.52765    0.000
 4970.00    0.60965   0.52720    0.000
 4971.00    0.54532   0.52652    0.000
 4972.00    0.51362   0.52537    0.000
 4973.00    0.54839   0.52364    0.000
 4974.00    0.61136   0.52187    0.000
 4975.00    0.62241   0.52004    0.000
 4976.00    0.57578   0.51805    0.000
 4977.00    0.52898   0.51650    0.000
 4978.00    0.51000   0.51558    0.000
 4979.00    0.50791   0.51497    0.000
 4980.00    0.50090   0.51491    0.000
 4981.00    0.46755   0.51554    0.000
 4982.00    0.39720   0.51622    0.000
 4983.00    0.30494   0.51699    0.000
 4984.00    0.25360   0.51789    0.000
 4985.00    0.30282   0.51840    0.000
 4986.00    0.41439   0.51884    0.000
 4987.00    0.50671   0.51922    0.000
 4988.00    0.57195   0.51924    0.000
 4989.00    0.64120   0.51926    0.000
 4990.00    0.70087   0.51911    0.000
 4991.00    0.71903   0.51854    0.000
 4992.00    0.70237   0.51777    0.000
 4993.00    0.68300   0.51657    0.000
 4994.00    0.68739   0.51504    0.000
 4995.00    0.71558   0.51342    0.000
 4996.00    0.72347   0.51158    0.000
 4997.00    0.67480   0.50989    0.000
 4998.00    0.60332   0.50856    0.000
 4999.00    0.56171   0.50734    0.000
 5000.00    0.55682   0.50645    0.000
 5001.00    0.57515   0.50597    0.000
 5002.00    0.61743   0.50559    0.000
 5003.00    0.69538   0.50513    0.000
 5004.00    0.82227   0.50458    0.000
 5005.00    0.98797   0.50391    0.000
 5006.00    1.14000   0.50274    0.000
 5007.00    1.22080   0.50124    0.000
 5008.00    1.20319   0.49988    0.000
 5009.00    1.09424   0.49827    0.000
 5010.00    0.93378   0.49686    0.000
 5011.00    0.77293   0.49630    0.000
 5012.00    0.65523   0.49597    0.000
 5013.00    0.60308   0.49607    0.000
 5014.00    0.61045   0.49720    0.000
 5015.00    0.65674   0.49857    0.000
 5016.00    0.71756   0.49982    0.000
 5017.00    0.76898   0.50161    0.000
 5018.00    0.79205   0.50334    0.000
 5019.00    0.78425   0.50450    0.000
 5020.00    0.76118   0.50579    0.000
 5021.00    0.72628   0.50682    0.000
 5022.00    0.66077   0.50740    0.000
 5023.00    0.56386   0.50808    0.000
 5024.00    0.46848   0.50853    0.000
 5025.00    0.40957   0.50873    0.000
 5026.00    0.40720   0.50887    0.000
 5027.00    0.46557   0.50868    0.000
 5028.00    0.56952   0.50818    0.000
 5029.00    0.67088   0.50722   14.906
 5030.00    0.70125   0.50581   -1.000
 5031.00    0.64682   0.50426   15.460
 5032.00    0.56328   0.50231   17.753
 5033.00    0.51268   0.50041   19.505
 5034.00    0.52893   0.49911   18.906
 5035.00    0.58675   0.49796   17.043
 5036.00    0.61725   0.49758   16.201
 5037.00    0.59511   0.49836   16.804
 5038.00    0.54583   0.49919   18.321
 5039.00    0.47430   0.50040   21.084
 5040.00    0.36618   0.50221   -1.000
 5041.00    0.25928   0.50335   -1.000
 5042.00    0.22863   0.50399   -1.000
 5043.00    0.28750   0.50452   -1.000
 5044.00    0.38544   0.50446   25.945
 5045.00    0.47577   0.50399   21.019
 5046.00    0.53337   0.50336   18.749
 5047.00    0.55314   0.50273   18.079
 5048.00    0.54689   0.50231   18.285
 5049.00    0.53716   0.50195   18.616
 5050.00    0.54480   0.50183   18.355
 5051.00    0.56619   0.50227   17.662
 5052.00    0.57844   0.50302   17.288
 5053.00    0.55983   0.50369   17.863
 5054.00    0.50222   0.50461   19.912
 5055.00    0.42552   0.50557   23.500
 5056.00    0.36430   0.50593   -1.000
 5057.00    0.33960   0.50608   -1.000
 5058.00    0.35659   0.50597   -1.000
 5059.00    0.40883   0.50531   24.460
 5060.00    0.47826   0.50465   20.909
 5061.00    0.53489   0.50395   18.695
 5062.00    0.55430   0.50314   18.041
 5063.00    0.54206   0.50254   18.448
 5064.00    0.52198   0.50209   19.158
 5065.00    0.51473   0.50174   19.428
 5066.00    0.52803   0.50138   18.938
 5067.00    0.54931   0.50108   18.205
 5068.00    0.56611   0.50088   17.664
 5069.00    0.58944   0.50045   16.965
 5070.00    0.62432   0.49990   16.017
 5071.00    0.63786   0.49939   15.677
 5072.00    0.60705   0.49877   16.473
 5073.00    0.56794   0.49798   17.607
 5074.00    0.55992   0.49730   17.860
 5075.00    0.57019   0.49694   17.538
 5076.00    0.58076   0.49662   17.219
 5077.00    0.61163   0.49660   16.350
 5078.00    0.66887   0.49705   14.951
 5079.00    0.70243   0.49761   -1.000
 5080.00    0.66367   0.49836   15.068
 5081.00    0.55509   0.49926   18.015
 5082.00    0.42523   0.50007   23.517
 5083.00    0.35180   0.50084   -1.000
 5084.00    0.36779   0.50143   -1.000
 5085.00    0.42047   0.50177   23.783
 5086.00    0.45649   0.50193   21.906
 5087.00    0.47688   0.50170   20.970
 5088.00    0.50308   0.50116   19.878
 5089.00    0.55005   0.50033   18.180
 5090.00    0.60927   0.49915   16.413
 5091.00    0.64814   0.49783   15.429
 5092.00    0.65927   0.49646   15.168
 5093.00    0.67546   0.49513   -1.000
 5094.00    0.70123   0.49404   -1.000
 5095.00    0.69233   0.49322   -1.000
 5096.00    0.63569   0.49267   15.731
 5097.00    0.57396   0.49247   17.423
 5098.00    0.53197   0.49232   18.798
 5099.00    0.49287   0.49231   20.289
 5100.00    0.44599   0.49251   22.422
 5101.00    0.40421   0.49245   24.740
 5102.00    0.38677   0.49249   25.855
 5103.00    0.40697   0.49282   24.572
 5104.00    0.45457   0.49296   21.999
 5105.00    0.49801   0.49329   20.080
 5106.00    0.51554   0.49402   19.397
 5107.00    0.50629   0.49461   19.752
 5108.00    0.48865   0.49530   20.465
 5109.00    0.48956   0.49616   20.426
 5110.00    0.51434   0.49671   19.442
 5111.00    0.54567   0.49709   18.326
 5112.00    0.56861   0.49727   17.587
 5113.00    0.57576   0.49692   17.368
 5114.00    0.56094   0.49627   17.827
 5115.00    0.52488   0.49525   19.052
 5116.00    0.49324   0.49384   20.274
 5117.00    0.49963   0.49240   20.015
 5118.00    0.53520   0.49084   18.684
 5119.00    0.55972   0.48935   17.866
 5120.00    0.55268   0.48822   18.094
 5121.00    0.51833   0.48725   19.293
 5122.00    0.47127   0.48659   21.219
 5123.00    0.42850   0.48640   23.337
 5124.00    0.40016   0.48635   24.990
 5125.00    0.39131   0.48648   25.555
 5126.00    0.40829   0.48689   24.493
 5127.00    0.45434   0.48727   22.010
 5128.00    0.52047   0.48747   19.213
 5129.00    0.59126   0.48774   16.913
 5130.00    0.65635   0.48779   15.236
 5131.00    0.70344   0.48731   -1.000
 5132.00    0.70621   0.48692   -1.000
 5133.00    0.64647   0.48629   15.469
 5134.00    0.54714   0.48509   18.277
 5135.00    0.45367   0.48429   22.042
 5136.00    0.40211   0.48339   24.869
 5137.00    0.40387   0.48213   24.760
 5138.00    0.43373   0.48157   23.056
 5139.00    0.45642   0.48095   21.910
 5140.00    0.45964   0.48015   21.756
 5141.00    0.45515   0.48004   21.971
 5142.00    0.47306   0.47977   21.139
 5143.00    0.53022   0.47938   18.860
 5144.00    0.60074   0.47952   16.646
 5145.00    0.64699   0.47949   15.456
 5146.00    0.65175   0.47955   15.343
 5147.00    0.60953   0.48009   16.406
 5148.00    0.51843   0.48065   19.289
 5149.00    0.40202   0.48149   24.874
 5150.00    0.32158   0.48273   -1.000
 5151.00    0.31384   0.48381   -1.000
 5152.00    0.34691   0.48494   -1.000
 5153.00    0.37809   0.48587   26.449
 5154.00    0.39850   0.48601   25.094
 5155.00    0.41841   0.48563   23.900
 5156.00    0.45200   0.48439   22.124
 5157.00    0.49891   0.48194   20.044
 5158.00    0.53746   0.47878   18.606
 5159.00    0.55632   0.47483   17.975
 5160.00    0.56950   0.47015   17.559
 5161.00    0.58523   0.46545   17.087
 5162.00    0.58985   0.46104   16.953
 5163.00    0.56406   0.45705   17.729
 5164.00    0.49810   0.45405   20.076
 5165.00    0.42010   0.45223   23.804
 5166.00    0.39225   0.45151   25.494
 5167.00    0.42433   0.45189   23.567
 5168.00    0.45417   0.45317   22.018
 5169.00    0.45047   0.45498   22.199
 5170.00    0.44512   0.45712   22.466
 5171.00    0.46719   0.45904   21.405
 5172.00    0.51484   0.46045   19.424
 5173.00    0.56101   0.46138   17.825
 5174.00    0.56858   0.46152   17.588
 5175.00    0.53534   0.46095   18.680
 5176.00    0.49834   0.46023   20.066
 5177.00    0.49042   0.45938   20.391
 5178.00    0.52012   0.45870   19.226
 5179.00    0.55890   0.45876   17.892
 5180.00    0.56002   0.45919   17.856
 5181.00    0.52623   0.46013   19.003
 5182.00    0.50527   0.46172   19.792
 5183.00    0.51785   0.46302   19.311
 5184.00    0.54781   0.46427   18.255
 5185.00    0.57257   0.46556   17.465
 5186.00    0.57688   0.46618   17.335
 5187.00    0.56521   0.46664   17.693
 5188.00    0.55479   0.46715   18.025
 5189.00    0.55233   0.46736   18.105
 5190.00    0.55219   0.46767    0.000
 5191.00    0.54465   0.46813    0.000
 5192.00    0.52301   0.46836    0.000
 5193.00    0.49379   0.46854    0.000
 5194.00    0.47284   0.46856    0.000
 5195.00    0.47356   0.46819    0.000
 5196.00    0.49945   0.46750    0.000
 5197.00    0.53533   0.46645    0.000
 5198.00    0.55807   0.46524    0.000
 5199.00    0.55739   0.46393    0.000
 5200.00    0.53915   0.46256    0.000
 5201.00    0.52413   0.46159    0.000
 5202.00    0.53139   0.46099    0.000
 5203.00    0.55469   0.46078    0.000
 5204.00    0.56975   0.46119    0.000
 5205.00    0.55064   0.46198    0.000
 5206.00    0.49007   0.46321    0.000
 5207.00    0.42093   0.46468    0.000
 5208.00    0.38849   0.46611    0.000
 5209.00    0.41253   0.46774    0.000
 5210.00    0.48315   0.46924    0.000
 5211.00    0.56272   0.47046   17.771
 5212.00    0.60808   0.47159   16.445
 5213.00    0.59516   0.47250   16.802
 5214.00    0.52874   0.47291   18.913
 5215.00    0.44628   0.47285   22.407
 5216.00    0.38079   0.47244   26.261
 5217.00    0.32868   0.47146   -1.000
 5218.00    0.28795   0.47006   -1.000
 5219.00    0.28983   0.46854   -1.000
 5220.00    0.35125   0.46716   28.469
 5221.00    0.43725   0.46601   22.870
 5222.00    0.50189   0.46524   19.925
 5223.00    0.52333   0.46517   19.109
 5224.00    0.50463   0.46548   19.817
 5225.00    0.46931   0.46609   21.308
 5226.00    0.43929   0.46701   22.764
 5227.00    0.42111   0.46795   23.747
 5228.00    0.41715   0.46896   23.972
 5229.00    0.43196   0.46988   23.151
 5230.00    0.46203   0.47077   21.644
 5231.00    0.49213   0.47174   20.320
 5232.00    0.51129   0.47251   19.558
 5233.00    0.52020   0.47326   19.223
 5234.00    0.51951   0.47397   19.249
 5235.00    0.50518   0.47422   19.795
 5236.00    0.47795   0.47427   20.923
 5237.00    0.44755   0.47423   22.344
 5238.00    0.42924   0.47355   23.297
 5239.00    0.43657   0.47249   22.906
 5240.00    0.45817   0.47159   21.826
 5241.00    0.45847   0.47036   21.812
 5242.00    0.42305   0.46882   23.638
 5243.00    0.37264   0.46775   26.836
 5244.00    0.34158   0.46686   -1.000
 5245.00    0.36115   0.46608   27.689
 5246.00    0.43194   0.46582   23.151
 5247.00    0.52150   0.46582   19.175
 5248.00    0.59141   0.46609   16.909
 5249.00    0.61134   0.46660   16.358
 5250.00    0.57260   0.46704   17.464
 5251.00    0.49068   0.46735   20.380
 5252.00    0.39956   0.46725   25.028
 5253.00    0.33987   0.46671   -1.000
 5254.00    0.33168   0.46572   -1.000
 5255.00    0.36908   0.46390   27.094
 5256.00    0.42697   0.46180   23.421
 5257.00    0.47451   0.45947   21.074
 5258.00    0.50264   0.45675   19.895
 5259.00    0.52223   0.45454   19.149
 5260.00    0.54373   0.45267   18.391
 5261.00    0.56878   0.45069   17.581
 5262.00    0.58316   0.44967   17.148
 5263.00    0.56913   0.44955   17.571
 5264.00    0.53255   0.44948   18.778
 5265.00    0.49810   0.45009   20.076
 5266.00    0.48900   0.45151   20.450
 5267.00    0.51343   0.45290   19.477
 5268.00    0.54832   0.45471   18.237
 5269.00    0.55906   0.45696   17.887
 5270.00    0.53637   0.45889   18.644
 5271.00    0.49740   0.46083   20.104
 5272.00    0.47606   0.46270   21.006
 5273.00    0.49232   0.46403   20.312
 5274.00    0.51287   0.46530   19.498
 5275.00    0.49877   0.46622   20.049
 5276.00    0.47538   0.46671   21.036
 5277.00    0.48627   0.46755   20.565
 5278.00    0.52345   0.46823   19.104
 5279.00    0.55150   0.46874   18.132
 5280.00    0.54829   0.46965   18.239
 5281.00    0.52008   0.47050   19.228
 5282.00    0.50904   0.47125   19.645
 5283.00    0.54159   0.47194   18.464
 5284.00    0.57794   0.47226   17.303
 5285.00    0.57502   0.47231   17.391
 5286.00    0.55034   0.47214   18.171
 5287.00    0.53907   0.47133   18.550
 5288.00    0.54828   0.47028   18.239
 5289.00    0.56100   0.46910   17.825
 5290.00    0.54723   0.46753   18.274
 5291.00    0.49758   0.46623   20.097
 5292.00    0.44520   0.46510   22.462
 5293.00    0.42125   0.46405   23.739
 5294.00    0.42299   0.46368   23.641
 5295.00    0.44659   0.46376   22.392
 5296.00    0.50766   0.46406   19.698
 5297.00    0.60439   0.46479   16.546
 5298.00    0.69703   0.46565   -1.000
 5299.00    0.74709   0.46646   -1.000
 5300.00    0.74325   0.46725   -1.000
 5301.00    0.69861   0.46779   -1.000
 5302.00    0.64318   0.46808   15.548
 5303.00    0.59604   0.46808   16.777
 5304.00    0.55435   0.46783   18.039
 5305.00    0.51848   0.46739   19.287
 5306.00    0.50182   0.46671   19.927
 5307.00    0.50999   0.46586   19.608
 5308.00    0.53292   0.46482   18.765
 5309.00    0.55737   0.46389   17.942
 5310.00    0.57193   0.46306   17.485
 5311.00    0.56208   0.46209   17.791
 5312.00    0.51264   0.46129   19.507
 5313.00    0.42672   0.46078   23.435
 5314.00    0.33095   0.46017   -1.000
 5315.00    0.26563   0.45944   -1.000
 5316.00    0.26746   0.45863   -1.000
 5317.00    0.32374   0.45772   -1.000
 5318.00    0.37776   0.45681   26.472
 5319.00    0.40077   0.45547   24.952
 5320.00    0.40407   0.45424   24.748
 5321.00    0.39885   0.45356   25.072
 5322.00    0.38828   0.45285   25.755
 5323.00    0.38234   0.45282   26.155
 5324.00    0.39434   0.45308   25.359
 5325.00    0.41940   0.45357   23.844
 5326.00    0.43726   0.45522   22.870
 5327.00    0.43478   0.45603   23.000
 5328.00    0.41382   0.45658   24.165
 5329.00    0.39502   0.45758   25.315
 5330.00    0.40247   0.45775   24.846
 5331.00    0.42833   0.45768   23.346
 5332.00    0.44492   0.45717   22.476
 5333.00    0.44668   0.45648   22.387
 5334.00    0.44725   0.45604   22.359
 5335.00    0.45564   0.45519   21.947
 5336.00    0.47212   0.45464   21.181
 5337.00    0.48980   0.45444   20.416
 5338.00    0.50144   0.45432   19.943
 5339.00    0.51013   0.45460   19.603
 5340.00    0.52100   0.45487   19.194
 5341.00    0.52533   0.45548   19.036
 5342.00    0.51304   0.45648   19.492
 5343.00    0.49482   0.45756   20.209
 5344.00    0.48719   0.45875   20.526
 5345.00    0.48717   0.46003   20.527
 5346.00    0.48337   0.46153   20.688
 5347.00    0.47541   0.46291   21.035
 5348.00    0.46707   0.46390   21.410
 5349.00    0.45505   0.46492   21.976
 5350.00    0.43511   0.46556   22.983
 5351.00    0.41092   0.46572   24.336
 5352.00    0.39117   0.46559   25.564
 5353.00    0.38471   0.46498   25.994
 5354.00    0.39199   0.46404   25.511
 5355.00    0.39861   0.46294   25.087
 5356.00    0.39446   0.46144   25.351
 5357.00    0.39103   0.45981   25.573
 5358.00    0.39879   0.45828   25.076
 5359.00    0.40724   0.45668   24.556
 5360.00    0.40829   0.45515   24.492
 5361.00    0.41542   0.45367   24.072
 5362.00    0.44062   0.45243   22.695
 5363.00    0.47576   0.45148   21.019
 5364.00    0.50411   0.45080   19.837
 5365.00    0.51188   0.45061   19.536
 5366.00    0.49929   0.45073   20.028
 5367.00    0.48487   0.45134   20.624
 5368.00    0.48369   0.45246   20.674
 5369.00    0.49254   0.45354   20.303
 5370.00    0.49174   0.45478   20.336
 5371.00    0.45390   0.45580   22.031
 5372.00    0.38536   0.45645   25.950
 5373.00    0.33901   0.45707   -1.000
 5374.00    0.34950   0.45722   28.612
 5375.00    0.40194   0.45705   24.879
 5376.00    0.46274   0.45674   21.611
 5377.00    0.49994   0.45631   -2.000
 5378.00    0.49866   0.45573   -2.000
 5379.00    0.46591   0.45518   -2.000
 5380.00    0.41987   0.45464   -2.000
 5381.00    0.38196   0.45398   -2.000
 5382.00    0.36553   0.45327   -2.000
 5383.00    0.37518   0.45252   -2.000
 5384.00    0.42304   0.45166   -2.000
 5385.00    0.52105   0.45065   -2.000
 5386.00    0.62862   0.44968   -2.000
 5387.00    0.66325   0.44859   -2.000
 5388.00    0.60571   0.44756   -2.000
 5389.00    0.51238   0.44664   -2.000
 5390.00    0.43181   0.44578   -2.000
 5391.00    0.38174   0.44515   -2.000
 5392.00    0.36687   0.44438   27.258
 5393.00    0.38245   0.44398   26.147
 5394.00    0.40833   0.44386   24.490
 5395.00    0.41933   0.44324   23.848
 5396.00    0.41677   0.44263   23.994
 5397.00    0.42095   0.44215   23.756
 5398.00    0.43090   0.44144   23.207
 5399.00    0.42588   0.44080   23.481
 5400.00    0.39353   0.44011   25.411
 5401.00    0.34120   0.43966   29.308
 5402.00    0.30456   0.43981   -1.000
 5403.00    0.32302   0.44013   -1.000
 5404.00    0.38666   0.44061   25.862
 5405.00    0.45217   0.44141   22.115
 5406.00    0.49504   0.44260   20.200
 5407.00    0.51151   0.44400   19.550
 5408.00    0.50308   0.44532   19.878
 5409.00    0.47582   0.44656   21.016
 5410.00    0.44374   0.44769   22.536
 5411.00    0.42132   0.44873   23.735
 5412.00    0.41109   0.44951   24.325
 5413.00    0.40872   0.44985   24.467
 5414.00    0.41352   0.45005   24.183
 5415.00    0.42566   0.44996   23.493
 5416.00    0.44032   0.44956   22.711
 5417.00    0.45135   0.44923   22.156
 5418.00    0.45719   0.44851   21.873
 5419.00    0.45971   0.44751   21.753
 5420.00    0.46176   0.44666   21.656
 5421.00    0.46651   0.44555   21.436
 5422.00    0.47707   0.44449   20.961
 5423.00    0.49630   0.44332   20.149
 5424.00    0.52626   0.44183   19.002
 5425.00    0.56331   0.44095   17.752
 5426.00    0.59427   0.44038   16.827
 5427.00    0.60950   0.43986   -1.000
 5428.00    0.61415   0.43982   -1.000
 5429.00    0.61147   0.44017   -1.000
 5430.00    0.58914   0.44103   16.974
 5431.00    0.54193   0.44215   18.452
 5432.00    0.48934   0.44335   20.436
 5433.00    0.45264   0.44466   22.093
 5434.00    0.43622   0.44577   22.924
 5435.00    0.43501   0.44647   22.988
 5436.00    0.44247   0.44674   22.601
 5437.00    0.46051   0.44632   21.715
 5438.00    0.50116   0.44555   19.954
 5439.00    0.55268   0.44431   18.094
 5440.00    0.56727   0.44261   17.628
 5441.00    0.52626   0.44079   19.002
 5442.00    0.47171   0.43889   21.199
 5443.00    0.44793   0.43736   22.325
 5444.00    0.46605   0.43589   21.457
 5445.00    0.50585   0.43440   19.769
 5446.00    0.52641   0.43334   18.996
 5447.00    0.50973   0.43237   19.618
 5448.00    0.47579   0.43156   21.018
 5449.00    0.44652   0.43097   22.395
 5450.00    0.42913   0.43037   23.303
 5451.00    0.42236   0.43017   23.676
 5452.00    0.42065   0.43020   23.773
 5453.00    0.41806   0.43023   23.920
 5454.00    0.40917   0.43036   24.440
 5455.00    0.38601   0.43060   25.906
 5456.00    0.34234   0.43065   29.211
 5457.00    0.29353   0.43084   -1.000
 5458.00    0.27283   0.43095   -1.000
 5459.00    0.29377   0.43099   -1.000
 5460.00    0.34281   0.43116   29.171
 5461.00    0.39898   0.43113   25.064
 5462.00    0.44344   0.43109   22.551
 5463.00    0.46795   0.43104   21.370
 5464.00    0.47409   0.43083   21.093
 5465.00    0.46391   0.43040   21.556
 5466.00    0.44012   0.42986   22.721
 5467.00    0.41335   0.42930   24.193
 5468.00    0.40043   0.42857   24.973
 5469.00    0.41528   0.42795   24.080
 5470.00    0.45970   0.42757   21.753
 5471.00    0.50852   0.42703   19.665
 5472.00    0.52659   0.42688   18.990
 5473.00    0.51221   0.42717   19.523
 5474.00    0.49175   0.42748   20.335
 5475.00    0.48918   0.42813   20.442
 5476.00    0.51406   0.42874   19.453
 5477.00    0.55178   0.42953   18.123
 5478.00    0.57596   0.43046   17.362
 5479.00    0.57407   0.43148   17.419
 5480.00    0.55007   0.43249   18.180
 5481.00    0.52043   0.43308   19.215
 5482.00    0.49834   0.43389   20.067
 5483.00    0.47148   0.43423   21.210
 5484.00    0.42666   0.43470   23.438
 5485.00    0.38934   0.43500   25.684
 5486.00    0.39224   0.43430   25.495
 5487.00    0.42542   0.43407   23.506
 5488.00    0.45846   0.43344   -2.000
 5489.00    0.47762   0.43258   -2.000
 5490.00    0.48120   0.43188   -2.000
 5491.00    0.46787   0.43078   -2.000
 5492.00    0.43361   0.42987   -2.000
 5493.00    0.37077   0.42903   -2.000
 5494.00    0.28104   0.42833   -2.000
 5495.00    0.18884   0.42754   -2.000
 5496.00    0.13410   0.42659   -2.000
 5497.00    0.16060   0.42603   -2.000
 5498.00    0.28744   0.42549   -2.000
 5499.00    0.48366   0.42494   -2.000
 5500.00    0.67832   0.42448   -2.000
 5501.00    0.77980   0.42391   -2.000
 5502.00    0.75077   0.42366   -2.000
 5503.00    0.65851   0.42355   -2.000
 5504.00    0.58019   0.42329   -2.000
 5505.00    0.52957   0.42327   -2.000
 5506.00    0.49284   0.42337   -2.000
 5507.00    0.45945   0.42360   -2.000
 5508.00    0.42441   0.42408   -2.000
 5509.00    0.38897   0.42462   -2.000
 5510.00    0.36285   0.42537   -2.000
 5511.00    0.36157   0.42623   27.657
 5512.00    0.38160   0.42705   26.206
 5513.00    0.39253   0.42791   25.476
 5514.00    0.37964   0.42859   26.341
 5515.00    0.36272   0.42891   27.570
 5516.00    0.36331   0.42911   27.525
 5517.00    0.38601   0.42896   25.906
 5518.00    0.41735   0.42849   23.961
 5519.00    0.43237   0.42802   23.128
 5520.00    0.42555   0.42728   23.499
 5521.00    0.41754   0.42660   23.950
 5522.00    0.42040   0.42603   23.787
 5523.00    0.42509   0.42542   23.524
 5524.00    0.41578   0.42517   24.051
 5525.00    0.38089   0.42499   26.254
 5526.00    0.33131   0.42487   30.183
 5527.00    0.29738   0.42501   -1.000
 5528.00    0.29377   0.42505   -1.000
 5529.00    0.31298   0.42528   -1.000
 5530.00    0.34756   0.42554   28.772
 5531.00    0.39407   0.42577   25.376
 5532.00    0.44097   0.42620   22.677
 5533.00    0.47306   0.42642   21.139
 5534.00    0.49554   0.42676   20.180
 5535.00    0.52750   0.42708   18.957
 5536.00    0.56434   0.42719   17.720
 5537.00    0.58040   0.42737   17.229
 5538.00    0.56332   0.42740   17.752
 5539.00    0.51826   0.42741   19.295
 5540.00    0.45598   0.42751   21.931
 5541.00    0.38955   0.42746   25.671
 5542.00    0.33395   0.42748   29.944
 5543.00    0.30459   0.42745   -1.000
 5544.00    0.31400   0.42729   -1.000
 5545.00    0.36295   0.42713   27.552
 5546.00    0.42480   0.42678   23.541
 5547.00    0.46181   0.42627   21.654
 5548.00    0.46105   0.42574   21.690
 5549.00    0.43400   0.42512   23.041
 5550.00    0.40323   0.42445   24.800
 5551.00    0.38875   0.42386   25.724
 5552.00    0.39034   0.42320   25.619
 5553.00    0.39733   0.42262   25.168
 5554.00    0.40779   0.42213   24.522
 5555.00    0.42480   0.42156   23.541
 5556.00    0.44687   0.42107   22.378
 5557.00    0.47260   0.42059   21.159
 5558.00    0.50780   0.42010   19.693
 5559.00    0.55136   0.41967   18.137
 5560.00    0.57773   0.41927   17.309
 5561.00    0.56145   0.41892   17.811
 5562.00    0.50813   0.41861   19.680
 5563.00    0.44183   0.41833   22.633
 5564.00    0.38603   0.41817   25.905
 5565.00    0.35234   0.41802   28.382
 5566.00    0.33269   0.41796   30.058
 5567.00    0.32003   0.41794   31.247
 5568.00    0.32720   0.41792   30.562
 5569.00    0.36098   0.41808   27.702
 5570.00    0.39907   0.41820   25.058
 5571.00    0.41774   0.41825   23.938
 5572.00    0.41654   0.41834   24.007
 5573.00    0.40630   0.41831   24.612
 5574.00    0.39709   0.41816   25.183
 5575.00    0.39496   0.41785   25.319
 5576.00    0.40049   0.41727   24.970
 5577.00    0.41196   0.41654   24.274
 5578.00    0.42768   0.41571   23.382
 5579.00    0.44510   0.41469   22.467
 5580.00    0.46072   0.41366   21.705
 5581.00    0.47347   0.41271   21.121
 5582.00    0.48533   0.41180   20.604
 5583.00    0.49208   0.41121   20.322
 5584.00    0.48129   0.41079   20.778
 5585.00    0.45349   0.41053   22.051
 5586.00    0.42904   0.41058   23.308
 5587.00    0.42079   0.41052   23.765
 5588.00    0.42201   0.41059   23.696
 5589.00    0.42012   0.41070   23.803
 5590.00    0.40636   0.41057   24.609
 5591.00    0.38660   0.41041   25.866
 5592.00    0.38010   0.41009   26.309
 5593.00    0.39336   0.40971   25.422
 5594.00    0.41288   0.40959   24.220
 5595.00    0.42246   0.40942   23.671
 5596.00    0.41337   0.40945   24.191
 5597.00    0.39421   0.40979   25.367
 5598.00    0.38479   0.41021   25.988
 5599.00    0.38254   0.41101   26.141
 5600.00    0.36465   0.41169   27.424
 5601.00    0.33466   0.41247   29.881
 5602.00    0.32444   0.41314   30.822
 5603.00    0.35124   0.41347   28.470
 5604.00    0.40603   0.41370   24.629
 5605.00    0.46034   0.41346   21.723
 5606.00    0.48094   0.41307   20.793
 5607.00    0.46283   0.41242   21.606
 5608.00    0.42813   0.41141   23.357
 5609.00    0.39954   0.41049   25.029
 5610.00    0.39018   0.40955   25.629
 5611.00    0.39656   0.40878   25.217
 5612.00    0.40578   0.40818   24.644
 5613.00    0.41474   0.40759   24.111
 5614.00    0.42600   0.40732   23.474
 5615.00    0.43043   0.40722   23.233
 5616.00    0.41658   0.40725   24.005
 5617.00    0.39540   0.40728   25.291
 5618.00    0.38688   0.40731   25.848
 5619.00    0.38719   0.40748   25.827
 5620.00    0.38079   0.40765   26.261
 5621.00    0.37144   0.40783   26.922
 5622.00    0.37399   0.40802   26.739
 5623.00    0.39265   0.40810   25.468
 5624.00    0.41941   0.40825   23.843
 5625.00    0.43778   0.40830   22.842
 5626.00    0.43481   0.40820   22.999
 5627.00    0.41649   0.40804   24.010
 5628.00    0.39534   0.40768   25.295
 5629.00    0.37151   0.40715   26.917
 5630.00    0.34064   0.40663   29.356
 5631.00    0.30679   0.40592   32.596
 5632.00    0.28000   0.40528   -1.000
 5633.00    0.27130   0.40468   -1.000
 5634.00    0.28762   0.40400   -1.000
 5635.00    0.32661   0.40374   30.618
 5636.00    0.37442   0.40340   26.708
 5637.00    0.40611   0.40338   24.624
 5638.00    0.40859   0.40344   24.475
 5639.00    0.40019   0.40356   24.988
 5640.00    0.40124   0.40399   24.922
 5641.00    0.40781   0.40436   24.521
 5642.00    0.41312   0.40488   24.206
 5643.00    0.42570   0.40528   23.491
 5644.00    0.44944   0.40572   22.250
 5645.00    0.46875   0.40605   21.333
 5646.00    0.46963   0.40622   21.293
 5647.00    0.45524   0.40621   21.966
 5648.00    0.43618   0.40596   22.926
 5649.00    0.42144   0.40561   23.728
 5650.00    0.40906   0.40500   24.446
 5651.00    0.38373   0.40422   26.060
 5652.00    0.33938   0.40342   29.466
 5653.00    0.29069   0.40279   -1.000
 5654.00    0.25559   0.40216   -1.000
 5655.00    0.24360   0.40171   -1.000
 5656.00    0.25188   0.40129   -1.000
 5657.00    0.26683   0.40112   -1.000
 5658.00    0.28260   0.40128   -1.000
 5659.00    0.30683   0.40139   32.592
 5660.00    0.34216   0.40167   29.226
 5661.00    0.37924   0.40195   26.368
 5662.00    0.40745   0.40231   24.543
 5663.00    0.42088   0.40273   23.760
 5664.00    0.42179   0.40315   23.708
 5665.00    0.41933   0.40360   23.848
 5666.00    0.41850   0.40400   23.895
 5667.00    0.41816   0.40440   23.914
 5668.00    0.41975   0.40466   23.824
 5669.00    0.42701   0.40495   23.419
 5670.00    0.43362   0.40512   23.062
 5671.00    0.42497   0.40511   23.531
 5672.00    0.39808   0.40513   25.121
 5673.00    0.36456   0.40490   27.430
 5674.00    0.33936   0.40472   29.468
 5675.00    0.33316   0.40443   30.016
 5676.00    0.34181   0.40403   29.256
 5677.00    0.35138   0.40384   28.459
 5678.00    0.35958   0.40352   27.810
 5679.00    0.37493   0.40332   26.671
 5680.00    0.40040   0.40315   24.975
 5681.00    0.43013   0.40303   23.249
 5682.00    0.45243   0.40312   22.103
 5683.00    0.45568   0.40326   21.945
 5684.00    0.43972   0.40345   22.742
 5685.00    0.41364   0.40365   24.176
 5686.00    0.38596   0.40377   25.909
 5687.00    0.36238   0.40384   27.595
 5688.00    0.34533   0.40377   28.958
 5689.00    0.33465   0.40356   29.882
 5690.00    0.32899   0.40324   30.396
 5691.00    0.32901   0.40268   30.395
 5692.00    0.34178   0.40218   29.258
 5693.00    0.37190   0.40155   26.889
 5694.00    0.40676   0.40088   24.585
 5695.00    0.42685   0.40028   23.428
 5696.00    0.42458   0.39969   23.553
 5697.00    0.40456   0.39919   24.718
 5698.00    0.37948   0.39871   26.352
 5699.00    0.36030   0.39818   27.754
 5700.00    0.34516   0.39768   28.972
 5701.00    0.33282   0.39735   30.046
 5702.00    0.33934   0.39698   29.469
 5703.00    0.37570   0.39687   26.617
 5704.00    0.42146   0.39686   23.727
 5705.00    0.44766   0.39691   22.338
 5706.00    0.44448   0.39737   22.498
 5707.00    0.41791   0.39784   23.928
 5708.00    0.38255   0.39849   26.141
 5709.00    0.35172   0.39921   28.432
 5710.00    0.32957   0.39981   30.343
 5711.00    0.31958   0.40050   31.291
 5712.00    0.33160   0.40102   30.157
 5713.00    0.36987   0.40147   27.036
 5714.00    0.42352   0.40178   23.612
 5715.00    0.47562   0.40191   21.025
 5716.00    0.51160   0.40197   19.547
 5717.00    0.52207   0.40178   19.155
 5718.00    0.50457   0.40164   19.819
 5719.00    0.46302   0.40126   21.597
 5720.00    0.40830   0.40093   24.492
 5721.00    0.36525   0.40064   27.379
 5722.00    0.37028   0.40036   27.007
 5723.00    0.42877   0.40030   23.323
 5724.00    0.49711   0.40011   20.116
 5725.00    0.53319   0.40020   18.755
 5726.00    0.52549   0.40036   19.030
 5727.00    0.48673   0.40060   20.545
 5728.00    0.44500   0.40085   22.472
 5729.00    0.42193   0.40095   23.701
 5730.00    0.42208   0.40112   23.692
 5731.00    0.43639   0.40118   22.915
 5732.00    0.44830   0.40120   22.306
 5733.00    0.45233   0.40123   22.108
 5734.00    0.45769   0.40116   21.849
 5735.00    0.46881   0.40117   21.331
 5736.00    0.47908   0.40112   20.873
 5737.00    0.47949   0.40111   20.856
 5738.00    0.46405   0.40115   21.549
 5739.00    0.43650   0.40115   22.910
 5740.00    0.40818   0.40114    0.000
 5741.00    0.38310   0.40093    0.000
 5742.00    0.35702   0.40089    0.000
 5743.00    0.33131   0.40078    0.000
 5744.00    0.31477   0.40061    0.000
 5745.00    0.31549   0.40039    0.000
 5746.00    0.33641   0.40001    0.000
 5747.00    0.37044   0.39976    0.000
 5748.00    0.40542   0.39952    0.000
 5749.00    0.44022   0.39932    0.000
 5750.00    0.47983   0.39904    0.000
 5751.00    0.51301   0.39871    0.000
 5752.00    0.51995   0.39831    0.000
 5753.00    0.50209   0.39791    0.000
 5754.00    0.47842   0.39747    0.000
 5755.00    0.46237   0.39700    0.000
 5756.00    0.45599   0.39655    0.000
 5757.00    0.44906   0.39624    0.000
 5758.00    0.43090   0.39598    0.000
 5759.00    0.41217   0.39581    0.000
 5760.00    0.41102   0.39574    0.000
 5761.00    0.42204   0.39571    0.000
 5762.00    0.42741   0.39584    0.000
 5763.00    0.42440   0.39591    0.000
 5764.00    0.42178   0.39603    0.000
 5765.00    0.42685   0.39603    0.000
 5766.00    0.44012   0.39596    0.000
 5767.00    0.45116   0.39584    0.000
 5768.00    0.44698   0.39557    0.000
 5769.00    0.42438   0.39526    0.000
 5770.00    0.39093   0.39478    0.000
 5771.00    0.36303   0.39421    0.000
 5772.00    0.35326   0.39351    0.000
 5773.00    0.35606   0.39273    0.000
 5774.00    0.35914   0.39188    0.000
 5775.00    0.35808   0.39111    0.000
 5776.00    0.35346   0.39047    0.000
 5777.00    0.34616   0.38994    0.000
 5778.00    0.33811   0.38955    0.000
 5779.00    0.33341   0.38942    0.000
 5780.00    0.33611   0.38955    0.000
 5781.00    0.34813   0.38982    0.000
 5782.00    0.36954   0.39030    0.000
 5783.00    0.39879   0.39077    0.000
 5784.00    0.43077   0.39139    0.000
 5785.00    0.45552   0.39203    0.000
 5786.00    0.46119   0.39268    0.000
 5787.00    0.43816   0.39333    0.000
 5788.00    0.39201   0.39389    0.000
 5789.00    0.34930   0.39441    0.000
 5790.00    0.33299   0.39487    0.000
 5791.00    0.34649   0.39535    0.000
 5792.00    0.38375   0.39578    0.000
 5793.00    0.43561   0.39628    0.000
 5794.00    0.48398   0.39661    0.000
 5795.00    0.50243   0.39691    0.000
 5796.00    0.48075   0.39713    0.000
 5797.00    0.43478   0.39721    0.000
 5798.00    0.38343   0.39734    0.000
 5799.00    0.33794   0.39723    0.000
 5800.00    0.31219   0.39712    0.000
 5801.00    0.32304   0.39684   -2.000
 5802.00    0.36732   0.39645   -2.000
 5803.00    0.41693   0.39602   -2.000
 5804.00    0.44572   0.39547   -2.000
 5805.00    0.44191   0.39495   -2.000
 5806.00    0.40836   0.39430   -2.000
 5807.00    0.36094   0.39373   -2.000
 5808.00    0.32215   0.39315   -2.000
 5809.00    0.31237   0.39266   -2.000
 5810.00    0.32861   0.39224   -2.000
 5811.00    0.34496   0.39192   -2.000
 5812.00    0.34002   0.39175   -2.000
 5813.00    0.30743   0.39157   -2.000
 5814.00    0.25870   0.39162   -2.000
 5815.00    0.21818   0.39155   -2.000
 5816.00    0.20590   0.39168   -2.000
 5817.00    0.23041   0.39175   -2.000
 5818.00    0.28359   0.39186   -2.000
 5819.00    0.34514   0.39208   -2.000
 5820.00    0.39725   0.39214   -2.000
 5821.00    0.42947   0.39240    0.000
 5822.00    0.44078   0.39247    0.000
 5823.00    0.43802   0.39265    0.000
 5824.00    0.43141   0.39276    0.000
 5825.00    0.42884   0.39279    0.000
 5826.00    0.42643   0.39283    0.000
 5827.00    0.41724   0.39271    0.000
 5828.00    0.41163   0.39262    0.000
 5829.00    0.42317   0.39245    0.000
 5830.00    0.43602   0.39226    0.000
 5831.00    0.42203   0.39206    0.000
 5832.00    0.38078   0.39184    0.000
 5833.00    0.33569   0.39161    0.000
 5834.00    0.31531   0.39141    0.000
 5835.00    0.33354   0.39108    0.000
 5836.00    0.36594   0.39070    0.000
 5837.00    0.37797   0.39020    0.000
 5838.00    0.36980   0.38959    0.000
 5839.00    0.36168   0.38895    0.000
 5840.00    0.36550   0.38807    0.000
 5841.00    0.38161   0.38718    0.000
 5842.00    0.40021   0.38615    0.000
 5843.00    0.41064   0.38506    0.000
 5844.00    0.41183   0.38394    0.000
 5845.00    0.40777   0.38283    0.000
 5846.00    0.40109   0.38181    0.000
 5847.00    0.39443   0.38082    0.000
 5848.00    0.39223   0.37992    0.000
 5849.00    0.39727   0.37907    0.000
 5850.00    0.40707   0.37844    0.000
 5851.00    0.41406   0.37788    0.000
 5852.00    0.40712   0.37757    0.000
 5853.00    0.38210   0.37735    0.000
 5854.00    0.34954   0.37724    0.000
 5855.00    0.32317   0.37719    0.000
 5856.00    0.30987   0.37720    0.000
 5857.00    0.30860   0.37732    0.000
 5858.00    0.31152   0.37737    0.000
 5859.00    0.31438   0.37747    0.000
 5860.00    0.32195   0.37741    0.000
 5861.00    0.33408   0.37731    0.000
 5862.00    0.33931   0.37713    0.000
 5863.00    0.33601   0.37669    0.000
 5864.00    0.34189   0.37624    0.000
 5865.00    0.36802   0.37543    0.000
 5866.00    0.40520   0.37461    0.000
 5867.00    0.43736   0.37372    0.000
 5868.00    0.45172   0.37268    0.000
 5869.00    0.45023   0.37202    0.000
 5870.00    0.45032   0.37107    0.000
 5871.00    0.46067   0.37066    0.000
 5872.00    0.47311   0.37005    0.000
 5873.00    0.48098   0.36969    0.000
 5874.00    0.48752   0.36934    0.000
 5875.00    0.50380   0.36886    0.000
 5876.00    0.54139   0.36840    0.000
 5877.00    0.58764   0.36739    0.000
 5878.00    0.60774   0.36620    0.000
 5879.00    0.58916   0.36444    0.000
 5880.00    0.54972   0.36235    0.000
 5881.00    0.50529   0.35988    0.000
 5882.00    0.46088   0.35756    0.000
 5883.00    0.42021   0.35529    0.000
 5884.00    0.38789   0.35327    0.000
 5885.00    0.36602   0.35166    0.000
 5886.00    0.35335   0.35016    0.000
 5887.00    0.34641   0.34923    0.000
 5888.00    0.34109   0.34886    0.000
 5889.00    0.33580   0.34930    0.000
 5890.00    0.33157   0.35023    0.000
 5891.00    0.32996   0.35136    0.000
 5892.00    0.33162   0.35286    0.000
 5893.00    0.33421   0.35436    0.000
 5894.00    0.33489   0.35606    0.000
 5895.00    0.33667   0.35796    0.000
 5896.00    0.34616   0.35982    0.000
 5897.00    0.36593   0.36142    0.000
 5898.00    0.39100   0.36278    0.000
 5899.00    0.40577   0.36396    0.000
 5900.00    0.39518   0.36482    0.000
 5901.00    0.36573   0.36545   27.342
 5902.00    0.33938   0.36591   29.466
 5903.00    0.33615   0.36609   29.749
 5904.00    0.36186   0.36611   27.635
 5905.00    0.39456   0.36595   25.345
 5906.00    0.40538   0.36583   24.668
 5907.00    0.39231   0.36557   25.490
 5908.00    0.36941   0.36537   27.070
 5909.00    0.34471   0.36522   29.010
 5910.00    0.32180   0.36503   31.075
 5911.00    0.30589   0.36496   32.691
 5912.00    0.29940   0.36485   33.400
 5913.00    0.29621   0.36491   33.760
 5914.00    0.29218   0.36498   34.226
 5915.00    0.29708   0.36509   33.661
 5916.00    0.31993   0.36520   31.257
 5917.00    0.35217   0.36528   28.395
 5918.00    0.37703   0.36536   26.523
 5919.00    0.38152   0.36544   26.211
 5920.00    0.36189   0.36547   27.633
 5921.00    0.32719   0.36554   30.563
 5922.00    0.29141   0.36565   34.316
 5923.00    0.26639   0.36572   -1.000
 5924.00    0.26488   0.36582   -1.000
 5925.00    0.30106   0.36585   33.216
 5926.00    0.36928   0.36595   27.080
 5927.00    0.43194   0.36606   23.151
 5928.00    0.46037   0.36615   21.721
 5929.00    0.46287   0.36627   21.605
 5930.00    0.45800   0.36632   21.834
 5931.00    0.45428   0.36636   22.013
 5932.00    0.45013   0.36621   22.216
 5933.00    0.43660   0.36614   22.904
 5934.00    0.40964   0.36605   24.412
 5935.00    0.37612   0.36587   26.587
 5936.00    0.34533   0.36571   28.958
 5937.00    0.32387   0.36549   30.876
 5938.00    0.31743   0.36532   31.503
 5939.00    0.32989   0.36500   30.313
 5940.00    0.35384   0.36472   28.261
 5941.00    0.37008   0.36450   27.021
 5942.00    0.36830   0.36417   27.152
 5943.00    0.35465   0.36386   28.197
 5944.00    0.34000   0.36349   29.412
 5945.00    0.33269   0.36315   30.058
 5946.00    0.33213   0.36281   30.108
 5947.00    0.32956   0.36236   30.344
 5948.00    0.32152   0.36211   31.103
 5949.00    0.31357   0.36195   31.891
 5950.00    0.31385   0.36184   31.862
 5951.00    0.32857   0.36193   30.435
 5952.00    0.35539   0.36202   28.138
 5953.00    0.38374   0.36242   26.059
 5954.00    0.40291   0.36265   24.819
 5955.00    0.40690   0.36307   24.576
 5956.00    0.40024   0.36355   24.985
 5957.00    0.39322   0.36395   25.431
 5958.00    0.38353   0.36447   26.074
 5959.00    0.36000   0.36474   27.778
 5960.00    0.32582   0.36510   30.692
 5961.00    0.29776   0.36526   33.584
 5962.00    0.28829   0.36538   34.687
 5963.00    0.29879   0.36539   33.468
 5964.00    0.31492   0.36529   31.754
 5965.00    0.31750   0.36512   31.496
 5966.00    0.30783   0.36481   32.486
 5967.00    0.30171   0.36438   33.144
 5968.00    0.30609   0.36391   32.670
 5969.00    0.31788   0.36330   31.459
 5970.00    0.33148   0.36281   30.168
 5971.00    0.34324   0.36228   29.134
 5972.00    0.35645   0.36188   28.055
 5973.00    0.37537   0.36151   26.640
 5974.00    0.39407   0.36125   25.376
 5975.00    0.40391   0.36114   24.758
 5976.00    0.40784   0.36103   24.519
 5977.00    0.41405   0.36119   24.152
 5978.00    0.42317   0.36135   23.631
 5979.00    0.42917   0.36167   23.301
 5980.00    0.42365   0.36193   23.604
 5981.00    0.40471   0.36231   24.709
 5982.00    0.38650   0.36269   25.873
 5983.00    0.38365   0.36314   26.066
 5984.00    0.39147   0.36366   25.545
 5985.00    0.39653   0.36405   25.219
 5986.00    0.39157   0.36444   25.538
 5987.00    0.37808   0.36468   26.449
 5988.00    0.36638   0.36485   27.294
 5989.00    0.36500   0.36486   27.397
 5990.00    0.37043   0.36478   26.996
 5991.00    0.37219   0.36460   26.868
 5992.00    0.35971   0.36432   27.800
 5993.00    0.33270   0.36397   30.057
 5994.00    0.30802   0.36354   32.465
 5995.00    0.30269   0.36312   33.037
 5996.00    0.31911   0.36271   31.337
 5997.00    0.34535   0.36234   28.956
 5998.00    0.35918   0.36198   27.841
 5999.00    0.35070   0.36168   28.514
 6000.00    0.33610   0.36141   29.753
 6001.00    0.33645   0.36125   29.722
 6002.00    0.36138   0.36108   27.672
 6003.00    0.40399   0.36104   24.753
 6004.00    0.44146   0.36095   22.652
 6005.00    0.45630   0.36094   21.915
 6006.00    0.44797   0.36095   22.323
 6007.00    0.42371   0.36098   23.601
 6008.00    0.39283   0.36103   25.456
 6009.00    0.36591   0.36106   27.329
 6010.00    0.35266   0.36105   28.356
 6011.00    0.35260   0.36099   28.361
 6012.00    0.35384   0.36100   28.261
 6013.00    0.34922   0.36101   28.636
 6014.00    0.34268   0.36106   29.182
 6015.00    0.34303   0.36110   29.152
 6016.00    0.35829   0.36124   27.910
 6017.00    0.38537   0.36145   25.949
 6018.00    0.40951   0.36166   24.420
 6019.00    0.41877   0.36198   23.880
 6020.00    0.40950   0.36231   24.420
 6021.00    0.38517   0.36270   25.963
 6022.00    0.35538   0.36311   28.139
 6023.00    0.33435   0.36347   29.908
 6024.00    0.33520   0.36392   29.833
 6025.00    0.35434   0.36416   28.221
 6026.00    0.37341   0.36449   26.780
 6027.00    0.37958   0.36467   26.345
 6028.00    0.37186   0.36481   26.892
 6029.00    0.36063   0.36487   27.729
 6030.00    0.35974   0.36487   27.798
 6031.00    0.36698   0.36489   27.250
 6032.00    0.36850   0.36485   27.137
 6033.00    0.36193   0.36487   27.629
 6034.00    0.35576   0.36487   28.109
 6035.00    0.35488   0.36493   28.178
 6036.00    0.35898   0.36503   27.857
 6037.00    0.36625   0.36519   27.304
 6038.00    0.37357   0.36534   26.769
 6039.00    0.37507   0.36553   26.662
 6040.00    0.36520   0.36568   27.383
 6041.00    0.34487   0.36580   28.996
 6042.00    0.32353   0.36581   30.909
 6043.00    0.31989   0.36579   31.261
 6044.00    0.34692   0.36565   28.825
 6045.00    0.38778   0.36542   25.788
 6046.00    0.41189   0.36516   24.278
 6047.00    0.40601   0.36481   24.630
 6048.00    0.37500   0.36446   26.667
 6049.00    0.33550   0.36407   29.806
 6050.00    0.30613   0.36368   32.666
 6051.00    0.29536   0.36327   33.857
 6052.00    0.30131   0.36288   33.188
 6053.00    0.31421   0.36251   31.825
 6054.00    0.32468   0.36211   30.800
 6055.00    0.33272   0.36179   30.056
 6056.00    0.33987   0.36154   29.423
 6057.00    0.33993   0.36138   29.418
 6058.00    0.32850   0.36128   30.441
 6059.00    0.31343   0.36129   31.905
 6060.00    0.30449   0.36142   32.842
 6061.00    0.30305   0.36170   32.998
 6062.00    0.31137   0.36202   32.117
 6063.00    0.34049   0.36244   29.369
 6064.00    0.39389   0.36286   25.388
 6065.00    0.45421   0.36329   22.016
 6066.00    0.49868   0.36358   20.053
 6067.00    0.51314   0.36368   -1.000
 6068.00    0.49361   0.36369   20.259
 6069.00    0.44714   0.36348   22.364
 6070.00    0.39350   0.36319   25.413
 6071.00    0.36279   0.36272   27.564
 6072.00    0.37088   0.36223   26.963
 6073.00    0.40499   0.36172   24.692
 6074.00    0.44050   0.36120   22.702
 6075.00    0.45478   0.36075   21.988
 6076.00    0.44131   0.36037   22.660
 6077.00    0.41396   0.36012   24.157
 6078.00    0.38583   0.35992   25.918
 6079.00    0.35925   0.35981   27.836
 6080.00    0.33833   0.35973   29.557
 6081.00    0.33258   0.35974   30.068
 6082.00    0.34010   0.35979   29.403
 6083.00    0.34524   0.35981   28.966
 6084.00    0.34645   0.35990   28.865
 6085.00    0.36186   0.35994   27.635
 6086.00    0.39644   0.36002   25.225
 6087.00    0.43182   0.36006   23.158
 6088.00    0.44512   0.36010   22.466
 6089.00    0.42163   0.36010   23.718
 6090.00    0.37177   0.36003   26.899
 6091.00    0.32746   0.35986   30.538
 6092.00    0.30685   0.35960   32.589
 6093.00    0.30668   0.35930   32.607
 6094.00    0.32007   0.35895   31.243
 6095.00    0.34294   0.35854   29.160
 6096.00    0.37439   0.35823   26.710
 6097.00    0.41286   0.35795   24.221
 6098.00    0.44513   0.35785   22.466
 6099.00    0.45198   0.35781   22.125
 6100.00    0.43199   0.35794   23.148
 6101.00    0.40005   0.35815   24.997
 6102.00    0.36674   0.35857   27.267
 6103.00    0.33600   0.35898   29.762
 6104.00    0.31231   0.35934   32.019
 6105.00    0.30116   0.35968   33.204
 6106.00    0.30593   0.35989   32.687
 6107.00    0.32456   0.36007   30.811
 6108.00    0.34449   0.36004   29.029
 6109.00    0.35175   0.35992   28.429
 6110.00    0.35034   0.35959   28.544
 6111.00    0.35442   0.35921   28.215
 6112.00    0.36705   0.35868   27.244
 6113.00    0.38007   0.35810   26.311
 6114.00    0.38133   0.35751   26.224
 6115.00    0.36360   0.35691   27.503
 6116.00    0.33623   0.35646   29.741
 6117.00    0.31424   0.35611   31.822
 6118.00    0.29915   0.35586   33.428
 6119.00    0.28589   0.35580   34.979
 6120.00    0.27647   0.35582   36.170
 6121.00    0.27552   0.35592   36.295
 6122.00    0.28194   0.35601   35.468
 6123.00    0.29235   0.35600   34.205
 6124.00    0.30672   0.35582   32.603
 6125.00    0.32802   0.35556   30.486
 6126.00    0.36031   0.35517   27.754
 6127.00    0.39965   0.35467   25.022
 6128.00    0.42602   0.35410   23.473
 6129.00    0.42331   0.35354   23.624
 6130.00    0.39970   0.35301   25.019
 6131.00    0.37230   0.35265   26.860
 6132.00    0.35031   0.35252   28.546
 6133.00    0.33725   0.35251   29.652
 6134.00    0.33423   0.35281   29.919
 6135.00    0.33857   0.35316   29.536
 6136.00    0.34304   0.35369   29.151
 6137.00    0.34191   0.35413   29.248
 6138.00    0.33544   0.35448   29.811
 6139.00    0.32569   0.35463   30.704
 6140.00    0.31325   0.35460   31.923
 6141.00    0.29930   0.35447   33.411
 6142.00    0.28736   0.35401   34.800
 6143.00    0.28503   0.35351   35.084
 6144.00    0.30287   0.35269   33.017
 6145.00    0.34030   0.35186   29.386
 6146.00    0.37952   0.35083   26.349
 6147.00    0.40262   0.34975   24.837
 6148.00    0.40263   0.34848   24.837
 6149.00    0.38701   0.34711   25.839
 6150.00    0.37532   0.34562   26.644
 6151.00    0.37876   0.34391   26.402
 6152.00    0.39200   0.34223   25.510
 6153.00    0.40651   0.34034   24.600
 6154.00    0.41713   0.33867   23.973
 6155.00    0.42149   0.33700   23.725
 6156.00    0.41849   0.33557   23.895
 6157.00    0.40375   0.33435   24.768
 6158.00    0.37083   0.33342   26.967
 6159.00    0.32361   0.33281   30.902
 6160.00    0.27736   0.33242   36.054
 6161.00    0.24444   0.33234   -1.000
 6162.00    0.22988   0.33240   -1.000
 6163.00    0.23534   0.33262   -1.000
 6164.00    0.25988   0.33293   38.480
 6165.00    0.29769   0.33324   33.592
 6166.00    0.33903   0.33367   29.496
 6167.00    0.37516   0.33406   26.655
 6168.00    0.39915   0.33454   25.053
 6169.00    0.40379   0.33501   24.766
 6170.00    0.38517   0.33548   25.963
 6171.00    0.35340   0.33585   28.297
 6172.00    0.32825   0.33618   30.465
 6173.00    0.32115   0.33639   31.138
 6174.00    0.33228   0.33651   30.095
 6175.00    0.35480   0.33649   28.185
 6176.00    0.37885   0.33629   26.396
 6177.00    0.39779   0.33596   25.139
 6178.00    0.40825   0.33543   24.495
 6179.00    0.40726   0.33484   24.554
 6180.00    0.39352   0.33411   25.412
 6181.00    0.37073   0.33341   26.973
 6182.00    0.34534   0.33268   28.957
 6183.00    0.32111   0.33205   31.142
 6184.00    0.29974   0.33156   33.363
 6185.00    0.28339   0.33118   35.287
 6186.00    0.27466   0.33101   36.408
 6187.00    0.27566   0.33092   36.276
 6188.00    0.28654   0.33104   34.900
 6189.00    0.30364   0.33121   32.934
 6190.00    0.32081   0.33149   31.171
 6191.00    0.33174   0.33181   30.144
 6192.00    0.33299   0.33212   30.031
 6193.00    0.32710   0.33245   30.572
 6194.00    0.31861   0.33276   31.387
 6195.00    0.30859   0.33311   32.405
 6196.00    0.29733   0.33339   33.632
 6197.00    0.28808   0.33369   34.713
 6198.00    0.28697   0.33389   34.847
 6199.00    0.30145   0.33403   33.174
 6200.00    0.32783   0.33403   30.504
 6201.00    0.34136   0.33384   29.294
 6202.00    0.32334   0.33350   30.927
 6203.00    0.28659   0.33296   34.894
 6204.00    0.25915   0.33229   38.588
 6205.00    0.26614   0.33145   37.575
 6206.00    0.31780   0.33057   -2.000
 6207.00    0.40089   0.32960   -2.000
 6208.00    0.48048   0.32872   -2.000
 6209.00    0.50666   0.32783   -2.000
 6210.00    0.45133   0.32711   -2.000
 6211.00    0.33256   0.32648   -2.000
 6212.00    0.19136   0.32598   -2.000
 6213.00    0.07295   0.32563   -2.000
 6214.00    0.02012   0.32533   -2.000
 6215.00    0.06270   0.32509   -2.000
 6216.00    0.17604   0.32484   -2.000
 6217.00    0.27172   0.32461   -2.000
 6218.00    0.29306   0.32433   34.122
 6219.00    0.26152   0.32408   38.238
 6220.00    0.22149   0.32377   -1.000
 6221.00    0.20584   0.32350   -1.000
 6222.00    0.22288   0.32320   -1.000
 6223.00    0.25581   0.32299   39.091
 6224.00    0.28881   0.32280   34.625
 6225.00    0.31758   0.32267   31.489
 6226.00    0.33925   0.32259   29.477
 6227.00    0.34899   0.32252   28.654
 6228.00    0.34594   0.32253   28.907
 6229.00    0.33527   0.32245   29.827
 6230.00    0.32611   0.32242   30.664
 6231.00    0.32744   0.32226   30.540
 6232.00    0.33644   0.32207   29.723
 6233.00    0.34047   0.32182   29.372
 6234.00    0.33767   0.32152   29.615
 6235.00    0.33895   0.32126   29.503
 6236.00    0.35075   0.32103   28.510
 6237.00    0.36912   0.32090   27.091
 6238.00    0.37971   0.32084   26.336
 6239.00    0.36743   0.32084   27.216
 6240.00    0.34256   0.32092   29.192
 6241.00    0.33340   0.32103   29.994
 6242.00    0.34770   0.32109   28.760
 6243.00    0.36835   0.32118   27.148
 6244.00    0.36891   0.32116   27.107
 6245.00    0.33098   0.32112   30.213
 6246.00    0.27349   0.32098   36.564
 6247.00    0.23752   0.32081   -1.000
 6248.00    0.23904   0.32062   -1.000
 6249.00    0.26626   0.32047   37.557
 6250.00    0.29626   0.32043   33.754
 6251.00    0.31130   0.32049   32.124
 6252.00    0.32201   0.32069   31.055
 6253.00    0.34952   0.32103   28.611
 6254.00    0.38648   0.32146   25.875
 6255.00    0.40819   0.32204   24.498
 6256.00    0.40280   0.32267   24.826
 6257.00    0.37442   0.32333   26.708
 6258.00    0.33956   0.32396   29.450
 6259.00    0.31777   0.32458   31.470
 6260.00    0.31883   0.32507   31.365
 6261.00    0.34146   0.32552   29.286
 6262.00    0.37458   0.32586   26.697
 6263.00    0.40119   0.32614   24.926
 6264.00    0.40401   0.32635   24.752
 6265.00    0.37592   0.32651   26.602
 6266.00    0.33096   0.32658   30.215
 6267.00    0.29348   0.32665   34.074
 6268.00    0.28312   0.32664   35.321
 6269.00    0.30287   0.32661   33.018
 6270.00    0.32979   0.32656   30.322
 6271.00    0.33663   0.32650   29.706
 6272.00    0.31447   0.32648   31.799
 6273.00    0.27269   0.32652   36.672
 6274.00    0.23440   0.32662   -1.000
 6275.00    0.21468   0.32678   -1.000
 6276.00    0.20423   0.32704   -1.000
 6277.00    0.19540   0.32734   -1.000
 6278.00    0.20211   0.32769   -1.000
 6279.00    0.23527   0.32804   -1.000
 6280.00    0.28386   0.32836    0.000
 6281.00    0.32794   0.32860    0.000
 6282.00    0.35041   0.32873    0.000
 6283.00    0.34556   0.32883    0.000
 6284.00    0.32349   0.32868    0.000
 6285.00    0.30333   0.32856    0.000
 6286.00    0.30616   0.32820    0.000
 6287.00    0.34077   0.32789    0.000
 6288.00    0.39599   0.32744    0.000
 6289.00    0.44618   0.32707    0.000
 6290.00    0.46038   0.32669    0.000
 6291.00    0.43288   0.32640    0.000
 6292.00    0.39211   0.32614    0.000
 6293.00    0.36411   0.32603    0.000
 6294.00    0.35559   0.32600    0.000
 6295.00    0.36371   0.32613    0.000
 6296.00    0.38145   0.32634    0.000
 6297.00    0.39995   0.32665    0.000
 6298.00    0.41145   0.32702    0.000
 6299.00    0.41752   0.32749    0.000
 6300.00    0.42785   0.32791    0.000
 6301.00    0.44312   0.32836    0.000
 6302.00    0.45135   0.32869    0.000
 6303.00    0.43931   0.32902    0.000
 6304.00    0.40051   0.32922    0.000
 6305.00    0.34711   0.32933    0.000
 6306.00    0.30430   0.32935    0.000
 6307.00    0.28045   0.32932    0.000
 6308.00    0.26543   0.32924    0.000
 6309.00    0.25382   0.32921    0.000
 6310.00    0.24859   0.32915    0.000
 6311.00    0.25160   0.32916    0.000
 6312.00    0.26192   0.32920    0.000
 6313.00    0.27879   0.32936    0.000
 6314.00    0.30052   0.32951    0.000
 6315.00    0.32044   0.32975    0.000
 6316.00    0.32875   0.33005    0.000
 6317.00    0.31923   0.33033    0.000
 6318.00    0.29477   0.33064    0.000
 6319.00    0.27528   0.33089    0.000
 6320.00    0.28477   0.33116    0.000
 6321.00    0.32302   0.33133   30.958
 6322.00    0.36994   0.33149   27.032
 6323.00    0.40433   0.33151   24.733
 6324.00    0.41072   0.33154   24.348
 6325.00    0.38498   0.33144   25.975
 6326.00    0.33631   0.33131   29.735
 6327.00    0.28796   0.33109   34.728
 6328.00    0.26317   0.33092   37.999
 6329.00    0.26374   0.33066   37.917
 6330.00    0.27594   0.33048   36.239
 6331.00    0.28444   0.33018   35.157
 6332.00    0.28260   0.32998   35.385
 6333.00    0.28280   0.32971   35.361
 6334.00    0.30105   0.32948   33.217
 6335.00    0.33608   0.32914   29.755
 6336.00    0.37238   0.32877   26.854
 6337.00    0.38821   0.32843   25.759
 6338.00    0.37176   0.32792   26.899
 6339.00    0.33697   0.32768   29.676
 6340.00    0.30674   0.32716   32.601
 6341.00    0.29335   0.32716   34.089
 6342.00    0.29618   0.32677   33.763
 6343.00    0.30264   0.32694   33.043
 6344.00    0.30126   0.32675   33.194
 6345.00    0.29362   0.32692   34.058
 6346.00    0.29178   0.32675   34.273
 6347.00    0.31288   0.32662   31.961
 6348.00    0.36003   0.32629   27.775
 6349.00    0.41022   0.32592   24.377
 6350.00    0.44241   0.32545   22.604
 6351.00    0.45778   0.32496   -1.000
 6352.00    0.46355   0.32454   -1.000
 6353.00    0.46021   0.32417   -1.000
 6354.00    0.44197   0.32390   22.626
 6355.00    0.40017   0.32378   24.990
 6356.00    0.33972   0.32383   29.436
 6357.00    0.28554   0.32404   35.021
 6358.00    0.25852   0.32429   38.682
 6359.00    0.26155   0.32479   38.234
 6360.00    0.28481   0.32518   35.111
 6361.00    0.31151   0.32585   32.101
 6362.00    0.33038   0.32622   30.268
 6363.00    0.34150   0.32692   29.283
 6364.00    0.35278   0.32728   28.346
 6365.00    0.37472   0.32787   26.687
 6366.00    0.40506   0.32817   24.688
 6367.00    0.42653   0.32856   23.445
 6368.00    0.42736   0.32888   23.399
 6369.00    0.40846   0.32905   24.482
 6370.00    0.37592   0.32926   26.602
 6371.00    0.33759   0.32918   29.622
 6372.00    0.30268   0.32918   33.039
 6373.00    0.27993   0.32899   35.724
 6374.00    0.27224   0.32884   36.732
 6375.00    0.27683   0.32861   36.124
 6376.00    0.29194   0.32841   34.254
 6377.00    0.31648   0.32824   31.597
 6378.00    0.34171   0.32803   29.265
 6379.00    0.35265   0.32789   28.357
 6380.00    0.33977   0.32766   29.432
 6381.00    0.30574   0.32752   32.708
 6382.00    0.27376   0.32731   36.529
 6383.00    0.27425   0.32714   36.463
 6384.00    0.30651   0.32696   32.625
 6385.00    0.34393   0.32682   29.075
 6386.00    0.36997   0.32669   27.029
 6387.00    0.38278   0.32663   26.124
 6388.00    0.38582   0.32660   25.919
 6389.00    0.38340   0.32665   26.083
 6390.00    0.37633   0.32677   26.572
 6391.00    0.36365   0.32698   27.499
 6392.00    0.34772   0.32725   28.759
 6393.00    0.33414   0.32754   29.928
 6394.00    0.32940   0.32789   30.359
 6395.00    0.33450   0.32822   29.895
 6396.00    0.33547   0.32861   29.809
 6397.00    0.31655   0.32895   31.591
 6398.00    0.28337   0.32931   35.290
 6399.00    0.25311   0.32954   39.508
 6400.00    0.23419   0.32969   -1.000
 6401.00    0.22764   0.32974   -1.000
 6402.00    0.23343   0.32968   -1.000
 6403.00    0.24822   0.32957   40.288
 6404.00    0.26191   0.32940   38.181
 6405.00    0.26690   0.32918   37.468
 6406.00    0.26946   0.32897   37.111
 6407.00    0.28200   0.32872   35.461
 6408.00    0.31160   0.32851   32.093
 6409.00    0.35300   0.32833   28.328
 6410.00    0.38438   0.32818   26.016
 6411.00    0.39039   0.32808   25.616
 6412.00    0.38427   0.32798   26.023
 6413.00    0.38162   0.32797   26.204
 6414.00    0.37483   0.32795   26.679
 6415.00    0.35486   0.32800   28.180
 6416.00    0.33192   0.32806   30.128
 6417.00    0.32333   0.32816   30.928
 6418.00    0.34046   0.32823   29.372
 6419.00    0.37838   0.32830   26.428
 6420.00    0.41166   0.32826   24.292
 6421.00    0.42077   0.32823   23.766
 6422.00    0.41026   0.32811   24.375
 6423.00    0.39216   0.32800   25.500
 6424.00    0.37337   0.32787   26.783
 6425.00    0.35618   0.32775   28.075
 6426.00    0.33963   0.32772   29.444
 6427.00    0.32260   0.32774   30.998
 6428.00    0.30574   0.32787   32.708
 6429.00    0.29149   0.32807   34.306
 6430.00    0.28291   0.32832   35.347
 6431.00    0.27710   0.32863   36.088
 6432.00    0.26423   0.32894   37.846
 6433.00    0.24004   0.32927   -1.000
 6434.00    0.21151   0.32959   -1.000
 6435.00    0.19169   0.32985   -1.000
 6436.00    0.19420   0.33001   -1.000
 6437.00    0.22096   0.33005   -1.000
 6438.00    0.26055   0.32990   38.380
 6439.00    0.30483   0.32962   32.805
 6440.00    0.35289   0.32917   28.338
 6441.00    0.39811   0.32865   25.118
 6442.00    0.42678   0.32805   23.431
 6443.00    0.43192   0.32747   23.153
 6444.00    0.41655   0.32693   24.007
 6445.00    0.38630   0.32657   25.887
 6446.00    0.34820   0.32633   28.719
 6447.00    0.31545   0.32626   31.700
 6448.00    0.30392   0.32627   32.904
 6449.00    0.31724   0.32639   31.522
 6450.00    0.34606   0.32653   28.897
 6451.00    0.37919   0.32676   26.372
 6452.00    0.40760   0.32695   24.534
 6453.00    0.42623   0.32718   23.461
 6454.00    0.43285   0.32736   23.103
 6455.00    0.42430   0.32755   23.568
 6456.00    0.39988   0.32769   25.008
 6457.00    0.37093   0.32785   26.960
 6458.00    0.35404   0.32807   28.245
 6459.00    0.35165   0.32821   28.438
 6460.00    0.35414   0.32837   28.238
 6461.00    0.35315   0.32841   28.317
 6462.00    0.34660   0.32839   28.851
 6463.00    0.34245   0.32823   29.201
 6464.00    0.35126   0.32795   28.469
 6465.00    0.37180   0.32759   26.896
 6466.00    0.39229   0.32710   25.491
 6467.00    0.39722   0.32658   25.175
 6468.00    0.37424   0.32596   26.721
 6469.00    0.32324   0.32533   30.937
 6470.00    0.25853   0.32468   38.680
 6471.00    0.20904   0.32405   -1.000
 6472.00    0.20271   0.32338   -1.000
 6473.00    0.24486   0.32270   40.839
 6474.00    0.31654   0.32205   31.591
 6475.00    0.37833   0.32138   26.432
 6476.00    0.39692   0.32075   25.194
 6477.00    0.37595   0.32015   26.599
 6478.00    0.33986   0.31961   29.424
 6479.00    0.31036   0.31903   32.221
 6480.00    0.29764   0.31844   33.598
 6481.00    0.29460   0.31775   33.944
 6482.00    0.28795   0.31698   34.729
 6483.00    0.27013   0.31609   37.019
 6484.00    0.24056   0.31509   41.570
 6485.00    0.20575   0.31402   -1.000
 6486.00    0.18009   0.31293   -1.000
 6487.00    0.18382   0.31191   -1.000
 6488.00    0.21895   0.31100   -1.000
 6489.00    0.25381   0.31029   39.400
 6490.00    0.26263   0.30993   38.077
 6491.00    0.25463   0.30979   39.273
 6492.00    0.24726   0.31007   40.443
 6493.00    0.24544   0.31050   40.743
 6494.00    0.24790   0.31125   40.339
 6495.00    0.25289   0.31205   39.542
 6496.00    0.26041   0.31300   38.401
 6497.00    0.27278   0.31387   36.660
 6498.00    0.29095   0.31473   34.370
 6499.00    0.31207   0.31543   32.044
 6500.00    0.32924   0.31603   30.373
 6501.00    0.33398   0.31646   29.942
 6502.00    0.32926   0.31674   30.372
 6503.00    0.33262   0.31691   30.065
 6504.00    0.35570   0.31694   28.113
 6505.00    0.39480   0.31690   25.329
 6506.00    0.43639   0.31676   22.915
 6507.00    0.46263   0.31661   -1.000
 6508.00    0.46256   0.31642   -1.000
 6509.00    0.43699   0.31627   22.884
 6510.00    0.39759   0.31613   25.152
 6511.00    0.36285   0.31609   27.559
 6512.00    0.34493   0.31610   28.991
 6513.00    0.34322   0.31619   29.135
 6514.00    0.34070   0.31635   29.351
 6515.00    0.31333   0.31653   31.915
 6516.00    0.26536   0.31676   37.685
 6517.00    0.22810   0.31696   -1.000
 6518.00    0.21801   0.31717   -1.000
 6519.00    0.22792   0.31730   -1.000
 6520.00    0.24226   0.31743   41.277
 6521.00    0.24544   0.31745   40.744
 6522.00    0.23130   0.31748   -1.000
 6523.00    0.20502   0.31740   -1.000
 6524.00    0.18058   0.31732   -1.000
 6525.00    0.17272   0.31715   -1.000
 6526.00    0.17945   0.31700   -1.000
 6527.00    0.18664   0.31676   -1.000
 6528.00    0.18829   0.31652    0.000
 6529.00    0.18899   0.31616    0.000
 6530.00    0.19866   0.31575    0.000
 6531.00    0.22415   0.31518    0.000
 6532.00    0.25508   0.31452    0.000
 6533.00    0.27251   0.31364    0.000
 6534.00    0.27029   0.31262    0.000
 6535.00    0.25623   0.31136    0.000
 6536.00    0.24652   0.30996    0.000
 6537.00    0.25495   0.30834    0.000
 6538.00    0.27738   0.30660    0.000
 6539.00    0.29999   0.30467    0.000
 6540.00    0.31603   0.30266    0.000
 6541.00    0.32619   0.30045    0.000
 6542.00    0.33519   0.29811    0.000
 6543.00    0.34882   0.29554    0.000
 6544.00    0.37061   0.29277    0.000
 6545.00    0.40324   0.28970    0.000
 6546.00    0.45038   0.28635    0.000
 6547.00    0.51056   0.28265    0.000
 6548.00    0.56973   0.27866    0.000
 6549.00    0.60747   0.27436    0.000
 6550.00    0.60554   0.26987    0.000
 6551.00    0.55701   0.26530    0.000
 6552.00    0.47445   0.26081    0.000
 6553.00    0.38430   0.25669    0.000
 6554.00    0.31896   0.25304    0.000
 6555.00    0.30032   0.25037    0.000
 6556.00    0.32937   0.24867    0.000
 6557.00    0.42688   0.24828    0.000
 6558.00    0.66350   0.24887    0.000
 6559.00    1.09904   0.25073    0.000
 6560.00    1.72652   0.25340    0.000
 6561.00    2.44540   0.25693    0.000
 6562.00    3.05745   0.26085    0.000
 6563.00    3.37504   0.26509    0.000
 6564.00    3.30406   0.26929    0.000
 6565.00    2.86431   0.27340    0.000
 6566.00    2.19025   0.27725    0.000
 6567.00    1.46396   0.28079    0.000
 6568.00    0.85949   0.28403    0.000
 6569.00    0.46959   0.28691    0.000
 6570.00    0.27546   0.28953    0.000
 6571.00    0.21797   0.29186    0.000
 6572.00    0.24052   0.29395    0.000
 6573.00    0.29472   0.29587    0.000
 6574.00    0.34378   0.29755    0.000
 6575.00    0.36863   0.29916    0.000
 6576.00    0.37055   0.30050    0.000
 6577.00    0.36918   0.30180    0.000
 6578.00    0.39698   0.30285    0.000
 6579.00    0.48008   0.30384    0.000
 6580.00    0.62612   0.30459    0.000
 6581.00    0.81043   0.30524    0.000
 6582.00    0.97945   0.30568    0.000
 6583.00    1.08379   0.30602    0.000
 6584.00    1.09327   0.30624    0.000
 6585.00    1.00321   0.30642    0.000
 6586.00    0.83653   0.30654    0.000
 6587.00    0.64300   0.30667    0.000
 6588.00    0.48423   0.30682    0.000
 6589.00    0.38933   0.30701    0.000
 6590.00    0.34956   0.30725    0.000
 6591.00    0.34408   0.30754    0.000
 6592.00    0.35197   0.30784    0.000
 6593.00    0.36295   0.30816    0.000
 6594.00    0.37620   0.30842    0.000
 6595.00    0.38986   0.30868    0.000
 6596.00    0.39850   0.30885    0.000
 6597.00    0.39382   0.30901    0.000
 6598.00    0.37000   0.30908    0.000
 6599.00    0.33481   0.30916    0.000
 6600.00    0.30442   0.30918    0.000
 6601.00    0.28741   0.30925    0.000
 6602.00    0.28498   0.30929    0.000
 6603.00    0.29808   0.30940    0.000
 6604.00    0.32603   0.30949    0.000
 6605.00    0.36142   0.30965    0.000
 6606.00    0.39379   0.30977    0.000
 6607.00    0.41742   0.30993    0.000
 6608.00    0.43016   0.31002    0.000
 6609.00    0.42945   0.31012   23.286
 6610.00    0.41521   0.31011   24.084
 6611.00    0.39497   0.31008   25.318
 6612.00    0.37823   0.30993   26.439
 6613.00    0.36741   0.30974   27.217
 6614.00    0.36075   0.30946   27.720
 6615.00    0.35772   0.30913   27.955
 6616.00    0.35736   0.30875   27.983
 6617.00    0.35551   0.30835   28.129
 6618.00    0.34962   0.30794   28.603
 6619.00    0.34413   0.30754   29.059
 6620.00    0.34257   0.30719   29.191
 6621.00    0.33863   0.30686   29.530
 6622.00    0.32378   0.30662   30.885
 6623.00    0.29669   0.30637   33.705
 6624.00    0.26933   0.30623   37.130
 6625.00    0.26905   0.30607   37.168
 6626.00    0.30834   0.30601   32.432
 6627.00    0.35977   0.30591   27.795
 6628.00    0.38677   0.30589   25.855
 6629.00    0.37255   0.30583   26.842
 6630.00    0.32325   0.30582   30.936
 6631.00    0.26602   0.30578   37.591
 6632.00    0.22868   0.30573   42.543
 6633.00    0.22414   0.30567   -1.000
 6634.00    0.25160   0.30557   39.746
 6635.00    0.29884   0.30546   33.463
 6636.00    0.34717   0.30529   28.804
 6637.00    0.37610   0.30511   26.589
 6638.00    0.37221   0.30488   26.867
 6639.00    0.33545   0.30464   29.811
 6640.00    0.28340   0.30434   35.286
 6641.00    0.24777   0.30403   40.360
 6642.00    0.24318   0.30367   41.122
 6643.00    0.25533   0.30332   39.165
 6644.00    0.27116   0.30291   36.878
 6645.00    0.29132   0.30253   34.327
 6646.00    0.31188   0.30211   32.064
 6647.00    0.31933   0.30173   31.316
 6648.00    0.30984   0.30132   32.275
 6649.00    0.29613   0.30096   33.769
 6650.00    0.29753   0.30060   33.610
 6651.00    0.32967   0.30025   30.333
 6652.00    0.38205   0.29995   26.175
 6653.00    0.42001   0.29964   -1.000
 6654.00    0.42506   0.29941   -1.000
 6655.00    0.40577   0.29919   24.644
 6656.00    0.38108   0.29907   26.241
 6657.00    0.36824   0.29899   27.156
 6658.00    0.36438   0.29900   27.444
 6659.00    0.35048   0.29905   28.532
 6660.00    0.32178   0.29917   31.078
 6661.00    0.28836   0.29929   34.679
 6662.00    0.24988   0.29940   40.019
 6663.00    0.19943   0.29947   -1.000
 6664.00    0.15330   0.29944   -1.000
 6665.00    0.14341   0.29930   -1.000
 6666.00    0.17823   0.29905   -1.000
 6667.00    0.24038   0.29865   41.601
 6668.00    0.30539   0.29818   32.745
 6669.00    0.35123   0.29758   28.472
 6670.00    0.36902   0.29702   27.099
 6671.00    0.36267   0.29639   27.573
 6672.00    0.34301   0.29590   29.153
 6673.00    0.32322   0.29542   30.939
 6674.00    0.31223   0.29511   32.028
 6675.00    0.31095   0.29487   32.159
 6676.00    0.30829   0.29476   32.437
 6677.00    0.29205   0.29474   34.241
 6678.00    0.26814   0.29477   37.294
 6679.00    0.25462   0.29489   39.274
 6680.00    0.26644   0.29498   37.532
 6681.00    0.30692   0.29514   32.581
 6682.00    0.35962   0.29523   27.807
 6683.00    0.40139   0.29537   24.913
 6684.00    0.42253   0.29542   -1.000
 6685.00    0.42768   0.29552   -1.000
 6686.00    0.43242   0.29554   -1.000
 6687.00    0.44891   0.29562   -1.000
 6688.00    0.46973   0.29565   -1.000
 6689.00    0.48309   0.29573   -1.000
 6690.00    0.49182   0.29579   -1.000
 6691.00    0.50082   0.29587   -1.000
 6692.00    0.50199   0.29596   -1.000
 6693.00    0.48451   0.29604   -1.000
 6694.00    0.44688   0.29611   -1.000
 6695.00    0.39538   0.29616   25.292
 6696.00    0.34075   0.29617    0.000
 6697.00    0.29206   0.29614    0.000
 6698.00    0.25234   0.29605    0.000
 6699.00    0.22809   0.29590    0.000
 6700.00    0.23496   0.29566    0.000
 6701.00    0.27367   0.29537    0.000
 6702.00    0.31546   0.29495    0.000
 6703.00    0.34103   0.29447    0.000
 6704.00    0.36606   0.29386    0.000
 6705.00    0.40480   0.29320    0.000
 6706.00    0.44520   0.29244    0.000
 6707.00    0.46262   0.29168    0.000
 6708.00    0.43491   0.29089    0.000
 6709.00    0.37192   0.29015    0.000
 6710.00    0.32514   0.28947    0.000
 6711.00    0.33835   0.28890    0.000
 6712.00    0.42050   0.28846    0.000
 6713.00    0.55904   0.28817    0.000
 6714.00    0.72850   0.28800    0.000
 6715.00    0.89260   0.28797    0.000
 6716.00    1.00872   0.28804    0.000
 6717.00    1.04418   0.28822    0.000
 6718.00    0.98607   0.28843    0.000
 6719.00    0.84917   0.28870    0.000
 6720.00    0.67443   0.28896    0.000
 6721.00    0.50781   0.28924    0.000
 6722.00    0.38989   0.28948    0.000
 6723.00    0.35082   0.28971    0.000
 6724.00    0.40286   0.28989    0.000
 6725.00    0.52093   0.29003    0.000
 6726.00    0.65070   0.29014    0.000
 6727.00    0.76040   0.29019    0.000
 6728.00    0.84692   0.29022    0.000
 6729.00    0.89706   0.29020    0.000
 6730.00    0.88618   0.29016    0.000
 6731.00    0.81266   0.29009    0.000
 6732.00    0.70135   0.29000    0.000
 6733.00    0.58304   0.28988    0.000
 6734.00    0.48493   0.28976    0.000
 6735.00    0.42178   0.28961    0.000
 6736.00    0.39307   0.28945    0.000
 6737.00    0.38211   0.28927    0.000
 6738.00    0.36608   0.28909    0.000
 6739.00    0.33906   0.28889    0.000
 6740.00    0.31031   0.28870    0.000
 6741.00    0.28849   0.28851    0.000
 6742.00    0.27916   0.28836    0.000
 6743.00    0.28675   0.28825    0.000
 6744.00    0.31099   0.28819    0.000
 6745.00    0.33976   0.28819    0.000
 6746.00    0.35616   0.28826    0.000
 6747.00    0.35354   0.28839    0.000
 6748.00    0.33714   0.28858    0.000
 6749.00    0.32178   0.28879    0.000
 6750.00    0.31923   0.28904    0.000
 6751.00    0.32004   0.28928    0.000
 6752.00    0.30871   0.28950    0.000
 6753.00    0.28966   0.28969   34.523
 6754.00    0.27654   0.28984   36.161
 6755.00    0.27256   0.28996   36.689
 6756.00    0.27269   0.29002   36.671
 6757.00    0.27030   0.29007   36.995
 6758.00    0.26268   0.29010   38.069
 6759.00    0.25620   0.29014   39.032
 6760.00    0.26023   0.29020   38.428
 6761.00    0.27901   0.29029   35.841
 6762.00    0.30773   0.29043   32.496
 6763.00    0.33025   0.29060   30.280
 6764.00    0.33179   0.29082   30.140
 6765.00    0.31168   0.29103   32.085
 6766.00    0.27987   0.29126   35.730
 6767.00    0.25175   0.29143   39.722
 6768.00    0.24033   0.29155   41.609
 6769.00    0.24987   0.29157   40.021
 6770.00    0.27721   0.29148   36.074
 6771.00    0.31404   0.29125   31.843
 6772.00    0.35182   0.29090   28.424
 6773.00    0.38520   0.29042   25.960
 6774.00    0.40914   0.28985   -1.000
 6775.00    0.41763   0.28922   -1.000
 6776.00    0.41122   0.28856   -1.000
 6777.00    0.40030   0.28793   24.981
 6778.00    0.39155   0.28733   25.539
 6779.00    0.38066   0.28684   26.270
 6780.00    0.36300   0.28642   27.548
 6781.00    0.34074   0.28614   29.348
 6782.00    0.32401   0.28594   30.863
 6783.00    0.32693   0.28587   30.588
 6784.00    0.34432   0.28587   29.043
 6785.00    0.34717   0.28596   28.804
 6786.00    0.32257   0.28610   31.001
 6787.00    0.28889   0.28630   34.615
 6788.00    0.27049   0.28652   36.971
 6789.00    0.28166   0.28679   35.504
 6790.00    0.31217   0.28707   32.034
 6791.00    0.33015   0.28735   30.290
 6792.00    0.31920   0.28764   31.328
 6793.00    0.28923   0.28792   34.575
 6794.00    0.25731   0.28818   38.863
 6795.00    0.23670   0.28842   42.248
 6796.00    0.22564   0.28862   42.543
 6797.00    0.21197   0.28879   -1.000
 6798.00    0.20112   0.28892   -1.000
 6799.00    0.21337   0.28902   -1.000
 6800.00    0.24522   0.28908   40.780
 6801.00    0.26876   0.28910   37.208
 6802.00    0.26656   0.28908   37.515
 6803.00    0.24219   0.28904   41.291
 6804.00    0.21916   0.28896   42.543
 6805.00    0.22697   0.28887   42.543
 6806.00    0.26706   0.28876   37.445
 6807.00    0.31675   0.28865   31.571
 6808.00    0.36039   0.28855   27.748
 6809.00    0.39176   0.28846   25.526
 6810.00    0.40186   0.28842   24.884
 6811.00    0.38391   0.28839   26.047
 6812.00    0.34948   0.28842   28.614
 6813.00    0.31842   0.28846   31.405
 6814.00    0.29261   0.28854   34.175
 6815.00    0.26311   0.28861   38.007
 6816.00    0.23323   0.28871   42.543
 6817.00    0.21447   0.28878   42.543
 6818.00    0.21165   0.28884   -1.000
 6819.00    0.22267   0.28888   42.543
 6820.00    0.24265   0.28891   41.211
 6821.00    0.26957   0.28892   37.096
 6822.00    0.31101   0.28891   32.153
 6823.00    0.36974   0.28889   27.046
 6824.00    0.42268   0.28887   -1.000
 6825.00    0.44145   0.28884   -1.000
 6826.00    0.42352   0.28880   -1.000
 6827.00    0.38154   0.28875   26.210
 6828.00    0.32480   0.28870   30.789
 6829.00    0.26562   0.28863   37.648
 6830.00    0.22830   0.28856   42.543
 6831.00    0.23171   0.28848   42.543
 6832.00    0.26916   0.28843   37.152
 6833.00    0.31621   0.28838   31.624
 6834.00    0.34314   0.28838   29.143
 6835.00    0.33646   0.28836   29.721
 6836.00    0.31663   0.28841   31.583
 6837.00    0.31253   0.28842   31.997
 6838.00    0.33598   0.28847   29.764
 6839.00    0.37965   0.28845   26.340
 6840.00    0.41939   0.28844   -1.000
 6841.00    0.43452   0.28833   -1.000
 6842.00    0.42349   0.28820   -1.000
 6843.00    0.39632   0.28798   25.232
 6844.00    0.36710   0.28774   27.241
 6845.00    0.34866   0.28744   28.681
 6846.00    0.34818   0.28713   28.721
 6847.00    0.36078   0.28681   27.718
 6848.00    0.36771   0.28651   27.195
 6849.00    0.35109   0.28624   28.483
 6850.00    0.30496   0.28602   32.791
 6851.00    0.24401   0.28585   40.982
 6852.00    0.20332   0.28574   -1.000
 6853.00    0.20906   0.28568   -1.000
 6854.00    0.26005   0.28569   38.454
 6855.00    0.31923   0.28572   31.326
 6856.00    0.32934   0.28581   30.364
 6857.00    0.30816   0.28589   32.451
 6858.00    0.35477   0.28600   28.187
 6859.00    0.46228   0.28609   -1.000
 6860.00    0.48787   0.28620   -1.000
 6861.00    0.40054   0.28630   -1.000
 6862.00    0.33298   0.28641   30.032
 6863.00    0.34893   0.28652   28.659
 6864.00    0.38514   0.28667   25.964
 6865.00    0.39970   0.28682   25.019
 6866.00    0.40985   0.28702   -1.000
 6867.00    0.41908   0.28722   -1.000
 6868.00    0.40644   0.28746   -1.000
 6869.00    0.37942   0.28765   26.356
 6870.00    0.37451   0.28788   26.701
 6871.00    0.40308   0.28801   -1.000
 6872.00    0.44374   0.28818   -1.000
 6873.00    0.47044   0.28825   -1.000
 6874.00    0.46654   0.28833   -1.000
 6875.00    0.43906   0.28837   -1.000
 6876.00    0.41100   0.28843   -1.000
 6877.00    0.39216   0.28850   25.500
 6878.00    0.37679   0.28860   26.540
 6879.00    0.35600   0.28877   28.090
 6880.00    0.32552   0.28894   30.720
 6881.00    0.29546   0.28921   33.846
 6882.00    0.28202   0.28945   35.459
 6883.00    0.28618   0.28976   34.944
 6884.00    0.29749   0.29001   33.614
 6885.00    0.31031   0.29029   32.226
 6886.00    0.32335   0.29049   30.926
 6887.00    0.33318   0.29070   30.014
 6888.00    0.33799   0.29083   29.587
 6889.00    0.34582   0.29097   28.917
 6890.00    0.36667   0.29105   27.273
 6891.00    0.39776   0.29114   25.141
 6892.00    0.42645   0.29122   -1.000
 6893.00    0.43860   0.29130   -1.000
 6894.00    0.42516   0.29141   -1.000
 6895.00    0.38959   0.29152   25.668
 6896.00    0.34458   0.29168   29.021
 6897.00    0.30588   0.29183   32.692
 6898.00    0.28302   0.29200   35.333
 6899.00    0.26955   0.29215   37.099
 6900.00    0.25266   0.29228   39.579
 6901.00    0.22643   0.29237   42.543
 6902.00    0.19772   0.29241   -1.000
 6903.00    0.18910   0.29240   -1.000
 6904.00    0.21666   0.29231   42.543
 6905.00    0.26765   0.29219   37.363
 6906.00    0.31258   0.29200   31.992
 6907.00    0.32185   0.29179   31.071
 6908.00    0.29110   0.29155   34.353
 6909.00    0.25822   0.29130   38.727
 6910.00    0.25610   0.29105   39.048
 6911.00    0.27449   0.29081   36.431
 6912.00    0.29425   0.29060   33.985
 6913.00    0.31570   0.29038   31.676
 6914.00    0.34363   0.29022   29.101
 6915.00    0.37454   0.29006   26.699
 6916.00    0.39793   0.28996   25.130
 6917.00    0.40012   0.28988   24.993
 6918.00    0.37959   0.28984   26.344
 6919.00    0.35381   0.28985   28.263
 6920.00    0.33807   0.28987   29.580
 6921.00    0.33361   0.28995   29.975
 6922.00    0.33903   0.29002   29.496
 6923.00    0.35565   0.29012   28.117
 6924.00    0.37799   0.29022   26.456
 6925.00    0.39129   0.29033   25.556
 6926.00    0.38682   0.29044   25.852
 6927.00    0.36936   0.29053   27.074
 6928.00    0.35383   0.29064   28.262
 6929.00    0.35863   0.29072   27.884
 6930.00    0.38432   0.29082   26.020
 6931.00    0.40978   0.29090   -1.000
 6932.00    0.41702   0.29097   -1.000
 6933.00    0.40121   0.29104   24.924
 6934.00    0.36733   0.29110   27.223
 6935.00    0.32682   0.29116   30.598
 6936.00    0.29101   0.29122   34.363
 6937.00    0.26822   0.29128   37.283
 6938.00    0.26222   0.29134   38.136
 6939.00    0.27252   0.29141   36.695
 6940.00    0.29685   0.29146   33.687
 6941.00    0.32989   0.29152   30.313
 6942.00    0.35706   0.29156   28.006
 6943.00    0.35966   0.29161   27.804
 6944.00    0.33445   0.29163   29.900
 6945.00    0.29558   0.29167   33.831
 6946.00    0.26416   0.29170   37.856
 6947.00    0.25958   0.29174   38.524
 6948.00    0.28565   0.29182   35.008
 6949.00    0.33170   0.29192   30.148
 6950.00    0.38332   0.29207   26.088
 6951.00    0.42427   0.29224   -1.000
 6952.00    0.43509   0.29246   -1.000
 6953.00    0.40295   0.29268   24.817
 6954.00    0.34164   0.29294   29.271
 6955.00    0.28313   0.29318   35.319
 6956.00    0.25333   0.29341   39.474
 6957.00    0.25969   0.29362   38.508
 6958.00    0.27884   0.29378   35.863
 6959.00    0.27924   0.29392   35.812
 6960.00    0.26223   0.29398   38.135
 6961.00    0.25160   0.29400   39.746
 6962.00    0.26555   0.29396   37.658
 6963.00    0.30645   0.29385   32.631
 6964.00    0.35322   0.29370   28.311
 6965.00    0.37735   0.29350   26.501
 6966.00    0.36679   0.29328   27.264
 6967.00    0.32535   0.29303   30.736
 6968.00    0.26713   0.29282   37.435
 6969.00    0.20926   0.29262   -1.000
 6970.00    0.16414   0.29251   -1.000
 6971.00    0.14262   0.29247   -1.000
 6972.00    0.15766   0.29253   -1.000
 6973.00    0.20891   0.29267   -1.000
 6974.00    0.26793   0.29290   37.324
 6975.00    0.30536   0.29318   32.749
 6976.00    0.31912   0.29349   31.336
 6977.00    0.32132   0.29380   31.122
 6978.00    0.32292   0.29406   30.967
 6979.00    0.33311   0.29429   30.020
 6980.00    0.35915   0.29444   27.844
 6981.00    0.40032   0.29452   24.980
 6982.00    0.44385   0.29454   -1.000
 6983.00    0.47436   0.29449   -1.000
 6984.00    0.48209   0.29441   -1.000
 6985.00    0.46629   0.29428   -1.000
 6986.00    0.43677   0.29416   -1.000
 6987.00    0.40952   0.29398   -1.000
 6988.00    0.40177   0.29383   24.890
 6989.00    0.41995   0.29363   -1.000
 6990.00    0.45254   0.29346   -1.000
 6991.00    0.47449   0.29326   -1.000
 6992.00    0.45548   0.29309   -1.000
 6993.00    0.39040   0.29290   25.615
 6994.00    0.31122   0.29275   32.132
 6995.00    0.25556   0.29261   39.129
 6996.00    0.24642   0.29250   40.581
 6997.00    0.27948   0.29243   35.781
 6998.00    0.32389   0.29237   30.874
 6999.00    0.35467   0.29236   28.195
 7000.00    0.36683   0.29233   27.260
 7001.00    0.36824   0.29234   -2.000
 7002.00    0.37311   0.29232   -2.000
 7003.00    0.39036   0.29231   -2.000
 7004.00    0.41795   0.29227   -2.000
 7005.00    0.44050   0.29224   -2.000
 7006.00    0.43762   0.29220   -2.000
 7007.00    0.41644   0.29218   -2.000
 7008.00    0.40900   0.29218   -2.000
 7009.00    0.42334   0.29223   -2.000
 7010.00    0.43747   0.29231   -2.000
 7011.00    0.43502   0.29246   -2.000
 7012.00    0.41499   0.29265   -2.000
 7013.00    0.38518   0.29287   -2.000
 7014.00    0.35749   0.29313   -2.000
 7015.00    0.34066   0.29339   -2.000
 7016.00    0.33836   0.29367   -2.000
 7017.00    0.34957   0.29393   -2.000
 7018.00    0.36957   0.29418   -2.000
 7019.00    0.39201   0.29440   -2.000
 7020.00    0.40891   0.29460   -2.000
 7021.00    0.40943   0.29477   -2.000
 7022.00    0.38740   0.29492   -2.000
 7023.00    0.35740   0.29505   -2.000
 7024.00    0.34445   0.29516   -2.000
 7025.00    0.35654   0.29527   -2.000
 7026.00    0.38455   0.29537   -2.000
 7027.00    0.41315   0.29550   -2.000
 7028.00    0.42884   0.29562   -2.000
 7029.00    0.43026   0.29582   -2.000
 7030.00    0.42580   0.29602   -2.000
 7031.00    0.42603   0.29632   -2.000
 7032.00    0.43064   0.29659   -2.000
 7033.00    0.41277   0.29693   -2.000
 7034.00    0.36611   0.29720   -2.000
 7035.00    0.37040   0.29749   -2.000
 7036.00    0.48354   0.29761   -2.000
 7037.00    0.59117   0.29766   -2.000
 7038.00    0.56558   0.29746   -2.000
 7039.00    0.48498   0.29712   -2.000
 7040.00    0.47898   0.29651   -2.000
 7041.00    0.51613   0.29570   -2.000
 7042.00    0.50659   0.29462   -2.000
 7043.00    0.44441   0.29335   -2.000
 7044.00    0.37461   0.29189   -2.000
 7045.00    0.33929   0.29028   -2.000
 7046.00    0.35308   0.28859   -2.000
 7047.00    0.38749   0.28685   -2.000
 7048.00    0.41043   0.28513   -2.000
 7049.00    0.42176   0.28346   -2.000
 7050.00    0.42380   0.28192   -2.000
 7051.00    0.39854   0.28051   -2.000
 7052.00    0.36160   0.27929   -2.000
 7053.00    0.39222   0.27824   -2.000
 7054.00    0.49641   0.27740   -2.000
 7055.00    0.52817   0.27673   -2.000
 7056.00    0.41873   0.27627   -2.000
 7057.00    0.31423   0.27594   -2.000
 7058.00    0.32460   0.27581   -2.000
 7059.00    0.37095   0.27575   -2.000
 7060.00    0.37026   0.27588   -2.000
 7061.00    0.34672   0.27604   -2.000
 7062.00    0.33921   0.27634   -2.000
 7063.00    0.34516   0.27664   -2.000
 7064.00    0.34502   0.27701   -2.000
 7065.00    0.32128   0.27735   -2.000
 7066.00    0.27561   0.27768   -2.000
 7067.00    0.23301   0.27795   -2.000
 7068.00    0.21826   0.27814   -2.000
 7069.00    0.24135   0.27822   -2.000
 7070.00    0.28611   0.27818   -2.000
 7071.00    0.31555   0.27797   -2.000
 7072.00    0.31666   0.27760   -2.000
 7073.00    0.31094   0.27704   -2.000
 7074.00    0.31639   0.27629   -2.000
 7075.00    0.33280   0.27539   -2.000
 7076.00    0.34791   0.27428   -2.000
 7077.00    0.34591   0.27308   -2.000
 7078.00    0.32781   0.27173   -2.000
 7079.00    0.30962   0.27037   -2.000
 7080.00    0.29211   0.26895   -2.000
 7081.00    0.26123   0.26763   -2.000
 7082.00    0.22148   0.26636   -2.000
 7083.00    0.19488   0.26525   -2.000
 7084.00    0.18673   0.26432   -2.000
 7085.00    0.18591   0.26356   -2.000
 7086.00    0.19348   0.26305   -2.000
 7087.00    0.21950   0.26267   -2.000
 7088.00    0.25451   0.26256   -2.000
 7089.00    0.27784   0.26253   -2.000
 7090.00    0.29472   0.26274   -2.000
 7091.00    0.32601   0.26297   -2.000
 7092.00    0.36520   0.26335   -2.000
 7093.00    0.38181   0.26374   -2.000
 7094.00    0.34996   0.26418   -2.000
 7095.00    0.26886   0.26463   -2.000
 7096.00    0.18866   0.26505   -2.000
 7097.00    0.17323   0.26550   -2.000
 7098.00    0.22319   0.26587   -2.000
 7099.00    0.28971   0.26628   -2.000
 7100.00    0.32470   0.26662   -2.000
 7101.00    0.30912   0.26699   -2.000
 7102.00    0.28184   0.26732   -2.000
 7103.00    0.29193   0.26766   -2.000
 7104.00    0.32169   0.26799   -2.000
 7105.00    0.33109   0.26831   -2.000
 7106.00    0.33566   0.26862   -2.000
 7107.00    0.36601   0.26890   -2.000
 7108.00    0.40068   0.26914   -2.000
 7109.00    0.40213   0.26929   -2.000
 7110.00    0.37241   0.26936   -2.000
 7111.00    0.33879   0.26927   -2.000
 7112.00    0.32713   0.26905   -2.000
 7113.00    0.34239   0.26864   -2.000
 7114.00    0.35440   0.26808   -2.000
 7115.00    0.34504   0.26732   -2.000
 7116.00    0.35210   0.26643   -2.000
 7117.00    0.38999   0.26541   -2.000
 7118.00    0.37949   0.26433   -2.000
 7119.00    0.27334   0.26322   -2.000
 7120.00    0.16578   0.26213   -2.000
 7121.00    0.17101   0.26113   -2.000
 7122.00    0.30729   0.26024   -2.000
 7123.00    0.48357   0.25950   -2.000
 7124.00    0.52247   0.25892   -2.000
 7125.00    0.37330   0.25851   -2.000
 7126.00    0.23508   0.25827   -2.000
 7127.00    0.25893   0.25815   -2.000
 7128.00    0.35576   0.25820   -2.000
 7129.00    0.40269   0.25829   -2.000
 7130.00    0.38427   0.25849   -2.000
 7131.00    0.34081   0.25870   -2.000
 7132.00    0.32355   0.25896   -2.000
 7133.00    0.35740   0.25921   -2.000
 7134.00    0.42378   0.25947   -2.000
 7135.00    0.48380   0.25969   -2.000
 7136.00    0.49656   0.25993   -2.000
 7137.00    0.44319   0.26016   -2.000
 7138.00    0.34005   0.26040   -2.000
 7139.00    0.24226   0.26066   -2.000
 7140.00    0.22572   0.26094   -2.000
 7141.00    0.30053   0.26125   -2.000
 7142.00    0.39283   0.26158   -2.000
 7143.00    0.43928   0.26195   -2.000
 7144.00    0.42421   0.26235   -2.000
 7145.00    0.35992   0.26274   -2.000
 7146.00    0.27471   0.26311   -2.000
 7147.00    0.20083   0.26345   -2.000
 7148.00    0.16537   0.26374   -2.000
 7149.00    0.17471   0.26397   -2.000
 7150.00    0.21288   0.26410   -2.000
 7151.00    0.25411   0.26419   -2.000
 7152.00    0.27448   0.26414   -2.000
 7153.00    0.27354   0.26412   -2.000
 7154.00    0.27301   0.26399   -2.000
 7155.00    0.29355   0.26392   -2.000
 7156.00    0.34588   0.26377   -2.000
 7157.00    0.42614   0.26371   -2.000
 7158.00    0.51250   0.26364   -2.000
 7159.00    0.56087   0.26365   -2.000
 7160.00    0.53276   0.26369   -2.000
 7161.00    0.46074   0.26377   -2.000
 7162.00    0.41084   0.26391   -2.000
 7163.00    0.36772   0.26403   -2.000
 7164.00    0.27530   0.26420   -2.000
 7165.00    0.17183   0.26434   -2.000
 7166.00    0.14445   0.26450   -2.000
 7167.00    0.18801   0.26459   -2.000
 7168.00    0.23457   0.26469   -2.000
 7169.00    0.25752   0.26473   -2.000
 7170.00    0.27559   0.26480   -2.000
 7171.00    0.32489   0.26480   -2.000
 7172.00    0.42343   0.26483   -2.000
 7173.00    0.52489   0.26481   -2.000
 7174.00    0.56421   0.26480   -2.000
 7175.00    0.53591   0.26477   -2.000
 7176.00    0.47790   0.26474   -2.000
 7177.00    0.43070   0.26472   -2.000
 7178.00    0.41078   0.26470   -2.000
 7179.00    0.38646   0.26471   -2.000
 7180.00    0.32920   0.26470   -2.000
 7181.00    0.27660   0.26472   -2.000
 7182.00    0.27234   0.26474   -2.000
 7183.00    0.29098   0.26478   -2.000
 7184.00    0.28621   0.26480   -2.000
 7185.00    0.25249   0.26484   -2.000
 7186.00    0.21551   0.26483   -2.000
 7187.00    0.21185   0.26486   -2.000
 7188.00    0.24626   0.26481   -2.000
 7189.00    0.26229   0.26479   -2.000
 7190.00    0.24498   0.26469   -2.000
 7191.00    0.29707   0.26461   -2.000
 7192.00    0.45930   0.26450   -2.000
 7193.00    0.57690   0.26439   -2.000
 7194.00    0.52202   0.26428   -2.000
 7195.00    0.36411   0.26415   -2.000
 7196.00    0.23077   0.26405   -2.000
 7197.00    0.19140   0.26395   -2.000
 7198.00    0.24906   0.26394   -2.000
 7199.00    0.34579   0.26392   -2.000
 7200.00    0.40301   0.26401   -2.000
 7201.00    0.35859   0.26411   -2.000
 7202.00    0.22958   0.26430   -2.000
 7203.00    0.12682   0.26454   -2.000
 7204.00    0.11886   0.26485   -2.000
 7205.00    0.16668   0.26524   -2.000
 7206.00    0.21114   0.26564   -2.000
 7207.00    0.22717   0.26615   -2.000
 7208.00    0.24168   0.26662   -2.000
 7209.00    0.31919   0.26717   -2.000
 7210.00    0.45701   0.26767   -2.000
 7211.00    0.56231   0.26821   -2.000
 7212.00    0.57709   0.26871   -2.000
 7213.00    0.52268   0.26921   -2.000
 7214.00    0.44175   0.26973   -2.000
 7215.00    0.36865   0.27016   -2.000
 7216.00    0.31543   0.27064   -2.000
 7217.00    0.27346   0.27101   -2.000
 7218.00    0.23860   0.27139   -2.000
