###################################################################
## OUTPUT of StarlightChains_v04.for    [Cid@UFSC - 01/Apr/2007] ##
###################################################################

## Some input info
2011jk.txt                               [arq_obs]
Base.CB07.vall.4m                        [arq_base]
Masks.EmLines.NEW.gm                     [arq_masks]
StCv04.C11.config                        [arq_config]
   66                                    [N_base]
    0                                    [N_YAV_components = # of components with extra extinction!]
    0                                    [i_FitPowerLaw (1/0 = Yes/No)]
-9.99                                    [alpha_PowerLaw]
CCM                                      [red_law_option]
 1.458241                                [q_norm = A(l_norm)/A(V)]

## (Re)Sampling Parameters
 3741.00                                 [l_ini (A)]
 7218.00                                 [l_fin (A)]
    1.00                                 [dl    (A)]     (OBS: dl_cushion =    50.00 A)

## Normalization info
 4020.00                                 [l_norm (A) - for base]
 4010.00                                 [llow_norm (A) - window for f_obs]
 4060.00                                 [lupp_norm (A) - window for f_obs]
6.221307E-17                             [fobs_norm (in input units)]

## S/N
 3691.00                                 [llow_SN (A) - window for S/N]
 7268.00                                 [lupp_SN (A) - window for S/N]
   2.082                                 [S/N in S/N window]
   4.404                                 [S/N in norm. window]
   4.903                                 [S/N_err in S/N window]
  10.371                                 [S/N_err in norm. window]
  1.0000                                 [fscale_chi2]

## etc...
    -2007386                             [idum_orig]
  2383                                   [NOl_eff]
  2289                                   [Nl_eff]
    94    NSIGMA                         [Ntot_cliped & clip_method]
   655830                                [Nglobal_steps]
   7                                     [N_chains]
  15                                     [NEX0s_base = N_base in EX0s-fits]
 0   0   1       55   2.0   2.779E+01    [Clip-Bug, RC-Crash & Burn-In warning-flags, n_censored_weights, wei_nsig_threshold & wei_limit]
    13     13.185     12.674      0.511  [idt_all, wdt_TotTime, wdt_UsrTime & wdt_SysTime (sec)]

## Synthesis Results - Best model ##

 5.83716E-01                             [chi2/Nl_eff]
    10.88792                             [adev (%)]

    87.42492                             [sum-of-x (%)]
 2.66261E-17                             [Flux_tot (units of input spectrum!)]
 3.05966E-14                             [Mini_tot (???)]
 1.95728E-14                             [Mcor_tot (???)]

-169.27                                  [v0_min  (km/s)]
 138.36                                  [vd_min  (km/s)]
-0.5318                                  [AV_min  (mag)]
 0.0000                                  [YAV_min (mag)]

# j     x_j(%)      Mini_j(%)     Mcor_j(%)     age_j(yr)     Z_j      (L/M)_j    YAV?  Mstars   component_j        a/Fe...       SSP_chi2r SSP_adev(%)   SSP_AV   SSP_x(%)
  1      0.0000     0.0000E+00    0.0000E+00    1.000000E+06  0.00400  1.094E-02    0   1.0000   age020_m42            0.0000     8.4861E-01    11.9122   1.3031    73.1890
  2      0.0000     0.0000E+00    0.0000E+00    3.160000E+06  0.00400  4.007E-02    0   0.9999   age045_m42            0.0000     6.7270E-01    11.5571   0.5061    80.8154
  3      0.0000     0.0000E+00    0.0000E+00    5.010000E+06  0.00400  2.539E-02    0   0.9488   age055_m42            0.0000     7.1580E-01    11.5893   0.8568    77.7337
  4      0.0000     0.0000E+00    0.0000E+00    6.610000E+06  0.00400  2.620E-02    0   0.9220   age061_m42            0.0000     6.4985E-01    11.4198   0.4328    80.9864
  5      0.0000     0.0000E+00    0.0000E+00    1.000000E+07  0.00400  1.322E-02    0   0.8862   age070_m42            0.0000     6.2926E-01    11.0000   0.1993    81.0390
  6      0.0000     0.0000E+00    0.0000E+00    1.445000E+07  0.00400  7.883E-03    0   0.8571   age078_m42            0.0000     6.6954E-01    11.1328   0.5368    78.5996
  7      0.0000     0.0000E+00    0.0000E+00    2.512000E+07  0.00400  5.251E-03    0   0.8174   age090_m42            0.0000     6.2402E-01    10.9564   0.0730    81.3896
  8      0.0000     0.0000E+00    0.0000E+00    4.000000E+07  0.00400  3.649E-03    0   0.7851   age104_m42            0.0000     6.1250E-01    10.9477  -0.1691    82.5964
  9      0.0000     0.0000E+00    0.0000E+00    5.500000E+07  0.00400  3.098E-03    0   0.7629   age110_m42            0.0000     6.1155E-01    11.0770  -0.0477    83.7833
 10      0.0000     0.0000E+00    0.0000E+00    1.015200E+08  0.00400  2.228E-03    0   0.7207   age116_m42            0.0000     6.1898E-01    11.2019  -0.0506    84.7975
 11      0.1947     1.7730E-01    1.8425E-01    2.861200E+08  0.00400  1.093E-03    0   0.6648   age125_m42            0.0000     6.0640E-01    11.0854  -0.6185    87.3853
 12     15.4449     2.3304E+01    2.3188E+01    5.088000E+08  0.00400  6.597E-04    0   0.6365   age130_m42            0.0000     6.4588E-01    11.3624  -0.6652    89.5071
 13      0.0000     0.0000E+00    0.0000E+00    1.434000E+09  0.00400  2.132E-04    0   0.5798   age139_m42            0.0000     1.3518E+00    15.0083  -1.0000    73.9595
 14      0.0000     0.0000E+00    0.0000E+00    4.250000E+09  0.00400  5.895E-05    0   0.5377   age158_m42            0.0000     2.5092E+00    19.6538  -1.0000    59.1446
 15      0.0000     0.0000E+00    0.0000E+00    7.500000E+09  0.00400  3.510E-05    0   0.5212   age171_m42            0.0000     3.1284E+00    21.5669  -1.0000    53.9645
 16      0.0000     0.0000E+00    0.0000E+00    1.300000E+10  0.00400  2.005E-05    0   0.5034   age193_m42            0.0000     3.6971E+00    23.1659  -1.0000    49.6641
 17      0.0000     0.0000E+00    0.0000E+00    1.800000E+10  0.00400  1.525E-05    0   0.4967   age213_m42            0.0000     3.7556E+00    23.4225  -1.0000    48.8972
 18      0.0000     0.0000E+00    0.0000E+00    1.000000E+06  0.00800  1.238E-02    0   1.0000   age020_m52            0.0000     8.4923E-01    11.9175   1.2994    73.3356
 19      0.0000     0.0000E+00    0.0000E+00    3.160000E+06  0.00800  3.074E-02    0   0.9966   age045_m52            0.0000     8.2004E-01    11.8882   1.2113    74.3552
 20      0.0000     0.0000E+00    0.0000E+00    5.010000E+06  0.00800  2.668E-02    0   0.9443   age055_m52            0.0000     7.3631E-01    11.6233   0.9491    76.6910
 21      0.0000     0.0000E+00    0.0000E+00    6.610000E+06  0.00800  2.136E-02    0   0.9177   age061_m52            0.0000     6.6432E-01    11.0606  -0.2930    81.6604
 22      0.0000     0.0000E+00    0.0000E+00    1.000000E+07  0.00800  1.215E-02    0   0.8827   age070_m52            0.0000     6.5023E-01    11.0203   0.3975    80.2044
 23      0.0000     0.0000E+00    0.0000E+00    1.445000E+07  0.00800  8.717E-03    0   0.8552   age078_m52            0.0000     6.5420E-01    11.0907   0.4974    79.8815
 24      0.0000     0.0000E+00    0.0000E+00    2.512000E+07  0.00800  5.592E-03    0   0.8162   age090_m52            0.0000     6.1718E-01    10.9408   0.1324    82.5301
 25      0.0000     0.0000E+00    0.0000E+00    4.000000E+07  0.00800  3.896E-03    0   0.7841   age104_m52            0.0000     6.0525E-01    10.9574   0.0235    83.9664
 26      0.0000     0.0000E+00    0.0000E+00    1.015200E+08  0.00800  2.148E-03    0   0.7226   age116_m52            0.0000     6.0738E-01    11.0969  -0.0701    85.0013
 27      0.0000     0.0000E+00    0.0000E+00    2.861200E+08  0.00800  9.925E-04    0   0.6683   age125_m52            0.0000     6.4966E-01    11.3394  -0.5999    90.2807
 28      0.0000     0.0000E+00    0.0000E+00    9.047900E+08  0.00800  3.141E-04    0   0.6138   age135_m52            0.0000     1.0990E+00    13.3251  -1.0000    83.4279
 29      5.8195     3.3698E+01    3.0832E+01    1.434000E+09  0.00800  1.719E-04    0   0.5853   age139_m52            0.0000     2.2596E+00    18.6816  -1.0000    64.8965
 30      0.0000     0.0000E+00    0.0000E+00    2.500000E+09  0.00800  7.872E-05    0   0.5600   age150_m52            0.0000     3.1284E+00    21.3527  -1.0000    56.0249
 31      0.0000     0.0000E+00    0.0000E+00    4.250000E+09  0.00800  4.336E-05    0   0.5426   age158_m52            0.0000     3.1925E+00    21.4849  -1.0000    55.0922
 32      0.0000     0.0000E+00    0.0000E+00    6.250000E+09  0.00800  3.159E-05    0   0.5319   age166_m52            0.0000     3.9182E+00    23.3808  -1.0000    50.0799
 33      0.0000     0.0000E+00    0.0000E+00    1.300000E+10  0.00800  1.361E-05    0   0.5073   age193_m52            0.0000     5.5531E+00    27.6465  -1.0000    39.3511
 34      0.0000     0.0000E+00    0.0000E+00    1.800000E+10  0.00800  9.886E-06    0   0.4990   age213_m52            0.0000     5.9892E+00    28.3774  -1.0000    37.0434
 35      0.0000     0.0000E+00    0.0000E+00    1.000000E+06  0.02000  1.544E-02    0   1.0000   age020_m62            0.0000     8.5113E-01    11.9362   1.2963    73.4848
 36      0.0000     0.0000E+00    0.0000E+00    3.160000E+06  0.02000  3.762E-02    0   0.9858   age045_m62            0.0000     8.3304E-01    11.9328   1.2277    74.3834
 37      0.0000     0.0000E+00    0.0000E+00    5.010000E+06  0.02000  3.296E-02    0   0.9342   age055_m62            0.0000     6.8703E-01    11.5903   0.7969    79.3733
 38     29.4965     2.5443E+00    3.5243E+00    8.710000E+06  0.02000  1.154E-02    0   0.8861   age067_m62            0.0000     7.8867E-01    11.7343  -0.0574    79.0592
 39      0.0000     0.0000E+00    0.0000E+00    1.445000E+07  0.02000  7.663E-03    0   0.8472   age078_m62            0.0000     6.7162E-01    11.0619   0.0688    81.1574
 40      0.0000     0.0000E+00    0.0000E+00    2.512000E+07  0.02000  4.532E-03    0   0.8099   age090_m62            0.0000     6.5746E-01    11.0601   0.0614    80.9440
 41      0.0000     0.0000E+00    0.0000E+00    5.500000E+07  0.02000  2.733E-03    0   0.7595   age110_m62            0.0000     6.0674E-01    10.9514   0.0139    83.0689
 42      0.0077     5.6099E-03    6.1255E-03    1.609000E+08  0.02000  1.369E-03    0   0.6985   age120_m62            0.0000     6.2109E-01    11.1419  -0.2064    87.6104
 43     36.4597     4.0266E+01    4.2262E+01    2.861200E+08  0.02000  9.013E-04    0   0.6714   age125_m62            0.0000     6.8258E-01    11.4363  -0.4953    91.6499
 44      0.0019     3.6866E-03    3.7165E-03    5.088000E+08  0.02000  5.028E-04    0   0.6449   age130_m62            0.0000     7.7848E-01    12.1839  -0.9330    96.5351
 45      0.0000     0.0000E+00    0.0000E+00    9.047900E+08  0.02000  2.428E-04    0   0.6179   age135_m62            0.0000     1.2397E+00    13.8779  -1.0000    81.1684
 46      0.0000     0.0000E+00    0.0000E+00    1.434000E+09  0.02000  1.263E-04    0   0.5908   age139_m62            0.0000     2.1825E+00    17.8435  -1.0000    67.0417
 47      0.0000     0.0000E+00    0.0000E+00    2.500000E+09  0.02000  5.985E-05    0   0.5673   age150_m62            0.0000     3.2972E+00    21.4488  -1.0000    56.2208
 48      0.0000     0.0000E+00    0.0000E+00    4.250000E+09  0.02000  3.271E-05    0   0.5468   age158_m62            0.0000     4.3791E+00    24.1945  -1.0000    48.2180
 49      0.0000     0.0000E+00    0.0000E+00    1.000000E+10  0.02000  1.360E-05    0   0.5167   age181_m62            0.0000     5.6760E+00    27.1161  -1.0000    40.3039
 50      0.0000     0.0000E+00    0.0000E+00    1.800000E+10  0.02000  7.124E-06    0   0.5013   age213_m62            0.0000     6.4547E+00    28.6872  -1.0000    35.8631
 51      0.0000     0.0000E+00    0.0000E+00    1.000000E+06  0.05000  2.592E-02    0   0.9998   age020_m72            0.0000     8.7274E-01    11.9867   1.2935    73.3104
 52      0.0000     0.0000E+00    0.0000E+00    3.160000E+06  0.05000  4.845E-02    0   0.9577   age045_m72            0.0000     7.6713E-01    11.8359   1.0843    76.2368
 53      0.0000     0.0000E+00    0.0000E+00    5.010000E+06  0.05000  3.072E-02    0   0.9147   age055_m72            0.0000     7.1650E-01    11.3172   0.6467    78.3585
 54      0.0000     0.0000E+00    0.0000E+00    6.610000E+06  0.05000  1.455E-02    0   0.8877   age061_m72            0.0000     9.2369E-01    13.0117   0.0236    78.6191
 55      0.0000     0.0000E+00    0.0000E+00    1.000000E+07  0.05000  9.074E-03    0   0.8524   age070_m72            0.0000     7.4032E-01    11.6284   0.8336    78.1170
 56      0.0000     0.0000E+00    0.0000E+00    2.512000E+07  0.05000  4.250E-03    0   0.7902   age090_m72            0.0000     6.5397E-01    11.2374   0.5044    80.5658
 57      0.0000     0.0000E+00    0.0000E+00    4.000000E+07  0.05000  3.087E-03    0   0.7618   age104_m72            0.0000     6.3124E-01    11.1817   0.2684    82.2077
 58      0.0000     0.0000E+00    0.0000E+00    1.015200E+08  0.05000  1.700E-03    0   0.7096   age116_m72            0.0000     6.1338E-01    11.0749  -0.0465    86.5871
 59      0.0000     0.0000E+00    0.0000E+00    2.861200E+08  0.05000  7.384E-04    0   0.6633   age125_m72            0.0000     7.3462E-01    11.8311  -0.6618    94.2942
 60      0.0000     0.0000E+00    0.0000E+00    5.088000E+08  0.05000  3.819E-04    0   0.6372   age130_m72            0.0000     8.5072E-01    12.3646  -1.0000    91.9798
 61      0.0000     0.0000E+00    0.0000E+00    9.047900E+08  0.05000  1.676E-04    0   0.6110   age135_m72            0.0000     2.0905E+00    17.1582  -1.0000    70.0398
 62      0.0000     0.0000E+00    0.0000E+00    1.434000E+09  0.05000  8.837E-05    0   0.5874   age139_m72            0.0000     3.3736E+00    21.4839  -1.0000    57.0077
 63      0.0000     0.0000E+00    0.0000E+00    2.500000E+09  0.05000  4.233E-05    0   0.5598   age150_m72            0.0000     4.4505E+00    24.1537  -1.0000    48.6006
 64      0.0000     0.0000E+00    0.0000E+00    6.250000E+09  0.05000  1.435E-05    0   0.5249   age166_m72            0.0000     6.0153E+00    27.9067  -1.0000    38.1795
 65      0.0000     0.0000E+00    0.0000E+00    1.300000E+10  0.05000  6.513E-06    0   0.5036   age193_m72            0.0000     7.0121E+00    29.9867  -1.0000    33.2811
 66      0.0000     0.0000E+00    0.0000E+00    1.800000E+10  0.05000  4.527E-06    0   0.4945   age213_m72            0.0000     7.5614E+00    31.1203  -1.0000    30.4914


## Synthesis Results - Average & Chains ##

# j      x_j: min, <> & last-chain-values for 1 ...  7 chains
  1      0.0000      0.1214      0.7229      0.0000      0.0000      0.0000      0.0000      0.0000      0.0000
  2      0.0000      0.3279      0.0000      0.2500      0.0000      0.0000      0.0000      0.0000      0.0000
  3      0.0000      0.3034      0.0000      0.0000      0.0000      0.0000      0.0000      0.0000      0.0000
  4      0.0000      0.5372      0.6643      4.0285      0.0000      0.0000      1.1229      0.0000      0.0000
  5      0.0000      1.8772      0.0000      0.0000      0.0000      4.9801      0.0000      0.0000      0.0000
  6      0.0000      0.3767      0.0000      0.0000      0.0000      2.4743      0.0000      0.0000      0.0000
  7      0.0000      1.3786      1.0159      0.0000      1.1241      0.0000      0.0000      0.0000      5.4707
  8      0.0000      2.2373      0.0000      0.0000      0.0000      0.0000      0.0000      0.8923      0.2144
  9      0.0000      1.2483      0.0000      0.0000      2.5039      0.0000      0.1049      0.0000      0.0000
 10      0.0000      1.7482      2.0894      3.5408      0.3939      0.0000      2.7448      0.0000      0.7273
 11      0.1947      5.8228      3.2139      6.3172      7.2173      9.6463      6.9632     16.1815      0.4123
 12     15.4449      7.5924     11.6090      5.3195     13.5594      7.8647     14.4111      5.9809      8.2726
 13      0.0000      0.3158      0.0809      0.3134      0.0000      0.0000      0.0000      0.0000      1.4530
 14      0.0000      0.0407      0.0000      0.0000      0.0000      0.0000      0.0000      0.0000      0.0972
 15      0.0000      0.0515      0.0000      0.0000      0.0000      0.0000      0.0000      0.0000      0.0000
 16      0.0000      0.1313      0.0000      0.0000      0.0000      0.0000      0.0000      0.0000      0.7957
 17      0.0000      0.0258      0.0000      0.0000      0.0000      0.0000      0.0000      0.0000      0.0000
 18      0.0000      0.3249      0.0000      0.0000      0.7686      0.0000      0.0117      0.0000      0.0000
 19      0.0000      0.2391      0.0000      0.8634      0.0000      0.0000      0.0000      0.0000      0.5755
 20      0.0000      0.3355      0.0000      0.0000      0.0000      0.0000      1.5062      0.1138      0.0000
 21      0.0000      2.7218      0.7640      0.0255      0.0000      5.0022      0.0000      0.7892      0.0000
 22      0.0000      0.8597      0.0000      0.0000      1.9069      0.0000      0.0000      0.0000      4.7224
 23      0.0000      0.4273      0.0000      0.0000      1.3770      0.0000      2.5960      0.0000      0.0000
 24      0.0000      2.1354      0.0000      0.8347      0.1736      0.0000      0.0000      3.0321      3.1674
 25      0.0000      1.5124      0.0150      0.0000      0.0000      3.5477      0.0000      0.0000      0.0000
 26      0.0000      1.7432      2.6153      1.4202      0.0000      0.0000      0.0000      2.3814      6.2028
 27      0.0000      5.7528      0.0000      9.1673      5.6700      0.0000      9.0497      3.0129     13.0987
 28      0.0000      0.5746      0.0000      0.0000      1.8242      0.0000      0.0000      0.0000      0.0000
 29      5.8195      0.1029      0.1358      0.0000      0.0000      0.0000      0.0000      1.5894      0.2249
 30      0.0000      0.0664      0.0000      0.0000      0.0000      0.0000      0.0000      0.0000      0.0000
 31      0.0000      0.0426      0.0000      0.6671      0.0000      0.0000      0.0000      0.0000      0.0000
 32      0.0000      0.0318      0.0000      0.0000      0.0000      0.0000      0.0000      0.0000      0.0000
 33      0.0000      0.0514      0.0000      0.0000      0.0000      0.0000      0.0000      0.0000      0.0000
 34      0.0000      0.0260      0.0000      0.0000      0.0000      0.0000      0.0000      0.0000      0.0000
 35      0.0000      0.1524      0.0000      0.0000      0.7333      0.0000      0.1697      0.0000      0.0000
 36      0.0000      0.0884      0.0000      0.0000      0.0000      0.0000      0.0000      0.1918      0.0000
 37      0.0000      0.1723      0.0000      0.0000      0.0000      0.0000      0.0000      0.0000      0.0000
 38     29.4965      9.7306     20.6411     11.9516     15.2489     16.1921     21.0676     18.5483     15.4045
 39      0.0000      1.0067      0.0000      0.4998      0.0000      0.0000      0.0000      0.0000      0.0000
 40      0.0000      2.0217      5.4029      2.0035      1.8654      0.7922      0.8718      0.0000      0.0000
 41      0.0000      1.6274      0.0000      4.4998      6.3760      0.0000      0.7275      5.7151      0.0000
 42      0.0077      9.4702     15.1357      8.8279      3.4718     13.2116      5.8590      4.9179     10.2330
 43     36.4597      6.0525     15.5007     15.7703      9.8489     12.8511      8.6485      7.5467      9.2216
 44      0.0019      1.3532      0.0000      0.0000      4.1332      0.0000      0.0000      1.6670      0.6026
 45      0.0000      0.2740      0.0000      1.2731      0.6534      0.0000      0.0000      0.0000      0.4342
 46      0.0000      0.0561      0.0000      0.0000      0.0000      0.0000      0.0000      0.0000      0.4536
 47      0.0000      0.0955      0.4437      0.0000      0.0000      0.0000      0.0000      0.0000      0.0000
 48      0.0000      0.0151      0.0000      0.0000      0.0000      0.0000      0.0000      0.1775      0.0000
 49      0.0000      0.0116      0.2011      0.0000      0.0000      0.0000      0.0000      0.0000      0.0000
 50      0.0000      0.0216      0.0000      0.0000      0.0000      0.0000      0.0000      0.0000      0.0000
 51      0.0000      0.3030      0.0000      0.0000      0.0000      0.0000      0.0000      0.0000      0.0000
 52      0.0000      0.1494      0.0000      0.0000      0.0000      0.0000      0.0000      0.0000      0.0000
 53      0.0000      0.4679      0.0000      0.0000      0.8738      0.0000      0.0000      0.0000      0.0000
 54      0.0000      1.6346      0.0000      3.8004      1.9331      0.7273      0.0000      0.0000      0.0084
 55      0.0000      0.2727      0.0000      2.0852      0.0000      0.0000      0.0000      0.0000      0.0000
 56      0.0000      0.7732      0.0000      0.4881      1.4366      1.1795      0.0000      0.0000      0.0000
 57      0.0000      0.6869      0.0000      0.4448      0.0000      0.0000      0.1080      0.0000      0.0000
 58      0.0000      3.3236      3.6122      1.0129      1.8885      0.0000      8.8326     10.7342      3.5377
 59      0.0000      4.0551      0.0000      0.0000      0.3386      5.7349      0.9336      0.0000      0.0000
 60      0.0000      0.6781      1.2354      0.2108      0.0000      2.1204      0.0000      2.4644      0.0000
 61      0.0000      0.0978      0.4291      0.0000      0.0000      0.0000      0.0000      0.6249      0.3940
 62      0.0000      0.0835      0.0000      0.0000      0.0000      0.0000      0.0000      0.0000      0.4218
 63      0.0000      0.0142      0.0000      0.0000      0.0000      0.0000      0.0000      0.0000      0.0000
 64      0.0000      0.0768      0.0000      0.4525      0.5490      0.0000      0.0238      0.0000      0.0000
 65      0.0000      0.0060      0.0000      0.0000      0.0000      0.0000      0.0000      0.0000      0.0000
 66      0.0000      0.0137      0.0000      0.0000      0.0000      0.0000      0.0000      0.0000      0.0000

# j      m_j: min, <> & last-chain-values for 1 ...  7 chains
  1  0.0000E+00  1.8583E-02  1.2130E-01  0.0000E+00  0.0000E+00  0.0000E+00  0.0000E+00  0.0000E+00  0.0000E+00
  2  0.0000E+00  1.3704E-02  0.0000E+00  9.4088E-03  0.0000E+00  0.0000E+00  0.0000E+00  0.0000E+00  0.0000E+00
  3  0.0000E+00  1.8986E-02  0.0000E+00  0.0000E+00  0.0000E+00  0.0000E+00  0.0000E+00  0.0000E+00  0.0000E+00
  4  0.0000E+00  3.1660E-02  4.2915E-02  2.1383E-01  0.0000E+00  0.0000E+00  9.3335E-02  0.0000E+00  0.0000E+00
  5  0.0000E+00  2.1074E-01  0.0000E+00  0.0000E+00  0.0000E+00  8.0174E-01  0.0000E+00  0.0000E+00  0.0000E+00
  6  0.0000E+00  6.8587E-02  0.0000E+00  0.0000E+00  0.0000E+00  6.4610E-01  0.0000E+00  0.0000E+00  0.0000E+00
  7  0.0000E+00  3.5939E-01  2.9030E-01  0.0000E+00  2.6071E-01  0.0000E+00  0.0000E+00  0.0000E+00  1.2224E+00
  8  0.0000E+00  8.0614E-01  0.0000E+00  0.0000E+00  0.0000E+00  0.0000E+00  0.0000E+00  3.7171E-01  6.6218E-02
  9  0.0000E+00  5.1479E-01  0.0000E+00  0.0000E+00  9.1870E-01  0.0000E+00  6.1023E-02  0.0000E+00  0.0000E+00
 10  0.0000E+00  9.4703E-01  1.2407E+00  1.7276E+00  1.8986E-01  0.0000E+00  2.0972E+00  0.0000E+00  3.3769E-01
 11  1.8425E-01  5.9312E+00  3.5884E+00  5.7955E+00  6.5406E+00  1.4091E+01  1.0004E+01  1.9055E+01  3.5993E-01
 12  2.3188E+01  1.2268E+01  2.0561E+01  7.7415E+00  1.9492E+01  1.8224E+01  3.2842E+01  1.1172E+01  1.1457E+01
 13  0.0000E+00  1.4384E+00  4.0388E-01  1.2854E+00  0.0000E+00  0.0000E+00  0.0000E+00  0.0000E+00  5.6717E+00
 14  0.0000E+00  6.2166E-01  0.0000E+00  0.0000E+00  0.0000E+00  0.0000E+00  0.0000E+00  0.0000E+00  1.2724E+00
 15  0.0000E+00  1.2803E+00  0.0000E+00  0.0000E+00  0.0000E+00  0.0000E+00  0.0000E+00  0.0000E+00  0.0000E+00
 16  0.0000E+00  5.5218E+00  0.0000E+00  0.0000E+00  0.0000E+00  0.0000E+00  0.0000E+00  0.0000E+00  2.8676E+01
 17  0.0000E+00  1.4084E+00  0.0000E+00  0.0000E+00  0.0000E+00  0.0000E+00  0.0000E+00  0.0000E+00  0.0000E+00
 18  0.0000E+00  4.3948E-02  0.0000E+00  0.0000E+00  9.2506E-02  0.0000E+00  2.2400E-03  0.0000E+00  0.0000E+00
 19  0.0000E+00  1.2980E-02  0.0000E+00  4.2222E-02  0.0000E+00  0.0000E+00  0.0000E+00  0.0000E+00  2.6782E-02
 20  0.0000E+00  1.9888E-02  0.0000E+00  0.0000E+00  0.0000E+00  0.0000E+00  1.2592E-01  7.7981E-03  0.0000E+00
 21  0.0000E+00  1.9584E-01  6.0252E-02  1.6529E-03  0.0000E+00  5.1613E-01  0.0000E+00  6.5645E-02  0.0000E+00
 22  0.0000E+00  1.0460E-01  0.0000E+00  0.0000E+00  2.0641E-01  0.0000E+00  0.0000E+00  0.0000E+00  4.9245E-01
 23  0.0000E+00  7.0201E-02  0.0000E+00  0.0000E+00  2.0128E-01  0.0000E+00  6.0158E-01  0.0000E+00  0.0000E+00
 24  0.0000E+00  5.2197E-01  0.0000E+00  1.8375E-01  3.7748E-02  0.0000E+00  0.0000E+00  8.5684E-01  6.6357E-01
 25  0.0000E+00  5.0975E-01  5.5406E-03  0.0000E+00  0.0000E+00  1.7147E+00  0.0000E+00  0.0000E+00  0.0000E+00
 26  0.0000E+00  9.8211E-01  1.6151E+00  7.2063E-01  0.0000E+00  0.0000E+00  0.0000E+00  1.5511E+00  2.9951E+00
 27  0.0000E+00  6.4873E+00  0.0000E+00  9.3107E+00  5.6884E+00  0.0000E+00  1.4393E+01  3.9279E+00  1.2660E+01
 28  0.0000E+00  1.8804E+00  0.0000E+00  0.0000E+00  5.3113E+00  0.0000E+00  0.0000E+00  0.0000E+00  0.0000E+00
 29  3.0832E+01  5.8660E-01  8.4851E-01  0.0000E+00  0.0000E+00  0.0000E+00  0.0000E+00  1.0477E+01  1.0990E+00
 30  0.0000E+00  7.9143E-01  0.0000E+00  0.0000E+00  0.0000E+00  0.0000E+00  0.0000E+00  0.0000E+00  0.0000E+00
 31  0.0000E+00  8.9213E-01  0.0000E+00  1.2592E+01  0.0000E+00  0.0000E+00  0.0000E+00  0.0000E+00  0.0000E+00
 32  0.0000E+00  8.9729E-01  0.0000E+00  0.0000E+00  0.0000E+00  0.0000E+00  0.0000E+00  0.0000E+00  0.0000E+00
 33  0.0000E+00  3.2057E+00  0.0000E+00  0.0000E+00  0.0000E+00  0.0000E+00  0.0000E+00  0.0000E+00  0.0000E+00
 34  0.0000E+00  2.1992E+00  0.0000E+00  0.0000E+00  0.0000E+00  0.0000E+00  0.0000E+00  0.0000E+00  0.0000E+00
 35  0.0000E+00  1.6533E-02  0.0000E+00  0.0000E+00  7.0763E-02  0.0000E+00  2.5965E-02  0.0000E+00  0.0000E+00
 36  0.0000E+00  3.8803E-03  0.0000E+00  0.0000E+00  0.0000E+00  0.0000E+00  0.0000E+00  9.7289E-03  0.0000E+00
 37  0.0000E+00  8.1793E-03  0.0000E+00  0.0000E+00  0.0000E+00  0.0000E+00  0.0000E+00  0.0000E+00  0.0000E+00
 38  3.5243E+00  1.2513E+00  2.9094E+00  1.3842E+00  1.7446E+00  2.9859E+00  3.8210E+00  2.7574E+00  1.6978E+00
 39  0.0000E+00  1.8640E-01  0.0000E+00  8.3350E-02  0.0000E+00  0.0000E+00  0.0000E+00  0.0000E+00  0.0000E+00
 40  0.0000E+00  6.0506E-01  1.7724E+00  5.4003E-01  4.9668E-01  3.4000E-01  3.6800E-01  0.0000E+00  0.0000E+00
 41  0.0000E+00  7.5741E-01  0.0000E+00  1.8862E+00  2.6400E+00  0.0000E+00  4.7755E-01  3.0750E+00  0.0000E+00
 42  6.1255E-03  8.0922E+00  1.4176E+01  6.7939E+00  2.6393E+00  1.6189E+01  7.0610E+00  4.8581E+00  7.4942E+00
 43  4.2262E+01  7.5508E+00  2.1196E+01  1.7719E+01  1.0931E+01  2.2991E+01  1.5217E+01  1.0884E+01  9.8601E+00
 44  3.7165E-03  2.9066E+00  0.0000E+00  0.0000E+00  7.8986E+00  0.0000E+00  0.0000E+00  4.1397E+00  1.1095E+00
 45  0.0000E+00  1.1676E+00  0.0000E+00  4.8868E+00  2.4775E+00  0.0000E+00  0.0000E+00  0.0000E+00  1.5861E+00
 46  0.0000E+00  4.3944E-01  0.0000E+00  0.0000E+00  0.0000E+00  0.0000E+00  0.0000E+00  0.0000E+00  3.0458E+00
 47  0.0000E+00  1.5153E+00  7.7208E+00  0.0000E+00  0.0000E+00  0.0000E+00  0.0000E+00  0.0000E+00  0.0000E+00
 48  0.0000E+00  4.2219E-01  0.0000E+00  0.0000E+00  0.0000E+00  0.0000E+00  0.0000E+00  5.7433E+00  0.0000E+00
 49  0.0000E+00  7.3750E-01  1.4023E+01  0.0000E+00  0.0000E+00  0.0000E+00  0.0000E+00  0.0000E+00  0.0000E+00
 50  0.0000E+00  2.5483E+00  0.0000E+00  0.0000E+00  0.0000E+00  0.0000E+00  0.0000E+00  0.0000E+00  0.0000E+00
 51  0.0000E+00  1.9572E-02  0.0000E+00  0.0000E+00  0.0000E+00  0.0000E+00  0.0000E+00  0.0000E+00  0.0000E+00
 52  0.0000E+00  4.9464E-03  0.0000E+00  0.0000E+00  0.0000E+00  0.0000E+00  0.0000E+00  0.0000E+00  0.0000E+00
 53  0.0000E+00  2.3330E-02  0.0000E+00  0.0000E+00  3.8763E-02  0.0000E+00  0.0000E+00  0.0000E+00  0.0000E+00
 54  0.0000E+00  1.6702E-01  0.0000E+00  3.4973E-01  1.7572E-01  1.0656E-01  0.0000E+00  0.0000E+00  7.3269E-04
 55  0.0000E+00  4.2901E-02  0.0000E+00  2.9545E-01  0.0000E+00  0.0000E+00  0.0000E+00  0.0000E+00  0.0000E+00
 56  0.0000E+00  2.4075E-01  0.0000E+00  1.3688E-01  3.9796E-01  5.2669E-01  0.0000E+00  0.0000E+00  0.0000E+00
 57  0.0000E+00  2.8389E-01  0.0000E+00  1.6556E-01  0.0000E+00  0.0000E+00  6.2939E-02  0.0000E+00  0.0000E+00
 58  0.0000E+00  2.3234E+00  2.7678E+00  6.3770E-01  1.1745E+00  0.0000E+00  8.7084E+00  8.6748E+00  2.1196E+00
 59  0.0000E+00  6.1004E+00  0.0000E+00  0.0000E+00  4.5320E-01  1.2372E+01  1.9808E+00  0.0000E+00  0.0000E+00
 60  0.0000E+00  1.8949E+00  3.7840E+00  5.3042E-01  0.0000E+00  8.4967E+00  0.0000E+00  7.9610E+00  0.0000E+00
 61  0.0000E+00  5.9702E-01  2.8714E+00  0.0000E+00  0.0000E+00  0.0000E+00  0.0000E+00  4.4108E+00  2.0615E+00
 62  0.0000E+00  9.2917E-01  0.0000E+00  0.0000E+00  0.0000E+00  0.0000E+00  0.0000E+00  0.0000E+00  4.0247E+00
 63  0.0000E+00  3.1509E-01  0.0000E+00  0.0000E+00  0.0000E+00  0.0000E+00  0.0000E+00  0.0000E+00  0.0000E+00
 64  0.0000E+00  4.7052E+00  0.0000E+00  2.4967E+01  2.9922E+01  0.0000E+00  2.0568E+00  0.0000E+00  0.0000E+00
 65  0.0000E+00  7.8241E-01  0.0000E+00  0.0000E+00  0.0000E+00  0.0000E+00  0.0000E+00  0.0000E+00  0.0000E+00
 66  0.0000E+00  2.5008E+00  0.0000E+00  0.0000E+00  0.0000E+00  0.0000E+00  0.0000E+00  0.0000E+00  0.0000E+00

# AV, chi2 & Mass for <> & i_chain = 1 ...  7 solutions
AV      -0.5318     -0.3119     -0.3149     -0.3307     -0.3684     -0.3231     -0.2967     -0.4063     -0.3721
chi2 5.8372E-01  5.9010E-01  5.8773E-01  5.8852E-01  5.8811E-01  5.8856E-01  5.8796E-01  5.8696E-01  5.8730E-01
Mass 1.9573E-14  2.4436E-14  2.2203E-14  2.6453E-14  2.5458E-14  1.6786E-14  1.7683E-14  1.8618E-14  2.6294E-14
-169.27                                  [v0_min (km/s) before EX0s...]
 138.36                                  [vd_min (km/s) before EX0s...]


## Synthetic spectrum (Best Model) ##l_obs f_obs f_syn wei
 3478    [Nl_obs]
 3741.00    0.26695   0.66047    0.000
 3742.00    0.30654   0.64025    0.000
 3743.00    0.38512   0.61115    0.000
 3744.00    0.45527   0.57485    0.000
 3745.00    0.48048   0.53441   20.813
 3746.00    0.46343   0.49619   21.578
 3747.00    0.47523   0.47013   21.042
 3748.00    0.55968   0.46500   17.867
 3749.00    0.61790   0.48328   16.184
 3750.00    0.56463   0.51945   17.711
 3751.00    0.51460   0.56384   19.433
 3752.00    0.60157   0.60690   16.623
 3753.00    0.76931   0.64199   12.999
 3754.00    0.90073   0.66681   -1.000
 3755.00    0.96783   0.68243   -1.000
 3756.00    1.00507   0.69255   -1.000
 3757.00    1.06422   0.70060   -1.000
 3758.00    1.14893   0.70731   -1.000
 3759.00    1.17574   0.71103   -1.000
 3760.00    1.09693   0.70918   -1.000
 3761.00    0.98129   0.69934   -1.000
 3762.00    0.85516   0.68053   11.694
 3763.00    0.61613   0.65270   16.230
 3764.00    0.28749   0.61659   -1.000
 3765.00    0.13400   0.57518   -1.000
 3766.00    0.25298   0.53326   -1.000
 3767.00    0.38324   0.49819   26.093
 3768.00    0.34669   0.47896   -1.000
 3769.00    0.26783   0.48212   -1.000
 3770.00    0.31051   0.50721   -1.000
 3771.00    0.51466   0.54718   19.430
 3772.00    0.73727   0.59262   13.564
 3773.00    0.71632   0.63633   13.960
 3774.00    0.47492   0.67546   -1.000
 3775.00    0.38002   0.70979   -1.000
 3776.00    0.60183   0.73959   16.616
 3777.00    0.94917   0.76516   10.536
 3778.00    1.14855   0.78602   -1.000
 3779.00    1.02398   0.80175    9.766
 3780.00    0.71879   0.81211   13.912
 3781.00    0.60938   0.81674   16.410
 3782.00    0.76881   0.81521   13.007
 3783.00    0.93747   0.80750   10.667
 3784.00    0.98492   0.79495   10.153
 3785.00    0.97604   0.77935   10.246
 3786.00    0.94734   0.76202   10.556
 3787.00    0.89097   0.74302   11.224
 3788.00    0.87992   0.72095   11.365
 3789.00    1.00012   0.69389   -1.000
 3790.00    1.11734   0.65997   -1.000
 3791.00    1.02504   0.61846   -1.000
 3792.00    0.88106   0.57107   -1.000
 3793.00    1.00083   0.52261   -1.000
 3794.00    1.25312   0.48030   -1.000
 3795.00    1.26354   0.45314   -1.000
 3796.00    1.02139   0.44867   -1.000
 3797.00    0.76908   0.46870   -1.000
 3798.00    0.61281   0.50807   16.318
 3799.00    0.53959   0.55707   18.533
 3800.00    0.55317   0.60640   18.078
 3801.00    0.65851   0.64984   15.186
 3802.00    0.80725   0.68512   12.388
 3803.00    0.91186   0.71346   10.967
 3804.00    0.88148   0.73800   11.345
 3805.00    0.70767   0.76191   14.131
 3806.00    0.55387   0.78560   18.055
 3807.00    0.58207   0.80692   17.180
 3808.00    0.74640   0.82258   13.398
 3809.00    0.90945   0.83043   10.996
 3810.00    0.99502   0.83126   10.050
 3811.00    1.00150   0.82823    9.985
 3812.00    0.99236   0.82471   10.077
 3813.00    1.02127   0.82190    9.792
 3814.00    1.06770   0.81818   -1.000
 3815.00    1.08033   0.81112   -1.000
 3816.00    1.02611   0.80022    9.746
 3817.00    0.94678   0.78913   10.562
 3818.00    0.97394   0.78295   10.268
 3819.00    1.12238   0.78232   -1.000
 3820.00    1.18411   0.78310   -1.000
 3821.00    1.06398   0.77956   -1.000
 3822.00    0.95200   0.76844   10.504
 3823.00    0.92143   0.75089   10.853
 3824.00    0.75206   0.72920   13.297
 3825.00    0.42778   0.70472   -1.000
 3826.00    0.31586   0.67723   -1.000
 3827.00    0.53047   0.64534   18.851
 3828.00    0.70601   0.60772   14.164
 3829.00    0.61355   0.56378   16.299
 3830.00    0.40534   0.51603   24.671
 3831.00    0.28655   0.47061   -1.000
 3832.00    0.34761   0.43566   27.786
 3833.00    0.52948   0.41958   18.886
 3834.00    0.66634   0.42613   -1.000
 3835.00    0.69395   0.45262   -1.000
 3836.00    0.68978   0.49280   -1.000
 3837.00    0.72174   0.53902   -1.000
 3838.00    0.79765   0.58583   -1.000
 3839.00    0.88533   0.63056   -1.000
 3840.00    0.92886   0.67142   -1.000
 3841.00    0.87553   0.70727   11.422
 3842.00    0.71675   0.73725   13.952
 3843.00    0.57405   0.76154   17.420
 3844.00    0.61980   0.78094   16.134
 3845.00    0.81767   0.79635   12.230
 3846.00    0.97073   0.80867   10.302
 3847.00    0.99522   0.81883    0.000
 3848.00    0.94505   0.82819    0.000
 3849.00    0.91639   0.83689    0.000
 3850.00    0.98454   0.84397    0.000
 3851.00    1.12365   0.84821    0.000
 3852.00    1.23723   0.84937    0.000
 3853.00    1.24676   0.84866    0.000
 3854.00    1.13167   0.84804    0.000
 3855.00    0.96513   0.84844    0.000
 3856.00    0.84485   0.84933    0.000
 3857.00    0.77673   0.85055    0.000
 3858.00    0.72277   0.85268    0.000
 3859.00    0.69685   0.85563    0.000
 3860.00    0.73417   0.85847    0.000
 3861.00    0.83097   0.86047    0.000
 3862.00    0.94645   0.86080    0.000
 3863.00    1.01862   0.85975    0.000
 3864.00    1.00722   0.85832    0.000
 3865.00    0.93888   0.85670    0.000
 3866.00    0.87543   0.85412    0.000
 3867.00    0.87024   0.84899    0.000
 3868.00    0.92468   0.84058    0.000
 3869.00    0.96014   0.83025    0.000
 3870.00    0.93107   0.82062    0.000
 3871.00    0.91805   0.81319    0.000
 3872.00    0.99764   0.80676    0.000
 3873.00    1.13321   0.79858    0.000
 3874.00    1.25239   0.78664    0.000
 3875.00    1.31665   0.77099    0.000
 3876.00    1.32967   0.75346    0.000
 3877.00    1.32806   0.73531    0.000
 3878.00    1.29994   0.71561    0.000
 3879.00    1.15893   0.69239    0.000
 3880.00    0.92804   0.66438    0.000
 3881.00    0.80782   0.63092   12.379
 3882.00    0.89174   0.59122   -1.000
 3883.00    1.04133   0.54600   -1.000
 3884.00    1.12243   0.49893   -1.000
 3885.00    1.12530   0.45693   -1.000
 3886.00    1.10626   0.42949   -1.000
 3887.00    1.13301   0.42473   -1.000
 3888.00    1.18476   0.44371   -1.000
 3889.00    1.15462   0.48037   -1.000
 3890.00    1.04497   0.52535   -1.000
 3891.00    0.98518   0.57031   -1.000
 3892.00    0.98228   0.61071   -1.000
 3893.00    0.90313   0.64564   -1.000
 3894.00    0.75724   0.67582   13.206
 3895.00    0.71253   0.70133   14.035
 3896.00    0.81291   0.72274   12.302
 3897.00    0.93999   0.74160   10.638
 3898.00    0.98526   0.75901   10.150
 3899.00    0.91260   0.77497   10.958
 3900.00    0.77769   0.78875   12.859
 3901.00    0.67360   0.79993   14.846
 3902.00    0.58329   0.80853   17.144
 3903.00    0.41893   0.81626   -1.000
 3904.00    0.20301   0.82553   -1.000
 3905.00    0.05337   0.83661   -1.000
 3906.00    0.05474   0.84811   -1.000
 3907.00    0.21866   0.85787   -1.000
 3908.00    0.46378   0.86399   -1.000
 3909.00    0.65939   0.86620   15.165
 3910.00    0.71457   0.86581   13.994
 3911.00    0.63080   0.86468   15.853
 3912.00    0.55496   0.86403   -1.000
 3913.00    0.62873   0.86301   15.905
 3914.00    0.74733   0.86042   13.381
 3915.00    0.73445   0.85546   13.616
 3916.00    0.64504   0.84862   15.503
 3917.00    0.63807   0.84246   15.672
 3918.00    0.74614   0.83949   13.402
 3919.00    0.88941   0.84034   11.243
 3920.00    0.94010   0.84276   10.637
 3921.00    0.84268   0.84399   11.867
 3922.00    0.72918   0.84213   13.714
 3923.00    0.74122   0.83635   13.491
 3924.00    0.83593   0.82821   11.963
 3925.00    0.90653   0.81894   11.031
 3926.00    0.91910   0.80793   10.880
 3927.00    0.88489   0.79426   11.301
 3928.00    0.82371   0.77648   12.140
 3929.00    0.76725   0.75469   13.033
 3930.00    0.75819   0.73341   13.189
 3931.00    0.79803   0.72077   12.531
 3932.00    0.81992   0.72279   12.196
 3933.00    0.79354   0.73881   12.602
 3934.00    0.78540   0.76284   12.732
 3935.00    0.83399   0.78736   11.991
 3936.00    0.87664   0.80702   11.407
 3937.00    0.84028   0.82053   11.901
 3938.00    0.71310   0.82843   14.023
 3939.00    0.61072   0.83168   16.374
 3940.00    0.74717   0.83173   13.384
 3941.00    1.09340   0.83039   -1.000
 3942.00    1.29813   0.82981   -1.000
 3943.00    1.19212   0.83059   -1.000
 3944.00    0.96222   0.83172   10.393
 3945.00    0.79395   0.83240   12.595
 3946.00    0.72903   0.83197   13.717
 3947.00    0.77419   0.83017   12.917
 3948.00    0.93202   0.82698   10.729
 3949.00    1.13461   0.82226   -1.000
 3950.00    1.25137   0.81608   -1.000
 3951.00    1.20671   0.80889   -1.000
 3952.00    1.02352   0.80031    9.770
 3953.00    0.82213   0.78997   12.164
 3954.00    0.75335   0.77822   13.274
 3955.00    0.80752   0.76499   12.384
 3956.00    0.84149   0.74952   11.884
 3957.00    0.81111   0.73023   12.329
 3958.00    0.78779   0.70578   12.694
 3959.00    0.83164   0.67708   12.024
 3960.00    0.94383   0.64513    0.000
 3961.00    1.03770   0.60969    0.000
 3962.00    1.00690   0.57073    0.000
 3963.00    0.88314   0.52768    0.000
 3964.00    0.79537   0.48097    0.000
 3965.00    0.81847   0.43478    0.000
 3966.00    0.92993   0.39620    0.000
 3967.00    0.99301   0.37329    0.000
 3968.00    0.87174   0.37220    0.000
 3969.00    0.62593   0.39285    0.000
 3970.00    0.43799   0.42982    0.000
 3971.00    0.44180   0.47589    0.000
 3972.00    0.64389   0.52402    0.000
 3973.00    0.86017   0.56936    0.000
 3974.00    0.89950   0.61014    0.000
 3975.00    0.81331   0.64590    0.000
 3976.00    0.76593   0.67645    0.000
 3977.00    0.83211   0.70199    0.000
 3978.00    0.99403   0.72253    0.000
 3979.00    1.16959   0.73862    0.000
 3980.00    1.25643   0.75203    0.000
 3981.00    1.18149   0.76455   -1.000
 3982.00    0.96349   0.77702   10.379
 3983.00    0.75441   0.78931   13.255
 3984.00    0.68384   0.80098   14.623
 3985.00    0.72623   0.81129   13.770
 3986.00    0.82154   0.81952   12.172
 3987.00    0.97641   0.82605   10.242
 3988.00    1.17523   0.83173   -1.000
 3989.00    1.31905   0.83670   -1.000
 3990.00    1.33741   0.84055   -1.000
 3991.00    1.26183   0.84247   -1.000
 3992.00    1.14929   0.84241   -1.000
 3993.00    1.03212   0.84118    9.689
 3994.00    0.94780   0.83997   10.551
 3995.00    0.94239   0.84038   10.611
 3996.00    0.97434   0.84323   10.263
 3997.00    0.90177   0.84745   11.089
 3998.00    0.70604   0.85102   14.164
 3999.00    0.56217   0.85243   -1.000
 4000.00    0.59801   0.85099   -1.000
 4001.00    0.78471   0.84674   12.744
 4002.00    0.99216   0.84109   10.079
 4003.00    1.06201   0.83679    9.416
 4004.00    0.98924   0.83505   10.109
 4005.00    0.93045   0.83529   10.747
 4006.00    0.95031   0.83699   10.523
 4007.00    0.96891   0.84009   10.321
 4008.00    0.92509   0.84415   10.810
 4009.00    0.83481   0.84840   11.979
 4010.00    0.78359   0.85264   12.762
 4011.00    0.86880   0.85640   11.510
 4012.00    1.04310   0.85933    9.587
 4013.00    1.15010   0.86142    8.695
 4014.00    1.14859   0.86279    8.706
 4015.00    1.11633   0.86401    8.958
 4016.00    1.09998   0.86516    9.091
 4017.00    1.09622   0.86516    9.122
 4018.00    1.10011   0.86265    9.090
 4019.00    1.11445   0.85710    8.973
 4020.00    1.14463   0.84823    8.736
 4021.00    1.19550   0.83655   -1.000
 4022.00    1.26657   0.82490   -1.000
 4023.00    1.32314   0.81719   -1.000
 4024.00    1.25133   0.81591   -1.000
 4025.00    0.98640   0.81998   10.138
 4026.00    0.73048   0.82563   13.690
 4027.00    0.72923   0.82934   13.713
 4028.00    0.87887   0.83005   11.378
 4029.00    0.93980   0.82911   10.641
 4030.00    0.92459   0.82877   10.816
 4031.00    0.95956   0.83092   10.421
 4032.00    1.03080   0.83614    9.701
 4033.00    1.06004   0.84375    9.434
 4034.00    1.03883   0.85198    9.626
 4035.00    1.01912   0.85840    9.812
 4036.00    1.07504   0.86153    9.302
 4037.00    1.19643   0.86132   -1.000
 4038.00    1.20353   0.85834   -1.000
 4039.00    1.00000   0.85339   10.000
 4040.00    0.79903   0.84651   12.515
 4041.00    0.81356   0.83759   12.292
 4042.00    0.97616   0.82862   10.244
 4043.00    1.12993   0.82296   -1.000
 4044.00    1.20636   0.82291   -1.000
 4045.00    1.20105   0.82779   -1.000
 4046.00    1.14076   0.83486   -1.000
 4047.00    1.05657   0.84128    9.465
 4048.00    0.96779   0.84476   10.333
 4049.00    0.89477   0.84467   11.176
 4050.00    0.86263   0.84191   11.592
 4051.00    0.86686   0.83778   11.536
 4052.00    0.86292   0.83375   11.589
 4053.00    0.82845   0.83072   12.071
 4054.00    0.79145   0.82873   12.635
 4055.00    0.78735   0.82784   12.701
 4056.00    0.83257   0.82766   12.011
 4057.00    0.91187   0.82709   10.966
 4058.00    0.98025   0.82485   10.201
 4059.00    0.99678   0.82020   10.032
 4060.00    0.94163   0.81397   10.620
 4061.00    0.82198   0.80885   12.166
 4062.00    0.67845   0.80684   14.739
 4063.00    0.59962   0.80730   16.677
 4064.00    0.67963   0.80886   14.714
 4065.00    0.85761   0.81027   11.660
 4066.00    0.94223   0.80968   10.613
 4067.00    0.86915   0.80623   11.505
 4068.00    0.73147   0.80120   13.671
 4069.00    0.61797   0.79675   16.182
 4070.00    0.57228   0.79405   -1.000
 4071.00    0.61811   0.79191   16.178
 4072.00    0.75127   0.78857   13.310
 4073.00    0.90288   0.78376   11.075
 4074.00    0.96865   0.77877   10.324
 4075.00    0.89757   0.77611   11.142
 4076.00    0.71958   0.77737   13.894
 4077.00    0.55538   0.78147   -1.000
 4078.00    0.53287   0.78539   -1.000
 4079.00    0.62406   0.78627   16.033
 4080.00    0.71957   0.78316   13.869
 4081.00    0.81941   0.77701   12.191
 4082.00    0.96127   0.76993   10.448
 4083.00    1.04777   0.76370   -1.000
 4084.00    0.96506   0.75843   10.235
 4085.00    0.80489   0.75293   12.350
 4086.00    0.74131   0.74582   14.143
 4087.00    0.80611   0.73628   12.568
 4088.00    0.91054   0.72376    9.918
 4089.00    0.92442   0.70807   10.584
 4090.00    0.78489   0.68943   19.934
 4091.00    0.60512   0.66751   17.565
 4092.00    0.51139   0.64144    0.000
 4093.00    0.45589   0.61136    0.000
 4094.00    0.37259   0.57791    0.000
 4095.00    0.34823   0.54140    0.000
 4096.00    0.45896   0.50285    0.000
 4097.00    0.61006   0.46485    0.000
 4098.00    0.69350   0.43275    0.000
 4099.00    0.73111   0.41444    0.000
 4100.00    0.75976   0.41519    0.000
 4101.00    0.73974   0.43429    0.000
 4102.00    0.67261   0.46676    0.000
 4103.00    0.67430   0.50517    0.000
 4104.00    0.79857   0.54259    0.000
 4105.00    0.93151   0.57563    0.000
 4106.00    0.96483   0.60365    0.000
 4107.00    0.90491   0.62717    0.000
 4108.00    0.80264   0.64762    0.000
 4109.00    0.70373   0.66632    0.000
 4110.00    0.63588   0.68351    0.000
 4111.00    0.60649   0.69898    0.000
 4112.00    0.62289   0.71227    0.000
 4113.00    0.69411   0.72264   14.859
 4114.00    0.78881   0.72954   12.994
 4115.00    0.83731   0.73311   11.853
 4116.00    0.82980   0.73449   12.021
 4117.00    0.83082   0.73566   11.992
 4118.00    0.85924   0.73853   11.485
 4119.00    0.86764   0.74401   11.767
 4120.00    0.85349   0.75165   12.240
 4121.00    0.87092   0.75991   10.781
 4122.00    0.92365   0.76658    9.773
 4123.00    0.95668   0.76963   12.734
 4124.00    0.95104   0.76851   -1.000
 4125.00    0.93331   0.76454    6.434
 4126.00    0.91190   0.75952    3.631
 4127.00    0.86977   0.75464    3.881
 4128.00    0.79732   0.75129    8.250
 4129.00    0.70343   0.75069   25.857
 4130.00    0.61919   0.75320   19.855
 4131.00    0.58686   0.75875   14.281
 4132.00    0.63259   0.76653   14.915
 4133.00    0.75046   0.77448   14.151
 4134.00    0.88454   0.78083   11.488
 4135.00    0.96994   0.78496   10.073
 4136.00    1.01824   0.78628    9.732
 4137.00    1.07911   0.78405   -1.000
 4138.00    1.14192   0.77774   -1.000
 4139.00    1.15951   0.76748   -1.000
 4140.00    1.11820   0.75629   -1.000
 4141.00    1.04410   0.74927   -1.000
 4142.00    0.99206   0.74911   10.982
 4143.00    1.00147   0.75489    5.560
 4144.00    1.03880   0.76363    3.523
 4145.00    1.04498   0.77134    3.201
 4146.00    1.00724   0.77544    3.446
 4147.00    0.94095   0.77638    3.530
 4148.00    0.85730   0.77552    3.445
 4149.00    0.78156   0.77359    3.524
 4150.00    0.77293   0.77135    3.697
 4151.00    0.86430   0.76956    3.745
 4152.00    1.00175   0.76858    3.705
 4153.00    1.09909   0.76893    3.704
 4154.00    1.10092   0.77105    3.719
 4155.00    1.02267   0.77455    3.709
 4156.00    0.96726   0.77838    3.721
 4157.00    0.99769   0.78151    3.790
 4158.00    1.04412   0.78332    3.852
 4159.00    1.02233   0.78367    3.852
 4160.00    0.92722   0.78285    3.840
 4161.00    0.80557   0.78138    3.877
 4162.00    0.72448   0.77959    3.961
 4163.00    0.72240   0.77752    4.045
 4164.00    0.78103   0.77524    4.051
 4165.00    0.84632   0.77294    3.959
 4166.00    0.85358   0.77042    3.847
 4167.00    0.78880   0.76676    3.782
 4168.00    0.70890   0.76130    3.783
 4169.00    0.66919   0.75494    3.826
 4170.00    0.68365   0.74968    3.858
 4171.00    0.72266   0.74704    3.858
 4172.00    0.73009   0.74731    3.861
 4173.00    0.69830   0.74930    3.891
 4174.00    0.68101   0.75121    3.938
 4175.00    0.71093   0.75262    3.971
 4176.00    0.77319   0.75426    3.956
 4177.00    0.83635   0.75637    3.913
 4178.00    0.87126   0.75870    3.903
 4179.00    0.87257   0.76097    3.928
 4180.00    0.85713   0.76264    3.934
 4181.00    0.83558   0.76327    3.902
 4182.00    0.80659   0.76284    3.864
 4183.00    0.76783   0.76129    3.851
 4184.00    0.72621   0.75915    3.871
 4185.00    0.71533   0.75761    3.912
 4186.00    0.77177   0.75743    3.938
 4187.00    0.86650   0.75879    3.909
 4188.00    0.92802   0.76148    3.818
 4189.00    0.93352   0.76466    3.737
 4190.00    0.90076   0.76702    3.742
 4191.00    0.82665   0.76729    3.786
 4192.00    0.70323   0.76503    3.767
 4193.00    0.57313   0.76052    3.740
 4194.00    0.50440   0.75439    3.821
 4195.00    0.52507   0.74813    3.961
 4196.00    0.60594   0.74344    4.011
 4197.00    0.65634   0.74067    3.971
 4198.00    0.60755   0.73958    3.937
 4199.00    0.53553   0.74030    3.920
 4200.00    0.56305   0.74249    3.877
 4201.00    0.69669   0.74552    3.789
 4202.00    0.86100   0.74927    3.680
 4203.00    0.97694   0.75343    3.613
 4204.00    1.00801   0.75714    3.623
 4205.00    0.99730   0.75982    3.663
 4206.00    0.97969   0.76130    3.680
 4207.00    0.89074   0.76183    3.711
 4208.00    0.71710   0.76170    3.792
 4209.00    0.63862   0.76071    3.848
 4210.00    0.76161   0.75845    3.827
 4211.00    0.88201   0.75474    3.845
 4212.00    0.82243   0.75064    3.971
 4213.00    0.71913   0.74817    4.044
 4214.00    0.72173   0.74853    3.961
 4215.00    0.75230   0.75143    3.922
 4216.00    0.72908   0.75541    4.043
 4217.00    0.72746   0.75827    4.118
 4218.00    0.79933   0.75798    4.018
 4219.00    0.86056   0.75370    3.975
 4220.00    0.85115   0.74548    4.115
 4221.00    0.82551   0.73406    4.243
 4222.00    0.82990   0.72137    4.228
 4223.00    0.83463   0.71082    4.261
 4224.00    0.79199   0.70602    4.458
 4225.00    0.68159   0.70828    4.663
 4226.00    0.56306   0.71593    4.727
 4227.00    0.56081   0.72546    4.717
 4228.00    0.67054   0.73270    4.723
 4229.00    0.73018   0.73511    4.747
 4230.00    0.69758   0.73377    4.778
 4231.00    0.71001   0.73119    4.812
 4232.00    0.82310   0.72883    4.789
 4233.00    0.94377   0.72799    4.637
 4234.00    0.98575   0.72905    4.472
 4235.00    0.92592   0.73099    4.504
 4236.00    0.78852   0.73333    4.704
 4237.00    0.63119   0.73603    4.791
 4238.00    0.52052   0.73862    4.666
 4239.00    0.50860   0.74120    4.504
 4240.00    0.58993   0.74397    4.378
 4241.00    0.71145   0.74590    4.245
 4242.00    0.83283   0.74556    4.120
 4243.00    0.93667   0.74270    4.067
 4244.00    1.01218   0.73801    4.132
 4245.00    1.05128   0.73227    4.297
 4246.00    1.04965   0.72653    4.350
 4247.00    1.00988   0.72226    4.156
 4248.00    0.94753   0.71990    4.276
 4249.00    0.88856   0.71845    5.739
 4250.00    0.86126   0.71746   10.165
 4251.00    0.87756   0.71765   13.949
 4252.00    0.90449   0.71930   11.472
 4253.00    0.89554   0.72168   10.443
 4254.00    0.84970   0.72359   11.598
 4255.00    0.79102   0.72392   13.298
 4256.00    0.72376   0.72226   14.009
 4257.00    0.65290   0.71973   13.993
 4258.00    0.61945   0.71878   15.732
 4259.00    0.65211   0.72100   20.365
 4260.00    0.70199   0.72570   14.945
 4261.00    0.70447   0.73073    7.155
 4262.00    0.66204   0.73349    4.720
 4263.00    0.61875   0.73230    4.448
 4264.00    0.61809   0.72789    4.870
 4265.00    0.67230   0.72169    4.945
 4266.00    0.73917   0.71431    4.674
 4267.00    0.76515   0.70629    4.533
 4268.00    0.73004   0.69897    4.531
 4269.00    0.65733   0.69348    4.528
 4270.00    0.61271   0.69022    4.459
 4271.00    0.64193   0.68992    4.338
 4272.00    0.72326   0.69314    4.235
 4273.00    0.79820   0.69893    4.197
 4274.00    0.80700   0.70554    4.225
 4275.00    0.75492   0.71141   -2.000
 4276.00    0.73625   0.71527   -2.000
 4277.00    0.79323   0.71637   -2.000
 4278.00    0.84569   0.71487   -2.000
 4279.00    0.83303   0.71203   -2.000
 4280.00    0.79062   0.70907   -2.000
 4281.00    0.78012   0.70641   -2.000
 4282.00    0.83628   0.70411   -2.000
 4283.00    0.90912   0.70177   -2.000
 4284.00    0.87757   0.69826   -2.000
 4285.00    0.74580   0.69304   -2.000
 4286.00    0.67777   0.68728   -2.000
 4287.00    0.74086   0.68315   -2.000
 4288.00    0.83871   0.68197   -2.000
 4289.00    0.90133   0.68336   -2.000
 4290.00    0.93778   0.68580   -2.000
 4291.00    0.93805   0.68779    4.160
 4292.00    0.86035   0.68794    4.207
 4293.00    0.71520   0.68552    4.235
 4294.00    0.57394   0.68074    4.338
 4295.00    0.50285   0.67397    4.469
 4296.00    0.52877   0.66627    4.454
 4297.00    0.60466   0.65922    4.320
 4298.00    0.64149   0.65376    4.267
 4299.00    0.61723   0.65068    4.330
 4300.00    0.57506   0.65041    4.404
 4301.00    0.54609   0.65156    4.412
 4302.00    0.52977   0.65212    4.369
 4303.00    0.49595   0.65110    4.379
 4304.00    0.42520   0.64877    4.550
 4305.00    0.38738   0.64644    4.793
 4306.00    0.46699   0.64569    4.884
 4307.00    0.59297   0.64730    4.852
 4308.00    0.63137   0.65089    4.877
 4309.00    0.60457   0.65519    4.905
 4310.00    0.62392   0.65939    4.780
 4311.00    0.71530   0.66415    4.575
 4312.00    0.82702   0.67023    4.454
 4313.00    0.88845   0.67711    4.463
 4314.00    0.85556   0.68333    4.555
 4315.00    0.75943   0.68708    4.612
 4316.00    0.66573   0.68704    4.550
 4317.00    0.61287   0.68314    4.467
 4318.00    0.60618   0.67627    4.480
 4319.00    0.62193   0.66681    4.549
 4320.00    0.62987   0.65480    4.581
 4321.00    0.61780   0.64115    4.574
 4322.00    0.59229   0.62827    4.569
 4323.00    0.57473   0.61905    4.573
 4324.00    0.58129   0.61459    4.593
 4325.00    0.60504   0.61359    4.656
 4326.00    0.62612   0.61324    4.757
 4327.00    0.62420   0.61057    4.808
 4328.00    0.59657   0.60370    4.747
 4329.00    0.56871   0.59261    4.633
 4330.00    0.56644   0.57818    0.000
 4331.00    0.59290   0.56045    0.000
 4332.00    0.61923   0.53808    0.000
 4333.00    0.59047   0.50982    0.000
 4334.00    0.49842   0.47641    0.000
 4335.00    0.41327   0.44056    0.000
 4336.00    0.38784   0.40736    0.000
 4337.00    0.41062   0.38414    0.000
 4338.00    0.47264   0.37638    0.000
 4339.00    0.59425   0.38467    0.000
 4340.00    0.76502   0.40600    0.000
 4341.00    0.92313   0.43535    0.000
 4342.00    1.00777   0.46673    0.000
 4343.00    0.99169   0.49583    0.000
 4344.00    0.90944   0.52126    0.000
 4345.00    0.84450   0.54246    0.000
 4346.00    0.83272   0.55852    0.000
 4347.00    0.84054   0.56949    0.000
 4348.00    0.83001   0.57731    0.000
 4349.00    0.78287   0.58472    0.000
 4350.00    0.69721   0.59372    0.000
 4351.00    0.58853   0.60526   17.640
 4352.00    0.49687   0.61874   20.650
 4353.00    0.47066   0.63179   20.729
 4354.00    0.51550   0.64205   19.061
 4355.00    0.59191   0.64920   17.341
 4356.00    0.64982   0.65442   15.775
 4357.00    0.65579   0.65893   14.424
 4358.00    0.63436   0.66362   14.859
 4359.00    0.64197   0.66885   18.733
 4360.00    0.68708   0.67418   17.198
 4361.00    0.73766   0.67844    8.578
 4362.00    0.77479   0.68042    5.160
 4363.00    0.78800   0.67989    4.478
 4364.00    0.74669   0.67765    4.797
 4365.00    0.64442   0.67491    5.074
 4366.00    0.58160   0.67273    4.943
 4367.00    0.66079   0.67166    4.765
 4368.00    0.79876   0.67123    4.710
 4369.00    0.83717   0.67024    4.749
 4370.00    0.75325   0.66804    4.815
 4371.00    0.62369   0.66551    4.859
 4372.00    0.52752   0.66442    4.896
 4373.00    0.51146   0.66584    4.956
 4374.00    0.56399   0.66942    5.000
 4375.00    0.63430   0.67362    4.989
 4376.00    0.66347   0.67612    4.983
 4377.00    0.64201   0.67457    5.044
 4378.00    0.65773   0.66771    5.131
 4379.00    0.75831   0.65650    5.165
 4380.00    0.82254   0.64409    5.123
 4381.00    0.74267   0.63410    5.052
 4382.00    0.59424   0.62878    5.050
 4383.00    0.48949   0.62854    5.160
 4384.00    0.44261   0.63252    5.287
 4385.00    0.43472   0.63870    5.319
 4386.00    0.47023   0.64501    5.248
 4387.00    0.53460   0.65077    5.148
 4388.00    0.57085   0.65615    5.107
 4389.00    0.56126   0.66058    5.134
 4390.00    0.56948   0.66343    5.128
 4391.00    0.63414   0.66529    5.041
 4392.00    0.71108   0.66737    4.954
 4393.00    0.75180   0.67008    4.932
 4394.00    0.74879   0.67296    4.962
 4395.00    0.71439   0.67505    5.003
 4396.00    0.66655   0.67545    5.022
 4397.00    0.62285   0.67399    4.996
 4398.00    0.59819   0.67106    4.921
 4399.00    0.60700   0.66699    4.839
 4400.00    0.65725   0.66228    4.822
 4401.00    0.72080   0.65784    4.894
 4402.00    0.74136   0.65441    5.015
 4403.00    0.71497   0.65257    5.112
 4404.00    0.69295   0.65330    5.123
 4405.00    0.67605   0.65703    5.071
 4406.00    0.61542   0.66261    5.055
 4407.00    0.54653   0.66836    5.086
 4408.00    0.57291   0.67296    5.099
 4409.00    0.67653   0.67480    5.086
 4410.00    0.72972   0.67255    5.106
 4411.00    0.69848   0.66681    5.157
 4412.00    0.65125   0.65998    5.187
 4413.00    0.62515   0.65490    5.205
 4414.00    0.60963   0.65385    5.261
 4415.00    0.59593   0.65729    5.299
 4416.00    0.59138   0.66331    5.215
 4417.00    0.62195   0.66892    5.073
 4418.00    0.70006   0.67229    5.017
 4419.00    0.76063   0.67324    5.048
 4420.00    0.72583   0.67254    5.081
 4421.00    0.64887   0.67120    5.097
 4422.00    0.63877   0.66997    5.121
 4423.00    0.68317   0.66916    5.127
 4424.00    0.70929   0.66851    5.080
 4425.00    0.73005   0.66760    5.026
 4426.00    0.77950   0.66660    5.025
 4427.00    0.78651   0.66579    5.043
 4428.00    0.67814   0.66472    5.024
 4429.00    0.54079   0.66261    5.000
 4430.00    0.49134   0.65942    5.028
 4431.00    0.49182   0.65605    5.095
 4432.00    0.46440   0.65371    5.151
 4433.00    0.44787   0.65362    5.163
 4434.00    0.49805   0.65640    5.128
 4435.00    0.56534   0.66104    5.072
 4436.00    0.57451   0.66514    5.030
 4437.00    0.51855   0.66649    5.032
 4438.00    0.45247   0.66445    5.075
 4439.00    0.46842   0.66047    5.112
 4440.00    0.59712   0.65707    5.110
 4441.00    0.73848   0.65607    5.102
 4442.00    0.79230   0.65771    5.120
 4443.00    0.76321   0.66098    5.141
 4444.00    0.71540   0.66427    5.149
 4445.00    0.72230   0.66614    5.176
 4446.00    0.79230   0.66627    5.226
 4447.00    0.83824   0.66527    5.242
 4448.00    0.80109   0.66345    5.235
 4449.00    0.71796   0.66043    5.333
 4450.00    0.64289   0.65616    5.554
 4451.00    0.59888   0.65136    5.677
 4452.00    0.58791   0.64685    5.596
 4453.00    0.59943   0.64327    5.506
 4454.00    0.61938   0.64106    5.521
 4455.00    0.63720   0.64008    5.550
 4456.00    0.65728   0.63959    5.520
 4457.00    0.69421   0.63904    5.465
 4458.00    0.73121   0.63891    5.413
 4459.00    0.72248   0.63981    5.359
 4460.00    0.67198   0.64162    5.316
 4461.00    0.63811   0.64372    0.000
 4462.00    0.63709   0.64517    0.000
 4463.00    0.63016   0.64486    0.000
 4464.00    0.60061   0.64221    0.000
 4465.00    0.57098   0.63765    0.000
 4466.00    0.57304   0.63251    0.000
 4467.00    0.62399   0.62868    0.000
 4468.00    0.68849   0.62801    0.000
 4469.00    0.70265   0.63127    0.000
 4470.00    0.66276   0.63786    0.000
 4471.00    0.61397   0.64632    0.000
 4472.00    0.56670   0.65457    0.000
 4473.00    0.50768   0.66028    0.000
 4474.00    0.46926   0.66162    0.000
 4475.00    0.50383   0.65780    0.000
 4476.00    0.60056   0.64962    0.000
 4477.00    0.69713   0.63975    0.000
 4478.00    0.73597   0.63189    0.000
 4479.00    0.69330   0.62908    0.000
 4480.00    0.60870   0.63256    0.000
 4481.00    0.55141   0.64087    0.000
 4482.00    0.55732   0.65026    5.681
 4483.00    0.61362   0.65665    5.679
 4484.00    0.65556   0.65824    5.701
 4485.00    0.63753   0.65597    5.733
 4486.00    0.62421   0.65211    5.750
 4487.00    0.68027   0.64879    5.744
 4488.00    0.72377   0.64708    5.758
 4489.00    0.66349   0.64675    5.824
 4490.00    0.57261   0.64691    5.896
 4491.00    0.55995   0.64682    5.914
 4492.00    0.61361   0.64648    5.888
 4493.00    0.67272   0.64657    5.857
 4494.00    0.71468   0.64775    5.830
 4495.00    0.73321   0.64980    5.818
 4496.00    0.71339   0.65191    5.844
 4497.00    0.66284   0.65372    5.902
 4498.00    0.63272   0.65555    5.914
 4499.00    0.65002   0.65781    5.864
 4500.00    0.67089   0.66061    5.882
 4501.00    0.65345   0.66350    6.027
 4502.00    0.61079   0.66540    6.156
 4503.00    0.58248   0.66542    6.122
 4504.00    0.60464   0.66376    5.969
 4505.00    0.66094   0.66159    5.845
 4506.00    0.67168   0.65983    5.892
 4507.00    0.60738   0.65858    6.087
 4508.00    0.53764   0.65729    6.174
 4509.00    0.52710   0.65525    6.061
 4510.00    0.57959   0.65228    5.994
 4511.00    0.65364   0.64896    6.083
 4512.00    0.68634   0.64619    6.164
 4513.00    0.65951   0.64454    6.134
 4514.00    0.61374   0.64407    6.085
 4515.00    0.57874   0.64443    6.105
 4516.00    0.55039   0.64494    6.191
 4517.00    0.52153   0.64478    6.262
 4518.00    0.49475   0.64363    6.206
 4519.00    0.48249   0.64154    6.086
 4520.00    0.49917   0.63854    6.098
 4521.00    0.53652   0.63478    6.236
 4522.00    0.57088   0.63047    6.293
 4523.00    0.60984   0.62589    6.186
 4524.00    0.67701   0.62134    6.030
 4525.00    0.73017   0.61736    5.951
 4526.00    0.69192   0.61475    6.007
 4527.00    0.58724   0.61385    6.113
 4528.00    0.51499   0.61408    6.106
 4529.00    0.49426   0.61451    6.018
 4530.00    0.47989   0.61473    6.009
 4531.00    0.47883   0.61529    6.086
 4532.00    0.52609   0.61724    6.138
 4533.00    0.58446   0.62115    6.110
 4534.00    0.58598   0.62657    6.044
 4535.00    0.54652   0.63196    6.033
 4536.00    0.52702   0.63562    6.136
 4537.00    0.52972   0.63692    6.246
 4538.00    0.52243   0.63647    6.217
 4539.00    0.50592   0.63537    6.152
 4540.00    0.50110   0.63437    6.210
 4541.00    0.51428   0.63348    6.292
 4542.00    0.54349   0.63208    6.231
 4543.00    0.59338   0.62950    6.138
 4544.00    0.66105   0.62574    6.178
 4545.00    0.71759   0.62171    6.276
 4546.00    0.73408   0.61824    6.284
 4547.00    0.71410   0.61579    6.226
 4548.00    0.68366   0.61453    6.203
 4549.00    0.67326   0.61423    6.245
 4550.00    0.68456   0.61435    0.000
 4551.00    0.66605   0.61458    0.000
 4552.00    0.58988   0.61538    0.000
 4553.00    0.51635   0.61765    0.000
 4554.00    0.50562   0.62159    0.000
 4555.00    0.54198   0.62655    0.000
 4556.00    0.58255   0.63134    0.000
 4557.00    0.60132   0.63455    0.000
 4558.00    0.59132   0.63534    0.000
 4559.00    0.56239   0.63389    0.000
 4560.00    0.53002   0.63104    0.000
 4561.00    0.50709   0.62805    0.000
 4562.00    0.49946   0.62624    0.000
 4563.00    0.50574   0.62641    0.000
 4564.00    0.52968   0.62822    0.000
 4565.00    0.57997   0.63024    0.000
 4566.00    0.62975   0.63101    0.000
 4567.00    0.61513   0.63013    0.000
 4568.00    0.53589   0.62829    0.000
 4569.00    0.47887   0.62659    0.000
 4570.00    0.49250   0.62590    0.000
 4571.00    0.54617   0.62642    0.000
 4572.00    0.60829   0.62750    0.000
 4573.00    0.67222   0.62794    0.000
 4574.00    0.72294   0.62690    0.000
 4575.00    0.73524   0.62451    0.000
 4576.00    0.71515   0.62133    0.000
 4577.00    0.69666   0.61788    0.000
 4578.00    0.68189   0.61472    0.000
 4579.00    0.64521   0.61240    0.000
 4580.00    0.60573   0.61118    0.000
 4581.00    0.61369   0.61102    0.000
 4582.00    0.65066   0.61173    0.000
 4583.00    0.64903   0.61318    0.000
 4584.00    0.61382   0.61512    0.000
 4585.00    0.60749   0.61690    0.000
 4586.00    0.63786   0.61786    0.000
 4587.00    0.66049   0.61772    0.000
 4588.00    0.64482   0.61660    0.000
 4589.00    0.59208   0.61485    0.000
 4590.00    0.53964   0.61299    0.000
 4591.00    0.53148   0.61157    0.000
 4592.00    0.56309   0.61089    0.000
 4593.00    0.60245   0.61092    0.000
 4594.00    0.64313   0.61141    0.000
 4595.00    0.68558   0.61205    0.000
 4596.00    0.69511   0.61255    0.000
 4597.00    0.65052   0.61262    0.000
 4598.00    0.61966   0.61225    0.000
 4599.00    0.66319   0.61175    0.000
 4600.00    0.69708   0.61157    0.000
 4601.00    0.62338   0.61209    0.000
 4602.00    0.50969   0.61341    0.000
 4603.00    0.46787   0.61545    0.000
 4604.00    0.49197   0.61803    0.000
 4605.00    0.52669   0.62077    0.000
 4606.00    0.55913   0.62308    0.000
 4607.00    0.59442   0.62436    0.000
 4608.00    0.62305   0.62435    0.000
 4609.00    0.63316   0.62339    0.000
 4610.00    0.62443   0.62204    0.000
 4611.00    0.60642   0.62086    0.000
 4612.00    0.59452   0.61988    0.000
 4613.00    0.59826   0.61881    0.000
 4614.00    0.61217   0.61747    0.000
 4615.00    0.61738   0.61596    0.000
 4616.00    0.58960   0.61472    0.000
 4617.00    0.54328   0.61436    0.000
 4618.00    0.54576   0.61506    0.000
 4619.00    0.61749   0.61653    0.000
 4620.00    0.68659   0.61809    0.000
 4621.00    0.69637   0.61892    0.000
 4622.00    0.66072   0.61862    0.000
 4623.00    0.61330   0.61728    0.000
 4624.00    0.57747   0.61529    0.000
 4625.00    0.56276   0.61320    0.000
 4626.00    0.56611   0.61151    0.000
 4627.00    0.58284   0.61038    0.000
 4628.00    0.60864   0.60962    0.000
 4629.00    0.62648   0.60889    0.000
 4630.00    0.61005   0.60782    0.000
 4631.00    0.55819   0.60613    0.000
 4632.00    0.50077   0.60393    0.000
 4633.00    0.47101   0.60165    0.000
 4634.00    0.48613   0.59954    0.000
 4635.00    0.51919   0.59767    0.000
 4636.00    0.51429   0.59613    0.000
 4637.00    0.45940   0.59521    0.000
 4638.00    0.39832   0.59513    0.000
 4639.00    0.39938   0.59549    0.000
 4640.00    0.50737   0.59545    0.000
 4641.00    0.64794   0.59423    0.000
 4642.00    0.68995   0.59154    0.000
 4643.00    0.64699   0.58788    0.000
 4644.00    0.62947   0.58440    0.000
 4645.00    0.63675   0.58229    0.000
 4646.00    0.59504   0.58229    0.000
 4647.00    0.52495   0.58435    0.000
 4648.00    0.50747   0.58753    0.000
 4649.00    0.55770   0.59058    0.000
 4650.00    0.63221   0.59266    0.000
 4651.00    0.68391   0.59364    0.000
 4652.00    0.68419   0.59415    0.000
 4653.00    0.64153   0.59515    0.000
 4654.00    0.58604   0.59734    0.000
 4655.00    0.54152   0.60060    0.000
 4656.00    0.51197   0.60387    0.000
 4657.00    0.47162   0.60579    0.000
 4658.00    0.40867   0.60546    0.000
 4659.00    0.37659   0.60279    0.000
 4660.00    0.42452   0.59830    0.000
 4661.00    0.51370   0.59284    0.000
 4662.00    0.57510   0.58716    0.000
 4663.00    0.58212   0.58192    0.000
 4664.00    0.55566   0.57791    0.000
 4665.00    0.55529   0.57598    0.000
 4666.00    0.61282   0.57659    0.000
 4667.00    0.67975   0.57944    0.000
 4668.00    0.70309   0.58336    0.000
 4669.00    0.68924   0.58696    0.000
 4670.00    0.66239   0.58945    0.000
 4671.00    0.63003   0.59084    0.000
 4672.00    0.60068   0.59152    0.000
 4673.00    0.59418   0.59177    0.000
 4674.00    0.61033   0.59152    0.000
 4675.00    0.61418   0.59055    0.000
 4676.00    0.58082   0.58887    0.000
 4677.00    0.52054   0.58695    0.000
 4678.00    0.45690   0.58545    0.000
 4679.00    0.41174   0.58482    0.000
 4680.00    0.39731   0.58503    0.000
 4681.00    0.41339   0.58566    0.000
 4682.00    0.45176   0.58622    0.000
 4683.00    0.49946   0.58639    0.000
 4684.00    0.54302   0.58613    0.000
 4685.00    0.57204   0.58566    0.000
 4686.00    0.58552   0.58520    0.000
 4687.00    0.59286   0.58487    0.000
 4688.00    0.60713   0.58484    0.000
 4689.00    0.63538   0.58521    0.000
 4690.00    0.65500   0.58601    0.000
 4691.00    0.62661   0.58700    0.000
 4692.00    0.56200   0.58758    0.000
 4693.00    0.51854   0.58705    0.000
 4694.00    0.51568   0.58505    0.000
 4695.00    0.52671   0.58179    0.000
 4696.00    0.52778   0.57797    0.000
 4697.00    0.51339   0.57447    0.000
 4698.00    0.49898   0.57196    0.000
 4699.00    0.50682   0.57061    0.000
 4700.00    0.53258   0.57014    0.000
 4701.00    0.55657   0.57018    0.000
 4702.00    0.58449   0.57042    0.000
 4703.00    0.62728   0.57062    0.000
 4704.00    0.64486   0.57065    0.000
 4705.00    0.58943   0.57053    0.000
 4706.00    0.50359   0.57053    0.000
 4707.00    0.47097   0.57084    0.000
 4708.00    0.50193   0.57124    0.000
 4709.00    0.54579   0.57144    0.000
 4710.00    0.54364   0.57146    0.000
 4711.00    0.47648   0.57167    0.000
 4712.00    0.41742   0.57271    0.000
 4713.00    0.44415   0.57500    0.000
 4714.00    0.51592   0.57828    0.000
 4715.00    0.54703   0.58174    0.000
 4716.00    0.51802   0.58459    0.000
 4717.00    0.46218   0.58644    0.000
 4718.00    0.43120   0.58730    0.000
 4719.00    0.45662   0.58742    0.000
 4720.00    0.51630   0.58687    0.000
 4721.00    0.57597   0.58557    0.000
 4722.00    0.63085   0.58325    0.000
 4723.00    0.67506   0.57969    0.000
 4724.00    0.67567   0.57508    0.000
 4725.00    0.62425   0.57023    0.000
 4726.00    0.57409   0.56629    0.000
 4727.00    0.56947   0.56419    0.000
 4728.00    0.59308   0.56420    0.000
 4729.00    0.60790   0.56577    0.000
 4730.00    0.59214   0.56799    0.000
 4731.00    0.54890   0.57009    0.000
 4732.00    0.50684   0.57154    0.000
 4733.00    0.49123   0.57223    0.000
 4734.00    0.50601   0.57241    0.000
 4735.00    0.53539   0.57241    0.000
 4736.00    0.55063   0.57244    0.000
 4737.00    0.53729   0.57260    0.000
 4738.00    0.50770   0.57280    0.000
 4739.00    0.49074   0.57302    0.000
 4740.00    0.51813   0.57343    0.000
 4741.00    0.58839   0.57413    0.000
 4742.00    0.66141   0.57501    0.000
 4743.00    0.70295   0.57585    0.000
 4744.00    0.70068   0.57646    0.000
 4745.00    0.65219   0.57678    0.000
 4746.00    0.56747   0.57663    0.000
 4747.00    0.49385   0.57587    0.000
 4748.00    0.49478   0.57448    0.000
 4749.00    0.55504   0.57259    0.000
 4750.00    0.59471   0.57040    0.000
 4751.00    0.60219   0.56820    0.000
 4752.00    0.63012   0.56638    0.000
 4753.00    0.67322   0.56515    0.000
 4754.00    0.67644   0.56449    0.000
 4755.00    0.64226   0.56412    0.000
 4756.00    0.62224   0.56354    0.000
 4757.00    0.63250   0.56226    0.000
 4758.00    0.64992   0.55998    0.000
 4759.00    0.64834   0.55680    0.000
 4760.00    0.61359   0.55330    0.000
 4761.00    0.55638   0.55024    7.264
 4762.00    0.50505   0.54835    7.400
 4763.00    0.48705   0.54799    7.526
 4764.00    0.51490   0.54899    7.466
 4765.00    0.56913   0.55090    7.312
 4766.00    0.60983   0.55301    7.275
 4767.00    0.60075   0.55469    7.425
 4768.00    0.53614   0.55569    7.693
 4769.00    0.47086   0.55625    7.884
 4770.00    0.46803   0.55679    7.847
 4771.00    0.52443   0.55762    7.761
 4772.00    0.58861   0.55865    7.852
 4773.00    0.59978   0.55941    8.065
 4774.00    0.54297   0.55946    8.232
 4775.00    0.49835   0.55867    8.331
 4776.00    0.53441   0.55722    8.396
 4777.00    0.59744   0.55539    8.352
 4778.00    0.60968   0.55339    8.155
 4779.00    0.57285   0.55144    7.922
 4780.00    0.52361   0.54972    7.782
 4781.00    0.48411   0.54827    7.781
 4782.00    0.46098   0.54715    7.864
 4783.00    0.44881   0.54645    7.874
 4784.00    0.43830   0.54618    7.775
 4785.00    0.42400   0.54629    7.780
 4786.00    0.41599   0.54690    7.968
 4787.00    0.44142   0.54816    8.064
 4788.00    0.50001   0.55011    7.912
 4789.00    0.54557   0.55266    7.773
 4790.00    0.55812   0.55548    7.802
 4791.00    0.57533   0.55790    7.833
 4792.00    0.61018   0.55923    7.722
 4793.00    0.61901   0.55905    7.541
 4794.00    0.58775   0.55741    7.422
 4795.00    0.56247   0.55496    7.451
 4796.00    0.56950   0.55264    7.566
 4797.00    0.58542   0.55116    7.565
 4798.00    0.58212   0.55069    7.501
 4799.00    0.55032   0.55077    7.678
 4800.00    0.50789   0.55071    7.935
 4801.00    0.49174   0.54997    7.659
 4802.00    0.51591   0.54849    7.411
 4803.00    0.56223   0.54669    8.710
 4804.00    0.60454   0.54511   13.122
 4805.00    0.62088   0.54406   18.488
 4806.00    0.60335   0.54352   17.817
 4807.00    0.56385   0.54326   16.840
 4808.00    0.54031   0.54315   17.966
 4809.00    0.57147   0.54315   18.009
 4810.00    0.62526   0.54332   16.299
 4811.00    0.62600   0.54378   15.457
 4812.00    0.57122   0.54463   16.903
 4813.00    0.52403   0.54577   21.188
 4814.00    0.52508   0.54684   21.174
 4815.00    0.57420   0.54743   12.913
 4816.00    0.63786   0.54715    8.422
 4817.00    0.67247   0.54575    7.404
 4818.00    0.66624   0.54323    7.780
 4819.00    0.63520   0.53999    7.990
 4820.00    0.59996   0.53675    7.750
 4821.00    0.57422   0.53422    7.744
 4822.00    0.55350   0.53278    8.008
 4823.00    0.52694   0.53238    8.165
 4824.00    0.49840   0.53248    8.147
 4825.00    0.48280   0.53233    8.124
 4826.00    0.49514   0.53156    8.112
 4827.00    0.53560   0.53034    8.047
 4828.00    0.57364   0.52907    7.943
 4829.00    0.57695   0.52809    7.877
 4830.00    0.54853   0.52744    7.945
 4831.00    0.51261   0.52694    8.174
 4832.00    0.49210   0.52633    8.405
 4833.00    0.49306   0.52519    8.496
 4834.00    0.49444   0.52317    8.583
 4835.00    0.48778   0.52032    8.772
 4836.00    0.51031   0.51700    8.794
 4837.00    0.57734   0.51363    8.468
 4838.00    0.62764   0.51053    8.114
 4839.00    0.60867   0.50787    8.018
 4840.00    0.54552   0.50561    8.160
 4841.00    0.48411   0.50338    8.374
 4842.00    0.44442   0.50065    8.431
 4843.00    0.43270   0.49706    8.272
 4844.00    0.45063   0.49245    8.124
 4845.00    0.48304   0.48691    8.148
 4846.00    0.49588   0.48075    8.286
 4847.00    0.47659   0.47415    8.425
 4848.00    0.45209   0.46688    0.000
 4849.00    0.44800   0.45838    0.000
 4850.00    0.46574   0.44806    0.000
 4851.00    0.48913   0.43580    0.000
 4852.00    0.49290   0.42186    0.000
 4853.00    0.46332   0.40637    0.000
 4854.00    0.40829   0.38927    0.000
 4855.00    0.35686   0.37080    0.000
 4856.00    0.35236   0.35207    0.000
 4857.00    0.42630   0.33555    0.000
 4858.00    0.58412   0.32471    0.000
 4859.00    0.79329   0.32250    0.000
 4860.00    0.99014   0.32977    0.000
 4861.00    1.11790   0.34474    0.000
 4862.00    1.14335   0.36375    0.000
 4863.00    1.06530   0.38290    0.000
 4864.00    0.91560   0.39973    0.000
 4865.00    0.75348   0.41331    0.000
 4866.00    0.64144   0.42366    0.000
 4867.00    0.58662   0.43148    0.000
 4868.00    0.54856   0.43798    0.000
 4869.00    0.49921   0.44429    0.000
 4870.00    0.43767   0.45111    0.000
 4871.00    0.38690   0.45864    0.000
 4872.00    0.37660   0.46649    0.000
 4873.00    0.40925   0.47401    0.000
 4874.00    0.46474   0.48076    0.000
 4875.00    0.52403   0.48656    8.267
 4876.00    0.56967   0.49122    8.233
 4877.00    0.57883   0.49452    8.323
 4878.00    0.54142   0.49645    8.401
 4879.00    0.49055   0.49725    8.421
 4880.00    0.47000   0.49729    8.407
 4881.00    0.47753   0.49703    8.364
 4882.00    0.49039   0.49675    8.287
 4883.00    0.51315   0.49647    8.195
 4884.00    0.55533   0.49617    8.125
 4885.00    0.59441   0.49585    8.122
 4886.00    0.59991   0.49566    8.200
 4887.00    0.56850   0.49602    8.303
 4888.00    0.51977   0.49770    8.357
 4889.00    0.48465   0.50131    8.340
 4890.00    0.48086   0.50686    8.262
 4891.00    0.49084   0.51352    8.134
 4892.00    0.48841   0.51977    8.016
 4893.00    0.46700   0.52420    8.041
 4894.00    0.44049   0.52625    8.242
 4895.00    0.43791   0.52613    8.411
 4896.00    0.47030   0.52456    8.381
 4897.00    0.50885   0.52245    8.305
 4898.00    0.53050   0.52054    8.320
 4899.00    0.54933   0.51935    8.319
 4900.00    0.57658   0.51911    8.218
 4901.00    0.59563   0.51962    8.134
 4902.00    0.59750   0.52041    8.142
 4903.00    0.60008   0.52090    8.160
 4904.00    0.61515   0.52056    8.130
 4905.00    0.63027   0.51914    8.108
 4906.00    0.62601   0.51705    8.114
 4907.00    0.58907   0.51514    8.082
 4908.00    0.52594   0.51425    8.022
 4909.00    0.46494   0.51468    8.059
 4910.00    0.43274   0.51600    8.246
 4911.00    0.43990   0.51722    8.488
 4912.00    0.46871   0.51712    8.653
 4913.00    0.48056   0.51473    8.658
 4914.00    0.46563   0.50973    8.552
 4915.00    0.44867   0.50264    8.493
 4916.00    0.43400   0.49481    8.582
 4917.00    0.40239   0.48805    8.808
 4918.00    0.37294   0.48393    8.997
 4919.00    0.39591   0.48324    8.902
 4920.00    0.46195   0.48585    8.638
 4921.00    0.50736   0.49099    8.552
 4922.00    0.51513   0.49763    8.628
 4923.00    0.51795   0.50479    8.582
 4924.00    0.52428   0.51161    8.485
 4925.00    0.51720   0.51724    8.647
 4926.00    0.50253   0.52088    8.943
 4927.00    0.50085   0.52213    8.925
 4928.00    0.50182   0.52113    8.699
 4929.00    0.48212   0.51844    8.724
 4930.00    0.46471   0.51492    8.980
 4931.00    0.49161   0.51138    9.113
 4932.00    0.54722   0.50829    9.057
 4933.00    0.58016   0.50575    8.987
 4934.00    0.57006   0.50374    8.926
 4935.00    0.53218   0.50235    8.808
 4936.00    0.50289   0.50207    8.704
 4937.00    0.50804   0.50339    8.715
 4938.00    0.52071   0.50626    8.792
 4939.00    0.50323   0.50995    8.823
 4940.00    0.47392   0.51345    0.000
 4941.00    0.47377   0.51608    0.000
 4942.00    0.51004   0.51779    0.000
 4943.00    0.55828   0.51891    0.000
 4944.00    0.57665   0.51975    0.000
 4945.00    0.54416   0.52052    0.000
 4946.00    0.49759   0.52116    0.000
 4947.00    0.47939   0.52131    0.000
 4948.00    0.48209   0.52058    0.000
 4949.00    0.48404   0.51867    0.000
 4950.00    0.48748   0.51538    0.000
 4951.00    0.50040   0.51074    0.000
 4952.00    0.51840   0.50516    0.000
 4953.00    0.53631   0.49963    0.000
 4954.00    0.55807   0.49542    0.000
 4955.00    0.58909   0.49369    0.000
 4956.00    0.62976   0.49478    0.000
 4957.00    0.67604   0.49805    0.000
 4958.00    0.72107   0.50190    0.000
 4959.00    0.76171   0.50456    0.000
 4960.00    0.80041   0.50517    0.000
 4961.00    0.83105   0.50400    0.000
 4962.00    0.83298   0.50186    0.000
 4963.00    0.78691   0.49962    0.000
 4964.00    0.68862   0.49804    0.000
 4965.00    0.57116   0.49763    0.000
 4966.00    0.49932   0.49848    0.000
 4967.00    0.49066   0.50025    0.000
 4968.00    0.49571   0.50248    0.000
 4969.00    0.47837   0.50468    0.000
 4970.00    0.44495   0.50632    0.000
 4971.00    0.41291   0.50705    0.000
 4972.00    0.39705   0.50663    0.000
 4973.00    0.40843   0.50502    0.000
 4974.00    0.45172   0.50232    0.000
 4975.00    0.51773   0.49871    0.000
 4976.00    0.58546   0.49439    0.000
 4977.00    0.63682   0.48960    0.000
 4978.00    0.66096   0.48479    0.000
 4979.00    0.65309   0.48065    0.000
 4980.00    0.61387   0.47799    0.000
 4981.00    0.54898   0.47746    0.000
 4982.00    0.47225   0.47919    0.000
 4983.00    0.41291   0.48251    0.000
 4984.00    0.40120   0.48623    0.000
 4985.00    0.43229   0.48922    0.000
 4986.00    0.47198   0.49095    0.000
 4987.00    0.48700   0.49141    0.000
 4988.00    0.46189   0.49114    0.000
 4989.00    0.41781   0.49078    0.000
 4990.00    0.39088   0.49079    0.000
 4991.00    0.38781   0.49121    0.000
 4992.00    0.39723   0.49168    0.000
 4993.00    0.42131   0.49164    0.000
 4994.00    0.46539   0.49063    0.000
 4995.00    0.51474   0.48841    0.000
 4996.00    0.54705   0.48515    0.000
 4997.00    0.55522   0.48146    0.000
 4998.00    0.54661   0.47802    0.000
 4999.00    0.53731   0.47527    0.000
 5000.00    0.54390   0.47329    0.000
 5001.00    0.57480   0.47192    0.000
 5002.00    0.63781   0.47114    0.000
 5003.00    0.74830   0.47110    0.000
 5004.00    0.91268   0.47193    0.000
 5005.00    1.11013   0.47338    0.000
 5006.00    1.29129   0.47470    0.000
 5007.00    1.38415   0.47486    0.000
 5008.00    1.34687   0.47327    0.000
 5009.00    1.20952   0.47014    0.000
 5010.00    1.02970   0.46633    0.000
 5011.00    0.85192   0.46283    0.000
 5012.00    0.70045   0.46038    0.000
 5013.00    0.57849   0.45929    0.000
 5014.00    0.48599   0.45946    0.000
 5015.00    0.42989   0.46063    0.000
 5016.00    0.40758   0.46242    0.000
 5017.00    0.39986   0.46458    0.000
 5018.00    0.39642   0.46695    0.000
 5019.00    0.40655   0.46934    0.000
 5020.00    0.43039   0.47150    0.000
 5021.00    0.44830   0.47327    0.000
 5022.00    0.45094   0.47460    0.000
 5023.00    0.45080   0.47545    0.000
 5024.00    0.46125   0.47597    0.000
 5025.00    0.48446   0.47658    0.000
 5026.00    0.50474   0.47768    0.000
 5027.00    0.49562   0.47935    0.000
 5028.00    0.45843   0.48123    0.000
 5029.00    0.42786   0.48254    9.746
 5030.00    0.43407   0.48264    9.845
 5031.00    0.48315   0.48121    9.849
 5032.00    0.54160   0.47831    9.750
 5033.00    0.55364   0.47429    9.720
 5034.00    0.51044   0.46961    9.802
 5035.00    0.45430   0.46479    9.890
 5036.00    0.42610   0.46042    9.942
 5037.00    0.44458   0.45728   10.010
 5038.00    0.49439   0.45634   10.118
 5039.00    0.53991   0.45826   10.221
 5040.00    0.56593   0.46272   10.165
 5041.00    0.57484   0.46835    9.857
 5042.00    0.55760   0.47321    9.582
 5043.00    0.50546   0.47580    9.686
 5044.00    0.44741   0.47585   10.014
 5045.00    0.42747   0.47405   10.103
 5046.00    0.44658   0.47150    9.942
 5047.00    0.47570   0.46936    9.854
 5048.00    0.49942   0.46835    9.912
 5049.00    0.51571   0.46855    9.993
 5050.00    0.52224   0.46956    9.985
 5051.00    0.51481   0.47095    9.862
 5052.00    0.48907   0.47250    9.733
 5053.00    0.45097   0.47413    9.713
 5054.00    0.42931   0.47589    9.776
 5055.00    0.44819   0.47780    9.830
 5056.00    0.49049   0.47958    9.833
 5057.00    0.52197   0.48068    9.779
 5058.00    0.52593   0.48055    9.654
 5059.00    0.50492   0.47897    9.506
 5060.00    0.47699   0.47615    9.501
 5061.00    0.46318   0.47266    9.690
 5062.00    0.47404   0.46933    9.785
 5063.00    0.50048   0.46683    9.600
 5064.00    0.51035   0.46549    9.468
 5065.00    0.48839   0.46514    9.633
 5066.00    0.46611   0.46524    9.810
 5067.00    0.47010   0.46540    9.699
 5068.00    0.48303   0.46548    9.475
 5069.00    0.48948   0.46545    9.370
 5070.00    0.50627   0.46527    9.395
 5071.00    0.53397   0.46494    9.468
 5072.00    0.53134   0.46437    9.524
 5073.00    0.48263   0.46325    9.601
 5074.00    0.43238   0.46136    9.865
 5075.00    0.42238   0.45882   10.287
 5076.00    0.45447   0.45612   10.457
 5077.00    0.50311   0.45389   10.243
 5078.00    0.53047   0.45274   10.103
 5079.00    0.52070   0.45305   10.301
 5080.00    0.49083   0.45465   10.674
 5081.00    0.45987   0.45694   10.962
 5082.00    0.43475   0.45936   10.998
 5083.00    0.41512   0.46157   10.793
 5084.00    0.39737   0.46340   10.505
 5085.00    0.38102   0.46483   10.255
 5086.00    0.37173   0.46599   10.079
 5087.00    0.38258   0.46701    9.971
 5088.00    0.42576   0.46788    9.910
 5089.00    0.48405   0.46841    9.885
 5090.00    0.51610   0.46827    9.914
 5091.00    0.50297   0.46712   10.068
 5092.00    0.45743   0.46481   10.421
 5093.00    0.40696   0.46153   10.807
 5094.00    0.38043   0.45789   10.878
 5095.00    0.38713   0.45473   10.690
 5096.00    0.41622   0.45275   10.604
 5097.00    0.44925   0.45218   10.620
 5098.00    0.46648   0.45277   10.499
 5099.00    0.45385   0.45392   10.324
 5100.00    0.41071   0.45486   10.352
 5101.00    0.36193   0.45507   10.526
 5102.00    0.34236   0.45446   10.588
 5103.00    0.36275   0.45328   10.518
 5104.00    0.40999   0.45199   10.463
 5105.00    0.46004   0.45101   10.432
 5106.00    0.49044   0.45069   10.351
 5107.00    0.49672   0.45123   10.223
 5108.00    0.48878   0.45257   10.119
 5109.00    0.48081   0.45445   10.113
 5110.00    0.48180   0.45664   10.208
 5111.00    0.48519   0.45887   10.251
 5112.00    0.47958   0.46087   10.140
 5113.00    0.46419   0.46245   10.106
 5114.00    0.44445   0.46328   10.367
 5115.00    0.42455   0.46303   10.731
 5116.00    0.40946   0.46150   10.873
 5117.00    0.40768   0.45874   10.822
 5118.00    0.42554   0.45507   10.746
 5119.00    0.46066   0.45107   10.619
 5120.00    0.49695   0.44734   10.426
 5121.00    0.50438   0.44434   10.329
 5122.00    0.47510   0.44229   10.420
 5123.00    0.44889   0.44118   10.536
 5124.00    0.45600   0.44085   10.507
 5125.00    0.47443   0.44106   10.380
 5126.00    0.47573   0.44176   10.282
 5127.00    0.46074   0.44291   10.287
 5128.00    0.44769   0.44444   10.371
 5129.00    0.45837   0.44612   10.395
 5130.00    0.49303   0.44768   10.271
 5131.00    0.52121   0.44875   10.063
 5132.00    0.52201   0.44906    9.926
 5133.00    0.50422   0.44851   10.018
 5134.00    0.48146   0.44718   10.322
 5135.00    0.45865   0.44535   10.573
 5136.00    0.43758   0.44352   10.589
 5137.00    0.42057   0.44203   10.480
 5138.00    0.41311   0.44094   10.353
 5139.00    0.42125   0.44014   10.205
 5140.00    0.43565   0.43946   10.113
 5141.00    0.43422   0.43878   10.194
 5142.00    0.41936   0.43824   10.213
 5143.00    0.41954   0.43786    9.794
 5144.00    0.44024   0.43753    9.705
 5145.00    0.45817   0.43722   11.668
 5146.00    0.46367   0.43686   17.652
 5147.00    0.46656   0.43634   24.279
 5148.00    0.46856   0.43572   22.670
 5149.00    0.46095   0.43526   20.762
 5150.00    0.44306   0.43541   22.028
 5151.00    0.42188   0.43663   24.388
 5152.00    0.39673   0.43898   25.761
 5153.00    0.36478   0.44212   26.217
 5154.00    0.34375   0.44542   27.786
 5155.00    0.35901   0.44814   27.786
 5156.00    0.40270   0.44966   27.648
 5157.00    0.44135   0.44968   16.404
 5158.00    0.45118   0.44803   10.840
 5159.00    0.42869   0.44459    9.510
 5160.00    0.39533   0.43915    9.963
 5161.00    0.37682   0.43172   10.503
 5162.00    0.36655   0.42279   10.491
 5163.00    0.34595   0.41344   10.347
 5164.00    0.32731   0.40507   10.320
 5165.00    0.33591   0.39890   10.361
 5166.00    0.37296   0.39538   10.297
 5167.00    0.41903   0.39416   10.064
 5168.00    0.44776   0.39465    9.961
 5169.00    0.44423   0.39664   10.274
 5170.00    0.42448   0.40033   10.875
 5171.00    0.41106   0.40588   11.399
 5172.00    0.40241   0.41268   11.686
 5173.00    0.39159   0.41926   11.770
 5174.00    0.38896   0.42401   11.695
 5175.00    0.40123   0.42590   11.531
 5176.00    0.41013   0.42467   11.409
 5177.00    0.39874   0.42063   11.412
 5178.00    0.37624   0.41477   11.483
 5179.00    0.35621   0.40879   11.534
 5180.00    0.33754   0.40471   11.532
 5181.00    0.32188   0.40406   11.474
 5182.00    0.32541   0.40726   11.360
 5183.00    0.35155   0.41326   11.202
 5184.00    0.37511   0.41997   11.037
 5185.00    0.38128   0.42536   10.935
 5186.00    0.38770   0.42836   10.991
 5187.00    0.40612   0.42901   11.169
 5188.00    0.42109   0.42804   11.243
 5189.00    0.41740   0.42649   11.143
 5190.00    0.39632   0.42534    0.000
 5191.00    0.37102   0.42532    0.000
 5192.00    0.35990   0.42656    0.000
 5193.00    0.36860   0.42868    0.000
 5194.00    0.38493   0.43116    0.000
 5195.00    0.39791   0.43351    0.000
 5196.00    0.40617   0.43518    0.000
 5197.00    0.41476   0.43565    0.000
 5198.00    0.43080   0.43453    0.000
 5199.00    0.45257   0.43166    0.000
 5200.00    0.46873   0.42728    0.000
 5201.00    0.47113   0.42201    0.000
 5202.00    0.45918   0.41671    0.000
 5203.00    0.43809   0.41237    0.000
 5204.00    0.41714   0.40982    0.000
 5205.00    0.40597   0.40956    0.000
 5206.00    0.41055   0.41160    0.000
 5207.00    0.42511   0.41554    0.000
 5208.00    0.43734   0.42061    0.000
 5209.00    0.44784   0.42572    0.000
 5210.00    0.46810   0.42989    0.000
 5211.00    0.50335   0.43267    9.978
 5212.00    0.54899   0.43424    9.842
 5213.00    0.59245   0.43529    9.834
 5214.00    0.61716   0.43656    9.793
 5215.00    0.60982   0.43836    9.721
 5216.00    0.56757   0.44033    9.749
 5217.00    0.50811   0.44161    9.952
 5218.00    0.45706   0.44134   10.298
 5219.00    0.42295   0.43898   10.571
 5220.00    0.40045   0.43458   10.561
 5221.00    0.38295   0.42890   10.479
 5222.00    0.36771   0.42331   10.594
 5223.00    0.35973   0.41935   10.642
 5224.00    0.36398   0.41809   10.320
 5225.00    0.37427   0.41962   10.052
 5226.00    0.38068   0.42300   10.284
 5227.00    0.38076   0.42662   10.735
 5228.00    0.37741   0.42914   10.862
 5229.00    0.37444   0.43022   10.740
 5230.00    0.37497   0.43044   10.719
 5231.00    0.37988   0.43081   10.844
 5232.00    0.38592   0.43213   11.004
 5233.00    0.38504   0.43448   11.129
 5234.00    0.37703   0.43731   11.219
 5235.00    0.37898   0.43990   11.337
 5236.00    0.40152   0.44180   11.451
 5237.00    0.42968   0.44293   11.334
 5238.00    0.44258   0.44342   10.988
 5239.00    0.43114   0.44338   10.845
 5240.00    0.40113   0.44274   11.120
 5241.00    0.37220   0.44132   11.495
 5242.00    0.36033   0.43907   11.608
 5243.00    0.36658   0.43614   11.513
 5244.00    0.38250   0.43294   11.417
 5245.00    0.39541   0.43010   11.438
 5246.00    0.39606   0.42813   11.508
 5247.00    0.38294   0.42714   11.406
 5248.00    0.36213   0.42699   11.183
 5249.00    0.34585   0.42754   11.210
 5250.00    0.34666   0.42866   11.496
 5251.00    0.37204   0.43023   11.509
 5252.00    0.41319   0.43218   11.129
 5253.00    0.44630   0.43434   10.875
 5254.00    0.45919   0.43624   10.869
 5255.00    0.45828   0.43704   10.736
 5256.00    0.44998   0.43593   10.421
 5257.00    0.43569   0.43250   10.268
 5258.00    0.42086   0.42700   10.317
 5259.00    0.41397   0.42025   10.274
 5260.00    0.41205   0.41336   10.079
 5261.00    0.40394   0.40734    9.948
 5262.00    0.39495   0.40283    9.969
 5263.00    0.40458   0.39987   10.054
 5264.00    0.43817   0.39813   10.086
 5265.00    0.48111   0.39730   10.005
 5266.00    0.50565   0.39736    9.889
 5267.00    0.48753   0.39868    9.878
 5268.00    0.43983   0.40160    9.953
 5269.00    0.39954   0.40584   10.008
 5270.00    0.37999   0.41053   10.102
 5271.00    0.37211   0.41501   10.352
 5272.00    0.36907   0.41912   10.550
 5273.00    0.36840   0.42293   10.380
 5274.00    0.36623   0.42638   10.081
 5275.00    0.36101   0.42905   10.083
 5276.00    0.36158   0.43036   10.368
 5277.00    0.37829   0.43016   10.624
 5278.00    0.40700   0.42896   10.634
 5279.00    0.43425   0.42773   10.408
 5280.00    0.44921   0.42746   10.178
 5281.00    0.45048   0.42872   10.140
 5282.00    0.45181   0.43144   10.230
 5283.00    0.46519   0.43492   10.293
 5284.00    0.47980   0.43824   10.329
 5285.00    0.48055   0.44071   10.386
 5286.00    0.47209   0.44210   10.402
 5287.00    0.46672   0.44248   10.347
 5288.00    0.46818   0.44198   10.373
 5289.00    0.47238   0.44059   10.587
 5290.00    0.47069   0.43827   10.805
 5291.00    0.45845   0.43501   10.810
 5292.00    0.44152   0.43098   10.661
 5293.00    0.42512   0.42667   10.563
 5294.00    0.40531   0.42290   10.685
 5295.00    0.38330   0.42049   11.025
 5296.00    0.37418   0.41992   11.294
 5297.00    0.38103   0.42112   11.298
 5298.00    0.38105   0.42361   11.267
 5299.00    0.36627   0.42684   11.415
 5300.00    0.36518   0.43024   11.656
 5301.00    0.39639   0.43329   11.820
 5302.00    0.44210   0.43557   11.831
 5303.00    0.47274   0.43696   11.772
 5304.00    0.46594   0.43766   11.841
 5305.00    0.42514   0.43797   12.060
 5306.00    0.38214   0.43809   12.186
 5307.00    0.36135   0.43797   12.142
 5308.00    0.36399   0.43739   12.163
 5309.00    0.37977   0.43619   12.300
 5310.00    0.39516   0.43441   12.294
 5311.00    0.40338   0.43228   12.095
 5312.00    0.40705   0.43016   11.952
 5313.00    0.41203   0.42848   11.915
 5314.00    0.42301   0.42754   11.791
 5315.00    0.43721   0.42728   11.582
 5316.00    0.44592   0.42730   11.500
 5317.00    0.44735   0.42703   11.552
 5318.00    0.44705   0.42601   11.534
 5319.00    0.44610   0.42399   11.337
 5320.00    0.44056   0.42094   11.039
 5321.00    0.43009   0.41700   10.801
 5322.00    0.41862   0.41244   10.759
 5323.00    0.40939   0.40776   10.849
 5324.00    0.40335   0.40381   10.899
 5325.00    0.39862   0.40168   10.917
 5326.00    0.39228   0.40217   11.030
 5327.00    0.38435   0.40518   11.147
 5328.00    0.37805   0.40980   11.076
 5329.00    0.37819   0.41479   10.947
 5330.00    0.38909   0.41914   11.008
 5331.00    0.41124   0.42226   11.133
 5332.00    0.43811   0.42389   11.037
 5333.00    0.45244   0.42405   10.846
 5334.00    0.44082   0.42292   10.847
 5335.00    0.41690   0.42093   11.014
 5336.00    0.40503   0.41870   11.137
 5337.00    0.41086   0.41697   11.120
 5338.00    0.42637   0.41623   11.008
 5339.00    0.44276   0.41645   10.912
 5340.00    0.45298   0.41722   10.915
 5341.00    0.45280   0.41799   10.975
 5342.00    0.44291   0.41842   11.023
 5343.00    0.43078   0.41853   11.083
 5344.00    0.42574   0.41859   11.161
 5345.00    0.43293   0.41903   11.128
 5346.00    0.44873   0.42018   10.943
 5347.00    0.45808   0.42213   10.840
 5348.00    0.44816   0.42470   11.008
 5349.00    0.42105   0.42758   11.337
 5350.00    0.39057   0.43041   11.609
 5351.00    0.37683   0.43288   11.717
 5352.00    0.39067   0.43480   11.703
 5353.00    0.42285   0.43600   11.728
 5354.00    0.45402   0.43639   11.859
 5355.00    0.46492   0.43586   11.947
 5356.00    0.45239   0.43440   11.915
 5357.00    0.43541   0.43217   11.931
 5358.00    0.42691   0.42943   12.091
 5359.00    0.41923   0.42654   -2.000
 5360.00    0.40592   0.42382   -2.000
 5361.00    0.39367   0.42140   -2.000
 5362.00    0.39478   0.41919   -2.000
 5363.00    0.41862   0.41692   -2.000
 5364.00    0.45194   0.41438   -2.000
 5365.00    0.45992   0.41156   -2.000
 5366.00    0.43404   0.40887   -2.000
 5367.00    0.40368   0.40707   -2.000
 5368.00    0.39062   0.40691   -2.000
 5369.00    0.39310   0.40875   -2.000
 5370.00    0.40143   0.41223   -2.000
 5371.00    0.40767   0.41645   -2.000
 5372.00    0.41657   0.42037   -2.000
 5373.00    0.44069   0.42323   -2.000
 5374.00    0.47248   0.42480   11.592
 5375.00    0.48597   0.42520   11.572
 5376.00    0.47041   0.42473   11.369
 5377.00    0.43544   0.42373   11.308
 5378.00    0.39608   0.42253   11.422
 5379.00    0.36617   0.42144   11.482
 5380.00    0.35288   0.42067   11.454
 5381.00    0.35617   0.42024   11.465
 5382.00    0.37095   0.41997   11.437
 5383.00    0.38779   0.41957   11.213
 5384.00    0.39362   0.41876   10.998
 5385.00    0.37951   0.41743   11.098
 5386.00    0.35540   0.41567   11.360
 5387.00    0.34197   0.41369   11.376
 5388.00    0.34973   0.41168   11.194
 5389.00    0.37512   0.40971   11.125
 5390.00    0.40140   0.40776   11.179
 5391.00    0.41125   0.40580   11.182
 5392.00    0.40619   0.40401   11.097
 5393.00    0.39860   0.40271   11.018
 5394.00    0.39558   0.40224   11.078
 5395.00    0.39991   0.40266   11.319
 5396.00    0.41424   0.40362   11.532
 5397.00    0.43434   0.40443   11.519
 5398.00    0.44139   0.40438   11.501
 5399.00    0.42223   0.40307   11.709
 5400.00    0.39235   0.40066   11.871
 5401.00    0.37578   0.39779   11.714
 5402.00    0.38088   0.39530   11.594
 5403.00    0.40376   0.39385   11.838
 5404.00    0.43480   0.39369   12.140
 5405.00    0.46372   0.39466   12.124
 5406.00    0.48361   0.39649   12.006
 5407.00    0.48887   0.39893   12.088
 5408.00    0.47410   0.40180   12.317
 5409.00    0.44155   0.40490   12.548
 5410.00    0.40578   0.40799   12.768
 5411.00    0.38329   0.41079   12.943
 5412.00    0.38366   0.41313   12.916
 5413.00    0.40373   0.41486   12.697
 5414.00    0.42649   0.41589   12.581
 5415.00    0.43678   0.41619   12.699
 5416.00    0.43144   0.41584   12.832
 5417.00    0.41971   0.41502   12.746
 5418.00    0.41893   0.41397   12.437
 5419.00    0.43256   0.41293   12.102
 5420.00    0.44362   0.41207   12.000
 5421.00    0.44050   0.41140   12.144
 5422.00    0.42695   0.41078   12.251
 5423.00    0.40787   0.40986   12.187
 5424.00    0.38488   0.40833   12.115
 5425.00    0.36607   0.40612   12.124
 5426.00    0.36550   0.40352   12.134
 5427.00    0.38532   0.40101   12.092
 5428.00    0.41258   0.39897   12.022
 5429.00    0.43297   0.39758   11.950
 5430.00    0.43687   0.39694   11.892
 5431.00    0.42241   0.39719   11.915
 5432.00    0.39742   0.39854   12.081
 5433.00    0.38235   0.40106   12.182
 5434.00    0.40101   0.40453   11.878
 5435.00    0.45319   0.40841   11.362
 5436.00    0.51390   0.41201   11.125
 5437.00    0.55155   0.41465   11.276
 5438.00    0.54417   0.41579   11.589
 5439.00    0.50493   0.41517   11.697
 5440.00    0.46872   0.41283   11.381
 5441.00    0.45011   0.40923   11.054
 5442.00    0.44401   0.40519   11.238
 5443.00    0.44576   0.40172   11.706
 5444.00    0.45125   0.39965   11.794
 5445.00    0.44965   0.39920   11.594
 5446.00    0.43074   0.39990   11.645
 5447.00    0.39937   0.40086   11.919
 5448.00    0.36900   0.40120   12.036
 5449.00    0.34766   0.40048   11.905
 5450.00    0.33983   0.39887   11.711
 5451.00    0.35204   0.39706   11.650
 5452.00    0.38561   0.39585   11.815
 5453.00    0.42658   0.39578   12.095
 5454.00    0.45700   0.39682   12.306
 5455.00    0.47062   0.39839   12.406
 5456.00    0.46938   0.39972   12.452
 5457.00    0.45721   0.40031   12.471
 5458.00    0.43978   0.40012   12.462
 5459.00    0.42458   0.39953   12.420
 5460.00    0.41775   0.39905   12.359
 5461.00    0.42080   0.39902   12.334
 5462.00    0.43091   0.39946   12.409
 5463.00    0.44186   0.40014   12.625
 5464.00    0.44695   0.40074   12.876
 5465.00    0.44199   0.40097   12.837
 5466.00    0.42922   0.40065   12.434
 5467.00    0.41818   0.39974   12.102
 5468.00    0.41024   0.39827   12.166
 5469.00    0.39173   0.39635   -2.000
 5470.00    0.36487   0.39414   -2.000
 5471.00    0.36095   0.39189   -2.000
 5472.00    0.38846   0.38994   -2.000
 5473.00    0.40725   0.38866   -2.000
 5474.00    0.37054   0.38824   -2.000
 5475.00    0.26165   0.38863   -2.000
 5476.00    0.15231   0.38958   -2.000
 5477.00    0.18380   0.39077   -2.000
 5478.00    0.32959   0.39206   -2.000
 5479.00    0.36680   0.39345   -2.000
 5480.00    0.27344   0.39490   -2.000
 5481.00    0.29677   0.39625   -2.000
 5482.00    0.47835   0.39723   -2.000
 5483.00    0.57198   0.39773   -2.000
 5484.00    0.50413   0.39783   -2.000
 5485.00    0.45419   0.39778   -2.000
 5486.00    0.49599   0.39781   -2.000
 5487.00    0.53253   0.39797   -2.000
 5488.00    0.51051   0.39814   -2.000
 5489.00    0.46489   0.39817   -2.000
 5490.00    0.43338   0.39798   -2.000
 5491.00    0.42954   0.39758   -2.000
 5492.00    0.44370   0.39706   -2.000
 5493.00    0.45356   0.39655   11.946
 5494.00    0.44913   0.39610   11.959
 5495.00    0.43310   0.39566   12.087
 5496.00    0.40637   0.39514   12.326
 5497.00    0.37017   0.39439   12.481
 5498.00    0.33784   0.39340   12.571
 5499.00    0.32533   0.39226   12.740
 5500.00    0.32755   0.39111   12.825
 5501.00    0.32914   0.39011   12.594
 5502.00    0.33246   0.38936   12.358
 5503.00    0.34763   0.38893   12.537
 5504.00    0.36721   0.38878   12.918
 5505.00    0.37629   0.38872   12.971
 5506.00    0.37490   0.38850   12.730
 5507.00    0.37267   0.38794   12.543
 5508.00    0.37580   0.38707   12.475
 5509.00    0.38414   0.38620   12.471
 5510.00    0.39024   0.38577   12.651
 5511.00    0.38747   0.38614   13.065
 5512.00    0.37956   0.38744   13.316
 5513.00    0.37256   0.38951   13.049
 5514.00    0.36467   0.39197   12.662
 5515.00    0.35165   0.39435   12.585
 5516.00    0.33383   0.39626   12.669
 5517.00    0.31609   0.39745   12.646
 5518.00    0.30676   0.39784   12.575
 5519.00    0.31361   0.39743   12.589
 5520.00    0.33978   0.39630   12.626
 5521.00    0.37846   0.39455   12.550
 5522.00    0.41082   0.39239   12.294
 5523.00    0.42228   0.39018   11.946
 5524.00    0.41469   0.38838   11.731
 5525.00    0.39889   0.38737   11.725
 5526.00    0.38691   0.38728   11.751
 5527.00    0.38092   0.38789   11.793
 5528.00    0.36947   0.38875   12.162
 5529.00    0.35005   0.38946   12.627
 5530.00    0.33879   0.38983   12.102
 5531.00    0.34448   0.38996   11.289
 5532.00    0.35696   0.39012   12.678
 5533.00    0.36673   0.39055   19.157
 5534.00    0.37374   0.39132   27.786
 5535.00    0.37729   0.39232   27.786
 5536.00    0.37369   0.39331   25.330
 5537.00    0.36903   0.39401   25.160
 5538.00    0.37911   0.39424   27.786
 5539.00    0.40537   0.39401   27.786
 5540.00    0.43074   0.39350   19.858
 5541.00    0.44276   0.39302   13.551
 5542.00    0.44057   0.39286   11.499
 5543.00    0.42734   0.39316   11.772
 5544.00    0.40777   0.39386   12.500
 5545.00    0.38885   0.39472   12.637
 5546.00    0.37863   0.39545   12.525
 5547.00    0.38163   0.39576   12.504
 5548.00    0.39582   0.39554   12.524
 5549.00    0.40843   0.39483   12.576
 5550.00    0.40272   0.39381   12.739
 5551.00    0.37784   0.39273   12.998
 5552.00    0.34761   0.39178   13.233
 5553.00    0.32582   0.39103   13.335
 5554.00    0.31964   0.39046   13.286
 5555.00    0.32367   0.38995   13.216
 5556.00    0.32601   0.38940   13.279
 5557.00    0.32281   0.38869   13.417
 5558.00    0.31805   0.38779   13.455
 5559.00    0.31759   0.38672   13.384
 5560.00    0.32828   0.38559   13.286
 5561.00    0.35779   0.38448   13.118
 5562.00    0.40472   0.38351   12.832
 5563.00    0.44449   0.38274   12.577
 5564.00    0.45196   0.38221   12.512
 5565.00    0.43603   0.38193   12.564
 5566.00    0.42162   0.38187   12.540
 5567.00    0.41889   0.38196   12.312
 5568.00    0.42423   0.38215   11.979
 5569.00    0.42723   0.38244   11.915
 5570.00    0.41993   0.38284   12.128
 5571.00    0.40562   0.38337   11.681
 5572.00    0.38900   0.38401   10.698
 5573.00    0.36602   0.38467   11.408
 5574.00    0.33822   0.38525   16.990
 5575.00    0.32545   0.38564   27.786
 5576.00    0.34105   0.38575   27.786
 5577.00    0.37069   0.38549   26.603
 5578.00    0.39424   0.38476   23.980
 5579.00    0.40500   0.38346   24.901
 5580.00    0.40302   0.38150   25.786
 5581.00    0.38899   0.37891   25.403
 5582.00    0.36569   0.37590   25.565
 5583.00    0.33912   0.37285   27.786
 5584.00    0.31672   0.37029   27.786
 5585.00    0.30591   0.36866   27.786
 5586.00    0.31292   0.36820   15.105
 5587.00    0.34064   0.36882   11.032
 5588.00    0.38018   0.37019   10.743
 5589.00    0.41031   0.37190   11.490
 5590.00    0.41908   0.37362   11.709
 5591.00    0.41222   0.37505   11.550
 5592.00    0.39764   0.37598   11.556
 5593.00    0.37876   0.37625   11.808
 5594.00    0.35960   0.37578   12.193
 5595.00    0.34680   0.37472   12.520
 5596.00    0.34769   0.37343   12.595
 5597.00    0.36727   0.37239   12.371
 5598.00    0.40007   0.37205   12.162
 5599.00    0.43094   0.37273   12.428
 5600.00    0.44826   0.37446   13.044
 5601.00    0.44876   0.37700   13.234
 5602.00    0.43754   0.37988   12.889
 5603.00    0.42567   0.38260   12.692
 5604.00    0.42330   0.38473   12.766
 5605.00    0.43306   0.38608   12.718
 5606.00    0.43831   0.38657   12.575
 5607.00    0.41508   0.38621   12.700
 5608.00    0.36923   0.38501   12.972
 5609.00    0.33072   0.38298   12.922
 5610.00    0.31831   0.38029   12.666
 5611.00    0.33272   0.37735   12.655
 5612.00    0.36056   0.37473   12.748
 5613.00    0.38376   0.37293   12.504
 5614.00    0.39591   0.37219   12.131
 5615.00    0.39869   0.37235   12.077
 5616.00    0.38970   0.37299   12.190
 5617.00    0.36630   0.37363   12.096
 5618.00    0.33572   0.37393   12.007
 5619.00    0.31135   0.37374   12.293
 5620.00    0.30405   0.37321   12.650
 5621.00    0.31703   0.37269   12.540
 5622.00    0.34120   0.37257   12.225
 5623.00    0.36617   0.37309   12.186
 5624.00    0.39508   0.37424   12.293
 5625.00    0.43319   0.37575   12.228
 5626.00    0.47218   0.37728   12.097
 5627.00    0.49705   0.37848   12.149
 5628.00    0.49683   0.37912   12.403
 5629.00    0.47116   0.37911   12.742
 5630.00    0.43515   0.37850   13.032
 5631.00    0.40897   0.37742   13.178
 5632.00    0.40639   0.37606   13.179
 5633.00    0.42730   0.37464   13.083
 5634.00    0.45363   0.37335   12.940
 5635.00    0.46589   0.37231   12.847
 5636.00    0.45729   0.37155   12.967
 5637.00    0.43269   0.37109   13.274
 5638.00    0.40546   0.37090   13.385
 5639.00    0.38544   0.37096   13.195
 5640.00    0.37195   0.37125   13.227
 5641.00    0.36431   0.37169   13.663
 5642.00    0.36704   0.37221   13.834
 5643.00    0.37682   0.37277   13.392
 5644.00    0.37824   0.37331   12.977
 5645.00    0.36617   0.37386   12.958
 5646.00    0.35452   0.37441   13.054
 5647.00    0.35415   0.37490   13.011
 5648.00    0.36257   0.37522   12.901
 5649.00    0.37202   0.37518   12.863
 5650.00    0.37563   0.37458   12.950
 5651.00    0.37586   0.37333   13.052
 5652.00    0.38330   0.37150   12.958
 5653.00    0.39678   0.36930   12.757
 5654.00    0.40208   0.36709   12.788
 5655.00    0.39769   0.36526   12.963
 5656.00    0.39707   0.36411   12.774
 5657.00    0.40241   0.36375   12.316
 5658.00    0.40188   0.36408   12.189
 5659.00    0.39101   0.36489   12.439
 5660.00    0.37614   0.36595   12.591
 5661.00    0.36358   0.36704   12.527
 5662.00    0.35708   0.36796   12.530
 5663.00    0.36001   0.36864   12.537
 5664.00    0.37179   0.36914   12.241
 5665.00    0.37807   0.36958   11.852
 5666.00    0.36143   0.37014   11.817
 5667.00    0.33096   0.37092   12.065
 5668.00    0.31320   0.37191   12.167
 5669.00    0.31822   0.37299   12.049
 5670.00    0.33799   0.37397   11.978
 5671.00    0.35805   0.37468   12.158
 5672.00    0.36585   0.37500   12.543
 5673.00    0.36130   0.37491   12.575
 5674.00    0.35279   0.37443   12.074
 5675.00    0.34730   0.37362   12.612
 5676.00    0.34644   0.37257   16.756
 5677.00    0.34363   0.37140   27.344
 5678.00    0.33311   0.37024   27.786
 5679.00    0.32285   0.36918   27.786
 5680.00    0.32540   0.36831   27.786
 5681.00    0.34339   0.36763   27.786
 5682.00    0.36989   0.36713   27.786
 5683.00    0.39179   0.36685   25.589
 5684.00    0.39793   0.36689   23.830
 5685.00    0.38787   0.36733   25.759
 5686.00    0.37071   0.36820   27.786
 5687.00    0.36190   0.36935   27.280
 5688.00    0.37120   0.37054   15.976
 5689.00    0.39221   0.37147   11.545
 5690.00    0.41173   0.37190   11.221
 5691.00    0.41927   0.37173   12.158
 5692.00    0.40999   0.37100   12.212
 5693.00    0.38658   0.36982   11.866
 5694.00    0.36012   0.36836   12.094
 5695.00    0.34834   0.36679   12.440
 5696.00    0.35882   0.36528   12.352
 5697.00    0.37947   0.36398   12.234
 5698.00    0.39548   0.36297   12.451
 5699.00    0.40084   0.36222   12.729
 5700.00    0.39747   0.36160   12.726
 5701.00    0.39329   0.36088   12.462
 5702.00    0.39654   0.35989   12.183
 5703.00    0.41169   0.35863   12.152
 5704.00    0.43525   0.35724   12.350
 5705.00    0.45522   0.35606   12.438
 5706.00    0.45843   0.35542   12.375
 5707.00    0.43725   0.35557   12.565
 5708.00    0.40222   0.35658   13.048
 5709.00    0.37946   0.35832   13.272
 5710.00    0.37788   0.36052   13.089
 5711.00    0.38273   0.36284   13.021
 5712.00    0.38223   0.36498   13.264
 5713.00    0.37569   0.36679   13.512
 5714.00    0.36521   0.36825   13.553
 5715.00    0.35263   0.36941   13.456
 5716.00    0.33926   0.37037   13.350
 5717.00    0.32619   0.37115   13.301
 5718.00    0.31521   0.37170   13.249
 5719.00    0.30935   0.37192   13.086
 5720.00    0.31353   0.37173   12.904
 5721.00    0.33159   0.37112   12.884
 5722.00    0.35873   0.37020   12.916
 5723.00    0.38226   0.36916   12.741
 5724.00    0.38787   0.36821   12.488
 5725.00    0.36772   0.36750   12.501
 5726.00    0.33363   0.36712   12.849
 5727.00    0.30765   0.36704   13.320
 5728.00    0.29812   0.36722   13.510
 5729.00    0.29955   0.36760   13.150
 5730.00    0.30121   0.36806   12.614
 5731.00    0.29642   0.36845   12.399
 5732.00    0.29441   0.36864   12.479
 5733.00    0.30810   0.36858   12.572
 5734.00    0.33266   0.36828   12.540
 5735.00    0.35558   0.36784   12.406
 5736.00    0.37511   0.36741   12.263
 5737.00    0.39402   0.36714   12.185
 5738.00    0.40810   0.36707   12.152
 5739.00    0.41102   0.36718   12.152
 5740.00    0.40200   0.36738    0.000
 5741.00    0.38657   0.36753    0.000
 5742.00    0.37576   0.36753    0.000
 5743.00    0.37743   0.36734    0.000
 5744.00    0.38774   0.36696    0.000
 5745.00    0.39692   0.36645    0.000
 5746.00    0.39611   0.36585    0.000
 5747.00    0.38254   0.36517    0.000
 5748.00    0.36288   0.36443    0.000
 5749.00    0.34634   0.36377    0.000
 5750.00    0.33853   0.36336    0.000
 5751.00    0.34019   0.36335    0.000
 5752.00    0.34745   0.36374    0.000
 5753.00    0.35757   0.36431    0.000
 5754.00    0.37193   0.36470    0.000
 5755.00    0.38858   0.36461    0.000
 5756.00    0.39856   0.36396    0.000
 5757.00    0.39403   0.36295    0.000
 5758.00    0.37417   0.36200    0.000
 5759.00    0.34984   0.36155    0.000
 5760.00    0.34121   0.36181    0.000
 5761.00    0.35382   0.36274    0.000
 5762.00    0.37177   0.36402    0.000
 5763.00    0.38430   0.36529    0.000
 5764.00    0.39526   0.36623    0.000
 5765.00    0.40678   0.36668    0.000
 5766.00    0.41366   0.36664    0.000
 5767.00    0.41098   0.36625    0.000
 5768.00    0.39701   0.36566    0.000
 5769.00    0.37180   0.36500    0.000
 5770.00    0.33764   0.36435    0.000
 5771.00    0.30252   0.36374    0.000
 5772.00    0.27835   0.36307    0.000
 5773.00    0.27166   0.36220    0.000
 5774.00    0.28102   0.36097    0.000
 5775.00    0.29848   0.35925    0.000
 5776.00    0.31356   0.35709    0.000
 5777.00    0.32264   0.35470    0.000
 5778.00    0.32949   0.35242    0.000
 5779.00    0.34019   0.35063    0.000
 5780.00    0.35663   0.34958    0.000
 5781.00    0.36538   0.34939    0.000
 5782.00    0.34928   0.34999   -2.000
 5783.00    0.31646   0.35118   -2.000
 5784.00    0.29235   0.35267   -2.000
 5785.00    0.29201   0.35418   -2.000
 5786.00    0.31361   0.35557   -2.000
 5787.00    0.33735   0.35678   -2.000
 5788.00    0.34440   0.35786   -2.000
 5789.00    0.34706   0.35886   -2.000
 5790.00    0.36827   0.35976   -2.000
 5791.00    0.40316   0.36051   -2.000
 5792.00    0.42818   0.36107   -2.000
 5793.00    0.42310   0.36148   -2.000
 5794.00    0.38526   0.36184   -2.000
 5795.00    0.34222   0.36232   -2.000
 5796.00    0.32399   0.36295   -2.000
 5797.00    0.32864   0.36361   -2.000
 5798.00    0.33884   0.36409   -2.000
 5799.00    0.34501   0.36419   -2.000
 5800.00    0.34614   0.36386   -2.000
 5801.00    0.34763   0.36323    0.000
 5802.00    0.35631   0.36253    0.000
 5803.00    0.37546   0.36202    0.000
 5804.00    0.40138   0.36179    0.000
 5805.00    0.42179   0.36179    0.000
 5806.00    0.42509   0.36188    0.000
 5807.00    0.40824   0.36188    0.000
 5808.00    0.37727   0.36164    0.000
 5809.00    0.34593   0.36114    0.000
 5810.00    0.32632   0.36047    0.000
 5811.00    0.32224   0.35983    0.000
 5812.00    0.32893   0.35943    0.000
 5813.00    0.33523   0.35943    0.000
 5814.00    0.33646   0.35984    0.000
 5815.00    0.33950   0.36055    0.000
 5816.00    0.34757   0.36131    0.000
 5817.00    0.35463   0.36192    0.000
 5818.00    0.36080   0.36223    0.000
 5819.00    0.37707   0.36226    0.000
 5820.00    0.40848   0.36211    0.000
 5821.00    0.44741   0.36193    0.000
 5822.00    0.47964   0.36182    0.000
 5823.00    0.49102   0.36182    0.000
 5824.00    0.48168   0.36188    0.000
 5825.00    0.46635   0.36192    0.000
 5826.00    0.45430   0.36187    0.000
 5827.00    0.44417   0.36167    0.000
 5828.00    0.43249   0.36131    0.000
 5829.00    0.41823   0.36083    0.000
 5830.00    0.40738   0.36029    0.000
 5831.00    0.40838   0.35978    0.000
 5832.00    0.41525   0.35938    0.000
 5833.00    0.41079   0.35917    0.000
 5834.00    0.38816   0.35918    0.000
 5835.00    0.35428   0.35941    0.000
 5836.00    0.32325   0.35979    0.000
 5837.00    0.30892   0.36019    0.000
 5838.00    0.31235   0.36044    0.000
 5839.00    0.32565   0.36040    0.000
 5840.00    0.34567   0.35999    0.000
 5841.00    0.37155   0.35921    0.000
 5842.00    0.39457   0.35816    0.000
 5843.00    0.40196   0.35699    0.000
 5844.00    0.38731   0.35582    0.000
 5845.00    0.35421   0.35469    0.000
 5846.00    0.31853   0.35357    0.000
 5847.00    0.29813   0.35240    0.000
 5848.00    0.29693   0.35113    0.000
 5849.00    0.30891   0.34976    0.000
 5850.00    0.32712   0.34833    0.000
 5851.00    0.34412   0.34694    0.000
 5852.00    0.35139   0.34571    0.000
 5853.00    0.34491   0.34475    0.000
 5854.00    0.33164   0.34419    0.000
 5855.00    0.32501   0.34412    0.000
 5856.00    0.33800   0.34450    0.000
 5857.00    0.37127   0.34521    0.000
 5858.00    0.40428   0.34605    0.000
 5859.00    0.42263   0.34684    0.000
 5860.00    0.44203   0.34743    0.000
 5861.00    0.47787   0.34781    0.000
 5862.00    0.51851   0.34808    0.000
 5863.00    0.54507   0.34838    0.000
 5864.00    0.54906   0.34878    0.000
 5865.00    0.53005   0.34923    0.000
 5866.00    0.49290   0.34957    0.000
 5867.00    0.44793   0.34964    0.000
 5868.00    0.40987   0.34928    0.000
 5869.00    0.38909   0.34845    0.000
 5870.00    0.38626   0.34726    0.000
 5871.00    0.39424   0.34590    0.000
 5872.00    0.40116   0.34462    0.000
 5873.00    0.39986   0.34358    0.000
 5874.00    0.39203   0.34284    0.000
 5875.00    0.38268   0.34235    0.000
 5876.00    0.37618   0.34200    0.000
 5877.00    0.37129   0.34164    0.000
 5878.00    0.36159   0.34111    0.000
 5879.00    0.34684   0.34015    0.000
 5880.00    0.33537   0.33844    0.000
 5881.00    0.33383   0.33563    0.000
 5882.00    0.34202   0.33143    0.000
 5883.00    0.35021   0.32581    0.000
 5884.00    0.34470   0.31919    0.000
 5885.00    0.32938   0.31242    0.000
 5886.00    0.32340   0.30651    0.000
 5887.00    0.33105   0.30226    0.000
 5888.00    0.33903   0.29998    0.000
 5889.00    0.33641   0.29943    0.000
 5890.00    0.32135   0.30010    0.000
 5891.00    0.30255   0.30154    0.000
 5892.00    0.29400   0.30353    0.000
 5893.00    0.30119   0.30618    0.000
 5894.00    0.31984   0.30974    0.000
 5895.00    0.34073   0.31423    0.000
 5896.00    0.35398   0.31929    0.000
 5897.00    0.35536   0.32438    0.000
 5898.00    0.34789   0.32891    0.000
 5899.00    0.34169   0.33250    0.000
 5900.00    0.34580   0.33515    0.000
 5901.00    0.35401   0.33705   13.484
 5902.00    0.35397   0.33840   13.648
 5903.00    0.34561   0.33937   13.556
 5904.00    0.33769   0.34005   13.307
 5905.00    0.33759   0.34049   13.260
 5906.00    0.34774   0.34062   13.615
 5907.00    0.36295   0.34042   13.873
 5908.00    0.37476   0.33987   13.520
 5909.00    0.37745   0.33905   13.150
 5910.00    0.37010   0.33814   13.404
 5911.00    0.35782   0.33737   13.938
 5912.00    0.34962   0.33691   14.054
 5913.00    0.35491   0.33684   13.753
 5914.00    0.37343   0.33713   13.435
 5915.00    0.38723   0.33766   13.316
 5916.00    0.38063   0.33825   13.403
 5917.00    0.35880   0.33877   13.508
 5918.00    0.33618   0.33918   13.437
 5919.00    0.32428   0.33947   13.193
 5920.00    0.32656   0.33968   12.986
 5921.00    0.33639   0.33979   13.148
 5922.00    0.34652   0.33979   13.710
 5923.00    0.35553   0.33965   14.078
 5924.00    0.36090   0.33939   13.855
 5925.00    0.35564   0.33905   13.545
 5926.00    0.33937   0.33871   13.549
 5927.00    0.32355   0.33845   13.701
 5928.00    0.31830   0.33830   13.756
 5929.00    0.32517   0.33827   13.692
 5930.00    0.34209   0.33833   13.667
 5931.00    0.36615   0.33847   13.905
 5932.00    0.39263   0.33863   14.310
 5933.00    0.41482   0.33877   14.374
 5934.00    0.42606   0.33881   14.048
 5935.00    0.42133   0.33871   13.922
 5936.00    0.39995   0.33847   14.139
 5937.00    0.36658   0.33811   14.230
 5938.00    0.33049   0.33777   14.066
 5939.00    0.30332   0.33757   14.052
 5940.00    0.29222   0.33756   14.264
 5941.00    0.29717   0.33766   14.335
 5942.00    0.31056   0.33774   14.125
 5943.00    0.31958   0.33766   13.869
 5944.00    0.31372   0.33735   13.763
 5945.00    0.28970   0.33684   13.862
 5946.00    0.25839   0.33625   14.124
 5947.00    0.23869   0.33567   14.356
 5948.00    0.23664   0.33516   14.113
 5949.00    0.24522   0.33476   13.161
 5950.00    0.25743   0.33444   12.233
 5951.00    0.26909   0.33421   12.059
 5952.00    0.27752   0.33409   12.353
 5953.00    0.28325   0.33418   12.355
 5954.00    0.29389   0.33456   12.246
 5955.00    0.31736   0.33522   12.734
 5956.00    0.34787   0.33606   13.654
 5957.00    0.37159   0.33697   14.123
 5958.00    0.38135   0.33779   14.016
 5959.00    0.37754   0.33838   13.911
 5960.00    0.36518   0.33868   13.950
 5961.00    0.35253   0.33877   13.987
 5962.00    0.34953   0.33879   14.043
 5963.00    0.36239   0.33886   14.198
 5964.00    0.38669   0.33907   14.346
 5965.00    0.41180   0.33939   14.330
 5966.00    0.42804   0.33971   14.202
 5967.00    0.42856   0.33990   14.108
 5968.00    0.41097   0.33978   14.116
 5969.00    0.37991   0.33926   14.212
 5970.00    0.34915   0.33835   14.299
 5971.00    0.33263   0.33715   14.348
 5972.00    0.33511   0.33584   14.509
 5973.00    0.35089   0.33463   14.778
 5974.00    0.36495   0.33368   14.705
 5975.00    0.36746   0.33306   14.153
 5976.00    0.36490   0.33269   13.799
 5977.00    0.36708   0.33245   14.031
 5978.00    0.37621   0.33219   14.416
 5979.00    0.39041   0.33187   14.455
 5980.00    0.40698   0.33154   14.274
 5981.00    0.42322   0.33132   14.096
 5982.00    0.43606   0.33134   13.864
 5983.00    0.43780   0.33165   13.606
 5984.00    0.41625   0.33222   13.567
 5985.00    0.37200   0.33294   13.817
 5986.00    0.32510   0.33369   14.085
 5987.00    0.29550   0.33436   14.187
 5988.00    0.29111   0.33492   14.244
 5989.00    0.30438   0.33532   14.307
 5990.00    0.31520   0.33553   14.226
 5991.00    0.31060   0.33548   14.096
 5992.00    0.29292   0.33516   14.281
 5993.00    0.27457   0.33462   14.757
 5994.00    0.27142   0.33394   14.954
 5995.00    0.28722   0.33325   14.643
 5996.00    0.31070   0.33265   14.237
 5997.00    0.32806   0.33217   14.116
 5998.00    0.33069   0.33178   14.387
 5999.00    0.32465   0.33140   14.718
 6000.00    0.32558   0.33095   14.491
 6001.00    0.33353   0.33042   13.878
 6002.00    0.33392   0.32988   13.594
 6003.00    0.32267   0.32941   13.736
 6004.00    0.30883   0.32913   13.900
 6005.00    0.30235   0.32904   13.903
 6006.00    0.30768   0.32910   13.852
 6007.00    0.31715   0.32925   13.746
 6008.00    0.31776   0.32936   13.513
 6009.00    0.30968   0.32936   13.276
 6010.00    0.30329   0.32920   13.243
 6011.00    0.30453   0.32887   13.430
 6012.00    0.31407   0.32845   13.685
 6013.00    0.33158   0.32805   13.805
 6014.00    0.35342   0.32772   13.701
 6015.00    0.36760   0.32748   13.617
 6016.00    0.36270   0.32733   13.837
 6017.00    0.34337   0.32733   14.218
 6018.00    0.32224   0.32754   14.404
 6019.00    0.30454   0.32796   14.358
 6020.00    0.29063   0.32857   14.274
 6021.00    0.28275   0.32934   14.260
 6022.00    0.28415   0.33022   14.351
 6023.00    0.29678   0.33112   14.584
 6024.00    0.31980   0.33199   14.908
 6025.00    0.34848   0.33277   15.073
 6026.00    0.37573   0.33346   14.899
 6027.00    0.39423   0.33402   14.601
 6028.00    0.40018   0.33449   14.463
 6029.00    0.39635   0.33487   14.530
 6030.00    0.38834   0.33512   14.682
 6031.00    0.38032   0.33522   14.708
 6032.00    0.37221   0.33519   14.540
 6033.00    0.35858   0.33501   14.411
 6034.00    0.33685   0.33471   14.466
 6035.00    0.31304   0.33436   14.521
 6036.00    0.29388   0.33407   14.405
 6037.00    0.28102   0.33393   14.218
 6038.00    0.27512   0.33399   14.110
 6039.00    0.27811   0.33423   14.126
 6040.00    0.28781   0.33460   14.199
 6041.00    0.29598   0.33501   14.176
 6042.00    0.29702   0.33539   14.075
 6043.00    0.29269   0.33565   14.138
 6044.00    0.28837   0.33574   14.352
 6045.00    0.28989   0.33564   14.314
 6046.00    0.29861   0.33535   13.953
 6047.00    0.31055   0.33488   13.725
 6048.00    0.32392   0.33422   13.883
 6049.00    0.34127   0.33341   14.273
 6050.00    0.36313   0.33254   14.511
 6051.00    0.38503   0.33172   14.217
 6052.00    0.39683   0.33103   13.685
 6053.00    0.38755   0.33058   13.637
 6054.00    0.36279   0.33035   14.199
 6055.00    0.34315   0.33026   14.844
 6056.00    0.33805   0.33014   15.183
 6057.00    0.34155   0.32986   15.307
 6058.00    0.34691   0.32939   15.377
 6059.00    0.35090   0.32878   15.430
 6060.00    0.35246   0.32820   15.370
 6061.00    0.35184   0.32788   15.081
 6062.00    0.34948   0.32803   14.693
 6063.00    0.34549   0.32871   14.452
 6064.00    0.33894   0.32984   14.388
 6065.00    0.32920   0.33123   14.377
 6066.00    0.31905   0.33263   14.377
 6067.00    0.31331   0.33381   14.408
 6068.00    0.31491   0.33457   14.419
 6069.00    0.32362   0.33485   14.340
 6070.00    0.33559   0.33467   14.222
 6071.00    0.34510   0.33408   14.168
 6072.00    0.34793   0.33315   14.191
 6073.00    0.34422   0.33193   14.230
 6074.00    0.34178   0.33055   14.221
 6075.00    0.34903   0.32915   14.136
 6076.00    0.36394   0.32786   14.037
 6077.00    0.37705   0.32678   13.999
 6078.00    0.37822   0.32600   14.019
 6079.00    0.36271   0.32552   14.106
 6080.00    0.33722   0.32533   14.397
 6081.00    0.31335   0.32529   14.884
 6082.00    0.29878   0.32531   15.042
 6083.00    0.29361   0.32531   14.574
 6084.00    0.28840   0.32520   14.239
 6085.00    0.27444   0.32495   14.653
 6086.00    0.25408   0.32466   15.439
 6087.00    0.23808   0.32446   15.855
 6088.00    0.24072   0.32444   15.751
 6089.00    0.26620   0.32463   15.452
 6090.00    0.29910   0.32503   15.293
 6091.00    0.32046   0.32556   15.329
 6092.00    0.32144   0.32605   15.242
 6093.00    0.30282   0.32627   14.866
 6094.00    0.27353   0.32603   14.497
 6095.00    0.24679   0.32526   14.361
 6096.00    0.23641   0.32405   14.370
 6097.00    0.24952   0.32260   14.408
 6098.00    0.28239   0.32122   14.469
 6099.00    0.32217   0.32017   14.548
 6100.00    0.35055   0.31966   14.580
 6101.00    0.35669   0.31979   14.505
 6102.00    0.34348   0.32048   14.332
 6103.00    0.32345   0.32155   14.191
 6104.00    0.31342   0.32274   14.282
 6105.00    0.32007   0.32379   14.543
 6106.00    0.33575   0.32457   14.607
 6107.00    0.34866   0.32512   14.384
 6108.00    0.35000   0.32549   14.199
 6109.00    0.34397   0.32574   14.239
 6110.00    0.34545   0.32581   14.412
 6111.00    0.35829   0.32562   14.496
 6112.00    0.37148   0.32511   14.308
 6113.00    0.37328   0.32419   14.088
 6114.00    0.35911   0.32282   14.301
 6115.00    0.34018   0.32112   14.853
 6116.00    0.33728   0.31934   15.113
 6117.00    0.35635   0.31774   15.030
 6118.00    0.38621   0.31655   15.155
 6119.00    0.41117   0.31590   15.538
 6120.00    0.41859   0.31582   15.720
 6121.00    0.40843   0.31626   15.490
 6122.00    0.38982   0.31710   14.994
 6123.00    0.36863   0.31816   14.348
 6124.00    0.34783   0.31924   13.614
 6125.00    0.33394   0.32017   12.911
 6126.00    0.33217   0.32086   12.341
 6127.00    0.33535   0.32113   11.890
 6128.00    0.33061   0.32075   11.580
 6129.00    0.31463   0.31957   11.650
 6130.00    0.29399   0.31771   12.304
 6131.00    0.28117   0.31550   13.151
 6132.00    0.28626   0.31337   13.455
 6133.00    0.30593   0.31175   13.367
 6134.00    0.32827   0.31097   13.489
 6135.00    0.34174   0.31120   13.758
 6136.00    0.33928   0.31233   13.878
 6137.00    0.32175   0.31408   14.089
 6138.00    0.29688   0.31609   14.694
 6139.00    0.27677   0.31794   15.314
 6140.00    0.27031   0.31932   15.409
 6141.00    0.27569   0.32013   15.263
 6142.00    0.28633   0.32043   15.351
 6143.00    0.29799   0.32030   15.592
 6144.00    0.31165   0.31981   15.610
 6145.00    0.33429   0.31909   15.109
 6146.00    0.36598   0.31835   14.218
 6147.00    0.39080   0.31771   13.461
 6148.00    0.39462   0.31721   13.103
 6149.00    0.37918   0.31680   12.990
 6150.00    0.35738   0.31634   13.000
 6151.00    0.34645   0.31568   13.251
 6152.00    0.35034   0.31463   13.769
 6153.00    0.35145   0.31301   14.238
 6154.00    0.33386   0.31073   14.332
 6155.00    0.29803   0.30794   14.073
 6156.00    0.25831   0.30491   13.772
 6157.00    0.23648   0.30199   13.811
 6158.00    0.23805   0.29955   14.180
 6159.00    0.24467   0.29792   14.375
 6160.00    0.23976   0.29724   14.287
 6161.00    0.22189   0.29735   14.486
 6162.00    0.20504   0.29800   15.066
 6163.00    0.21137   0.29894   15.283
 6164.00    0.24220   0.29989   14.892
 6165.00    0.27414   0.30069   14.563
 6166.00    0.29213   0.30138   14.593
 6167.00    0.29869   0.30215   14.730
 6168.00    0.29958   0.30308   14.836
 6169.00    0.29845   0.30417   15.035
 6170.00    0.29698   0.30540   15.374
 6171.00    0.29556   0.30666   15.743
 6172.00    0.29531   0.30775   16.026
 6173.00    0.29801   0.30860   16.134
 6174.00    0.30432   0.30933   15.935
 6175.00    0.31328   0.30999   15.323
 6176.00    0.32239   0.31054   14.394
 6177.00    0.32774   0.31093   13.450
 6178.00    0.32443   0.31110   12.949
 6179.00    0.31035   0.31091   13.219
 6180.00    0.29387   0.31033   13.961
 6181.00    0.28778   0.30938   14.433
 6182.00    0.29398   0.30809   14.600
 6183.00    0.30609   0.30647   14.957
 6184.00    0.32020   0.30468   15.195
 6185.00    0.33512   0.30301   14.641
 6186.00    0.34929   0.30172   -2.000
 6187.00    0.35829   0.30101   -2.000
 6188.00    0.35241   0.30097   -2.000
 6189.00    0.32537   0.30157   -2.000
 6190.00    0.28716   0.30260   -2.000
 6191.00    0.25550   0.30377   -2.000
 6192.00    0.24161   0.30481   -2.000
 6193.00    0.24891   0.30555   -2.000
 6194.00    0.27373   0.30590   -2.000
 6195.00    0.30507   0.30597   -2.000
 6196.00    0.32542   0.30600   -2.000
 6197.00    0.32352   0.30614   -2.000
 6198.00    0.30722   0.30650   13.242
 6199.00    0.29216   0.30707   13.474
 6200.00    0.28889   0.30777   13.956
 6201.00    0.30016   0.30845   14.851
 6202.00    0.32000   0.30888   15.738
 6203.00    0.33925   0.30892   16.079
 6204.00    0.35069   0.30852   16.043
 6205.00    0.35238   0.30766   16.013
 6206.00    0.34900   0.30630   16.022
 6207.00    0.34421   0.30449   15.926
 6208.00    0.33531   0.30240   15.596
 6209.00    0.31661   0.30026   15.106
 6210.00    0.28342   0.29834   14.736
 6211.00    0.24144   0.29681   14.567
 6212.00    0.20986   0.29571   14.394
 6213.00    0.20508   0.29505   14.201
 6214.00    0.23125   0.29481   14.268
 6215.00    0.28134   0.29490   14.486
 6216.00    0.33905   0.29516   14.181
 6217.00    0.38390   0.29546   13.308
 6218.00    0.39740   0.29574   12.608
 6219.00    0.37914   0.29600   12.418
 6220.00    0.34874   0.29623   12.606
 6221.00    0.32413   0.29635   12.978
 6222.00    0.31221   0.29617   13.393
 6223.00    0.30989   0.29554   13.856
 6224.00    0.30834   0.29459   14.517
 6225.00    0.30595   0.29355   15.332
 6226.00    0.30896   0.29266   15.947
 6227.00    0.31849   0.29218   16.142
 6228.00    0.32853   0.29226   16.068
 6229.00    0.33326   0.29285   16.018
 6230.00    0.33044   0.29378   16.201
 6231.00    0.32406   0.29477   16.398
 6232.00    0.32186   0.29549   16.166
 6233.00    0.32706   0.29566   15.681
 6234.00    0.33735   0.29528   15.468
 6235.00    0.34757   0.29441   15.483
 6236.00    0.35188   0.29320   15.323
 6237.00    0.34671   0.29197   14.957
 6238.00    0.33235   0.29097   14.656
 6239.00    0.31445   0.29032   14.578
 6240.00    0.30103   0.29013   14.695
 6241.00    0.29624   0.29042   14.741
 6242.00    0.29924   0.29102   14.446
 6243.00    0.30442   0.29176   13.976
 6244.00    0.30499   0.29244   13.635
 6245.00    0.29854   0.29281   13.433
 6246.00    0.28880   0.29271   13.300
 6247.00    0.28628   0.29218   13.409
 6248.00    0.29928   0.29126   13.902
 6249.00    0.32205   0.29001   14.459
 6250.00    0.33950   0.28857   14.612
 6251.00    0.33605   0.28717   14.498
 6252.00    0.30693   0.28608   14.502
 6253.00    0.26876   0.28553   14.678
 6254.00    0.24441   0.28555   14.920
 6255.00    0.24512   0.28614   15.199
 6256.00    0.26688   0.28727   15.503
 6257.00    0.29037   0.28874   15.760
 6258.00    0.29897   0.29030   15.959
 6259.00    0.29413   0.29180   16.252
 6260.00    0.28402   0.29309   16.619
 6261.00    0.27271   0.29399   16.598
 6262.00    0.26019   0.29451   16.088
 6263.00    0.24407   0.29480   15.778
 6264.00    0.22721   0.29498   15.927
 6265.00    0.22110   0.29516   15.827
 6266.00    0.23123   0.29545   15.128
 6267.00    0.24899   0.29580   14.523
 6268.00    0.26370   0.29613   14.428
 6269.00    0.27059   0.29640   14.611
 6270.00    0.27121   0.29659   14.778
 6271.00    0.27184   0.29664   14.856
 6272.00    0.27534   0.29650   14.847
 6273.00    0.27795   0.29614   14.733
 6274.00    0.27554   0.29567   14.518
 6275.00    0.26705   0.29523   14.267
 6276.00    0.25570   0.29497   14.191
 6277.00    0.24790   0.29496   14.583
 6278.00    0.24697   0.29521   15.368
 6279.00    0.25132   0.29572   15.952
 6280.00    0.25750   0.29650    0.000
 6281.00    0.26198   0.29746    0.000
 6282.00    0.26304   0.29842    0.000
 6283.00    0.26074   0.29919    0.000
 6284.00    0.25511   0.29962    0.000
 6285.00    0.24645   0.29965    0.000
 6286.00    0.23827   0.29935    0.000
 6287.00    0.23565   0.29880    0.000
 6288.00    0.23857   0.29804    0.000
 6289.00    0.24222   0.29705    0.000
 6290.00    0.24276   0.29595    0.000
 6291.00    0.23945   0.29492    0.000
 6292.00    0.23571   0.29408    0.000
 6293.00    0.23731   0.29346    0.000
 6294.00    0.24773   0.29297    0.000
 6295.00    0.26623   0.29259    0.000
 6296.00    0.28618   0.29239    0.000
 6297.00    0.29967   0.29247    0.000
 6298.00    0.30622   0.29278    0.000
 6299.00    0.31194   0.29327    0.000
 6300.00    0.32484   0.29395    0.000
 6301.00    0.34831   0.29483    0.000
 6302.00    0.37264   0.29581    0.000
 6303.00    0.38362   0.29673    0.000
 6304.00    0.37672   0.29738    0.000
 6305.00    0.35564   0.29768    0.000
 6306.00    0.32749   0.29764    0.000
 6307.00    0.30075   0.29729    0.000
 6308.00    0.28343   0.29659    0.000
 6309.00    0.27950   0.29565    0.000
 6310.00    0.28549   0.29467    0.000
 6311.00    0.29466   0.29371    0.000
 6312.00    0.30195   0.29289    0.000
 6313.00    0.30487   0.29239    0.000
 6314.00    0.30373   0.29225    0.000
 6315.00    0.30071   0.29246    0.000
 6316.00    0.29853   0.29302    0.000
 6317.00    0.29767   0.29387    0.000
 6318.00    0.29478   0.29488    0.000
 6319.00    0.28806   0.29595    0.000
 6320.00    0.28123   0.29694    0.000
 6321.00    0.28031   0.29775   15.708
 6322.00    0.29013   0.29836   15.710
 6323.00    0.30842   0.29879   15.526
 6324.00    0.32400   0.29904   15.473
 6325.00    0.32981   0.29915   15.709
 6326.00    0.32950   0.29915   16.007
 6327.00    0.32805   0.29897   16.183
 6328.00    0.32634   0.29848   16.339
 6329.00    0.32299   0.29763   16.533
 6330.00    0.31643   0.29660   16.629
 6331.00    0.30976   0.29565   16.587
 6332.00    0.31058   0.29490   16.568
 6333.00    0.31979   0.29438   16.704
 6334.00    0.32917   0.29419   16.987
 6335.00    0.33201   0.29425   17.244
 6336.00    0.32721   0.29442   17.198
 6337.00    0.31723   0.29449   16.830
 6338.00    0.30609   0.29434   16.427
 6339.00    0.29581   0.29397   16.239
 6340.00    0.28670   0.29349   16.341
 6341.00    0.28242   0.29310   16.459
 6342.00    0.28895   0.29295   16.142
 6343.00    0.30658   0.29318   15.570
 6344.00    0.32926   0.29373   15.310
 6345.00    0.34936   0.29448   15.377
 6346.00    0.36106   0.29519   15.360
 6347.00    0.36491   0.29561   15.121
 6348.00    0.36525   0.29561   14.831
 6349.00    0.36132   0.29519   14.627
 6350.00    0.34845   0.29440   14.516
 6351.00    0.32497   0.29326   14.358
 6352.00    0.29353   0.29181   14.047
 6353.00    0.26039   0.29026   13.823
 6354.00    0.23337   0.28877   13.995
 6355.00    0.21813   0.28741   14.459
 6356.00    0.21639   0.28627   14.854
 6357.00    0.22416   0.28550   15.066
 6358.00    0.23421   0.28520   15.233
 6359.00    0.24048   0.28545   15.475
 6360.00    0.24208   0.28623   15.828
 6361.00    0.24726   0.28742   16.220
 6362.00    0.26416   0.28884   16.518
 6363.00    0.28812   0.29029   16.627
 6364.00    0.30820   0.29157   16.542
 6365.00    0.31739   0.29266   16.367
 6366.00    0.31423   0.29364   16.219
 6367.00    0.30303   0.29451   16.138
 6368.00    0.29070   0.29522   16.138
 6369.00    0.28312   0.29573   16.257
 6370.00    0.28237   0.29608   16.445
 6371.00    0.28453   0.29625   16.466
 6372.00    0.28238   0.29614   16.225
 6373.00    0.26866   0.29572   16.021
 6374.00    0.24267   0.29510   16.103
 6375.00    0.21467   0.29442   16.374
 6376.00    0.19782   0.29385   16.623
 6377.00    0.20126   0.29342   16.725
 6378.00    0.22640   0.29312   16.686
 6379.00    0.26549   0.29302   16.642
 6380.00    0.30693   0.29314   16.668
 6381.00    0.33957   0.29334   16.670
 6382.00    0.35642   0.29349   16.391
 6383.00    0.35670   0.29353   15.588
 6384.00    0.34550   0.29342   14.640
 6385.00    0.33175   0.29309   14.283
 6386.00    0.31968   0.29246   14.371
 6387.00    0.30633   0.29156   13.941
 6388.00    0.29152   0.29071   13.690
 6389.00    0.28069   0.29016   16.349
 6390.00    0.27593   0.28992   26.217
 6391.00    0.27378   0.28990   27.786
 6392.00    0.27319   0.28996   27.786
 6393.00    0.27681   0.28990   27.786
 6394.00    0.28313   0.28980   27.786
 6395.00    0.28592   0.28994   27.786
 6396.00    0.28297   0.29032   27.786
 6397.00    0.27823   0.29079   27.786
 6398.00    0.27847   0.29135   27.786
 6399.00    0.28903   0.29197   27.786
 6400.00    0.30509   0.29253   27.786
 6401.00    0.31484   0.29293   27.786
 6402.00    0.31486   0.29304   27.786
 6403.00    0.31099   0.29290   25.944
 6404.00    0.30951   0.29253   18.543
 6405.00    0.31356   0.29192   16.137
 6406.00    0.32059   0.29133   16.324
 6407.00    0.32474   0.29093   16.653
 6408.00    0.32326   0.29076   16.307
 6409.00    0.31702   0.29079   15.953
 6410.00    0.30888   0.29088   15.973
 6411.00    0.30263   0.29091   16.319
 6412.00    0.30199   0.29086   16.744
 6413.00    0.30984   0.29069   16.896
 6414.00    0.32714   0.29033   16.569
 6415.00    0.34809   0.28993   15.851
 6416.00    0.35380   0.28982   15.085
 6417.00    0.32833   0.29007   14.558
 6418.00    0.28228   0.29056   14.289
 6419.00    0.24136   0.29123   14.170
 6420.00    0.22598   0.29203   14.103
 6421.00    0.24099   0.29285   14.102
 6422.00    0.26772   0.29341   14.394
 6423.00    0.28279   0.29346   15.114
 6424.00    0.28030   0.29285   15.863
 6425.00    0.26874   0.29187   16.086
 6426.00    0.26380   0.29100   15.895
 6427.00    0.27465   0.29039   15.659
 6428.00    0.29232   0.29000   15.438
 6429.00    0.30113   0.28987   15.264
 6430.00    0.29079   0.28996   15.370
 6431.00    0.26421   0.29016   15.880
 6432.00    0.24063   0.29022   16.543
 6433.00    0.23596   0.29012   17.025
 6434.00    0.24819   0.29012   17.238
 6435.00    0.26538   0.29040   17.043
 6436.00    0.27369   0.29090   16.131
 6437.00    0.26781   0.29158   14.827
 6438.00    0.25570   0.29234   13.956
 6439.00    0.24567   0.29310   13.731
 6440.00    0.23951   0.29369   13.749
 6441.00    0.23925   0.29377   13.814
 6442.00    0.24946   0.29306   14.231
 6443.00    0.26805   0.29151   15.091
 6444.00    0.28359   0.28955   15.874
 6445.00    0.28596   0.28781   16.157
 6446.00    0.27226   0.28660   16.173
 6447.00    0.24913   0.28595   16.126
 6448.00    0.23021   0.28577   15.936
 6449.00    0.22193   0.28594   15.752
 6450.00    0.22056   0.28647   15.947
 6451.00    0.22281   0.28740   16.450
 6452.00    0.22869   0.28843   16.673
 6453.00    0.23683   0.28927   16.513
 6454.00    0.24418   0.28976   16.475
 6455.00    0.25034   0.28977   16.643
 6456.00    0.25666   0.28929   16.649
 6457.00    0.25952   0.28861   16.516
 6458.00    0.25239   0.28808   16.584
 6459.00    0.23641   0.28778   16.606
 6460.00    0.22021   0.28772   15.994
 6461.00    0.21186   0.28795   15.013
 6462.00    0.21503   0.28842   14.349
 6463.00    0.22504   0.28903   14.128
 6464.00    0.23198   0.28958   14.170
 6465.00    0.22908   0.28985   14.436
 6466.00    0.21636   0.28981   14.934
 6467.00    0.20390   0.28963   15.339
 6468.00    0.20469   0.28935   15.277
 6469.00    0.22079   0.28898   15.140
 6470.00    0.24426   0.28871   15.533
 6471.00    0.26323   0.28862   16.193
 6472.00    0.27015   0.28857   16.404
 6473.00    0.27224   0.28845   16.268
 6474.00    0.28124   0.28812   16.358
 6475.00    0.29695   0.28748   16.761
 6476.00    0.31104   0.28661   17.208
 6477.00    0.31567   0.28573   17.378
 6478.00    0.30825   0.28503   17.176
 6479.00    0.29531   0.28463   16.942
 6480.00    0.28572   0.28449   16.981
 6481.00    0.28260   0.28454   17.121
 6482.00    0.28493   0.28471   17.090
 6483.00    0.29044   0.28478   16.955
 6484.00    0.29845   0.28446   16.830
 6485.00    0.31151   0.28356   16.573
 6486.00    0.32717   0.28202   16.058
 6487.00    0.33198   0.27979   15.398
 6488.00    0.31480   0.27691   14.825
 6489.00    0.27808   0.27376   14.568
 6490.00    0.23486   0.27093   14.723
 6491.00    0.20432   0.26883   15.191
 6492.00    0.20003   0.26768   15.739
 6493.00    0.22210   0.26748   16.061
 6494.00    0.25957   0.26823   16.046
 6495.00    0.29441   0.26990   15.952
 6496.00    0.31355   0.27218   16.015
 6497.00    0.31552   0.27464   16.240
 6498.00    0.30623   0.27700   16.525
 6499.00    0.29511   0.27906   16.745
 6500.00    0.28840   0.28078   16.911
 6501.00    0.28630   0.28207   17.184
 6502.00    0.28554   0.28288   17.541
 6503.00    0.28174   0.28334   17.691
 6504.00    0.27364   0.28361   17.655
 6505.00    0.26409   0.28378   17.835
 6506.00    0.25646   0.28382   18.153
 6507.00    0.25294   0.28371   17.957
 6508.00    0.25390   0.28346   17.288
 6509.00    0.25821   0.28306   16.870
 6510.00    0.26497   0.28251   16.800
 6511.00    0.27309   0.28186   16.606
 6512.00    0.27800   0.28120   16.265
 6513.00    0.27408   0.28068   16.171
 6514.00    0.26424   0.28046   16.287
 6515.00    0.25794   0.28057   16.203
 6516.00    0.25820   0.28092   15.889
 6517.00    0.26103   0.28137   15.678
 6518.00    0.26311   0.28182   15.714
 6519.00    0.26359   0.28220   15.916
 6520.00    0.26367   0.28238   16.093
 6521.00    0.26551   0.28226   16.105
 6522.00    0.27014   0.28195   16.171
 6523.00    0.27820   0.28161   16.614
 6524.00    0.29189   0.28128   17.205
 6525.00    0.31203   0.28089   17.373
 6526.00    0.33208   0.28040   17.129
 6527.00    0.34236   0.27992   16.912
 6528.00    0.33885   0.27959    0.000
 6529.00    0.32540   0.27945    0.000
 6530.00    0.31440   0.27939    0.000
 6531.00    0.31811   0.27931    0.000
 6532.00    0.33643   0.27923    0.000
 6533.00    0.35946   0.27920    0.000
 6534.00    0.37358   0.27916    0.000
 6535.00    0.36915   0.27887    0.000
 6536.00    0.34862   0.27818    0.000
 6537.00    0.32314   0.27709    0.000
 6538.00    0.30680   0.27570    0.000
 6539.00    0.30684   0.27407    0.000
 6540.00    0.31502   0.27219    0.000
 6541.00    0.31951   0.27022    0.000
 6542.00    0.31694   0.26845    0.000
 6543.00    0.31052   0.26692    0.000
 6544.00    0.30674   0.26547    0.000
 6545.00    0.30875   0.26392    0.000
 6546.00    0.31190   0.26222    0.000
 6547.00    0.30965   0.26035    0.000
 6548.00    0.29881   0.25817    0.000
 6549.00    0.28255   0.25554    0.000
 6550.00    0.27070   0.25246    0.000
 6551.00    0.26908   0.24898    0.000
 6552.00    0.27331   0.24503    0.000
 6553.00    0.27433   0.24049    0.000
 6554.00    0.26405   0.23528    0.000
 6555.00    0.24660   0.22937    0.000
 6556.00    0.24194   0.22282    0.000
 6557.00    0.27264   0.21647    0.000
 6558.00    0.36001   0.21208    0.000
 6559.00    0.53891   0.21080    0.000
 6560.00    0.84940   0.21228    0.000
 6561.00    1.27064   0.21576    0.000
 6562.00    1.70511   0.22077    0.000
 6563.00    2.03381   0.22686    0.000
 6564.00    2.15416   0.23324    0.000
 6565.00    2.03184   0.23891    0.000
 6566.00    1.71220   0.24334    0.000
 6567.00    1.29210   0.24659    0.000
 6568.00    0.89035   0.24904    0.000
 6569.00    0.58843   0.25111    0.000
 6570.00    0.41269   0.25313    0.000
 6571.00    0.33936   0.25525    0.000
 6572.00    0.31485   0.25734    0.000
 6573.00    0.30403   0.25933    0.000
 6574.00    0.29696   0.26115    0.000
 6575.00    0.29186   0.26275    0.000
 6576.00    0.28941   0.26414    0.000
 6577.00    0.28981   0.26539    0.000
 6578.00    0.29260   0.26652    0.000
 6579.00    0.29759   0.26751    0.000
 6580.00    0.30627   0.26840    0.000
 6581.00    0.32392   0.26922    0.000
 6582.00    0.35399   0.27003    0.000
 6583.00    0.38791   0.27067    0.000
 6584.00    0.41045   0.27098    0.000
 6585.00    0.41175   0.27091    0.000
 6586.00    0.39003   0.27038    0.000
 6587.00    0.35248   0.26946    0.000
 6588.00    0.31167   0.26846    0.000
 6589.00    0.28011   0.26781    0.000
 6590.00    0.26445   0.26763    0.000
 6591.00    0.25953   0.26775    0.000
 6592.00    0.25703   0.26808    0.000
 6593.00    0.25645   0.26867    0.000
 6594.00    0.25943   0.26958    0.000
 6595.00    0.26234   0.27068    0.000
 6596.00    0.26096   0.27161    0.000
 6597.00    0.25589   0.27220    0.000
 6598.00    0.25110   0.27244    0.000
 6599.00    0.25164   0.27238    0.000
 6600.00    0.25998   0.27211    0.000
 6601.00    0.27336   0.27164    0.000
 6602.00    0.28742   0.27104    0.000
 6603.00    0.29919   0.27041    0.000
 6604.00    0.30527   0.26999    0.000
 6605.00    0.30096   0.27003    0.000
 6606.00    0.28563   0.27048    0.000
 6607.00    0.26575   0.27107    0.000
 6608.00    0.25025   0.27164    0.000
 6609.00    0.24667   0.27230   16.998
 6610.00    0.25765   0.27309   16.977
 6611.00    0.27919   0.27377   16.702
 6612.00    0.30223   0.27417   16.316
 6613.00    0.31578   0.27436   16.297
 6614.00    0.31718   0.27446   16.687
 6615.00    0.31481   0.27445   16.905
 6616.00    0.31564   0.27422   16.767
 6617.00    0.31965   0.27374   16.838
 6618.00    0.32204   0.27302   17.338
 6619.00    0.31588   0.27216   17.847
 6620.00    0.29801   0.27136   18.084
 6621.00    0.27169   0.27078   18.197
 6622.00    0.24702   0.27032   18.128
 6623.00    0.23701   0.26989   17.589
 6624.00    0.24393   0.26949   16.842
 6625.00    0.25776   0.26914   16.476
 6626.00    0.26622   0.26882   16.539
 6627.00    0.26135   0.26841   16.635
 6628.00    0.24859   0.26791   16.569
 6629.00    0.24240   0.26756   16.461
 6630.00    0.24792   0.26754   16.477
 6631.00    0.25997   0.26778   16.699
 6632.00    0.27293   0.26813   16.990
 6633.00    0.28399   0.26847   17.092
 6634.00    0.29446   0.26876   17.031
 6635.00    0.30676   0.26902   17.046
 6636.00    0.31766   0.26922   17.225
 6637.00    0.32144   0.26918   17.474
 6638.00    0.31846   0.26885   17.591
 6639.00    0.31251   0.26858   17.478
 6640.00    0.30321   0.26854   17.475
 6641.00    0.28930   0.26859   17.916
 6642.00    0.27618   0.26858   18.340
 6643.00    0.27068   0.26857   18.056
 6644.00    0.27175   0.26867   17.482
 6645.00    0.27381   0.26876   17.339
 6646.00    0.27372   0.26871   17.546
 6647.00    0.27218   0.26854   17.660
 6648.00    0.27417   0.26837   17.540
 6649.00    0.28462   0.26821   17.259
 6650.00    0.30321   0.26804   16.861
 6651.00    0.32438   0.26782   16.450
 6652.00    0.33858   0.26756   16.261
 6653.00    0.33902   0.26727   16.390
 6654.00    0.32815   0.26686   16.569
 6655.00    0.31392   0.26629   16.570
 6656.00    0.30511   0.26561   16.610
 6657.00    0.30537   0.26481   16.873
 6658.00    0.30930   0.26398   17.088
 6659.00    0.30984   0.26336   17.041
 6660.00    0.30464   0.26305   17.023
 6661.00    0.29504   0.26294   17.330
 6662.00    0.28459   0.26306   17.900
 6663.00    0.27623   0.26347   18.392
 6664.00    0.27040   0.26419   18.336
 6665.00    0.26543   0.26503   17.768
 6666.00    0.25859   0.26572   17.361
 6667.00    0.25053   0.26610   17.372
 6668.00    0.24656   0.26617   17.355
 6669.00    0.24918   0.26589   17.008
 6670.00    0.25484   0.26525   16.575
 6671.00    0.25879   0.26417   16.345
 6672.00    0.25811   0.26265   16.438
 6673.00    0.25336   0.26121   16.751
 6674.00    0.24823   0.26038   16.978
 6675.00    0.24458   0.26021   16.988
 6676.00    0.24209   0.26032   16.943
 6677.00    0.24532   0.26067   16.961
 6678.00    0.26222   0.26137   17.002
 6679.00    0.28863   0.26231   17.029
 6680.00    0.30799   0.26317   17.059
 6681.00    0.30976   0.26375   17.177
 6682.00    0.29531   0.26408   17.478
 6683.00    0.27584   0.26429   17.896
 6684.00    0.26538   0.26444   18.187
 6685.00    0.26345   0.26448   18.168
 6686.00    0.25817   0.26439   17.869
 6687.00    0.24772   0.26418   17.601
 6688.00    0.24102   0.26391   17.663
 6689.00    0.24524   0.26358   17.759
 6690.00    0.26172   0.26314   17.357
 6691.00    0.28420   0.26264   16.838
 6692.00    0.30270   0.26224   16.898
 6693.00    0.31200   0.26207   17.235
 6694.00    0.31211   0.26206   17.052
 6695.00    0.30543   0.26218   16.614
 6696.00    0.29515   0.26232    0.000
 6697.00    0.28345   0.26245    0.000
 6698.00    0.27178   0.26250    0.000
 6699.00    0.26171   0.26246    0.000
 6700.00    0.25495   0.26242    0.000
 6701.00    0.25287   0.26239    0.000
 6702.00    0.25462   0.26233    0.000
 6703.00    0.25474   0.26221    0.000
 6704.00    0.24749   0.26201    0.000
 6705.00    0.23271   0.26170    0.000
 6706.00    0.21510   0.26127    0.000
 6707.00    0.20220   0.26069    0.000
 6708.00    0.19937   0.25989    0.000
 6709.00    0.20501   0.25892    0.000
 6710.00    0.21473   0.25787    0.000
 6711.00    0.22646   0.25685    0.000
 6712.00    0.24483   0.25596    0.000
 6713.00    0.28333   0.25540    0.000
 6714.00    0.35119   0.25533    0.000
 6715.00    0.44198   0.25557    0.000
 6716.00    0.53715   0.25592    0.000
 6717.00    0.61131   0.25641    0.000
 6718.00    0.64511   0.25705    0.000
 6719.00    0.63433   0.25770    0.000
 6720.00    0.58659   0.25814    0.000
 6721.00    0.51767   0.25838    0.000
 6722.00    0.44434   0.25861    0.000
 6723.00    0.37964   0.25888    0.000
 6724.00    0.33079   0.25911    0.000
 6725.00    0.29883   0.25930    0.000
 6726.00    0.28183   0.25943    0.000
 6727.00    0.27819   0.25949    0.000
 6728.00    0.29347   0.25945    0.000
 6729.00    0.33923   0.25930    0.000
 6730.00    0.41162   0.25910    0.000
 6731.00    0.48550   0.25887    0.000
 6732.00    0.53273   0.25854    0.000
 6733.00    0.53422   0.25808    0.000
 6734.00    0.49471   0.25761    0.000
 6735.00    0.44089   0.25727    0.000
 6736.00    0.39387   0.25703    0.000
 6737.00    0.35942   0.25672    0.000
 6738.00    0.33052   0.25636    0.000
 6739.00    0.29527   0.25611    0.000
 6740.00    0.25769   0.25597    0.000
 6741.00    0.23686   0.25576    0.000
 6742.00    0.24582   0.25545    0.000
 6743.00    0.28327   0.25512    0.000
 6744.00    0.32864   0.25483    0.000
 6745.00    0.35174   0.25459    0.000
 6746.00    0.33860   0.25444    0.000
 6747.00    0.29686   0.25436    0.000
 6748.00    0.25255   0.25439    0.000
 6749.00    0.23608   0.25467    0.000
 6750.00    0.25552   0.25520    0.000
 6751.00    0.29600   0.25584    0.000
 6752.00    0.33023   0.25652    0.000
 6753.00    0.33411   0.25721   12.610
 6754.00    0.31002   0.25788   13.068
 6755.00    0.27967   0.25839   13.832
 6756.00    0.26544   0.25864   14.639
 6757.00    0.27944   0.25862   14.964
 6758.00    0.31244   0.25844   14.215
 6759.00    0.34405   0.25813   13.001
 6760.00    0.35933   0.25765   13.402
 6761.00    0.35239   0.25700   17.996
 6762.00    0.32760   0.25630   27.786
 6763.00    0.29439   0.25580   27.786
 6764.00    0.26091   0.25554   27.786
 6765.00    0.23455   0.25543   27.786
 6766.00    0.22271   0.25544   27.786
 6767.00    0.22708   0.25572   27.786
 6768.00    0.23858   0.25630   27.786
 6769.00    0.24636   0.25702   27.786
 6770.00    0.24667   0.25770   27.786
 6771.00    0.24149   0.25826   27.786
 6772.00    0.23603   0.25868   27.786
 6773.00    0.23395   0.25888   27.786
 6774.00    0.23424   0.25880   27.786
 6775.00    0.23659   0.25839   21.240
 6776.00    0.24466   0.25764   15.370
 6777.00    0.26010   0.25662   14.742
 6778.00    0.27838   0.25549   14.921
 6779.00    0.29081   0.25439   13.857
 6780.00    0.28753   0.25350   13.055
 6781.00    0.26669   0.25291   13.360
 6782.00    0.23811   0.25267   13.987
 6783.00    0.21374   0.25271   14.269
 6784.00    0.20229   0.25289   14.664
 6785.00    0.20952   0.25310   15.530
 6786.00    0.23681   0.25334   16.377
 6787.00    0.27383   0.25352   16.509
 6788.00    0.29965   0.25356   15.780
 6789.00    0.30221   0.25350   14.721
 6790.00    0.28464   0.25350   13.973
 6791.00    0.25698   0.25358   13.628
 6792.00    0.23153   0.25371   13.411
 6793.00    0.21897   0.25386   13.301
 6794.00    0.22496   0.25407   13.553
 6795.00    0.24393   0.25435   14.231
 6796.00    0.26171   0.25462   15.095
 6797.00    0.27020   0.25480   15.858
 6798.00    0.27022   0.25488   16.253
 6799.00    0.26669   0.25487   15.895
 6800.00    0.26518   0.25483   14.655
 6801.00    0.26725   0.25472   13.180
 6802.00    0.27078   0.25454   12.155
 6803.00    0.27407   0.25437   11.742
 6804.00    0.27553   0.25422   11.915
 6805.00    0.27108   0.25403   12.732
 6806.00    0.25788   0.25383   14.257
 6807.00    0.24293   0.25369   16.009
 6808.00    0.23669   0.25358   16.828
 6809.00    0.23809   0.25342   16.643
 6810.00    0.23998   0.25322   16.441
 6811.00    0.24336   0.25315   16.477
 6812.00    0.25366   0.25326   16.505
 6813.00    0.27064   0.25340   16.531
 6814.00    0.28892   0.25348   16.596
 6815.00    0.30150   0.25358   16.279
 6816.00    0.30239   0.25379   15.306
 6817.00    0.28979   0.25410   14.243
 6818.00    0.26924   0.25432   13.638
 6819.00    0.25606   0.25439   13.494
 6820.00    0.26149   0.25437   13.691
 6821.00    0.27708   0.25429   14.279
 6822.00    0.28805   0.25409   15.241
 6823.00    0.28954   0.25373   16.046
 6824.00    0.28226   0.25337   15.935
 6825.00    0.26663   0.25317   14.820
 6826.00    0.24611   0.25311   13.333
 6827.00    0.23011   0.25305   12.166
 6828.00    0.22859   0.25297   11.588
 6829.00    0.24595   0.25296   11.571
 6830.00    0.27250   0.25296   12.086
 6831.00    0.28288   0.25277   13.205
 6832.00    0.27480   0.25230   14.818
 6833.00    0.28775   0.25164   16.110
 6834.00    0.33016   0.25090   16.331
 6835.00    0.34320   0.25014   16.094
 6836.00    0.29851   0.24940   16.066
 6837.00    0.24725   0.24886   16.126
 6838.00    0.23077   0.24868   16.127
 6839.00    0.23507   0.24890   16.281
 6840.00    0.24128   0.24935   16.673
 6841.00    0.25077   0.24986   17.035
 6842.00    0.26559   0.25037   17.145
 6843.00    0.27997   0.25086   17.044
 6844.00    0.28954   0.25122   16.746
 6845.00    0.29510   0.25133   16.187
 6846.00    0.29927   0.25120   15.532
 6847.00    0.30478   0.25095   15.094
 6848.00    0.31391   0.25062   14.900
 6849.00    0.32683   0.25014   14.756
 6850.00    0.33669   0.24952   14.784
 6851.00    0.33226   0.24892   15.328
 6852.00    0.31234   0.24847   15.998
 6853.00    0.28811   0.24813   15.645
 6854.00    0.27531   0.24788   14.419
 6855.00    0.28622   0.24773   13.425
 6856.00    0.31491   0.24766   12.793
 6857.00    0.34047   0.24769   12.191
 6858.00    0.34602   0.24789   11.911
 6859.00    0.32543   0.24820   12.536
 6860.00    0.28675   0.24843   14.055
 6861.00    0.24785   0.24849   15.610
 6862.00    0.22510   0.24841   16.387
 6863.00    0.22544   0.24823   16.496
 6864.00    0.23637   0.24804   16.611
 6865.00    0.23810   0.24793   17.261
 6866.00    0.22963   0.24781   18.026
 6867.00    0.22384   0.24765   17.999
 6868.00    0.22989   0.24763   17.509
 6869.00    0.24971   0.24789   17.430
 6870.00    0.27752   0.24825   17.688
 6871.00    0.30458   0.24855   17.697
 6872.00    0.32604   0.24885   17.265
 6873.00    0.33942   0.24917   16.618
 6874.00    0.34110   0.24936   16.081
 6875.00    0.32823   0.24932   15.868
 6876.00    0.30200   0.24911   15.956
 6877.00    0.26936   0.24878   16.126
 6878.00    0.24397   0.24846   15.980
 6879.00    0.23679   0.24833   15.420
 6880.00    0.24624   0.24845   14.998
 6881.00    0.26342   0.24871   15.104
 6882.00    0.27870   0.24910   15.450
 6883.00    0.28435   0.24970   15.655
 6884.00    0.27666   0.25038   15.857
 6885.00    0.25883   0.25096   16.241
 6886.00    0.24206   0.25141   16.546
 6887.00    0.23536   0.25170   16.436
 6888.00    0.23787   0.25179   15.934
 6889.00    0.24367   0.25175   15.351
 6890.00    0.24643   0.25164   15.068
 6891.00    0.24353   0.25142   15.279
 6892.00    0.23772   0.25118   15.924
 6893.00    0.23045   0.25107   16.793
 6894.00    0.21908   0.25104   17.545
 6895.00    0.20550   0.25093   17.834
 6896.00    0.19903   0.25083   17.557
 6897.00    0.20408   0.25095   17.013
 6898.00    0.21506   0.25119   16.706
 6899.00    0.22563   0.25133   16.748
 6900.00    0.23363   0.25141   16.795
 6901.00    0.24177   0.25161   16.639
 6902.00    0.25489   0.25188   16.436
 6903.00    0.26782   0.25202   16.412
 6904.00    0.26650   0.25196   16.708
 6905.00    0.25214   0.25176   17.203
 6906.00    0.24309   0.25146   17.516
 6907.00    0.24758   0.25104   17.519
 6908.00    0.25807   0.25050   17.460
 6909.00    0.26633   0.24994   17.485
 6910.00    0.26902   0.24950   17.538
 6911.00    0.26890   0.24927   17.579
 6912.00    0.27120   0.24920   17.606
 6913.00    0.27316   0.24923   17.570
 6914.00    0.26725   0.24937   17.382
 6915.00    0.25702   0.24953   17.019
 6916.00    0.25332   0.24962   16.536
 6917.00    0.25570   0.24957   16.041
 6918.00    0.25578   0.24944   15.640
 6919.00    0.25461   0.24917   15.375
 6920.00    0.26085   0.24883   15.220
 6921.00    0.27916   0.24858   15.056
 6922.00    0.30621   0.24854   14.768
 6923.00    0.32805   0.24865   14.413
 6924.00    0.33007   0.24876   14.128
 6925.00    0.31445   0.24889   13.973
 6926.00    0.29485   0.24909   13.971
 6927.00    0.28272   0.24925   14.189
 6928.00    0.28151   0.24927   14.683
 6929.00    0.28208   0.24926   15.369
 6930.00    0.27341   0.24939   16.073
 6931.00    0.25762   0.24959   16.685
 6932.00    0.24114   0.24970   17.132
 6933.00    0.22185   0.24979   17.272
 6934.00    0.20024   0.24992   16.989
 6935.00    0.19278   0.25001   16.324
 6936.00    0.21113   0.24993   15.458
 6937.00    0.24011   0.24971   14.623
 6938.00    0.25995   0.24943   14.107
 6939.00    0.26981   0.24911   14.273
 6940.00    0.27665   0.24879   15.161
 6941.00    0.28260   0.24857   15.898
 6942.00    0.28279   0.24856   15.707
 6943.00    0.26645   0.24866   15.373
 6944.00    0.23382   0.24875   15.616
 6945.00    0.20614   0.24878   16.022
 6946.00    0.19907   0.24875   16.078
 6947.00    0.20490   0.24865   16.018
 6948.00    0.20963   0.24856   16.159
 6949.00    0.20585   0.24849   16.434
 6950.00    0.19535   0.24848   16.720
 6951.00    0.18842   0.24860   17.033
 6952.00    0.19354   0.24889   17.296
 6953.00    0.21099   0.24921   17.252
 6954.00    0.23188   0.24948   16.895
 6955.00    0.24121   0.24977   16.571
 6956.00    0.23428   0.25005   16.392
 6957.00    0.22166   0.25022   16.147
 6958.00    0.21479   0.25031   15.882
 6959.00    0.21894   0.25041   15.928
 6960.00    0.23345   0.25052   16.116
 6961.00    0.25224   0.25053   15.753
 6962.00    0.26547   0.25049   14.958
 6963.00    0.26396   0.25052   14.554
 6964.00    0.25203   0.25058   14.685
 6965.00    0.24489   0.25047   14.864
 6966.00    0.24535   0.25015   14.914
 6967.00    0.24323   0.24972   15.108
 6968.00    0.23715   0.24923   15.489
 6969.00    0.23533   0.24850   15.824
 6970.00    0.23903   0.24743   16.137
 6971.00    0.24317   0.24628   16.669
 6972.00    0.25001   0.24529   17.137
 6973.00    0.26501   0.24440   16.932
 6974.00    0.27900   0.24368   16.421
 6975.00    0.27574   0.24354   16.419
 6976.00    0.25715   0.24410   16.766
 6977.00    0.23734   0.24499   16.741
 6978.00    0.21954   0.24595   16.511
 6979.00    0.20008   0.24699   16.671
 6980.00    0.18453   0.24795   16.878
 6981.00    0.18342   0.24860   16.439
 6982.00    0.20001   0.24895   15.843
 6983.00    0.23085   0.24908   15.817
 6984.00    0.27004   0.24901   15.971
 6985.00    0.30901   0.24880   15.598
 6986.00    0.33540   0.24866   15.088
 6987.00    0.33982   0.24867   15.114
 6988.00    0.32474   0.24871   15.620
 6989.00    0.29955   0.24866   16.162
 6990.00    0.27283   0.24854   16.407
 6991.00    0.25284   0.24840   16.346
 6992.00    0.24856   0.24824   16.348
 6993.00    0.26104   0.24800   16.623
 6994.00    0.27536   0.24766   16.710
 6995.00    0.27626   0.24721   16.314
 6996.00    0.26365   0.24681   16.109
 6997.00    0.24382   0.24661   16.571
 6998.00    0.22063   0.24650   17.107
 6999.00    0.20099   0.24632   17.022
 7000.00    0.19838   0.24613   16.643
 7001.00    0.21648   0.24611   -2.000
 7002.00    0.23902   0.24622   -2.000
 7003.00    0.25286   0.24629   -2.000
 7004.00    0.26325   0.24636   -2.000
 7005.00    0.27831   0.24647   -2.000
 7006.00    0.29724   0.24644   -2.000
 7007.00    0.30681   0.24617   -2.000
 7008.00    0.28569   0.24582   -2.000
 7009.00    0.23867   0.24551   -2.000
 7010.00    0.20535   0.24513   -2.000
 7011.00    0.20046   0.24462   -2.000
 7012.00    0.19414   0.24424   -2.000
 7013.00    0.17454   0.24432   -2.000
 7014.00    0.16738   0.24473   -2.000
 7015.00    0.18136   0.24501   -2.000
 7016.00    0.19381   0.24518   -2.000
 7017.00    0.19770   0.24542   -2.000
 7018.00    0.21100   0.24556   -2.000
 7019.00    0.23526   0.24542   -2.000
 7020.00    0.24971   0.24525   -2.000
 7021.00    0.24804   0.24532   -2.000
 7022.00    0.24407   0.24553   -2.000
 7023.00    0.24659   0.24575   -2.000
 7024.00    0.25416   0.24607   -2.000
 7025.00    0.26556   0.24652   -2.000
 7026.00    0.28002   0.24696   -2.000
 7027.00    0.28919   0.24728   -2.000
 7028.00    0.28577   0.24746   -2.000
 7029.00    0.29018   0.24749   -2.000
 7030.00    0.32751   0.24741   -2.000
 7031.00    0.35946   0.24741   -2.000
 7032.00    0.32181   0.24753   -2.000
 7033.00    0.23842   0.24764   -2.000
 7034.00    0.18751   0.24777   -2.000
 7035.00    0.18480   0.24830   -2.000
 7036.00    0.19722   0.24921   -2.000
 7037.00    0.21226   0.25009   -2.000
 7038.00    0.23436   0.25080   -2.000
 7039.00    0.25685   0.25145   -2.000
 7040.00    0.26700   0.25192   -2.000
 7041.00    0.26174   0.25210   -2.000
 7042.00    0.24659   0.25212   -2.000
 7043.00    0.23042   0.25197   -2.000
 7044.00    0.22108   0.25146   -2.000
 7045.00    0.22092   0.25053   -2.000
 7046.00    0.22959   0.24936   -2.000
 7047.00    0.24834   0.24806   -2.000
 7048.00    0.27856   0.24653   -2.000
 7049.00    0.31916   0.24491   -2.000
 7050.00    0.36169   0.24347   -2.000
 7051.00    0.38677   0.24230   -2.000
 7052.00    0.37993   0.24141   -2.000
 7053.00    0.34660   0.24074   -2.000
 7054.00    0.30163   0.24019   -2.000
 7055.00    0.25781   0.23966   -2.000
 7056.00    0.22121   0.23924   -2.000
 7057.00    0.18957   0.23897   -2.000
 7058.00    0.16613   0.23870   -2.000
 7059.00    0.16669   0.23836   -2.000
 7060.00    0.19097   0.23808   -2.000
 7061.00    0.20822   0.23784   -2.000
 7062.00    0.20508   0.23765   -2.000
 7063.00    0.21002   0.23756   -2.000
 7064.00    0.23837   0.23761   -2.000
 7065.00    0.26479   0.23794   -2.000
 7066.00    0.26863   0.23858   -2.000
 7067.00    0.25740   0.23931   -2.000
 7068.00    0.24590   0.23996   -2.000
 7069.00    0.24341   0.24059   -2.000
 7070.00    0.24856   0.24119   -2.000
 7071.00    0.25031   0.24159   -2.000
 7072.00    0.24189   0.24175   -2.000
 7073.00    0.22680   0.24177   -2.000
 7074.00    0.21666   0.24164   -2.000
 7075.00    0.22495   0.24119   -2.000
 7076.00    0.24749   0.24044   -2.000
 7077.00    0.26330   0.23950   -2.000
 7078.00    0.26372   0.23831   -2.000
 7079.00    0.25628   0.23679   -2.000
 7080.00    0.24338   0.23508   -2.000
 7081.00    0.22196   0.23352   -2.000
 7082.00    0.20367   0.23222   -2.000
 7083.00    0.20876   0.23096   -2.000
 7084.00    0.23292   0.22982   -2.000
 7085.00    0.25090   0.22902   -2.000
 7086.00    0.24917   0.22850   -2.000
 7087.00    0.23024   0.22817   -2.000
 7088.00    0.20263   0.22802   -2.000
 7089.00    0.17691   0.22798   -2.000
 7090.00    0.16284   0.22811   -2.000
 7091.00    0.16638   0.22844   -2.000
 7092.00    0.18537   0.22884   -2.000
 7093.00    0.21195   0.22926   -2.000
 7094.00    0.23831   0.22968   -2.000
 7095.00    0.25644   0.23022   -2.000
 7096.00    0.25630   0.23068   -2.000
 7097.00    0.23991   0.23101   -2.000
 7098.00    0.24130   0.23118   -2.000
 7099.00    0.28398   0.23129   -2.000
 7100.00    0.31906   0.23146   -2.000
 7101.00    0.29245   0.23159   -2.000
 7102.00    0.24222   0.23146   -2.000
 7103.00    0.23146   0.23119   -2.000
 7104.00    0.25191   0.23104   -2.000
 7105.00    0.26436   0.23097   -2.000
 7106.00    0.25785   0.23078   -2.000
 7107.00    0.24256   0.23059   -2.000
 7108.00    0.23468   0.23067   -2.000
 7109.00    0.24971   0.23097   -2.000
 7110.00    0.29552   0.23128   -2.000
 7111.00    0.35530   0.23156   -2.000
 7112.00    0.37917   0.23188   -2.000
 7113.00    0.34391   0.23214   -2.000
 7114.00    0.29526   0.23219   -2.000
 7115.00    0.27437   0.23212   -2.000
 7116.00    0.26445   0.23195   -2.000
 7117.00    0.24297   0.23154   -2.000
 7118.00    0.21966   0.23085   -2.000
 7119.00    0.21768   0.23016   -2.000
 7120.00    0.25565   0.22945   -2.000
 7121.00    0.32537   0.22848   -2.000
 7122.00    0.38609   0.22733   -2.000
 7123.00    0.40810   0.22641   -2.000
 7124.00    0.39474   0.22581   -2.000
 7125.00    0.36447   0.22528   -2.000
 7126.00    0.33788   0.22484   -2.000
 7127.00    0.32499   0.22474   -2.000
 7128.00    0.32139   0.22504   -2.000
 7129.00    0.31850   0.22554   -2.000
 7130.00    0.30953   0.22604   -2.000
 7131.00    0.29424   0.22649   -2.000
 7132.00    0.27956   0.22694   -2.000
 7133.00    0.27475   0.22744   -2.000
 7134.00    0.28549   0.22772   -2.000
 7135.00    0.30072   0.22781   -2.000
 7136.00    0.29872   0.22792   -2.000
 7137.00    0.28098   0.22807   -2.000
 7138.00    0.26676   0.22808   -2.000
 7139.00    0.24498   0.22790   -2.000
 7140.00    0.18901   0.22760   -2.000
 7141.00    0.13510   0.22732   -2.000
 7142.00    0.15404   0.22708   -2.000
 7143.00    0.22700   0.22679   -2.000
 7144.00    0.27502   0.22657   -2.000
 7145.00    0.29951   0.22674   -2.000
 7146.00    0.35535   0.22719   -2.000
 7147.00    0.42329   0.22768   -2.000
 7148.00    0.43820   0.22832   -2.000
 7149.00    0.39913   0.22916   -2.000
 7150.00    0.35080   0.22982   -2.000
 7151.00    0.30995   0.23016   -2.000
 7152.00    0.27605   0.23041   -2.000
 7153.00    0.27107   0.23064   -2.000
 7154.00    0.31482   0.23060   -2.000
 7155.00    0.37775   0.23018   -2.000
 7156.00    0.41266   0.22961   -2.000
 7157.00    0.41017   0.22911   -2.000
 7158.00    0.38599   0.22871   -2.000
 7159.00    0.35322   0.22822   -2.000
 7160.00    0.31751   0.22776   -2.000
 7161.00    0.27677   0.22756   -2.000
 7162.00    0.23525   0.22780   -2.000
 7163.00    0.21697   0.22826   -2.000
 7164.00    0.23191   0.22877   -2.000
 7165.00    0.24453   0.22930   -2.000
 7166.00    0.23675   0.22988   -2.000
 7167.00    0.26241   0.23041   -2.000
 7168.00    0.34338   0.23072   -2.000
 7169.00    0.38689   0.23083   -2.000
 7170.00    0.33159   0.23082   -2.000
 7171.00    0.25882   0.23064   -2.000
 7172.00    0.24711   0.23020   -2.000
 7173.00    0.26500   0.22974   -2.000
 7174.00    0.26945   0.22945   -2.000
 7175.00    0.27413   0.22917   -2.000
 7176.00    0.29432   0.22872   -2.000
 7177.00    0.31203   0.22838   -2.000
 7178.00    0.30679   0.22830   -2.000
 7179.00    0.27595   0.22822   -2.000
 7180.00    0.23366   0.22791   -2.000
 7181.00    0.20458   0.22750   -2.000
 7182.00    0.19709   0.22712   -2.000
 7183.00    0.19681   0.22671   -2.000
 7184.00    0.20308   0.22629   -2.000
 7185.00    0.23721   0.22605   -2.000
 7186.00    0.29981   0.22606   -2.000
 7187.00    0.35918   0.22634   -2.000
 7188.00    0.38388   0.22663   -2.000
 7189.00    0.36138   0.22684   -2.000
 7190.00    0.31459   0.22713   -2.000
 7191.00    0.28972   0.22754   -2.000
 7192.00    0.29430   0.22772   -2.000
 7193.00    0.29408   0.22764   -2.000
 7194.00    0.27330   0.22762   -2.000
 7195.00    0.24518   0.22774   -2.000
 7196.00    0.22361   0.22777   -2.000
 7197.00    0.21514   0.22763   -2.000
 7198.00    0.22115   0.22741   -2.000
 7199.00    0.23849   0.22717   -2.000
 7200.00    0.25953   0.22691   -2.000
 7201.00    0.27416   0.22657   -2.000
 7202.00    0.27442   0.22612   -2.000
 7203.00    0.26250   0.22572   -2.000
 7204.00    0.26401   0.22560   -2.000
 7205.00    0.30122   0.22570   -2.000
 7206.00    0.33721   0.22594   -2.000
 7207.00    0.31824   0.22633   -2.000
 7208.00    0.26838   0.22676   -2.000
 7209.00    0.24976   0.22718   -2.000
 7210.00    0.26788   0.22766   -2.000
 7211.00    0.28843   0.22814   -2.000
 7212.00    0.28875   0.22850   -2.000
 7213.00    0.26729   0.22888   -2.000
 7214.00    0.24489   0.22931   -2.000
 7215.00    0.25395   0.22961   -2.000
 7216.00    0.32109   0.22981   -2.000
 7217.00    0.42730   0.23008   -2.000
 7218.00    0.47087   0.23039   -2.000
