###################################################################
## OUTPUT of StarlightChains_v04.for    [Cid@UFSC - 01/Apr/2007] ##
###################################################################

## Some input info
2012gi.txt                               [arq_obs]
Base.CB07.vall.4m                        [arq_base]
Masks.EmLines.NEW.gm                     [arq_masks]
StCv04.C11.config                        [arq_config]
   66                                    [N_base]
    0                                    [N_YAV_components = # of components with extra extinction!]
    0                                    [i_FitPowerLaw (1/0 = Yes/No)]
-9.99                                    [alpha_PowerLaw]
CCM                                      [red_law_option]
 1.458241                                [q_norm = A(l_norm)/A(V)]

## (Re)Sampling Parameters
 3741.00                                 [l_ini (A)]
 7218.00                                 [l_fin (A)]
    1.00                                 [dl    (A)]     (OBS: dl_cushion =    50.00 A)

## Normalization info
 4020.00                                 [l_norm (A) - for base]
 4010.00                                 [llow_norm (A) - window for f_obs]
 4060.00                                 [lupp_norm (A) - window for f_obs]
3.596542E-18                             [fobs_norm (in input units)]

## S/N
 3691.00                                 [llow_SN (A) - window for S/N]
 7268.00                                 [lupp_SN (A) - window for S/N]
   1.221                                 [S/N in S/N window]
   1.104                                 [S/N in norm. window]
   0.825                                 [S/N_err in S/N window]
   0.746                                 [S/N_err in norm. window]
  1.0000                                 [fscale_chi2]

## etc...
    -2007397                             [idum_orig]
  2053                                   [NOl_eff]
  2043                                   [Nl_eff]
    10    NSIGMA                         [Ntot_cliped & clip_method]
   333270                                [Nglobal_steps]
   7                                     [N_chains]
  15                                     [NEX0s_base = N_base in EX0s-fits]
 0   0   1        8   2.0   8.815E+00    [Clip-Bug, RC-Crash & Burn-In warning-flags, n_censored_weights, wei_nsig_threshold & wei_limit]
     9      9.098      8.596      0.502  [idt_all, wdt_TotTime, wdt_UsrTime & wdt_SysTime (sec)]

## Synthesis Results - Best model ##

 2.79902E-01                             [chi2/Nl_eff]
   210.58427                             [adev (%)]

   130.00000                             [sum-of-x (%)]
 5.86491E-17                             [Flux_tot (units of input spectrum!)]
 4.73740E-15                             [Mini_tot (???)]
 4.73740E-15                             [Mcor_tot (???)]

-207.10                                  [v0_min  (km/s)]
  17.82                                  [vd_min  (km/s)]
 1.8831                                  [AV_min  (mag)]
 0.0000                                  [YAV_min (mag)]

# j     x_j(%)      Mini_j(%)     Mcor_j(%)     age_j(yr)     Z_j      (L/M)_j    YAV?  Mstars   component_j        a/Fe...       SSP_chi2r SSP_adev(%)   SSP_AV   SSP_x(%)
  1      0.0000     0.0000E+00    0.0000E+00    1.000000E+06  0.00400  1.094E-02    0   1.0000   age020_m42            0.0000     2.6389E-01   226.4421   1.0962   188.8576
  2      0.0000     0.0000E+00    0.0000E+00    3.160000E+06  0.00400  4.007E-02    0   0.9999   age045_m42            0.0000     2.6371E-01   227.0580   0.3851   201.0468
  3      0.0000     0.0000E+00    0.0000E+00    5.010000E+06  0.00400  2.539E-02    0   0.9488   age055_m42            0.0000     2.6393E-01   227.0978   0.6992   196.3490
  4      0.0000     0.0000E+00    0.0000E+00    6.610000E+06  0.00400  2.620E-02    0   0.9220   age061_m42            0.0000     2.6419E-01   227.3489   0.3110   201.5990
  5      0.0000     0.0000E+00    0.0000E+00    1.000000E+07  0.00400  1.322E-02    0   0.8862   age070_m42            0.0000     2.6519E-01   229.3137   0.0095   208.7665
  6      0.0000     0.0000E+00    0.0000E+00    1.445000E+07  0.00400  7.883E-03    0   0.8571   age078_m42            0.0000     2.6494E-01   228.9857   0.3332   203.4865
  7      0.0000     0.0000E+00    0.0000E+00    2.512000E+07  0.00400  5.251E-03    0   0.8174   age090_m42            0.0000     2.6533E-01   229.7207  -0.1227   210.4019
  8      0.0000     0.0000E+00    0.0000E+00    4.000000E+07  0.00400  3.649E-03    0   0.7851   age104_m42            0.0000     2.6540E-01   229.4472  -0.3471   211.8235
  9      0.0000     0.0000E+00    0.0000E+00    5.500000E+07  0.00400  3.098E-03    0   0.7629   age110_m42            0.0000     2.6504E-01   228.6568  -0.1784   210.0668
 10      0.0000     0.0000E+00    0.0000E+00    1.015200E+08  0.00400  2.228E-03    0   0.7207   age116_m42            0.0000     2.6491E-01   228.1267  -0.1531   209.7359
 11      0.0000     0.0000E+00    0.0000E+00    2.861200E+08  0.00400  1.093E-03    0   0.6648   age125_m42            0.0000     2.6579E-01   227.9214  -0.7257   215.9360
 12      0.0000     0.0000E+00    0.0000E+00    5.088000E+08  0.00400  6.597E-04    0   0.6365   age130_m42            0.0000     2.6560E-01   227.3042  -0.7218   216.4685
 13      0.0000     0.0000E+00    0.0000E+00    1.434000E+09  0.00400  2.132E-04    0   0.5798   age139_m42            0.0000     2.7841E-01   220.8772  -1.0000   165.0533
 14      0.0000     0.0000E+00    0.0000E+00    4.250000E+09  0.00400  5.895E-05    0   0.5377   age158_m42            0.0000     2.9457E-01   216.0250  -1.0000   129.3812
 15      0.0000     0.0000E+00    0.0000E+00    7.500000E+09  0.00400  3.510E-05    0   0.5212   age171_m42            0.0000     3.0311E-01   214.0607  -1.0000   117.6099
 16      0.0000     0.0000E+00    0.0000E+00    1.300000E+10  0.00400  2.005E-05    0   0.5034   age193_m42            0.0000     3.1116E-01   212.4134  -1.0000   108.0220
 17      0.0000     0.0000E+00    0.0000E+00    1.800000E+10  0.00400  1.525E-05    0   0.4967   age213_m42            0.0000     3.1231E-01   212.1295  -1.0000   106.2746
 18    130.0000     1.0000E+02    1.0000E+02    1.000000E+06  0.00800  1.238E-02    0   1.0000   age020_m52            0.0000     2.6390E-01   226.4754   1.0953   188.9996
 19      0.0000     0.0000E+00    0.0000E+00    3.160000E+06  0.00800  3.074E-02    0   0.9966   age045_m52            0.0000     2.6392E-01   226.5430   1.0219   190.4268
 20      0.0000     0.0000E+00    0.0000E+00    5.010000E+06  0.00800  2.668E-02    0   0.9443   age055_m52            0.0000     2.6400E-01   227.0936   0.7811   194.6706
 21      0.0000     0.0000E+00    0.0000E+00    6.610000E+06  0.00800  2.136E-02    0   0.9177   age061_m52            0.0000     2.6524E-01   228.5201  -0.4860   210.5083
 22      0.0000     0.0000E+00    0.0000E+00    1.000000E+07  0.00800  1.215E-02    0   0.8827   age070_m52            0.0000     2.6554E-01   229.8015   0.1807   209.2922
 23      0.0000     0.0000E+00    0.0000E+00    1.445000E+07  0.00800  8.717E-03    0   0.8552   age078_m52            0.0000     2.6508E-01   229.1855   0.3022   206.1285
 24      0.0000     0.0000E+00    0.0000E+00    2.512000E+07  0.00800  5.592E-03    0   0.8162   age090_m52            0.0000     2.6569E-01   229.9183  -0.0587   213.0085
 25      0.0000     0.0000E+00    0.0000E+00    4.000000E+07  0.00800  3.896E-03    0   0.7841   age104_m52            0.0000     2.6574E-01   229.6207  -0.1395   213.9222
 26      0.0000     0.0000E+00    0.0000E+00    1.015200E+08  0.00800  2.148E-03    0   0.7226   age116_m52            0.0000     2.6532E-01   228.7595  -0.1860   211.7618
 27      0.0000     0.0000E+00    0.0000E+00    2.861200E+08  0.00800  9.925E-04    0   0.6683   age125_m52            0.0000     2.6618E-01   227.8582  -0.6520   218.6682
 28      0.0000     0.0000E+00    0.0000E+00    9.047900E+08  0.00800  3.141E-04    0   0.6138   age135_m52            0.0000     2.7268E-01   223.1778  -1.0000   188.7666
 29      0.0000     0.0000E+00    0.0000E+00    1.434000E+09  0.00800  1.719E-04    0   0.5853   age139_m52            0.0000     2.9203E-01   217.7144  -1.0000   142.4474
 30      0.0000     0.0000E+00    0.0000E+00    2.500000E+09  0.00800  7.872E-05    0   0.5600   age150_m52            0.0000     3.0265E-01   214.6309  -1.0000   122.1411
 31      0.0000     0.0000E+00    0.0000E+00    4.250000E+09  0.00800  4.336E-05    0   0.5426   age158_m52            0.0000     3.0330E-01   214.3263  -1.0000   120.0993
 32      0.0000     0.0000E+00    0.0000E+00    6.250000E+09  0.00800  3.159E-05    0   0.5319   age166_m52            0.0000     3.1282E-01   212.4005  -1.0000   109.0071
 33      0.0000     0.0000E+00    0.0000E+00    1.300000E+10  0.00800  1.361E-05    0   0.5073   age193_m52            0.0000     3.3739E-01   208.6458  -1.0000    86.0635
 34      0.0000     0.0000E+00    0.0000E+00    1.800000E+10  0.00800  9.886E-06    0   0.4990   age213_m52            0.0000     3.4242E-01   207.7465  -1.0000    81.2153
 35      0.0000     0.0000E+00    0.0000E+00    1.000000E+06  0.02000  1.544E-02    0   1.0000   age020_m62            0.0000     2.6386E-01   226.4533   1.0916   189.4055
 36      0.0000     0.0000E+00    0.0000E+00    3.160000E+06  0.02000  3.762E-02    0   0.9858   age045_m62            0.0000     2.6395E-01   226.4617   1.0295   191.0567
 37      0.0000     0.0000E+00    0.0000E+00    5.010000E+06  0.02000  3.296E-02    0   0.9342   age055_m62            0.0000     2.6404E-01   226.9227   0.6682   198.0407
 38      0.0000     0.0000E+00    0.0000E+00    8.710000E+06  0.02000  1.154E-02    0   0.8861   age067_m62            0.0000     2.6997E-01   232.8872  -0.4114   221.2917
 39      0.0000     0.0000E+00    0.0000E+00    1.445000E+07  0.02000  7.663E-03    0   0.8472   age078_m62            0.0000     2.6655E-01   230.7518  -0.1834   215.7521
 40      0.0000     0.0000E+00    0.0000E+00    2.512000E+07  0.02000  4.532E-03    0   0.8099   age090_m62            0.0000     2.6722E-01   231.0422  -0.1923   215.4226
 41      0.0000     0.0000E+00    0.0000E+00    5.500000E+07  0.02000  2.733E-03    0   0.7595   age110_m62            0.0000     2.6562E-01   229.4397  -0.1552   212.0990
 42      0.0000     0.0000E+00    0.0000E+00    1.609000E+08  0.02000  1.369E-03    0   0.6985   age120_m62            0.0000     2.6588E-01   228.4880  -0.2999   216.0502
 43      0.0000     0.0000E+00    0.0000E+00    2.861200E+08  0.02000  9.013E-04    0   0.6714   age125_m62            0.0000     2.6643E-01   227.9266  -0.5398   221.1650
 44      0.0000     0.0000E+00    0.0000E+00    5.088000E+08  0.02000  5.028E-04    0   0.6449   age130_m62            0.0000     2.6705E-01   226.4752  -0.8900   223.8795
 45      0.0000     0.0000E+00    0.0000E+00    9.047900E+08  0.02000  2.428E-04    0   0.6179   age135_m62            0.0000     2.7405E-01   222.0027  -1.0000   182.3374
 46      0.0000     0.0000E+00    0.0000E+00    1.434000E+09  0.02000  1.263E-04    0   0.5908   age139_m62            0.0000     2.8800E-01   217.9185  -1.0000   147.3746
 47      0.0000     0.0000E+00    0.0000E+00    2.500000E+09  0.02000  5.985E-05    0   0.5673   age150_m62            0.0000     3.0311E-01   214.1092  -1.0000   122.5306
 48      0.0000     0.0000E+00    0.0000E+00    4.250000E+09  0.02000  3.271E-05    0   0.5468   age158_m62            0.0000     3.1707E-01   211.2558  -1.0000   104.9079
 49      0.0000     0.0000E+00    0.0000E+00    1.000000E+10  0.02000  1.360E-05    0   0.5167   age181_m62            0.0000     3.3505E-01   208.5124  -1.0000    88.1490
 50      0.0000     0.0000E+00    0.0000E+00    1.800000E+10  0.02000  7.124E-06    0   0.5013   age213_m62            0.0000     3.4563E-01   207.0004  -1.0000    78.8614
 51      0.0000     0.0000E+00    0.0000E+00    1.000000E+06  0.05000  2.592E-02    0   0.9998   age020_m72            0.0000     2.6384E-01   226.4432   1.0829   189.5233
 52      0.0000     0.0000E+00    0.0000E+00    3.160000E+06  0.05000  4.845E-02    0   0.9577   age045_m72            0.0000     2.6399E-01   226.6165   0.9231   192.7697
 53      0.0000     0.0000E+00    0.0000E+00    5.010000E+06  0.05000  3.072E-02    0   0.9147   age055_m72            0.0000     2.6549E-01   229.3462   0.4208   205.1570
 54      0.0000     0.0000E+00    0.0000E+00    6.610000E+06  0.05000  1.455E-02    0   0.8877   age061_m72            0.0000     2.7475E-01   233.8556  -0.3738   225.8739
 55      0.0000     0.0000E+00    0.0000E+00    1.000000E+07  0.05000  9.074E-03    0   0.8524   age070_m72            0.0000     2.6666E-01   229.3736   0.6106   204.3292
 56      0.0000     0.0000E+00    0.0000E+00    2.512000E+07  0.05000  4.250E-03    0   0.7902   age090_m72            0.0000     2.6641E-01   229.8270   0.3088   208.3421
 57      0.0000     0.0000E+00    0.0000E+00    4.000000E+07  0.05000  3.087E-03    0   0.7618   age104_m72            0.0000     2.6697E-01   230.3073   0.0770   212.4595
 58      0.0000     0.0000E+00    0.0000E+00    1.015200E+08  0.05000  1.700E-03    0   0.7096   age116_m72            0.0000     2.6620E-01   229.3377  -0.1644   216.2444
 59      0.0000     0.0000E+00    0.0000E+00    2.861200E+08  0.05000  7.384E-04    0   0.6633   age125_m72            0.0000     2.6696E-01   227.5546  -0.6556   222.4940
 60      0.0000     0.0000E+00    0.0000E+00    5.088000E+08  0.05000  3.819E-04    0   0.6372   age130_m72            0.0000     2.6833E-01   225.1459  -1.0000   212.1930
 61      0.0000     0.0000E+00    0.0000E+00    9.047900E+08  0.05000  1.676E-04    0   0.6110   age135_m72            0.0000     2.8443E-01   218.2754  -1.0000   154.2323
 62      0.0000     0.0000E+00    0.0000E+00    1.434000E+09  0.05000  8.837E-05    0   0.5874   age139_m72            0.0000     3.0355E-01   214.3812  -1.0000   124.2511
 63      0.0000     0.0000E+00    0.0000E+00    2.500000E+09  0.05000  4.233E-05    0   0.5598   age150_m72            0.0000     3.1731E-01   211.3808  -1.0000   105.8527
 64      0.0000     0.0000E+00    0.0000E+00    6.250000E+09  0.05000  1.435E-05    0   0.5249   age166_m72            0.0000     3.3995E-01   207.9920  -1.0000    83.6912
 65      0.0000     0.0000E+00    0.0000E+00    1.300000E+10  0.05000  6.513E-06    0   0.5036   age193_m72            0.0000     3.5464E-01   206.0618  -1.0000    73.5235
 66      0.0000     0.0000E+00    0.0000E+00    1.800000E+10  0.05000  4.527E-06    0   0.4945   age213_m72            0.0000     3.6325E-01   205.1963  -1.0000    67.7159


## Synthesis Results - Average & Chains ##

# j      x_j: min, <> & last-chain-values for 1 ...  7 chains
  1      0.0000      2.8467      0.0000      2.7239      0.7619      8.9805     20.6723      0.0000      1.8763
  2      0.0000      6.1248     36.4705      4.5982     15.7581     11.4191      3.0935     22.0552      5.0300
  3      0.0000      4.6363     22.5807     14.5373      0.0127     33.1834      1.7460      0.0000      0.0000
  4      0.0000      5.6150      0.0000     24.6673     20.9591     14.0155      7.4518      0.7451      8.5951
  5      0.0000      4.3985      0.0000      0.0000      9.0121      0.0000      0.6791      1.3649      0.6339
  6      0.0000      5.4196      0.4589      4.5063      0.3491      4.0195     23.2672      4.8947      0.0000
  7      0.0000      3.5828      0.0000      0.0000      0.0000      0.0000      0.0000      0.0000      0.0000
  8      0.0000      2.5642      0.0000      0.0344      1.0094      0.0000     21.2748     10.6558      0.0000
  9      0.0000      3.9474      6.0761      0.0000      0.0010      0.0000      0.0000     13.9476      1.1103
 10      0.0000      4.2911      3.6210      0.0000      0.0000      4.6679      1.3866     18.8397      9.3098
 11      0.0000      1.3022      0.0000      0.0000      0.0037      0.0000      1.8206      0.0000      0.0000
 12      0.0000      1.9720      0.0000     13.6714      0.0011      3.5374      0.0000     16.7357      0.0000
 13      0.0000      0.2243      0.0000      0.0000      0.0915      0.0206      0.0104      0.0000      0.0000
 14      0.0000      0.0555      0.0000      0.0000      0.2885      0.0000      0.0000      0.0002      0.0000
 15      0.0000      0.0277      0.0000      0.0000      0.0000      0.0000      0.0000      0.0000      0.0000
 16      0.0000      0.0603      0.0000      0.0000      0.0000      0.0000      0.0000      0.0000      0.0000
 17      0.0000      0.0183      0.0000      0.0000      0.0000      0.0000      0.0000      0.0000      0.0000
 18    130.0000      2.5753      4.9439      0.6885      0.0000      0.8864      0.0000      0.0578      0.0000
 19      0.0000      3.1262      0.0000      9.9277      0.0000      4.1486      4.3500      4.3940      0.0000
 20      0.0000      4.0095      3.2842      0.0000      2.7744      6.3557      0.0000      0.3093      0.0000
 21      0.0000      2.6844      2.5611      0.0000      4.2485      0.0000      1.1571      9.5821      0.0279
 22      0.0000      2.8077      1.4241      0.0000      9.1007     14.3225      0.0000      1.0201      0.0000
 23      0.0000      3.0398      0.0000      0.0000      0.0000      2.4164      6.0476      1.5480      0.0000
 24      0.0000      3.4710      0.0000      0.4329      0.8075      0.0000      0.0000      0.0000     14.3394
 25      0.0000      3.4287      1.2341      0.0000      0.0000      0.0000      0.0000      0.0000      0.2446
 26      0.0000      4.1050      4.6124      0.0118      9.9889      0.0000      0.0000      0.0000      9.9263
 27      0.0000      1.5209      0.0000      0.0000      0.0010      1.4982      0.0930      0.0000      3.4958
 28      0.0000      0.1553      0.0000      0.0000      0.0000      0.0000      0.0000      0.0000      0.0000
 29      0.0000      0.1304      0.0000      0.0000      0.0006      0.0000      0.0000      0.0000      0.0000
 30      0.0000      0.0378      0.0000      0.0000      0.3641      0.0000      0.0000      0.0000      0.0000
 31      0.0000      0.0471      0.0000      0.0000      0.0000      0.0000      0.0282      0.0000      0.0000
 32      0.0000      0.0348      0.0000      0.0000      0.0005      0.0000      0.0000      0.0000      0.0000
 33      0.0000      0.0355      0.0000      0.0000      0.0000      0.0000      0.0000      0.0000      0.0000
 34      0.0000      0.0093      0.0000      0.0000      0.0000      0.0000      0.0000      0.0000      0.0000
 35      0.0000      2.8602      6.2409     20.2161      0.0000      0.0000     16.2000      0.0000     46.3718
 36      0.0000      3.2230     15.1333      0.0000      0.0000      0.0000      0.6128      0.0000      5.4985
 37      0.0000      4.1049      1.3138      0.0000      0.0202      0.1605      0.7684      0.0000      1.6138
 38      0.0000      1.0637      0.0000      0.0178      0.0198      0.9100      0.0000      0.0000      0.0000
 39      0.0000      2.5883      0.0000      0.0030      0.0000      0.1774      0.1262      5.6391      4.0700
 40      0.0000      3.1423      0.0000      9.0798      7.1014      0.0000      0.0000      0.0000      0.0000
 41      0.0000      5.1304      0.0000      3.7088     25.8889      0.0224      0.0000      0.0000      0.0309
 42      0.0000      3.2472      0.0000      8.4981      2.3952      0.0000      0.1636      1.0227      0.0000
 43      0.0000      2.0019      0.0000      1.8245      0.0000      0.0000      2.3340      6.0920      0.0000
 44      0.0000      1.3867      0.0000      0.0000      0.1925      1.2515      0.0088      6.5797      0.0692
 45      0.0000      0.3498      0.0000      2.3679      0.0000      0.0000      2.3798      0.0000      0.0000
 46      0.0000      0.0817      0.0000      0.0811      0.0000      0.0000      0.0000      0.0000      0.0000
 47      0.0000      0.0796      0.0000      0.0000      0.0000      0.0000      0.0000      0.0000      0.0000
 48      0.0000      0.0238      0.0000      0.0000      0.0000      0.0000      0.0000      0.0000      0.0000
 49      0.0000      0.0176      0.0000      0.0000      0.0482      0.0000      0.0000      0.0000      0.0000
 50      0.0000      0.0047      0.0000      0.0000      0.0000      0.0000      0.0000      0.0000      0.0000
 51      0.0000      3.2105     10.6025      5.9985     12.2083      1.3258      3.9174      1.0981      0.0000
 52      0.0000      3.7864      0.0000      0.0000      2.4729     13.2547      3.7692      1.5019     14.3008
 53      0.0000      2.9485      0.0000      2.1930      0.0808      0.0000      3.1874      0.0000      0.0000
 54      0.0000      0.4602      0.0000      0.0000      0.0000      0.0000      0.0000      0.5346      0.0000
 55      0.0000      2.2007      7.6473      0.0000      0.0000      0.9005      0.0000      0.0000      0.0000
 56      0.0000      2.3842      0.0000      0.0000      0.0000      1.8343      0.0000      0.0000      0.0000
 57      0.0000      2.1999      0.0000      0.0000      0.0000      0.0000      2.8623      0.9015      0.0000
 58      0.0000      2.4319      1.7954      0.0000      4.0372      0.6913      0.0000      0.0000      1.7391
 59      0.0000      1.7400      0.0000      0.0000      0.0000      0.0000      0.0011      0.0000      1.7165
 60      0.0000      0.6294      0.0000      0.0000      0.0000      0.0000      0.5902      0.4804      0.0000
 61      0.0000      0.2595      0.0000      0.0000      0.0000      0.0000      0.0007      0.0000      0.0000
 62      0.0000      0.0248      0.0000      0.2120      0.0000      0.0000      0.0000      0.0000      0.0000
 63      0.0000      0.0320      0.0000      0.0000      0.0000      0.0000      0.0000      0.0000      0.0000
 64      0.0000      0.0082      0.0000      0.0000      0.0000      0.0000      0.0000      0.0000      0.0000
 65      0.0000      0.0152      0.0000      0.0000      0.0000      0.0000      0.0000      0.0000      0.0000
 66      0.0000      0.0052      0.0000      0.0000      0.0000      0.0000      0.0000      0.0000      0.0000

# j      m_j: min, <> & last-chain-values for 1 ...  7 chains
  1  0.0000E+00  6.5166E-01  0.0000E+00  7.3931E-01  2.6847E-01  5.9895E+00  8.1320E+00  0.0000E+00  9.4997E-01
  2  0.0000E+00  3.8275E-01  9.3676E+00  3.4071E-01  1.5159E+00  2.0791E+00  3.3221E-01  1.2171E+00  6.9521E-01
  3  0.0000E+00  4.3388E-01  8.6856E+00  1.6131E+00  1.8353E-03  9.0477E+00  2.8079E-01  0.0000E+00  0.0000E+00
  4  0.0000E+00  4.9484E-01  0.0000E+00  2.5775E+00  2.8434E+00  3.5987E+00  1.1285E+00  5.7987E-02  1.6753E+00
  5  0.0000E+00  7.3841E-01  0.0000E+00  0.0000E+00  2.3290E+00  0.0000E+00  1.9592E-01  2.0235E-01  2.3538E-01
  6  0.0000E+00  1.4757E+00  5.1356E-01  1.4548E+00  1.4634E-01  3.1888E+00  1.0887E+01  1.1770E+00  0.0000E+00
  7  0.0000E+00  1.3967E+00  0.0000E+00  0.0000E+00  0.0000E+00  0.0000E+00  0.0000E+00  0.0000E+00  0.0000E+00
  8  0.0000E+00  1.3816E+00  0.0000E+00  2.1992E-02  8.3728E-01  0.0000E+00  1.9699E+01  5.0703E+00  0.0000E+00
  9  0.0000E+00  2.4344E+00  1.5401E+01  0.0000E+00  9.8699E-04  0.0000E+00  0.0000E+00  7.5960E+00  1.5143E+00
 10  0.0000E+00  3.4761E+00  1.2056E+01  0.0000E+00  0.0000E+00  1.1017E+01  1.9303E+00  1.3478E+01  1.6680E+01
 11  0.0000E+00  1.9836E+00  0.0000E+00  0.0000E+00  8.6254E-03  0.0000E+00  4.7656E+00  0.0000E+00  0.0000E+00
 12  0.0000E+00  4.7647E+00  0.0000E+00  3.9167E+01  4.1191E-03  2.4902E+01  0.0000E+00  3.5710E+01  0.0000E+00
 13  0.0000E+00  1.5279E+00  0.0000E+00  0.0000E+00  9.5891E-01  4.0968E-01  1.2198E-01  0.0000E+00  0.0000E+00
 14  0.0000E+00  1.2678E+00  0.0000E+00  0.0000E+00  1.0143E+01  0.0000E+00  0.0000E+00  3.1028E-03  0.0000E+00
 15  0.0000E+00  1.0285E+00  0.0000E+00  0.0000E+00  0.0000E+00  0.0000E+00  0.0000E+00  0.0000E+00  0.0000E+00
 16  0.0000E+00  3.7915E+00  0.0000E+00  0.0000E+00  0.0000E+00  0.0000E+00  0.0000E+00  0.0000E+00  0.0000E+00
 17  0.0000E+00  1.4954E+00  0.0000E+00  0.0000E+00  0.0000E+00  0.0000E+00  0.0000E+00  0.0000E+00  0.0000E+00
 18  1.0000E+02  5.2095E-01  4.1106E+00  1.6514E-01  0.0000E+00  5.2241E-01  0.0000E+00  1.0333E-02  0.0000E+00
 19  0.0000E+00  2.5382E-01  0.0000E+00  9.5570E-01  0.0000E+00  9.8135E-01  6.0693E-01  3.1505E-01  0.0000E+00
 20  0.0000E+00  3.5538E-01  1.1965E+00  0.0000E+00  3.7856E-01  1.6413E+00  0.0000E+00  2.4208E-02  0.0000E+00
 21  0.0000E+00  2.8883E-01  1.1326E+00  0.0000E+00  7.0369E-01  0.0000E+00  2.1394E-01  9.1045E-01  6.6478E-03
 22  0.0000E+00  5.1083E-01  1.0650E+00  0.0000E+00  2.5489E+00  7.5921E+00  0.0000E+00  1.6391E-01  0.0000E+00
 23  0.0000E+00  7.4685E-01  0.0000E+00  0.0000E+00  0.0000E+00  1.7297E+00  2.5534E+00  3.3587E-01  0.0000E+00
 24  0.0000E+00  1.2688E+00  0.0000E+00  1.8760E-01  4.5438E-01  0.0000E+00  0.0000E+00  0.0000E+00  1.1592E+01
 25  0.0000E+00  1.7281E+00  2.5565E+00  0.0000E+00  0.0000E+00  0.0000E+00  0.0000E+00  0.0000E+00  2.7266E-01
 26  0.0000E+00  3.4584E+00  1.5971E+01  1.1766E-02  1.2955E+01  0.0000E+00  0.0000E+00  0.0000E+00  1.8495E+01
 27  0.0000E+00  2.5647E+00  0.0000E+00  0.0000E+00  2.6244E-03  7.3607E+00  2.6944E-01  0.0000E+00  1.3038E+01
 28  0.0000E+00  7.6009E-01  0.0000E+00  0.0000E+00  0.0000E+00  0.0000E+00  0.0000E+00  0.0000E+00  0.0000E+00
 29  0.0000E+00  1.1117E+00  0.0000E+00  0.0000E+00  8.3304E-03  0.0000E+00  0.0000E+00  0.0000E+00  0.0000E+00
 30  0.0000E+00  6.7361E-01  0.0000E+00  0.0000E+00  9.9861E+00  0.0000E+00  0.0000E+00  0.0000E+00  0.0000E+00
 31  0.0000E+00  1.4769E+00  0.0000E+00  0.0000E+00  0.0000E+00  0.0000E+00  1.5190E+00  0.0000E+00  0.0000E+00
 32  0.0000E+00  1.4660E+00  0.0000E+00  0.0000E+00  3.3560E-02  0.0000E+00  0.0000E+00  0.0000E+00  0.0000E+00
 33  0.0000E+00  3.3097E+00  0.0000E+00  0.0000E+00  0.0000E+00  0.0000E+00  0.0000E+00  0.0000E+00  0.0000E+00
 34  0.0000E+00  1.1735E+00  0.0000E+00  0.0000E+00  0.0000E+00  0.0000E+00  0.0000E+00  0.0000E+00  0.0000E+00
 35  0.0000E+00  4.6392E-01  4.1605E+00  3.8878E+00  0.0000E+00  0.0000E+00  4.5154E+00  0.0000E+00  1.6635E+01
 36  0.0000E+00  2.1150E-01  4.0818E+00  0.0000E+00  0.0000E+00  0.0000E+00  6.9102E-02  0.0000E+00  7.9804E-01
 37  0.0000E+00  2.9137E-01  3.8329E-01  0.0000E+00  2.2113E-03  3.3197E-02  9.3725E-02  0.0000E+00  2.5335E-01
 38  0.0000E+00  2.0454E-01  0.0000E+00  4.0613E-03  5.8588E-03  5.0982E-01  0.0000E+00  0.0000E+00  0.0000E+00
 39  0.0000E+00  7.1663E-01  0.0000E+00  9.7396E-04  0.0000E+00  1.4306E-01  6.0040E-02  1.3788E+00  2.4923E+00
 40  0.0000E+00  1.4063E+00  0.0000E+00  4.8180E+00  4.8924E+00  0.0000E+00  0.0000E+00  0.0000E+00  0.0000E+00
 41  0.0000E+00  3.5705E+00  0.0000E+00  3.0604E+00  2.7736E+01  4.5451E-02  0.0000E+00  0.0000E+00  4.7621E-02
 42  0.0000E+00  4.1492E+00  0.0000E+00  1.2875E+01  4.7114E+00  0.0000E+00  3.5927E-01  1.1540E+00  0.0000E+00
 43  0.0000E+00  3.7346E+00  0.0000E+00  4.0356E+00  0.0000E+00  0.0000E+00  7.4823E+00  1.0036E+01  0.0000E+00
 44  0.0000E+00  4.4542E+00  0.0000E+00  0.0000E+00  9.5198E-01  1.1712E+01  4.8633E-02  1.8664E+01  4.9176E-01
 45  0.0000E+00  2.2292E+00  0.0000E+00  1.7893E+01  0.0000E+00  0.0000E+00  2.6063E+01  0.0000E+00  0.0000E+00
 46  0.0000E+00  9.5735E-01  0.0000E+00  1.1260E+00  0.0000E+00  0.0000E+00  0.0000E+00  0.0000E+00  0.0000E+00
 47  0.0000E+00  1.8885E+00  0.0000E+00  0.0000E+00  0.0000E+00  0.0000E+00  0.0000E+00  0.0000E+00  0.0000E+00
 48  0.0000E+00  9.9746E-01  0.0000E+00  0.0000E+00  0.0000E+00  0.0000E+00  0.0000E+00  0.0000E+00  0.0000E+00
 49  0.0000E+00  1.6768E+00  0.0000E+00  0.0000E+00  7.0617E+00  0.0000E+00  0.0000E+00  0.0000E+00  0.0000E+00
 50  0.0000E+00  8.3291E-01  0.0000E+00  0.0000E+00  0.0000E+00  0.0000E+00  0.0000E+00  0.0000E+00  0.0000E+00
 51  0.0000E+00  3.1013E-01  4.2096E+00  6.8703E-01  1.8154E+00  3.7312E-01  6.5029E-01  9.3674E-02  0.0000E+00
 52  0.0000E+00  1.8743E-01  0.0000E+00  0.0000E+00  1.8845E-01  1.9117E+00  3.2063E-01  6.5655E-02  1.5657E+00
 53  0.0000E+00  2.1986E-01  0.0000E+00  1.9389E-01  9.2734E-03  0.0000E+00  4.0843E-01  0.0000E+00  0.0000E+00
 54  0.0000E+00  7.0318E-02  0.0000E+00  0.0000E+00  0.0000E+00  0.0000E+00  0.0000E+00  7.2129E-02  0.0000E+00
 55  0.0000E+00  5.1772E-01  7.3944E+00  0.0000E+00  0.0000E+00  6.1721E-01  0.0000E+00  0.0000E+00  0.0000E+00
 56  0.0000E+00  1.1101E+00  0.0000E+00  0.0000E+00  0.0000E+00  2.4884E+00  0.0000E+00  0.0000E+00  0.0000E+00
 57  0.0000E+00  1.3596E+00  0.0000E+00  0.0000E+00  0.0000E+00  0.0000E+00  3.0398E+00  4.9198E-01  0.0000E+00
 58  0.0000E+00  2.5422E+00  7.7138E+00  0.0000E+00  6.4966E+00  2.1055E+00  0.0000E+00  0.0000E+00  4.0207E+00
 59  0.0000E+00  3.9143E+00  0.0000E+00  0.0000E+00  0.0000E+00  0.0000E+00  4.0738E-03  0.0000E+00  8.5406E+00
 60  0.0000E+00  2.6299E+00  0.0000E+00  0.0000E+00  0.0000E+00  0.0000E+00  4.2376E+00  1.7725E+00  0.0000E+00
 61  0.0000E+00  2.3691E+00  0.0000E+00  0.0000E+00  0.0000E+00  0.0000E+00  1.1199E-02  0.0000E+00  0.0000E+00
 62  0.0000E+00  4.1241E-01  0.0000E+00  4.1838E+00  0.0000E+00  0.0000E+00  0.0000E+00  0.0000E+00  0.0000E+00
 63  0.0000E+00  1.0583E+00  0.0000E+00  0.0000E+00  0.0000E+00  0.0000E+00  0.0000E+00  0.0000E+00  0.0000E+00
 64  0.0000E+00  7.4909E-01  0.0000E+00  0.0000E+00  0.0000E+00  0.0000E+00  0.0000E+00  0.0000E+00  0.0000E+00
 65  0.0000E+00  2.9483E+00  0.0000E+00  0.0000E+00  0.0000E+00  0.0000E+00  0.0000E+00  0.0000E+00  0.0000E+00
 66  0.0000E+00  1.4227E+00  0.0000E+00  0.0000E+00  0.0000E+00  0.0000E+00  0.0000E+00  0.0000E+00  0.0000E+00

# AV, chi2 & Mass for <> & i_chain = 1 ...  7 solutions
AV       1.8831      1.0451      1.4118      1.1637      1.0581      1.3590      1.2349      0.7979      1.3502
chi2 2.7990E-01  2.9137E-01  2.8555E-01  2.8904E-01  2.9049E-01  2.8650E-01  2.8852E-01  2.9210E-01  2.8729E-01
Mass 4.7374E-15  5.8454E-15  2.3271E-15  5.7809E-15  3.8638E-15  3.0585E-15  4.3891E-15  4.7490E-15  3.9812E-15
-207.10                                  [v0_min (km/s) before EX0s...]
  17.82                                  [vd_min (km/s) before EX0s...]


## Synthetic spectrum (Best Model) ##l_obs f_obs f_syn wei
 3478    [Nl_obs]
 3741.00    0.86388   1.33409    0.000
 3742.00    1.82608   1.31877    0.000
 3743.00    2.43060   1.29838    0.000
 3744.00    2.89354   1.27410    0.000
 3745.00    4.38974   1.24195    0.183
 3746.00    5.85076   1.20191    0.185
 3747.00    4.88908   1.17165    0.198
 3748.00    2.23527   1.17177    0.218
 3749.00    0.92241   1.20111    0.230
 3750.00    2.02419   1.23595    0.229
 3751.00    4.48704   1.25644    0.219
 3752.00    6.75959   1.27120    0.214
 3753.00    7.58637   1.29396    0.218
 3754.00    6.80357   1.31364    0.227
 3755.00    5.22891   1.32472    0.227
 3756.00    4.19552   1.32318    0.225
 3757.00    4.42802   1.31514    0.234
 3758.00    4.65226   1.32550    0.248
 3759.00    3.23014   1.34382    0.251
 3760.00    0.45663   1.34761    0.246
 3761.00   -2.27639   1.34076    0.000
 3762.00   -3.83606   1.32703    0.000
 3763.00   -3.92824   1.30384    0.000
 3764.00   -3.41782   1.27206    0.000
 3765.00   -3.00387   1.23061    0.000
 3766.00   -2.11134   1.17911    0.000
 3767.00   -0.42979   1.12845    0.000
 3768.00    0.92809   1.10534    0.252
 3769.00    1.24429   1.12640    0.258
 3770.00    1.37024   1.17209    0.262
 3771.00    1.74216   1.21690    0.260
 3772.00    1.35314   1.25951    0.261
 3773.00    0.18588   1.29780    0.268
 3774.00    0.12019   1.32495    0.271
 3775.00    1.43680   1.34300    0.265
 3776.00    1.77348   1.35681    0.264
 3777.00    0.67516   1.36782    0.273
 3778.00    0.71645   1.37604    0.281
 3779.00    2.34939   1.38146    0.281
 3780.00    2.85941   1.38408    0.282
 3781.00    1.41715   1.38390    0.288
 3782.00    0.03990   1.38263    0.294
 3783.00   -0.24514   1.38135    0.000
 3784.00   -0.12927   1.37892    0.000
 3785.00    0.09954   1.37404    0.298
 3786.00    0.72223   1.36516    0.303
 3787.00    1.12313   1.34872    0.314
 3788.00    0.32032   1.32410    0.325
 3789.00   -0.69773   1.30172    0.000
 3790.00   -0.01724   1.28308    0.000
 3791.00    1.57757   1.25377    0.310
 3792.00    1.78919   1.20718    0.305
 3793.00    0.81528   1.14602    0.307
 3794.00    0.42531   1.07991    0.315
 3795.00    0.81897   1.03891    0.322
 3796.00    0.90917   1.05338    0.324
 3797.00   -0.22147   1.11110    0.000
 3798.00   -2.28114   1.17679    0.000
 3799.00   -2.79426   1.23104    0.000
 3800.00   -0.04408   1.27144    0.000
 3801.00    3.16649   1.30157    0.296
 3802.00    3.35493   1.32207    0.293
 3803.00    1.26670   1.33402    0.297
 3804.00   -0.51547   1.34607    0.000
 3805.00   -0.71438   1.36046    0.000
 3806.00    0.59526   1.37168    0.301
 3807.00    2.33800   1.37783    0.293
 3808.00    3.32465   1.38104    0.291
 3809.00    3.02162   1.38295    0.283
 3810.00    1.76309   1.38391    0.267
 3811.00    0.70763   1.38393    0.261
 3812.00    0.68060   1.38299    0.268
 3813.00    1.47715   1.37929    0.271
 3814.00    2.59527   1.36990    0.258
 3815.00    3.63983   1.34306    0.248
 3816.00    3.84408   1.29460    0.250
 3817.00    2.26740   1.26737    0.260
 3818.00    0.15074   1.29505    0.270
 3819.00    0.83017   1.33949    0.275
 3820.00    4.09363   1.36222    0.275
 3821.00    5.43435   1.36636    0.277
 3822.00    3.33398   1.36238    0.283
 3823.00    0.75679   1.35448    0.293
 3824.00   -0.27867   1.34311    0.000
 3825.00   -0.10854   1.32791    0.000
 3826.00    0.58981   1.30765    0.327
 3827.00    1.37181   1.28100    0.323
 3828.00    1.71078   1.24578    0.318
 3829.00    1.20086   1.19851    0.331
 3830.00    0.29649   1.13536    0.353
 3831.00   -0.05270   1.05762    0.000
 3832.00    0.33764   0.98883    0.338
 3833.00    1.02706   0.97363    0.337
 3834.00    1.84022   1.02376    0.351
 3835.00    2.69864   1.10032    0.360
 3836.00    2.99634   1.16942    0.356
 3837.00    2.24978   1.22328    0.348
 3838.00    1.30018   1.26368    0.343
 3839.00    1.21196   1.29353    0.343
 3840.00    1.41910   1.31628    0.348
 3841.00    0.93063   1.33206    0.357
 3842.00    0.21371   1.34329    0.364
 3843.00   -0.10492   1.35289    0.000
 3844.00   -0.93407   1.36092    0.000
 3845.00   -2.71390   1.36765    0.000
 3846.00   -3.34027   1.37216    0.000
 3847.00   -1.47554   1.37444    0.000
 3848.00    0.46097   1.37668    0.000
 3849.00    0.52771   1.37924    0.000
 3850.00    0.70932   1.38053    0.000
 3851.00    2.64948   1.37926    0.000
 3852.00    4.53694   1.37575    0.000
 3853.00    4.65932   1.37160    0.000
 3854.00    3.74574   1.37061    0.000
 3855.00    2.69300   1.37313    0.000
 3856.00    1.29548   1.37477    0.000
 3857.00   -0.13009   1.37542    0.000
 3858.00   -0.21105   1.37606    0.000
 3859.00    1.23197   1.37607    0.000
 3860.00    2.48341   1.37575    0.000
 3861.00    2.12384   1.37543    0.000
 3862.00    0.09174   1.37442    0.000
 3863.00   -2.27843   1.36921    0.000
 3864.00   -2.94875   1.35707    0.000
 3865.00   -1.62856   1.35260    0.000
 3866.00    0.06934   1.36218    0.000
 3867.00    1.08547   1.36853    0.000
 3868.00    1.39565   1.35887    0.000
 3869.00    0.98129   1.34636    0.000
 3870.00   -0.12317   1.34700    0.000
 3871.00   -0.91660   1.35339    0.000
 3872.00   -0.16356   1.35205    0.000
 3873.00    1.39046   1.34494    0.000
 3874.00    1.99725   1.34007    0.000
 3875.00    1.99630   1.33677    0.000
 3876.00    2.85849   1.33085    0.000
 3877.00    4.20000   1.32102    0.000
 3878.00    4.56185   1.30724    0.000
 3879.00    3.67407   1.28757    0.000
 3880.00    2.36770   1.26169    0.000
 3881.00    1.79972   1.23051    0.376
 3882.00    2.52112   1.19038    0.373
 3883.00    3.46009   1.13542    0.361
 3884.00    3.17710   1.06115    0.345
 3885.00    1.54865   0.97270    0.345
 3886.00   -0.46491   0.91040    0.000
 3887.00   -1.42716   0.92496    0.000
 3888.00   -0.86991   1.00264    0.000
 3889.00   -0.41181   1.08890    0.000
 3890.00   -1.30934   1.15719    0.000
 3891.00   -2.39530   1.20791    0.000
 3892.00   -1.99044   1.24367    0.000
 3893.00    0.35574   1.27071    0.341
 3894.00    3.41851   1.29054    0.327
 3895.00    4.55239   1.30455    0.330
 3896.00    2.89503   1.31500    0.350
 3897.00    0.85416   1.32452    0.358
 3898.00    0.57884   1.33335    0.341
 3899.00    1.99099   1.33986    0.326
 3900.00    3.67132   1.34411    0.328
 3901.00    3.85593   1.34773    0.336
 3902.00    2.58853   1.35067    0.340
 3903.00    1.87338   1.35264    0.345
 3904.00    2.17971   1.35431    0.352
 3905.00    1.88438   1.35665    0.358
 3906.00    0.73270   1.35860    0.358
 3907.00    0.31023   1.35887    0.353
 3908.00    1.19318   1.35650    0.350
 3909.00    2.37901   1.35327    0.353
 3910.00    2.55051   1.35409    0.360
 3911.00    1.02131   1.35673    0.364
 3912.00   -0.88159   1.35801    0.000
 3913.00   -0.90618   1.35796    0.000
 3914.00    0.72422   1.35484    0.348
 3915.00    2.05993   1.34772    0.352
 3916.00    2.75314   1.33601    0.358
 3917.00    3.58057   1.32557    0.354
 3918.00    4.16527   1.32046    0.349
 3919.00    3.46643   1.31848    0.357
 3920.00    1.38083   1.31437    0.375
 3921.00   -1.20752   1.30976    0.000
 3922.00   -2.83949   1.30679    0.000
 3923.00   -2.45480   1.30250    0.000
 3924.00   -0.59848   1.30572    0.000
 3925.00    1.30427   1.32141    0.377
 3926.00    2.10644   1.33611    0.384
 3927.00    1.57833   1.34382    0.388
 3928.00    0.83986   1.34595    0.390
 3929.00    0.92651   1.34375    0.391
 3930.00    1.42720   1.33691    0.390
 3931.00    1.82264   1.33010    0.385
 3932.00    2.66295   1.33088    0.379
 3933.00    4.19503   1.33741    0.373
 3934.00    5.32368   1.34507    0.367
 3935.00    4.89672   1.34921    0.363
 3936.00    2.74986   1.34979    0.368
 3937.00   -0.06161   1.35017    0.000
 3938.00   -1.51142   1.35014    0.000
 3939.00   -0.71964   1.34910    0.000
 3940.00    1.11380   1.34703    0.347
 3941.00    2.47368   1.34326    0.348
 3942.00    2.54165   1.33899    0.342
 3943.00    1.32298   1.33893    0.329
 3944.00   -0.41135   1.33986    0.000
 3945.00   -1.54586   1.33773    0.000
 3946.00   -1.10959   1.33726    0.000
 3947.00    0.61504   1.33791    0.272
 3948.00    2.16203   1.33642    0.240
 3949.00    2.54306   1.33332    0.222
 3950.00    1.73913   1.32848    0.212
 3951.00    0.39634   1.32169    0.211
 3952.00   -0.56534   1.31720    0.000
 3953.00   -0.71845   1.31526    0.000
 3954.00   -0.14474   1.31244    0.000
 3955.00    1.03570   1.30827    0.286
 3956.00    2.44917   1.30083    0.309
 3957.00    2.79212   1.28707    0.334
 3958.00    0.95035   1.26425    0.359
 3959.00   -1.62450   1.24365    0.000
 3960.00   -2.45949   1.22833    0.000
 3961.00   -1.51728   1.20137    0.000
 3962.00   -0.35405   1.16578    0.000
 3963.00    0.17553   1.13273    0.000
 3964.00    0.20983   1.08639    0.000
 3965.00    0.69262   1.01207    0.000
 3966.00    2.09077   0.91980    0.000
 3967.00    2.96204   0.85702    0.000
 3968.00    2.04497   0.87553    0.000
 3969.00    0.65605   0.95826    0.000
 3970.00    0.47863   1.04660    0.000
 3971.00    1.15822   1.11619    0.000
 3972.00    1.72524   1.16742    0.000
 3973.00    2.05942   1.20360    0.000
 3974.00    2.27241   1.22998    0.000
 3975.00    2.14204   1.25039    0.000
 3976.00    1.52178   1.26503    0.000
 3977.00    0.66092   1.27722    0.000
 3978.00    0.06580   1.28613    0.000
 3979.00    0.26474   1.29101    0.000
 3980.00    1.05007   1.29484    0.000
 3981.00    1.32176   1.30088    0.344
 3982.00    0.68990   1.30696    0.336
 3983.00    0.05214   1.31127    0.332
 3984.00    0.10766   1.31357    0.337
 3985.00    0.72551   1.31605    0.350
 3986.00    1.45897   1.31804    0.365
 3987.00    1.82423   1.31902    0.370
 3988.00    1.44396   1.31975    0.366
 3989.00    0.20509   1.32119    0.368
 3990.00   -1.40177   1.32135    0.000
 3991.00   -2.44889   1.31871    0.000
 3992.00   -2.43808   1.31465    0.000
 3993.00   -1.56004   1.31557    0.000
 3994.00   -0.62063   1.31901    0.000
 3995.00   -0.44194   1.31826    0.000
 3996.00   -0.48993   1.31746    0.000
 3997.00    0.57606   1.31941    0.369
 3998.00    2.93324   1.32058    0.350
 3999.00    5.35904   1.31816    0.338
 4000.00    5.73887   1.31325    0.336
 4001.00    2.99004   1.31086    0.338
 4002.00    0.10007   1.31100    0.339
 4003.00    0.77239   1.31005    0.334
 4004.00    3.40041   1.30470    0.328
 4005.00    4.18150   1.29499    0.325
 4006.00    2.86658   1.28452    0.325
 4007.00    1.21297   1.28486    0.324
 4008.00   -0.03712   1.29489    0.000
 4009.00   -0.67532   1.30462    0.000
 4010.00   -0.11399   1.30898    0.000
 4011.00    1.55716   1.31098    0.334
 4012.00    2.56840   1.31192    0.334
 4013.00    1.63847   1.31107    0.340
 4014.00   -0.08375   1.30969    0.000
 4015.00   -0.82929   1.30827    0.000
 4016.00    0.09369   1.30528    0.372
 4017.00    2.20703   1.30094    0.362
 4018.00    4.06631   1.29388    0.357
 4019.00    4.50081   1.28115    0.366
 4020.00    3.41641   1.25789    0.377
 4021.00    1.49167   1.21579    0.379
 4022.00   -0.19865   1.15211    0.000
 4023.00   -1.04054   1.10327    0.000
 4024.00   -1.16710   1.12337    0.000
 4025.00   -0.55762   1.19116    0.000
 4026.00    1.14937   1.24663    0.375
 4027.00    3.47379   1.27478    0.361
 4028.00    5.00425   1.28769    0.360
 4029.00    5.13017   1.29469    0.373
 4030.00    4.38029   1.29982    0.384
 4031.00    3.13952   1.30238    0.387
 4032.00    1.38014   1.30498    0.391
 4033.00   -0.69851   1.30778    0.000
 4034.00   -2.50008   1.30899    0.000
 4035.00   -3.16138   1.30891    0.000
 4036.00   -2.00358   1.30856    0.000
 4037.00    0.46492   1.30741    0.413
 4038.00    2.77291   1.30602    0.396
 4039.00    3.59169   1.30468    0.377
 4040.00    2.51032   1.30487    0.384
 4041.00    0.99987   1.30402    0.405
 4042.00    1.00000   1.30426    0.408
 4043.00    2.08213   1.30500    0.400
 4044.00    2.63051   1.30571    0.409
 4045.00    2.55959   1.30562    0.425
 4046.00    2.50102   1.30532    0.423
 4047.00    2.02211   1.30579    0.409
 4048.00    0.52899   1.30567    0.405
 4049.00   -1.26869   1.30452    0.000
 4050.00   -2.22197   1.30306    0.000
 4051.00   -1.98532   1.30006    0.000
 4052.00   -0.97240   1.29826    0.000
 4053.00   -0.08038   1.29958    0.000
 4054.00    0.12817   1.30789    0.399
 4055.00    0.08254   1.31375    0.396
 4056.00    0.25004   1.30790    0.384
 4057.00    0.37948   1.29754    0.374
 4058.00    0.47632   1.29326    0.375
 4059.00    1.37344   1.29409    0.370
 4060.00    3.04982   1.29507    0.352
 4061.00    3.81897   1.29581    0.338
 4062.00    2.84254   1.29643    0.338
 4063.00    1.39775   1.29343    0.343
 4064.00    0.86704   1.27938    0.344
 4065.00    1.54048   1.25292    0.342
 4066.00    2.58475   1.22916    0.339
 4067.00    2.55041   1.22531    0.334
 4068.00    1.53891   1.24284    0.329
 4069.00    1.42075   1.26239    0.330
 4070.00    2.78771   1.27450    0.334
 4071.00    4.24093   1.27859    0.332
 4072.00    4.37696   1.26979    0.325
 4073.00    2.75867   1.26308    0.329
 4074.00    0.56975   1.26916    0.343
 4075.00   -0.15398   1.27667    0.000
 4076.00    0.74259   1.27880    0.357
 4077.00    1.64842   1.27951    0.350
 4078.00    1.54710   1.27932    0.345
 4079.00    0.55966   1.27726    0.351
 4080.00   -0.29986   1.27463    0.000
 4081.00    0.04541   1.26956    0.368
 4082.00    1.20345   1.26472    0.371
 4083.00    1.95115   1.26237    0.380
 4084.00    1.98800   1.25517    0.391
 4085.00    1.79195   1.23358    0.392
 4086.00    1.81384   1.21432    0.383
 4087.00    2.11823   1.22039    0.375
 4088.00    2.10610   1.23160    0.376
 4089.00    1.37254   1.22743    0.390
 4090.00    0.81774   1.21418    0.404
 4091.00    1.37992   1.19932    0.403
 4092.00    2.42789   1.17902    0.000
 4093.00    2.92655   1.14776    0.000
 4094.00    2.85961   1.10478    0.000
 4095.00    2.74019   1.05841    0.000
 4096.00    2.96087   1.00287    0.000
 4097.00    3.52329   0.92295    0.000
 4098.00    3.91641   0.83562    0.000
 4099.00    3.66144   0.80186    0.000
 4100.00    2.73094   0.85448    0.000
 4101.00    1.38253   0.94902    0.000
 4102.00    0.01905   1.03280    0.000
 4103.00   -0.81175   1.09288    0.000
 4104.00   -0.54807   1.13525    0.000
 4105.00    0.62221   1.16469    0.000
 4106.00    1.61480   1.18634    0.000
 4107.00    1.92877   1.20156    0.000
 4108.00    2.12939   1.21373    0.000
 4109.00    2.51214   1.22455    0.000
 4110.00    2.65079   1.23334    0.000
 4111.00    2.15484   1.23860    0.000
 4112.00    1.08628   1.23223    0.000
 4113.00    0.26196   1.22468    0.437
 4114.00    0.77953   1.23345    0.430
 4115.00    2.17067   1.24477    0.412
 4116.00    2.71062   1.24091    0.409
 4117.00    2.08918   1.22453    0.425
 4118.00    1.46483   1.21711    0.439
 4119.00    1.49774   1.23366    0.439
 4120.00    1.96144   1.25579    0.429
 4121.00    2.11873   1.26511    0.420
 4122.00    1.37660   1.26688    0.418
 4123.00    0.41259   1.26660    0.423
 4124.00    0.39277   1.26352    0.429
 4125.00    1.08722   1.26003    0.431
 4126.00    1.36841   1.26075    0.429
 4127.00    0.67669   1.26071    0.425
 4128.00   -0.59462   1.25867    0.000
 4129.00   -0.99400   1.25893    0.000
 4130.00    0.42163   1.26236    0.409
 4131.00    2.08513   1.26557    0.401
 4132.00    2.07237   1.26843    0.403
 4133.00    0.95075   1.26869    0.410
 4134.00    0.25983   1.26833    0.409
 4135.00    0.47085   1.26792    0.401
 4136.00    1.12191   1.26663    0.394
 4137.00    1.29016   1.26494    0.395
 4138.00    0.79986   1.25922    0.405
 4139.00    0.97957   1.24258    0.409
 4140.00    2.21939   1.21579    0.403
 4141.00    2.45458   1.20330    0.403
 4142.00    0.95975   1.22142    0.414
 4143.00    0.40878   1.24610    0.415
 4144.00    1.71458   1.25851    0.397
 4145.00    1.68168   1.26347    0.385
 4146.00   -0.43997   1.26386    0.000
 4147.00   -0.52598   1.26267    0.000
 4148.00    2.55498   1.26287    0.369
 4149.00    4.42386   1.26083    0.361
 4150.00    3.17000   1.25840    0.368
 4151.00    1.75878   1.25954    0.378
 4152.00    1.99831   1.26216    0.382
 4153.00    2.69767   1.26156    0.379
 4154.00    2.61146   1.26198    0.377
 4155.00    1.53956   1.26368    0.387
 4156.00    0.09430   1.26548    0.405
 4157.00   -0.77834   1.26545    0.000
 4158.00   -0.91811   1.26402    0.000
 4159.00   -0.77386   1.26073    0.000
 4160.00   -0.05096   1.25904    0.000
 4161.00    1.81926   1.26118    0.396
 4162.00    3.72840   1.26235    0.382
 4163.00    3.80986   1.26294    0.392
 4164.00    2.36222   1.26069    0.417
 4165.00    1.09946   1.25523    0.427
 4166.00    0.51824   1.25053    0.414
 4167.00    0.26414   1.25312    0.399
 4168.00    0.60945   1.25619    0.396
 4169.00    1.72723   1.25645    0.408
 4170.00    2.27922   1.25702    0.427
 4171.00    1.16037   1.25773    0.439
 4172.00    0.04283   1.25754    0.436
 4173.00    0.80421   1.25722    0.423
 4174.00    2.10422   1.25773    0.418
 4175.00    2.23229   1.25754    0.431
 4176.00    2.49103   1.25722    0.438
 4177.00    3.98091   1.25773    0.421
 4178.00    4.38980   1.25754    0.413
 4179.00    2.07913   1.25715    0.435
 4180.00   -0.39543   1.25670    0.000
 4181.00   -0.51254   1.25517    0.000
 4182.00    0.80705   1.25071    0.438
 4183.00    1.61070   1.24588    0.436
 4184.00    0.95221   1.24407    0.450
 4185.00   -0.67899   1.24713    0.000
 4186.00   -1.50941   1.24735    0.000
 4187.00   -0.57829   1.24533    0.000
 4188.00    1.28058   1.24736    0.460
 4189.00    2.91922   1.24837    0.443
 4190.00    3.73757   1.24705    0.438
 4191.00    3.81881   1.24340    0.447
 4192.00    3.75422   1.23736    0.454
 4193.00    3.71368   1.22773    0.453
 4194.00    3.28521   1.21066    0.447
 4195.00    2.38994   1.18558    0.445
 4196.00    1.49597   1.15659    0.447
 4197.00    1.11476   1.14492    0.456
 4198.00    1.50849   1.16211    0.473
 4199.00    2.36760   1.19078    0.488
 4200.00    2.97958   1.21256    0.485
 4201.00    2.94616   1.22693    0.471
 4202.00    2.34460   1.23542    0.468
 4203.00    1.61604   1.24017    0.475
 4204.00    1.30755   1.24339    0.475
 4205.00    1.58435   1.24544    0.468
 4206.00    2.23212   1.24639    0.463
 4207.00    2.87900   1.24688    0.460
 4208.00    3.09609   1.24359    0.455
 4209.00    2.51299   1.23901    0.454
 4210.00    1.23109   1.23925    0.460
 4211.00    0.37881   1.24473    0.464
 4212.00    1.09877   1.24717    0.450
 4213.00    3.03727   1.24626    0.431
 4214.00    4.93606   1.24669    0.421
 4215.00    5.69040   1.24746    0.412
 4216.00    4.84363   1.24816    0.398
 4217.00    2.95883   1.24793    0.393
 4218.00    1.10715   1.24744    0.413
 4219.00    0.24467   1.24610    0.446
 4220.00    0.68182   1.24559    0.469
 4221.00    1.74270   1.24612    0.470
 4222.00    2.62911   1.24580    0.454
 4223.00    3.11984   1.24438    0.442
 4224.00    3.17999   1.24293    0.439
 4225.00    2.69429   1.24344    0.438
 4226.00    1.92529   1.24507    0.430
 4227.00    1.67185   1.24500    0.424
 4228.00    2.27342   1.24451    0.424
 4229.00    3.11361   1.24307    0.424
 4230.00    3.27418   1.24154    0.423
 4231.00    2.16912   1.24095    0.427
 4232.00    0.75558   1.24053    0.430
 4233.00    1.18910   1.24011    0.419
 4234.00    2.88983   1.23978    0.402
 4235.00    2.47466   1.24038    0.410
 4236.00    0.11649   1.24107    0.438
 4237.00   -0.16838   1.24065    0.000
 4238.00    1.81597   1.23834    0.403
 4239.00    2.18464   1.23775    0.395
 4240.00    0.55793   1.23930    0.412
 4241.00    0.17369   1.24016    0.419
 4242.00    1.52715   1.23982    0.404
 4243.00    2.34702   1.23835    0.391
 4244.00    2.03136   1.23690    0.390
 4245.00    1.71272   1.23743    0.398
 4246.00    1.87390   1.23907    0.406
 4247.00    2.12781   1.23897    0.403
 4248.00    1.90040   1.23836   -2.000
 4249.00    1.07806   1.23585   -2.000
 4250.00    0.82269   1.23327   -2.000
 4251.00    1.96649   1.23373   -2.000
 4252.00    2.40103   1.23633   -2.000
 4253.00    0.27011   1.23638   -2.000
 4254.00   -1.16968   1.23595   -2.000
 4255.00    1.45006   1.23551   -2.000
 4256.00    4.66907   1.23499   -2.000
 4257.00    3.89446   1.23368   -2.000
 4258.00    0.70650   1.23404   -2.000
 4259.00   -1.29780   1.23386   -2.000
 4260.00   -1.55919   1.23438   -2.000
 4261.00   -0.84611   1.23392   -2.000
 4262.00    0.71008   1.23061   -2.000
 4263.00    2.52096   1.21917    0.395
 4264.00    2.80748   1.20704    0.394
 4265.00    1.31127   1.21220    0.403
 4266.00    0.76971   1.22540    0.414
 4267.00    2.35270   1.23082    0.415
 4268.00    3.29280   1.23101    0.409
 4269.00    2.21613   1.23056    0.403
 4270.00    1.61119   1.23002    0.398
 4271.00    2.63529   1.22831    0.400
 4272.00    3.07936   1.22447    0.411
 4273.00    2.02775   1.22044    0.426
 4274.00    1.38633   1.22074    0.430
 4275.00    2.07719   1.22465    0.421
 4276.00    2.90563   1.22822    0.416
 4277.00    2.99577   1.22916    0.424
 4278.00    2.54645   1.22773    0.441
 4279.00    1.93107   1.22537    0.456
 4280.00    1.36537   1.22268    0.457
 4281.00    0.93314   1.22073    0.449
 4282.00    0.65773   1.22096    0.449
 4283.00    0.66671   1.22378    0.456
 4284.00    1.09785   1.22614    0.455
 4285.00    1.75042   1.22512    0.447
 4286.00    2.16434   1.22303    0.448
 4287.00    2.00587   1.22206    0.459
 4288.00    1.25285   1.22271    0.473
 4289.00    0.36808   1.22432    0.482
 4290.00   -0.03170   1.22441    0.000
 4291.00    0.16600   1.22185    0.482
 4292.00    0.57776   1.22026    0.474
 4293.00    0.57410   1.22142    0.472
 4294.00   -0.03101   1.22310    0.000
 4295.00   -0.12259   1.22322    0.000
 4296.00    1.32596   1.22195    0.466
 4297.00    3.36028   1.22069    0.445
 4298.00    4.41671   1.22023    0.439
 4299.00    4.20184   1.21866    0.440
 4300.00    3.24676   1.21488    0.437
 4301.00    2.16885   1.21319    0.436
 4302.00    1.32272   1.21564    0.442
 4303.00    0.59822   1.21749    0.448
 4304.00    0.00746   1.21651    0.447
 4305.00    0.08569   1.21504    0.446
 4306.00    0.88341   1.21465    0.451
 4307.00    1.36682   1.21526    0.458
 4308.00    0.94434   1.21549    0.461
 4309.00    0.34873   1.21373    0.461
 4310.00    0.21927   1.21047    0.457
 4311.00    0.32329   1.20857    0.446
 4312.00    0.43458   1.20801    0.433
 4313.00    0.75597   1.20549    0.433
 4314.00    1.40482   1.20231    0.447
 4315.00    2.12688   1.20109    0.459
 4316.00    2.25486   1.19969    0.457
 4317.00    1.09035   1.19885    0.451
 4318.00   -0.55837   1.20063    0.000
 4319.00   -0.63019   1.20150    0.000
 4320.00    1.07695   1.19972    0.461
 4321.00    2.61139   1.19560    0.463
 4322.00    2.61193   1.18963    0.460
 4323.00    1.13203   1.18453    0.461
 4324.00   -0.67947   1.18116    0.000
 4325.00   -1.35084   1.17705    0.000
 4326.00   -0.76164   1.17134    0.000
 4327.00    0.07930   1.16370    0.473
 4328.00    0.55811   1.15282    0.481
 4329.00    0.67077   1.13873    0.479
 4330.00    0.69807   1.12234    0.000
 4331.00    0.88013   1.10244    0.000
 4332.00    0.96843   1.07497    0.000
 4333.00    0.61371   1.03608    0.000
 4334.00    0.12139   0.98261    0.000
 4335.00    0.00211   0.91252    0.000
 4336.00    0.13984   0.82807    0.000
 4337.00    0.19582   0.76142    0.000
 4338.00    0.28731   0.76785    0.000
 4339.00    0.58256   0.84648    0.000
 4340.00    0.74210   0.93563    0.000
 4341.00    0.38892   0.99957    0.000
 4342.00   -0.32032   1.04482    0.000
 4343.00   -0.81585   1.07948    0.000
 4344.00   -0.37778   1.10433    0.000
 4345.00    1.04169   1.12138    0.000
 4346.00    2.28813   1.13284    0.000
 4347.00    2.46346   1.14205    0.000
 4348.00    1.95071   1.15070    0.000
 4349.00    1.15829   1.16048    0.000
 4350.00   -0.21011   1.17059    0.000
 4351.00   -1.72466   1.17798    0.000
 4352.00   -1.75338   1.18305    0.000
 4353.00   -0.17876   1.18582    0.000
 4354.00    0.76606   1.18813    0.512
 4355.00    0.35011   1.19108    0.520
 4356.00    0.49849   1.19365    0.473
 4357.00    1.78603   1.19486    0.438
 4358.00    2.35657   1.19543    0.577
 4359.00    1.27790   1.19681    1.779
 4360.00   -0.45127   1.19867   -2.000
 4361.00   -1.47892   1.19951   -2.000
 4362.00   -0.97489   1.19869   -2.000
 4363.00    0.55707   1.19571   -1.000
 4364.00    1.62946   1.19398   -1.000
 4365.00    1.54952   1.19588   -1.000
 4366.00    0.70632   1.19881   -1.000
 4367.00   -0.10914   1.20026    0.000
 4368.00   -0.20505   1.20054   -2.000
 4369.00    0.30781   1.20024   -2.000
 4370.00    0.85504   1.20018    1.380
 4371.00    1.44027   1.20001    0.539
 4372.00    2.27792   1.19975    0.437
 4373.00    2.71773   1.20041    0.478
 4374.00    1.98096   1.20172    0.510
 4375.00    0.69893   1.20094    0.492
 4376.00    0.02052   1.19824    0.484
 4377.00   -0.09574   1.19863    0.000
 4378.00   -0.18458   1.20057    0.000
 4379.00   -0.00875   1.19935    0.000
 4380.00    0.86279   1.19616    0.479
 4381.00    2.15742   1.19286    0.480
 4382.00    3.17976   1.18684    0.487
 4383.00    3.27727   1.16982    0.488
 4384.00    2.23920   1.13869    0.479
 4385.00    0.60017   1.12123    0.475
 4386.00   -0.80884   1.14050    0.000
 4387.00   -1.32989   1.17216    0.000
 4388.00   -0.81310   1.19076    0.000
 4389.00    0.19990   1.19831    0.473
 4390.00    0.91139   1.20012    0.481
 4391.00    0.69013   1.19888    0.489
 4392.00   -0.31748   1.19659    0.000
 4393.00   -1.05071   1.19630    0.000
 4394.00   -0.98128   1.19902    0.000
 4395.00   -0.70488   1.20108    0.000
 4396.00   -0.53199   1.20073    0.000
 4397.00    0.01491   1.19992    0.478
 4398.00    0.98177   1.19988    0.463
 4399.00    1.65347   1.20017    0.439
 4400.00    1.64644   1.19944    0.416
 4401.00    1.21632   1.19860    0.407
 4402.00    0.63262   1.19856    0.411
 4403.00    0.03542   1.19900    0.416
 4404.00   -0.22804   1.19939    0.000
 4405.00    0.29409   1.19977    0.403
 4406.00    1.51632   1.19933    0.393
 4407.00    2.78175   1.19753    0.385
 4408.00    3.30790   1.19578    0.383
 4409.00    2.61619   1.19633    0.387
 4410.00    1.22309   1.19563    0.390
 4411.00    0.09336   1.18915    0.384
 4412.00   -0.84858   1.18379    0.000
 4413.00   -2.08208   1.18353    0.000
 4414.00   -2.70405   1.18575    0.000
 4415.00   -1.56435   1.18996    0.000
 4416.00    0.26725   1.19405    0.419
 4417.00    0.99061   1.19568    0.418
 4418.00    0.94759   1.19658    0.422
 4419.00    1.13991   1.19646    0.423
 4420.00    0.68774   1.19611    0.423
 4421.00   -1.16749   1.19615    0.000
 4422.00   -2.36243   1.19615    0.000
 4423.00   -1.11943   1.19558    0.000
 4424.00    0.50254   1.19486    0.445
 4425.00    0.22241   1.19477    0.452
 4426.00   -0.70045   1.19465    0.000
 4427.00   -0.38200   1.19346    0.000
 4428.00    0.84348   1.19206    0.418
 4429.00    1.73574   1.19132    0.411
 4430.00    1.48096   1.19104    0.422
 4431.00    0.11400   1.19118    0.447
 4432.00   -1.34964   1.19050    0.000
 4433.00   -1.66956   1.18567    0.000
 4434.00   -0.10809   1.17884    0.000
 4435.00    2.31774   1.17945    0.418
 4436.00    2.87871   1.18479    0.430
 4437.00    1.19474   1.18425    0.452
 4438.00    0.30840   1.17991    0.469
 4439.00    1.36707   1.18075    0.470
 4440.00    2.13005   1.18561    0.463
 4441.00    1.70788   1.18897    0.458
 4442.00    1.67932   1.19031    0.462
 4443.00    2.38549   1.18935    0.470
 4444.00    2.41119   1.18768    0.471
 4445.00    1.77860   1.18750    0.468
 4446.00    1.99962   1.18886    0.475
 4447.00    2.85314   1.18958    0.491
 4448.00    2.60623   1.18836    0.498
 4449.00    1.32906   1.18679    0.495
 4450.00    0.60190   1.18727    0.498
 4451.00    0.56549   1.18865    0.510
 4452.00    0.23372   1.18882    0.520
 4453.00   -0.23078   1.18882    0.000
 4454.00    0.17067   1.18905    0.519
 4455.00    1.65859   1.18883    0.507
 4456.00    3.41348   1.18828    0.491
 4457.00    3.76974   1.18791    0.488
 4458.00    1.84193   1.18744    0.510
 4459.00   -0.14720   1.18619    0.000
 4460.00    0.30672   1.18437    0.525
 4461.00    1.67138   1.18309    0.000
 4462.00    1.28822   1.18140    0.000
 4463.00   -0.29054   1.17809    0.000
 4464.00   -1.12904   1.17240    0.000
 4465.00   -0.61116   1.16108    0.000
 4466.00    0.67246   1.13723    0.000
 4467.00    1.45919   1.09003    0.000
 4468.00    0.95513   1.04028    0.000
 4469.00   -0.22404   1.04801    0.000
 4470.00   -0.72565   1.10829    0.000
 4471.00    0.68934   1.15449    0.000
 4472.00    3.45990   1.17040    0.000
 4473.00    4.61057   1.17609    0.000
 4474.00    2.96849   1.17881    0.000
 4475.00    1.25763   1.17921    0.000
 4476.00    1.16487   1.17427    0.000
 4477.00    1.01986   1.16212    0.000
 4478.00    0.03917   1.15506    0.000
 4479.00   -0.05120   1.16406    0.000
 4480.00    1.20257   1.17794    0.000
 4481.00    1.91039   1.18298    0.000
 4482.00    1.44393   1.18370    0.531
 4483.00    1.26309   1.18382    0.536
 4484.00    1.84525   1.18339    0.546
 4485.00    2.10464   1.18243    0.548
 4486.00    1.66171   1.18128    0.544
 4487.00    1.19482   1.18107    0.551
 4488.00    0.99463   1.18140    0.567
 4489.00    0.86236   1.18192    0.569
 4490.00    1.10817   1.18206    0.551
 4491.00    2.24146   1.18185    0.532
 4492.00    3.52964   1.18164    0.526
 4493.00    3.58530   1.18148    0.539
 4494.00    2.45098   1.18114    0.562
 4495.00    1.25936   1.18092    0.577
 4496.00    0.61153   1.18067    0.576
 4497.00    0.47150   1.17970    0.565
 4498.00    0.58207   1.17851    0.555
 4499.00    0.62547   1.17836    0.554
 4500.00    0.36892   1.17952    0.565
 4501.00   -0.10860   1.18037    0.000
 4502.00   -0.18067   1.18023    0.000
 4503.00    0.45259   1.17954    0.576
 4504.00    0.71580   1.17860    0.564
 4505.00   -0.13074   1.17776    0.000
 4506.00   -0.55075   1.17713    0.000
 4507.00    0.76596   1.17485    0.568
 4508.00    2.30103   1.17230    0.561
 4509.00    2.37620   1.17210    0.562
 4510.00    1.71947   1.17240    0.563
 4511.00    1.57886   1.16996    0.558
 4512.00    2.00306   1.16829    0.554
 4513.00    2.50268   1.17057    0.556
 4514.00    2.69438   1.17332    0.557
 4515.00    2.54340   1.17441    0.553
 4516.00    2.39370   1.17509    0.551
 4517.00    2.29057   1.17532    0.554
 4518.00    1.74803   1.17489    0.559
 4519.00    0.80333   1.17341    0.566
 4520.00    0.32116   1.17158    0.587
 4521.00    0.54890   1.17107    0.614
 4522.00    0.71246   1.17177    0.613
 4523.00    0.47522   1.17270    0.585
 4524.00    0.35366   1.17258    0.568
 4525.00    0.71451   1.16922    0.572
 4526.00    1.40574   1.16570    0.575
 4527.00    1.93424   1.16576    0.573
 4528.00    1.78984   1.16805    0.581
 4529.00    1.21986   1.16880    0.595
 4530.00    1.01766   1.16713    0.591
 4531.00    1.24248   1.16449    0.575
 4532.00    1.30543   1.16227    0.576
 4533.00    1.11799   1.15873    0.589
 4534.00    0.99052   1.15120    0.589
 4535.00    0.74027   1.13710    0.581
 4536.00    0.04771   1.11166    0.593
 4537.00   -0.43729   1.07307    0.000
 4538.00    0.19003   1.04063    0.612
 4539.00    1.42149   1.04477    0.602
 4540.00    2.12709   1.08102    0.611
 4541.00    2.30286   1.11678    0.618
 4542.00    2.30954   1.13875    0.593
 4543.00    1.43146   1.15166    0.572
 4544.00   -0.58659   1.15827    0.000
 4545.00   -1.45627   1.16026    0.000
 4546.00    0.59285   1.16057    0.577
 4547.00    3.15534   1.16160    0.542
 4548.00    3.26570   1.15963    0.543
 4549.00    1.51549   1.15385    0.558
 4550.00   -0.08947   1.15362    0.000
 4551.00   -0.59210   1.16018    0.000
 4552.00   -0.03865   1.16480    0.000
 4553.00    0.83643   1.16578    0.000
 4554.00    1.32698   1.16595    0.000
 4555.00    1.27364   1.16569    0.000
 4556.00    0.87533   1.16614    0.000
 4557.00    0.48569   1.16726    0.000
 4558.00    0.32643   1.16773    0.000
 4559.00    0.35151   1.16743    0.000
 4560.00    0.47047   1.16650    0.000
 4561.00    0.66789   1.16592    0.000
 4562.00    0.93761   1.16569    0.000
 4563.00    1.20788   1.16336    0.000
 4564.00    1.17591   1.15756    0.000
 4565.00    0.48534   1.15311    0.000
 4566.00   -0.28870   1.15498    0.000
 4567.00    0.14137   1.16010    0.000
 4568.00    1.57940   1.16338    0.000
 4569.00    2.35204   1.16400    0.000
 4570.00    1.91667   1.16308    0.000
 4571.00    1.17592   1.16056    0.000
 4572.00    0.87242   1.15990    0.000
 4573.00    1.14176   1.16210    0.000
 4574.00    1.62932   1.16413    0.000
 4575.00    1.81579   1.16433    0.000
 4576.00    1.66969   1.16382    0.000
 4577.00    1.45260   1.16352    0.000
 4578.00    1.01952   1.16321    0.000
 4579.00    0.24737   1.16225    0.000
 4580.00    0.04676   1.16078    0.000
 4581.00    1.27981   1.16062    0.000
 4582.00    2.73854   1.16166    0.000
 4583.00    2.71362   1.16161    0.000
 4584.00    1.74941   1.15992    0.000
 4585.00    1.22018   1.15895    0.000
 4586.00    0.94983   1.15785    0.000
 4587.00    0.39224   1.15296    0.000
 4588.00    0.31658   1.15008    0.000
 4589.00    1.29011   1.15402    0.000
 4590.00    2.00684   1.15933    0.000
 4591.00    1.40890   1.15965    0.000
 4592.00    0.70317   1.15517    0.000
 4593.00    1.12492   1.15213    0.000
 4594.00    1.98722   1.15488    0.000
 4595.00    2.27623   1.15930    0.000
 4596.00    1.97281   1.16015    0.000
 4597.00    1.49746   1.15886    0.000
 4598.00    1.23873   1.15654    0.000
 4599.00    1.50880   1.15462    0.000
 4600.00    2.42654   1.15384    0.000
 4601.00    3.32122   1.15477    0.000
 4602.00    2.84396   1.15680    0.000
 4603.00    1.26403   1.15728    0.000
 4604.00    0.83118   1.15676    0.000
 4605.00    1.98307   1.15602    0.000
 4606.00    2.53038   1.15361    0.000
 4607.00    1.63030   1.15059    0.000
 4608.00    0.69626   1.15159    0.000
 4609.00    0.53632   1.15475    0.000
 4610.00    0.68839   1.15582    0.000
 4611.00    0.84362   1.15579    0.000
 4612.00    1.13417   1.15599    0.000
 4613.00    1.53729   1.15578    0.000
 4614.00    1.84158   1.15380    0.000
 4615.00    2.03448   1.14936    0.000
 4616.00    2.21857   1.14611    0.000
 4617.00    2.18265   1.14742    0.000
 4618.00    1.74451   1.15084    0.000
 4619.00    1.64578   1.15343    0.000
 4620.00    2.66463   1.15481    0.000
 4621.00    3.65768   1.15494    0.000
 4622.00    2.94147   1.15413    0.000
 4623.00    1.19092   1.15381    0.000
 4624.00    0.23971   1.15392    0.000
 4625.00    0.52400   1.15282    0.000
 4626.00    1.39316   1.14908    0.000
 4627.00    2.09184   1.14069    0.000
 4628.00    2.09329   1.13145    0.000
 4629.00    1.35608   1.13251    0.000
 4630.00    0.45508   1.14235    0.000
 4631.00    0.56105   1.14939    0.000
 4632.00    1.98880   1.15108    0.000
 4633.00    3.01001   1.15185    0.000
 4634.00    2.39437   1.15006    0.000
 4635.00    1.50143   1.14610    0.000
 4636.00    1.74528   1.14456    0.000
 4637.00    2.59455   1.14433    0.000
 4638.00    3.05987   1.14107    0.000
 4639.00    2.85509   1.14013    0.000
 4640.00    2.18163   1.14516    0.000
 4641.00    1.49161   1.14904    0.000
 4642.00    1.20790   1.14392    0.000
 4643.00    1.51648   1.12774    0.000
 4644.00    2.12484   1.11379    0.000
 4645.00    2.33627   1.11318    0.000
 4646.00    1.95754   1.11278    0.000
 4647.00    1.52571   1.10751    0.000
 4648.00    1.44620   1.11268    0.000
 4649.00    1.67040   1.12845    0.000
 4650.00    1.90493   1.13839    0.000
 4651.00    1.80921   1.13924    0.000
 4652.00    1.35815   1.14126    0.000
 4653.00    0.85369   1.14557    0.000
 4654.00    0.58850   1.14718    0.000
 4655.00    0.68368   1.14669    0.000
 4656.00    0.94702   1.14619    0.000
 4657.00    1.03105   1.14434    0.000
 4658.00    0.89375   1.14087    0.000
 4659.00    0.77535   1.13921    0.000
 4660.00    0.89866   1.13874    0.000
 4661.00    1.27069   1.13577    0.000
 4662.00    1.45521   1.13270    0.000
 4663.00    1.06428   1.13449    0.000
 4664.00    0.63668   1.13901    0.000
 4665.00    0.87008   1.14163    0.000
 4666.00    1.25366   1.14333    0.000
 4667.00    0.99720   1.14598    0.000
 4668.00    0.56345   1.14655    0.000
 4669.00    0.84839   1.14273    0.000
 4670.00    1.89866   1.13736    0.000
 4671.00    3.02880   1.13558    0.000
 4672.00    3.22179   1.13584    0.000
 4673.00    2.16678   1.13555    0.000
 4674.00    1.10365   1.13625    0.000
 4675.00    1.15994   1.13737    0.000
 4676.00    1.87294   1.13636    0.000
 4677.00    2.24986   1.13332    0.000
 4678.00    1.78704   1.12725    0.000
 4679.00    0.77771   1.11500    0.000
 4680.00    0.29495   1.08647    0.000
 4681.00    0.89974   1.02580    0.000
 4682.00    1.94204   0.96030    0.000
 4683.00    2.57551   0.96187    0.000
 4684.00    2.42544   1.02989    0.000
 4685.00    1.73622   1.08989    0.000
 4686.00    1.26041   1.11494    0.000
 4687.00    1.44318   1.12560    0.000
 4688.00    2.10385   1.13076    0.000
 4689.00    2.77827   1.13411    0.000
 4690.00    2.97437   1.13607    0.000
 4691.00    2.53664   1.13693    0.000
 4692.00    1.72863   1.13722    0.000
 4693.00    1.02978   1.13722    0.000
 4694.00    0.92401   1.13628    0.000
 4695.00    1.49197   1.13321    0.000
 4696.00    2.33129   1.13129    0.000
 4697.00    2.70152   1.13286    0.000
 4698.00    2.02925   1.13482    0.000
 4699.00    0.98972   1.13484    0.000
 4700.00    0.81882   1.13425    0.000
 4701.00    1.26826   1.13274    0.000
 4702.00    1.21899   1.13162    0.000
 4703.00    0.74666   1.13318    0.000
 4704.00    0.62977   1.13605    0.000
 4705.00    0.78623   1.13644    0.000
 4706.00    0.74525   1.13518    0.000
 4707.00    0.79469   1.13357    0.000
 4708.00    1.36099   1.12400    0.000
 4709.00    1.92592   1.09807    0.000
 4710.00    1.82771   1.08298    0.000
 4711.00    1.42079   1.10037    0.000
 4712.00    1.33429   1.12587    0.000
 4713.00    1.49299   1.13290    0.000
 4714.00    1.56798   1.13403    0.000
 4715.00    1.53030   1.13503    0.000
 4716.00    1.40658   1.13548    0.000
 4717.00    1.04069   1.13536    0.000
 4718.00    0.44221   1.13517    0.000
 4719.00    0.02636   1.13487    0.000
 4720.00    0.06609   1.13461    0.000
 4721.00    0.32155   1.13456    0.000
 4722.00    0.44692   1.13449    0.000
 4723.00    0.29438   1.13379    0.000
 4724.00   -0.03260   1.13298    0.000
 4725.00   -0.20490   1.13268    0.000
 4726.00    0.07379   1.13265    0.000
 4727.00    0.88630   1.13224    0.000
 4728.00    1.92797   1.13207    0.000
 4729.00    2.57887   1.13232    0.000
 4730.00    2.56210   1.13253    0.000
 4731.00    2.11628   1.13202    0.000
 4732.00    1.52591   1.13143    0.000
 4733.00    0.95374   1.13104    0.000
 4734.00    0.52646   1.13088    0.000
 4735.00    0.33737   1.13072    0.000
 4736.00    0.35729   1.13047    0.000
 4737.00    0.49757   1.13004    0.000
 4738.00    0.85481   1.12986    0.000
 4739.00    1.54465   1.13001    0.000
 4740.00    2.13491   1.13013    0.000
 4741.00    1.98945   1.12998    0.000
 4742.00    1.32954   1.12960    0.000
 4743.00    0.90097   1.12948    0.000
 4744.00    0.84294   1.12947    0.000
 4745.00    0.90344   1.12937    0.000
 4746.00    1.21931   1.12900    0.000
 4747.00    1.95289   1.12846    0.000
 4748.00    2.51874   1.12795    0.000
 4749.00    2.23645   1.12782    0.000
 4750.00    1.41656   1.12776    0.000
 4751.00    0.82385   1.12754    0.000
 4752.00    0.77805   1.12720    0.000
 4753.00    1.14964   1.12697    0.000
 4754.00    1.51830   1.12700    0.000
 4755.00    1.52163   1.12705    0.000
 4756.00    1.19021   1.12683    0.000
 4757.00    0.80102   1.12649    0.000
 4758.00    0.66690   1.12610    0.000
 4759.00    0.77637   1.12559    0.000
 4760.00    0.62330   1.12513    0.000
 4761.00    0.18373   1.12478    0.791
 4762.00    0.44358   1.12448    0.765
 4763.00    1.73776   1.12440    0.726
 4764.00    2.86838   1.12444    0.712
 4765.00    2.96215   1.12436    0.729
 4766.00    2.45979   1.12434    0.744
 4767.00    1.96477   1.12390    0.733
 4768.00    1.62296   1.12322    0.716
 4769.00    1.41350   1.12269    0.710
 4770.00    1.29797   1.12270    0.715
 4771.00    1.16878   1.12300    0.724
 4772.00    0.92645   1.12294    0.733
 4773.00    0.87298   1.12280    0.737
 4774.00    1.53274   1.12250    0.735
 4775.00    2.48842   1.12155    0.730
 4776.00    2.58553   1.12068    0.729
 4777.00    1.87900   1.12074    0.732
 4778.00    1.54101   1.12103    0.730
 4779.00    1.82270   1.12036    0.723
 4780.00    1.97506   1.11939    0.720
 4781.00    1.56504   1.11917    0.727
 4782.00    0.73282   1.11886    0.747
 4783.00   -0.02989   1.11849    0.000
 4784.00   -0.19122   1.11861    0.000
 4785.00    0.30735   1.11885    0.735
 4786.00    1.08483   1.11877    0.731
 4787.00    1.59492   1.11883    0.733
 4788.00    1.51400   1.11863    0.721
 4789.00    1.25556   1.11799    0.707
 4790.00    1.39226   1.11733    0.708
 4791.00    1.71595   1.11728    0.714
 4792.00    1.73633   1.11768    0.706
 4793.00    1.50023   1.11802    0.698
 4794.00    1.29000   1.11788    0.709
 4795.00    1.14732   1.11761    0.724
 4796.00    0.98793   1.11685    0.722
 4797.00    0.77977   1.11613    0.708
 4798.00    0.50674   1.11568    0.701
 4799.00    0.13739   1.11512    0.709
 4800.00   -0.18223   1.11468    0.000
 4801.00   -0.03072   1.11457    0.000
 4802.00    0.69745   1.11463    0.734
 4803.00    1.42745   1.11469    0.725
 4804.00    1.66679   1.11480    0.725
 4805.00    1.49804   1.11441    0.726
 4806.00    1.16099   1.11375    0.722
 4807.00    0.78436   1.11329    0.719
 4808.00    0.48363   1.11237    0.723
 4809.00    0.42089   1.11013    0.728
 4810.00    0.78406   1.10862    0.729
 4811.00    1.63723   1.10899    0.728
 4812.00    2.32124   1.11003    0.730
 4813.00    1.72669   1.11066    0.745
 4814.00    0.44332   1.11081    0.762
 4815.00    0.57218   1.10921    0.756
 4816.00    1.92186   1.10665    0.735
 4817.00    2.01547   1.10654    0.735
 4818.00    0.61021   1.10828    0.758
 4819.00   -0.17396   1.10854    0.000
 4820.00    0.19803   1.10721    0.768
 4821.00    0.51143   1.10635    0.768
 4822.00    0.41638   1.10638    0.772
 4823.00    0.49215   1.10629    0.765
 4824.00    0.78248   1.10470    0.748
 4825.00    0.89489   1.10182    0.734
 4826.00    0.91865   1.10060    0.729
 4827.00    1.17486   1.10203    0.731
 4828.00    1.41239   1.10332    0.742
 4829.00    1.21556   1.10293    0.762
 4830.00    0.90443   1.10205    0.778
 4831.00    0.99128   1.10101    0.776
 4832.00    1.18273   1.09988    0.760
 4833.00    1.03472   1.09861    0.748
 4834.00    0.97714   1.09753    0.749
 4835.00    1.50286   1.09612    0.761
 4836.00    2.08889   1.09448    0.775
 4837.00    2.03887   1.09303    0.780
 4838.00    1.49588   1.09152    0.777
 4839.00    0.95247   1.08924    0.773
 4840.00    0.66876   1.08667    0.775
 4841.00    0.70115   1.08397    0.783
 4842.00    0.97327   1.08109    0.784
 4843.00    1.27004   1.07756    0.774
 4844.00    1.27706   1.07316    0.760
 4845.00    0.93351   1.06801    0.754
 4846.00    0.59088   1.06221    0.762
 4847.00    0.40553   1.05527    0.776
 4848.00    0.07141   1.04671    0.000
 4849.00   -0.41477   1.03607    0.000
 4850.00   -0.48836   1.02251    0.000
 4851.00    0.01335   1.00487    0.000
 4852.00    0.54758   0.98160    0.000
 4853.00    0.83484   0.95027    0.000
 4854.00    1.13240   0.90693    0.000
 4855.00    1.45998   0.84995    0.000
 4856.00    1.46326   0.78231    0.000
 4857.00    1.12415   0.71774    0.000
 4858.00    0.86416   0.69139    0.000
 4859.00    0.99346   0.72837    0.000
 4860.00    1.50678   0.80601    0.000
 4861.00    2.05333   0.87937    0.000
 4862.00    2.16379   0.92985    0.000
 4863.00    1.85002   0.96229    0.000
 4864.00    1.51645   0.98678    0.000
 4865.00    1.37194   1.00825    0.000
 4866.00    1.34065   1.02540    0.000
 4867.00    1.18788   1.03685    0.000
 4868.00    0.75027   1.04527    0.000
 4869.00    0.29880   1.05250    0.000
 4870.00    0.21036   1.05867    0.000
 4871.00    0.31527   1.06393    0.000
 4872.00    0.26525   1.06847    0.000
 4873.00    0.24061   1.07219    0.000
 4874.00    0.56828   1.07519    0.000
 4875.00    1.07219   1.07800    0.779
 4876.00    1.37938   1.08050    0.776
 4877.00    1.40392   1.08248    0.774
 4878.00    1.32230   1.08393    0.797
 4879.00    1.44774   1.08478    0.826
 4880.00    1.85304   1.08527    0.828
 4881.00    2.07115   1.08592    0.813
 4882.00    1.72872   1.08689    0.805
 4883.00    1.09102   1.08804    0.808
 4884.00    0.61339   1.08898    0.816
 4885.00    0.53557   1.08965    0.817
 4886.00    0.85032   1.08947    0.809
 4887.00    1.32723   1.08879    0.806
 4888.00    1.68486   1.08900    0.817
 4889.00    1.73935   1.09041    0.834
 4890.00    1.60756   1.09157    0.840
 4891.00    1.69245   1.09199    0.819
 4892.00    2.00751   1.09226    0.787
 4893.00    1.99864   1.09231    0.782
 4894.00    1.39349   1.09222    0.813
 4895.00    0.52026   1.09171    0.857
 4896.00   -0.08971   1.09094    0.000
 4897.00   -0.03693   1.09070    0.000
 4898.00    0.38162   1.09123    0.854
 4899.00    0.35077   1.09156    0.842
 4900.00   -0.17677   1.09126    0.000
 4901.00   -0.45294   1.09094    0.000
 4902.00   -0.17245   1.09049    0.000
 4903.00    0.36776   1.08996    0.842
 4904.00    0.87823   1.09007    0.858
 4905.00    1.20078   1.09082    0.835
 4906.00    1.19570   1.09093    0.803
 4907.00    0.86547   1.09016    0.819
 4908.00    0.66014   1.08963    0.858
 4909.00    1.02054   1.08930    0.848
 4910.00    1.41217   1.08912    0.807
 4911.00    1.06870   1.08894    0.796
 4912.00    0.54781   1.08822    0.803
 4913.00    0.79312   1.08681    0.794
 4914.00    1.32073   1.08427    0.785
 4915.00    1.24750   1.07904    0.806
 4916.00    1.04222   1.06813    0.830
 4917.00    1.40351   1.04598    0.820
 4918.00    1.65115   1.02108    0.804
 4919.00    1.07070   1.01941    0.820
 4920.00    0.51746   1.04215    0.850
 4921.00    0.84008   1.06557    0.856
 4922.00    1.26389   1.07666    0.845
 4923.00    1.04283   1.08304    0.835
 4924.00    0.93830   1.08600    0.827
 4925.00    1.65224   1.08693    0.816
 4926.00    2.57682   1.08735    0.805
 4927.00    2.94216   1.08749    0.798
 4928.00    2.68479   1.08729    0.796
 4929.00    2.06175   1.08677    0.799
 4930.00    1.34725   1.08633    0.803
 4931.00    0.79281   1.08621    0.811
 4932.00    0.59158   1.08634    0.829
 4933.00    0.76850   1.08621    0.851
 4934.00    1.13615   1.08579    0.860
 4935.00    1.36713   1.08534    0.852
 4936.00    1.14840   1.08469    0.845
 4937.00    0.66720   1.08377    0.849
 4938.00    0.56290   1.08283    0.853
 4939.00    0.95753   1.08211    0.853
 4940.00    1.32600   1.08258    0.000
 4941.00    1.35143   1.08375    0.000
 4942.00    1.14904   1.08443    0.000
 4943.00    1.01046   1.08427    0.000
 4944.00    1.14695   1.08403    0.000
 4945.00    1.23792   1.08375    0.000
 4946.00    0.75559   1.08350    0.000
 4947.00    0.03687   1.08315    0.000
 4948.00   -0.08515   1.08271    0.000
 4949.00    0.34516   1.08241    0.000
 4950.00    0.64652   1.08225    0.000
 4951.00    0.57470   1.08190    0.000
 4952.00    0.32545   1.08138    0.000
 4953.00    0.15050   1.08065    0.000
 4954.00    0.21628   1.08016    0.000
 4955.00    0.49680   1.08022    0.000
 4956.00    0.86309   1.08074    0.000
 4957.00    1.23205   1.08108    0.000
 4958.00    1.53567   1.08099    0.000
 4959.00    1.66173   1.08091    0.000
 4960.00    1.54674   1.08065    0.000
 4961.00    1.28622   1.08020    0.000
 4962.00    1.07334   1.07965    0.000
 4963.00    1.10327   1.07933    0.000
 4964.00    1.37634   1.07909    0.000
 4965.00    1.56881   1.07870    0.000
 4966.00    1.44414   1.07850    0.000
 4967.00    1.15795   1.07832    0.000
 4968.00    0.85505   1.07813    0.000
 4969.00    0.41939   1.07802    0.000
 4970.00   -0.02085   1.07801    0.000
 4971.00    0.10714   1.07792    0.000
 4972.00    0.86944   1.07773    0.000
 4973.00    1.45559   1.07729    0.000
 4974.00    1.39159   1.07671    0.000
 4975.00    1.05921   1.07649    0.000
 4976.00    0.89477   1.07630    0.000
 4977.00    0.98657   1.07575    0.000
 4978.00    1.12351   1.07433    0.000
 4979.00    0.96545   1.07244    0.000
 4980.00    0.57846   1.07176    0.000
 4981.00    0.41513   1.07269    0.000
 4982.00    0.51991   1.07384    0.000
 4983.00    0.50545   1.07439    0.000
 4984.00    0.35808   1.07468    0.000
 4985.00    0.44401   1.07450    0.000
 4986.00    0.81037   1.07377    0.000
 4987.00    1.18517   1.07264    0.000
 4988.00    1.47564   1.07192    0.000
 4989.00    1.72929   1.07179    0.000
 4990.00    1.76890   1.07185    0.000
 4991.00    1.38559   1.07184    0.000
 4992.00    0.87419   1.07198    0.000
 4993.00    0.71336   1.07225    0.000
 4994.00    0.81420   1.07206    0.000
 4995.00    0.79874   1.07157    0.000
 4996.00    0.65734   1.06968    0.000
 4997.00    0.58025   1.06605    0.000
 4998.00    0.56724   1.06364    0.000
 4999.00    0.54602   1.06482    0.000
 5000.00    0.59115   1.06684    0.000
 5001.00    0.81345   1.06671    0.000
 5002.00    1.20053   1.06601    0.000
 5003.00    1.65110   1.06586    0.000
 5004.00    2.03107   1.06618    0.000
 5005.00    2.18392   1.06645    0.000
 5006.00    1.96382   1.06616    0.000
 5007.00    1.49272   1.06591    0.000
 5008.00    1.29124   1.06623    0.000
 5009.00    1.58286   1.06582    0.000
 5010.00    1.85311   1.05865    0.000
 5011.00    1.59372   1.03632    0.000
 5012.00    0.83695   1.01634    0.000
 5013.00    0.11425   1.02428    0.000
 5014.00    0.21500   1.04628    0.000
 5015.00    1.11496   1.05809    0.000
 5016.00    1.71211   1.06127    0.000
 5017.00    1.46931   1.06384    0.000
 5018.00    1.00025   1.06444    0.000
 5019.00    0.93906   1.06421    0.000
 5020.00    1.38897   1.06425    0.000
 5021.00    1.84856   1.06412    0.000
 5022.00    1.56409   1.06343    0.000
 5023.00    0.81700   1.06271    0.000
 5024.00    0.75805   1.06264    0.000
 5025.00    1.43371   1.06306    0.000
 5026.00    1.78856   1.06321    0.000
 5027.00    1.49044   1.06252    0.000
 5028.00    1.05045   1.06125    0.000
 5029.00    0.76210   1.06069    0.865
 5030.00    0.55479   1.06137    0.863
 5031.00    0.30718   1.06181    0.850
 5032.00    0.02348   1.06122    0.860
 5033.00    0.02210   1.06094    0.890
 5034.00    0.58241   1.06126    0.908
 5035.00    1.25961   1.06083    0.904
 5036.00    1.40867   1.05808    0.895
 5037.00    1.21940   1.05457    0.901
 5038.00    1.21353   1.05434    0.934
 5039.00    1.28183   1.05718    0.970
 5040.00    1.13709   1.05909    0.974
 5041.00    1.06174   1.05866    0.958
 5042.00    1.35881   1.05601    0.954
 5043.00    1.63796   1.04794    0.974
 5044.00    1.50805   1.04036    1.010
 5045.00    1.33659   1.04308    1.028
 5046.00    1.47652   1.05251    1.013
 5047.00    1.52820   1.05777    1.000
 5048.00    1.13592   1.05938    1.016
 5049.00    0.66552   1.06217    1.043
 5050.00    0.58724   1.06240    1.048
 5051.00    0.95908   1.05655    1.030
 5052.00    1.50789   1.04928    1.006
 5053.00    1.78316   1.04818    1.000
 5054.00    1.60930   1.05256    1.011
 5055.00    1.27391   1.05598    1.013
 5056.00    0.98957   1.05643    0.998
 5057.00    0.66771   1.05627    0.998
 5058.00    0.36771   1.05581    1.023
 5059.00    0.41780   1.05545    1.048
 5060.00    0.89576   1.05508    1.045
 5061.00    1.48867   1.05463    1.015
 5062.00    1.90846   1.05436    0.976
 5063.00    2.03951   1.05428    0.951
 5064.00    1.83415   1.05401    0.950
 5065.00    1.32145   1.05364    0.972
 5066.00    0.76082   1.05346    0.994
 5067.00    0.52917   1.05319    0.987
 5068.00    0.65796   1.05262    0.961
 5069.00    0.82915   1.05186    0.955
 5070.00    0.72587   1.05120    0.968
 5071.00    0.27871   1.05102    0.969
 5072.00   -0.00897   1.05123    0.000
 5073.00    0.45918   1.05144    0.908
 5074.00    1.25532   1.05145    0.884
 5075.00    1.48129   1.05107    0.884
 5076.00    1.21350   1.05060    0.881
 5077.00    1.14515   1.05042    0.848
 5078.00    1.53234   1.05033    0.819
 5079.00    2.16174   1.05014    0.835
 5080.00    2.59233   1.04996    0.877
 5081.00    2.50635   1.04967    0.894
 5082.00    2.11066   1.04909    0.889
 5083.00    1.82731   1.04852    0.887
 5084.00    1.84718   1.04844    0.889
 5085.00    2.05587   1.04873    0.883
 5086.00    2.05274   1.04862    0.882
 5087.00    1.61698   1.04814    0.897
 5088.00    1.10576   1.04766    0.916
 5089.00    0.88580   1.04727    0.924
 5090.00    0.84581   1.04698    0.925
 5091.00    0.81564   1.04689    0.929
 5092.00    0.88455   1.04678    0.939
 5093.00    1.04523   1.04618    0.948
 5094.00    1.00306   1.04540    0.949
 5095.00    0.70868   1.04491    0.943
 5096.00    0.60331   1.04431    0.943
 5097.00    0.99240   1.04383    0.949
 5098.00    1.71380   1.04403    0.945
 5099.00    2.36311   1.04421    0.931
 5100.00    2.51439   1.04412    0.931
 5101.00    2.13870   1.04422    0.950
 5102.00    1.65909   1.04419    0.964
 5103.00    1.38468   1.04379    0.962
 5104.00    1.31062   1.04340    0.958
 5105.00    1.27766   1.04319    0.964
 5106.00    1.09839   1.04298    0.980
 5107.00    0.75611   1.04278    0.996
 5108.00    0.38735   1.04256    1.002
 5109.00    0.03760   1.04194    0.999
 5110.00   -0.30920   1.04105    0.000
 5111.00   -0.46406   1.04077    0.000
 5112.00   -0.18248   1.04116    0.000
 5113.00    0.32558   1.04143    1.035
 5114.00    0.58290   1.04141    1.020
 5115.00    0.49327   1.04119    1.009
 5116.00    0.28249   1.04087    1.028
 5117.00    0.11896   1.04014    1.059
 5118.00    0.08154   1.03935    1.064
 5119.00    0.23046   1.03894    1.048
 5120.00    0.59095   1.03883    1.043
 5121.00    1.10963   1.03869    1.054
 5122.00    1.65397   1.03773    1.070
 5123.00    2.02815   1.03634    1.069
 5124.00    2.07984   1.03567    1.046
 5125.00    1.83060   1.03629    1.032
 5126.00    1.49117   1.03723    1.047
 5127.00    1.42706   1.03737    1.061
 5128.00    1.77964   1.03673    1.039
 5129.00    2.14710   1.03581    1.002
 5130.00    2.14686   1.03543    0.979
 5131.00    1.90698   1.03582    0.977
 5132.00    1.68676   1.03606    0.987
 5133.00    1.54570   1.03561    0.986
 5134.00    1.42735   1.03510    0.972
 5135.00    1.25214   1.03445    0.976
 5136.00    1.00987   1.03406    1.011
 5137.00    0.79791   1.03402    1.048
 5138.00    0.70745   1.03366    1.058
 5139.00    0.76363   1.03280    1.046
 5140.00    0.97465   1.03178    1.024
 5141.00    1.34839   1.03140    0.991
 5142.00    1.84042   1.03169    0.954
 5143.00    2.32770   1.03236    0.932
 5144.00    2.60670   1.03246    0.927
 5145.00    2.47382   1.03181    0.926
 5146.00    2.01802   1.03108    0.925
 5147.00    1.58668   1.03067    0.934
 5148.00    1.30282   1.03075    0.949
 5149.00    1.04482   1.03068    0.961
 5150.00    0.88266   1.03033    0.968
 5151.00    1.03377   1.02955    0.975
 5152.00    1.38664   1.02897    0.971
 5153.00    1.53086   1.02929    0.941
 5154.00    1.15284   1.03038    0.927
 5155.00    0.31782   1.03084    0.982
 5156.00   -0.17227   1.03039    0.000
 5157.00    0.48318   1.02973    1.026
 5158.00    1.56624   1.02898    0.952
 5159.00    1.76055   1.02846    0.953
 5160.00    1.21622   1.02822    1.011
 5161.00    0.88201   1.02806    1.038
 5162.00    0.91963   1.02722    1.007
 5163.00    0.93989   1.02551    0.966
 5164.00    0.69223   1.02355    0.959
 5165.00    0.25071   1.02261    0.999
 5166.00    0.08236   1.02325    1.037
 5167.00    0.46310   1.02427    1.024
 5168.00    0.87422   1.02423    1.009
 5169.00    0.77352   1.02383    1.041
 5170.00    0.39561   1.02436    1.074
 5171.00    0.21172   1.02507    1.056
 5172.00    0.37834   1.02507    1.031
 5173.00    0.87683   1.02472    1.038
 5174.00    1.64830   1.02459    1.038
 5175.00    2.45192   1.02440    1.009
 5176.00    2.82054   1.02404    0.998
 5177.00    2.52449   1.02391    1.025
 5178.00    1.82322   1.02348    1.036
 5179.00    1.08410   1.02235    1.004
 5180.00    0.54640   1.02098    0.974
 5181.00    0.34652   1.02042    0.976
 5182.00    0.49613   1.02081    0.989
 5183.00    0.68956   1.02146    0.990
 5184.00    0.41732   1.02175    0.974
 5185.00   -0.17001   1.02122    0.000
 5186.00   -0.24012   1.02070    0.000
 5187.00    0.37929   1.02030    0.933
 5188.00    1.01854   1.01972    0.948
 5189.00    1.34844   1.01915    0.975
 5190.00    1.55764   1.01904    0.000
 5191.00    1.61111   1.01905    0.000
 5192.00    1.27590   1.01899    0.000
 5193.00    0.82509   1.01867    0.000
 5194.00    0.84106   1.01820    0.000
 5195.00    1.26379   1.01732    0.000
 5196.00    1.55488   1.01507    0.000
 5197.00    1.57690   1.01349    0.000
 5198.00    1.56482   1.01441    0.000
 5199.00    1.67465   1.01465    0.000
 5200.00    1.88102   1.01190    0.000
 5201.00    1.96997   1.01003    0.000
 5202.00    1.74717   1.01179    0.000
 5203.00    1.35595   1.01437    0.000
 5204.00    1.07523   1.01539    0.000
 5205.00    0.96699   1.01551    0.000
 5206.00    0.97622   1.01552    0.000
 5207.00    1.11748   1.01480    0.000
 5208.00    1.40154   1.01301    0.000
 5209.00    1.72706   1.01212    0.000
 5210.00    1.91562   1.01298    0.000
 5211.00    1.78600   1.01370    0.921
 5212.00    1.41107   1.01309    0.928
 5213.00    1.27424   1.01250    0.930
 5214.00    1.57820   1.01268    0.912
 5215.00    1.76723   1.01324    0.881
 5216.00    1.45000   1.01363    0.850
 5217.00    1.01136   1.01349    0.828
 5218.00    0.79099   1.01310    0.811
 5219.00    0.59935   1.01270    0.778
 5220.00    0.37230   1.01217    0.737
 5221.00    0.46455   1.01117    0.713
 5222.00    0.95568   1.00933    0.710
 5223.00    1.39746   1.00746    0.695
 5224.00    1.49688   1.00732    0.668
 5225.00    1.40757   1.00878    0.662
 5226.00    1.48106   1.01004    0.681
 5227.00    2.00865   1.01026    0.692
 5228.00    2.69262   1.00981    0.680
 5229.00    2.74790   1.00882    0.670
 5230.00    1.96526   1.00784    0.679
 5231.00    0.88575   1.00741    0.713
 5232.00    0.14525   1.00771    0.756
 5233.00    0.14760   1.00796    0.778
 5234.00    0.76931   1.00786    0.771
 5235.00    1.44666   1.00779    0.762
 5236.00    1.60570   1.00792    0.770
 5237.00    1.01251   1.00788    0.804
 5238.00    0.27295   1.00756    0.846
 5239.00    0.26263   1.00714    0.865
 5240.00    0.79262   1.00664    0.860
 5241.00    1.08088   1.00716    0.857
 5242.00    1.07142   1.00828    0.864
 5243.00    1.17683   1.00828    0.874
 5244.00    1.47717   1.00640    0.882
 5245.00    1.76057   1.00484    0.885
 5246.00    1.78762   1.00439    0.888
 5247.00    1.53942   1.00443    0.894
 5248.00    1.44361   1.00411    0.895
 5249.00    1.73163   1.00311    0.879
 5250.00    1.74325   1.00225    0.860
 5251.00    1.02961   1.00239    0.851
 5252.00    0.46435   1.00289    0.857
 5253.00    0.79678   1.00305    0.871
 5254.00    1.31937   1.00291    0.872
 5255.00    1.26176   1.00231    0.854
 5256.00    0.97379   1.00147    0.835
 5257.00    0.99725   1.00090    0.828
 5258.00    1.31041   1.00084    0.828
 5259.00    1.56974   1.00012    0.832
 5260.00    1.38500   0.99874    0.856
 5261.00    0.76099   0.99805    0.895
 5262.00    0.22574   0.99823    0.908
 5263.00    0.05654   0.99864    0.883
 5264.00   -0.02211   0.99878    0.000
 5265.00   -0.14623   0.99825    0.000
 5266.00   -0.09342   0.99778    0.000
 5267.00    0.10040   0.99702    0.917
 5268.00    0.04660   0.99583    0.910
 5269.00   -0.24884   0.99510    0.000
 5270.00   -0.33030   0.99545    0.000
 5271.00   -0.17577   0.99587    0.000
 5272.00   -0.23502   0.99544    0.000
 5273.00   -0.52972   0.99566    0.000
 5274.00   -0.62285   0.99661    0.000
 5275.00   -0.36928   0.99699    0.000
 5276.00    0.00389   0.99684    0.898
 5277.00    0.26218   0.99635    0.887
 5278.00    0.33570   0.99596    0.916
 5279.00    0.47294   0.99546    0.954
 5280.00    0.92711   0.99482    0.949
 5281.00    1.27355   0.99458    0.929
 5282.00    0.92446   0.99496    0.956
 5283.00    0.29550   0.99531    1.006
 5284.00    0.23882   0.99524    1.005
 5285.00    0.77326   0.99501    0.958
 5286.00    1.32856   0.99477    0.925
 5287.00    1.43653   0.99440    0.925
 5288.00    1.05614   0.99396    0.955
 5289.00    0.81387   0.99365    0.987
 5290.00    1.24043   0.99342    0.993
 5291.00    1.88073   0.99318    0.975
 5292.00    2.01619   0.99278    0.956
 5293.00    1.53887   0.99180    0.952
 5294.00    0.80074   0.99091    0.968
 5295.00    0.33470   0.99053    0.990
 5296.00    0.41803   0.99070    1.006
 5297.00    0.76881   0.99095    1.016
 5298.00    1.01680   0.99073    1.025
 5299.00    1.07527   0.99029    1.029
 5300.00    1.00414   0.99025    1.025
 5301.00    0.88142   0.99042    1.023
 5302.00    0.71796   0.99018    1.023
 5303.00    0.44319   0.98946    1.012
 5304.00    0.10508   0.98899    0.994
 5305.00   -0.06060   0.98874    0.000
 5306.00    0.13527   0.98850    1.013
 5307.00    0.68105   0.98826    0.984
 5308.00    1.23374   0.98813    0.928
 5309.00    1.25509   0.98756    0.923
 5310.00    0.77602   0.98706    0.974
 5311.00    0.44086   0.98623    0.995
 5312.00    0.53170   0.98473    0.965
 5313.00    0.78521   0.98398    0.962
 5314.00    0.98574   0.98456    0.993
 5315.00    1.08714   0.98525    0.988
 5316.00    0.98345   0.98394    0.949
 5317.00    0.58789   0.98283    0.937
 5318.00    0.20408   0.98335    0.950
 5319.00    0.27282   0.98436    0.949
 5320.00    0.57757   0.98428    0.934
 5321.00    0.55240   0.98373    0.940
 5322.00    0.29738   0.98310    0.956
 5323.00    0.34441   0.98226    0.947
 5324.00    0.82402   0.98109    0.921
 5325.00    1.53168   0.98062   -2.000
 5326.00    2.30674   0.98101   -2.000
 5327.00    3.07401   0.98161   -2.000
 5328.00    3.79604   0.98193   -2.000
 5329.00    4.26007   0.98181   -2.000
 5330.00    3.85007   0.98141   -2.000
 5331.00    2.25832   0.98094   -2.000
 5332.00    0.32073   0.98074   -2.000
 5333.00   -0.81303   0.98054   -2.000
 5334.00   -0.70777   0.98000   -2.000
 5335.00    0.24267   0.97943   -2.000
 5336.00    0.92993   0.97882   -2.000
 5337.00    0.70073   0.97856   -2.000
 5338.00    0.23906   0.97851   -2.000
 5339.00    0.29837   0.97847    0.921
 5340.00    0.71007   0.97850    0.902
 5341.00    1.00223   0.97710    0.915
 5342.00    0.91160   0.97578    0.971
 5343.00    0.47409   0.97590    1.048
 5344.00    0.00988   0.97705    1.094
 5345.00   -0.18764   0.97751    0.000
 5346.00   -0.02950   0.97746    0.000
 5347.00    0.39816   0.97740    1.064
 5348.00    0.87371   0.97706    1.060
 5349.00    1.13042   0.97671    1.042
 5350.00    0.96858   0.97645    1.027
 5351.00    0.53179   0.97631    1.023
 5352.00    0.25751   0.97612    1.024
 5353.00    0.27979   0.97599    1.030
 5354.00    0.33348   0.97578    1.048
 5355.00    0.18962   0.97549    1.069
 5356.00   -0.16232   0.97494    0.000
 5357.00   -0.43320   0.97467    0.000
 5358.00   -0.24833   0.97458    0.000
 5359.00    0.24430   0.97379    1.027
 5360.00    0.54261   0.97309    1.034
 5361.00    0.56870   0.97273    1.040
 5362.00    0.61575   0.97245    1.027
 5363.00    0.83262   0.97201    1.004
 5364.00    1.14377   0.97152    0.990
 5365.00    1.32203   0.97114    0.989
 5366.00    1.18223   0.97043    0.996
 5367.00    0.87337   0.96995    1.001
 5368.00    0.68079   0.96998    0.999
 5369.00    0.65276   0.97042    0.991
 5370.00    0.68628   0.97056    0.981
 5371.00    0.72398   0.97034    0.978
 5372.00    0.75351   0.97006    0.987
 5373.00    0.77268   0.96978    1.006
 5374.00    0.77676   0.96963    1.023
 5375.00    0.75228   0.96925    1.022
 5376.00    0.71301   0.96859    1.001
 5377.00    0.72613   0.96802    0.991
 5378.00    0.80763   0.96766    1.009
 5379.00    0.84290   0.96736    1.022
 5380.00    0.73782   0.96709    1.009
 5381.00    0.53804   0.96709    0.998
 5382.00    0.35676   0.96692    1.016
 5383.00    0.30821   0.96633    1.044
 5384.00    0.46148   0.96590    1.062
 5385.00    0.80648   0.96560    1.073
 5386.00    1.21977   0.96530    1.079
 5387.00    1.48414   0.96484    1.074
 5388.00    1.49045   0.96419    1.065
 5389.00    1.32803   0.96391    1.078
 5390.00    1.19960   0.96381    1.107
 5391.00    1.30576   0.96327    1.107
 5392.00    1.55081   0.96251    1.075
 5393.00    1.58717   0.96163    1.065
 5394.00    1.44059   0.96097    1.092
 5395.00    1.50909   0.96058    1.129
 5396.00    1.75814   0.95977    1.147
 5397.00    1.72393   0.95820    1.146
 5398.00    1.35487   0.95695    1.137
 5399.00    1.01189   0.95595    1.134
 5400.00    0.77088   0.95444    1.135
 5401.00    0.47683   0.95165    1.124
 5402.00    0.33127   0.94770    1.112
 5403.00    0.66354   0.94163    1.121
 5404.00    1.14382   0.93082    1.138
 5405.00    1.14068   0.91030    1.131
 5406.00    0.73047   0.87568    1.093
 5407.00    0.44298   0.84167    1.048
 5408.00    0.47617   0.83487    1.028
 5409.00    0.69421   0.86068    1.049
 5410.00    0.85412   0.89639    1.072
 5411.00    0.83160   0.92160    1.047
 5412.00    0.86153   0.93552    0.996
 5413.00    1.16404   0.94359    0.964
 5414.00    1.46558   0.94821    0.964
 5415.00    1.44255   0.95066    0.988
 5416.00    1.25457   0.95211    1.008
 5417.00    1.12129   0.95305    1.003
 5418.00    0.87164   0.95369    1.001
 5419.00    0.35696   0.95393    1.025
 5420.00   -0.16311   0.95342    0.000
 5421.00   -0.32515   0.95269    0.000
 5422.00    0.03849   0.95257    1.061
 5423.00    0.75187   0.95283    1.057
 5424.00    1.28256   0.95269    1.060
 5425.00    1.29321   0.95210    1.063
 5426.00    0.95546   0.95212    1.060
 5427.00    0.58721   0.95227    1.049
 5428.00    0.40275   0.95162    1.041
 5429.00    0.41894   0.95114    1.037
 5430.00    0.48304   0.95132    1.029
 5431.00    0.61500   0.95196    1.017
 5432.00    1.04032   0.95213    1.017
 5433.00    1.62240   0.95205    1.025
 5434.00    1.85101   0.95225   -2.000
 5435.00    1.74232   0.95212   -2.000
 5436.00    1.89069   0.95180   -2.000
 5437.00    2.43906   0.95148   -2.000
 5438.00    2.97700   0.95129   -2.000
 5439.00    3.34789   0.95072   -2.000
 5440.00    3.89766   0.95024   -2.000
 5441.00    5.42037   0.94958   -2.000
 5442.00    8.33740   0.94884   -2.000
 5443.00   10.80556   0.94872   -2.000
 5444.00    9.85896   0.94900   -2.000
 5445.00    4.92077   0.94917   -2.000
 5446.00   -2.09827   0.94895   -2.000
 5447.00   -8.23208   0.94823   -2.000
 5448.00  -10.78596   0.94660   -2.000
 5449.00   -9.13916   0.94441   -2.000
 5450.00   -4.75690   0.94343   -2.000
 5451.00   -0.58172   0.94435   -2.000
 5452.00    0.96668   0.94563   -2.000
 5453.00    0.57878   0.94608   -2.000
 5454.00    0.29172   0.94636   -2.000
 5455.00    0.78088   0.94652   -2.000
 5456.00    1.66299   0.94629   -2.000
 5457.00    2.28402   0.94564    0.960
 5458.00    2.24582   0.94516    0.958
 5459.00    1.81005   0.94468    0.982
 5460.00    1.34091   0.94442    0.997
 5461.00    0.79441   0.94394    1.004
 5462.00    0.16212   0.94291    1.014
 5463.00   -0.18649   0.94237    0.000
 5464.00   -0.05328   0.94269    0.000
 5465.00    0.23189   0.94308    0.986
 5466.00    0.37934   0.94324    0.996
 5467.00    0.48683   0.94299    1.009
 5468.00    0.67213   0.94213    1.008
 5469.00    0.86218   0.94097    0.999
 5470.00    0.95215   0.94041    0.988
 5471.00    0.90423   0.94055    0.974
 5472.00    0.76675   0.94051    0.964
 5473.00    0.65619   0.93976    0.976
 5474.00    0.64774   0.93941    1.007
 5475.00    0.73615   0.93947    1.027
 5476.00    0.87529   0.93973    1.051
 5477.00    1.00311   0.93971    1.129
 5478.00    1.07013   0.93928    1.201
 5479.00    1.06123   0.93905    1.117
 5480.00    1.03015   0.93909    1.066
 5481.00    1.06890   0.93899    1.464
 5482.00    1.19426   0.93838    4.045
 5483.00    1.33587   0.93790   -1.000
 5484.00    1.39046   0.93741   -1.000
 5485.00    1.28093   0.93734    5.443
 5486.00    1.05373   0.93741    7.417
 5487.00    0.86647   0.93702    8.815
 5488.00    0.91275   0.93660    8.815
 5489.00    1.28016   0.93625    2.419
 5490.00    1.73557   0.93589    1.155
 5491.00    1.93491   0.93553    1.000
 5492.00    1.82094   0.93517    1.074
 5493.00    1.57920   0.93483    1.053
 5494.00    1.46532   0.93466    1.099
 5495.00    1.57942   0.93469    1.729
 5496.00    1.63473   0.93461   -1.000
 5497.00    1.37190   0.93427   -1.000
 5498.00    1.04601   0.93342    8.815
 5499.00    1.00933   0.93291    5.965
 5500.00    1.22856   0.93287    8.521
 5501.00    1.47305   0.93261   -1.000
 5502.00    1.54974   0.93198   -1.000
 5503.00    1.38805   0.93031    1.540
 5504.00    1.08021   0.92998    0.961
 5505.00    0.75796   0.93017    0.932
 5506.00    0.50099   0.93058    1.051
 5507.00    0.38543   0.93062    1.090
 5508.00    0.49700   0.93051    1.049
 5509.00    0.77609   0.93053    1.022
 5510.00    0.98991   0.93046    1.017
 5511.00    1.11947   0.93032    1.014
 5512.00    1.44529   0.93019    1.001
 5513.00    1.88578   0.93003    0.987
 5514.00    1.88258   0.92957    0.996
 5515.00    1.38518   0.92930    1.029
 5516.00    1.02646   0.92899    1.056
 5517.00    1.03275   0.92863    1.063
 5518.00    1.01305   0.92841    1.068
 5519.00    0.80683   0.92793    1.083
 5520.00    0.63810   0.92748    1.098
 5521.00    0.60459   0.92693    1.110
 5522.00    0.62030   0.92632    1.121
 5523.00    0.73316   0.92572    1.123
 5524.00    1.07627   0.92531    1.109
 5525.00    1.51157   0.92512    1.098
 5526.00    1.72519   0.92516    1.119
 5527.00    1.65260   0.92523    1.150
 5528.00    1.43347   0.92496    1.140
 5529.00    1.11741   0.92458    1.109
 5530.00    0.69251   0.92420    1.108
 5531.00    0.24969   0.92382    1.125
 5532.00   -0.04617   0.92347    0.000
 5533.00   -0.06264   0.92345    0.000
 5534.00    0.14280   0.92353    1.026
 5535.00    0.14843   0.92344    1.017
 5536.00   -0.32640   0.92329    0.000
 5537.00   -0.76507   0.92312    0.000
 5538.00   -0.53659   0.92261    0.000
 5539.00    0.21950   0.92199    0.982
 5540.00    1.02344   0.92140    0.984
 5541.00    1.62184   0.92115    0.991
 5542.00    1.90414   0.92117    0.956
 5543.00    1.78224   0.92106    0.908
 5544.00    1.34349   0.92073    0.879
 5545.00    0.95403   0.92034    0.868
 5546.00    0.92952   0.91999    0.853
 5547.00    1.27028   0.91993    0.813
 5548.00    1.67896   0.91967    0.761
 5549.00    1.67436   0.91943    0.739
 5550.00    1.15071   0.91893    0.747
 5551.00    0.61147   0.91848    0.730
 5552.00    0.48185   0.91812    0.682
 5553.00    0.75063   0.91808    0.670
 5554.00    1.20962   0.91798    0.697
 5555.00    1.60338   0.91780    0.681
 5556.00    1.70272   0.91731    0.618
 5557.00    1.38994   0.91704    0.594
 5558.00    0.86575   0.91686    0.626
 5559.00    0.56072   0.91633    0.679
 5560.00    0.52004   0.91568    0.719
 5561.00    0.36988   0.91493    0.755
 5562.00   -0.05172   0.91481    0.000
 5563.00   -0.55395   0.91503    0.000
 5564.00   -0.81054   0.91477    0.000
 5565.00   -0.58536   0.91422    0.000
 5566.00   -0.12591   0.91396    0.000
 5567.00    0.07509   0.91378    0.994
 5568.00    0.05992   0.91343    1.018
 5569.00    0.23353   0.91303    1.041
 5570.00    0.62393   0.91270    1.069
 5571.00    0.95626   0.91303    1.082
 5572.00    1.08899   0.91333    1.071
 5573.00    1.07671   0.91288    1.045
 5574.00    1.12352   0.91207    1.034
 5575.00    1.38159   0.91142    1.057
 5576.00    1.67701   0.91133    1.089
 5577.00    1.76614   0.91120    1.088
 5578.00    1.72066   0.91086    1.064
 5579.00    1.67657   0.91064    1.049
 5580.00    1.49067   0.91048    1.052
 5581.00    1.05135   0.91028    1.063
 5582.00    0.62787   0.90970    1.071
 5583.00    0.47216   0.90872    1.066
 5584.00    0.42737   0.90823    1.054
 5585.00    0.29697   0.90844    1.040
 5586.00    0.17352   0.90665    1.026
 5587.00    0.16674   0.89656    1.011
 5588.00    0.19347   0.88703    0.999
 5589.00    0.19778   0.88750    0.993
 5590.00    0.28369   0.89907    1.000
 5591.00    0.47117   0.90621    1.021
 5592.00    0.58617   0.90723    1.041
 5593.00    0.57563   0.90687    1.051
 5594.00    0.63792   0.90644    1.053
 5595.00    0.92209   0.90589    1.051
 5596.00    1.37472   0.90578    1.039
 5597.00    1.78577   0.90544    1.021
 5598.00    1.88323   0.90485    1.008
 5599.00    1.61303   0.90444    1.015
 5600.00    1.18036   0.90451    1.050
 5601.00    0.76781   0.90388    1.097
 5602.00    0.44626   0.90324    1.118
 5603.00    0.24195   0.90337    1.105
 5604.00    0.13768   0.90382    1.094
 5605.00    0.00982   0.90375    1.105
 5606.00   -0.26485   0.90322    0.000
 5607.00   -0.48779   0.90295    0.000
 5608.00   -0.31171   0.90275    0.000
 5609.00    0.15627   0.90236    1.156
 5610.00    0.48397   0.90173    1.151
 5611.00    0.49811   0.90091    1.155
 5612.00    0.33190   0.90041    1.157
 5613.00    0.26137   0.90024    1.134
 5614.00    0.48306   0.90058    1.079
 5615.00    0.80795   0.90052    1.044
 5616.00    0.95259   0.90017    1.072
 5617.00    1.04599   0.89994    1.114
 5618.00    1.31403   0.89972    1.094
 5619.00    1.55943   0.89916    1.049
 5620.00    1.47885   0.89871    1.042
 5621.00    1.12687   0.89846    1.066
 5622.00    0.69589   0.89812    1.079
 5623.00    0.22187   0.89806    1.058
 5624.00   -0.25670   0.89792    0.000
 5625.00   -0.52495   0.89776    0.000
 5626.00   -0.36431   0.89773    0.000
 5627.00    0.26131   0.89740    0.963
 5628.00    1.08118   0.89696    0.898
 5629.00    1.50316   0.89656    0.841
 5630.00    1.17608   0.89632    0.818
 5631.00    0.35673   0.89611    0.813
 5632.00   -0.42165   0.89575    0.000
 5633.00   -0.66016   0.89547    0.000
 5634.00   -0.32828   0.89478    0.000
 5635.00    0.03133   0.89318    0.785
 5636.00    0.06287   0.89200    0.832
 5637.00   -0.08129   0.89210    0.000
 5638.00   -0.17175   0.89308    0.000
 5639.00   -0.10521   0.89332    0.000
 5640.00    0.15083   0.89296    1.032
 5641.00    0.55721   0.89230    1.032
 5642.00    0.90233   0.89149    1.030
 5643.00    0.89965   0.89118    1.045
 5644.00    0.63405   0.89120    1.077
 5645.00    0.50037   0.89143    1.104
 5646.00    0.56355   0.89151    1.101
 5647.00    0.58378   0.89136    1.060
 5648.00    0.61467   0.89117    1.002
 5649.00    0.94508   0.89095    0.951
 5650.00    1.56074   0.89055    0.911
 5651.00    2.14460   0.89011    0.872
 5652.00    2.37415   0.88967    0.837
 5653.00    2.09903   0.88920    0.816
 5654.00    1.54155   0.88853    0.815
 5655.00    1.06517   0.88771    0.833
 5656.00    0.71390   0.88740    0.865
 5657.00    0.35071   0.88740    0.901
 5658.00   -0.00297   0.88740    0.000
 5659.00   -0.21610   0.88707    0.000
 5660.00   -0.19543   0.88676    0.000
 5661.00    0.05814   0.88593    0.948
 5662.00    0.41335   0.88488    0.938
 5663.00    0.72477   0.88457    0.946
 5664.00    0.96627   0.88502    0.952
 5665.00    1.18655   0.88584    0.933
 5666.00    1.43619   0.88586    0.912
 5667.00    1.64235   0.88564    0.911
 5668.00    1.54167   0.88528    0.921
 5669.00    1.05005   0.88519    0.929
 5670.00    0.51901   0.88478    0.938
 5671.00    0.29802   0.88392    0.955
 5672.00    0.40261   0.88307    0.974
 5673.00    0.59292   0.88284    0.986
 5674.00    0.51318   0.88194    0.989
 5675.00    0.12060   0.88017    0.988
 5676.00   -0.17289   0.87979    0.000
 5677.00   -0.11618   0.88098    0.000
 5678.00    0.11665   0.88213    1.008
 5679.00    0.29827   0.88198    1.006
 5680.00    0.34518   0.88150    1.021
 5681.00    0.34582   0.88084    1.050
 5682.00    0.48862   0.88018    1.056
 5683.00    0.75870   0.87994    1.037
 5684.00    0.92394   0.88011    1.033
 5685.00    0.89306   0.88017    1.052
 5686.00    0.77815   0.88000    1.066
 5687.00    0.69354   0.87979    1.064
 5688.00    0.69453   0.87958    1.061
 5689.00    0.78872   0.87929    1.053
 5690.00    0.92425   0.87814    1.024
 5691.00    0.95522   0.87484    0.991
 5692.00    0.71930   0.87231    0.985
 5693.00    0.22488   0.87297    1.007
 5694.00   -0.33025   0.87586    0.000
 5695.00   -0.61576   0.87749    0.000
 5696.00   -0.39752   0.87719    0.000
 5697.00    0.09653   0.87668    0.952
 5698.00    0.47052   0.87627    0.938
 5699.00    0.71820   0.87622    0.946
 5700.00    1.00610   0.87620    0.956
 5701.00    1.24857   0.87582    0.942
 5702.00    1.29010   0.87538    0.906
 5703.00    1.20472   0.87509    0.885
 5704.00    1.12899   0.87467    0.902
 5705.00    1.03747   0.87417    0.918
 5706.00    0.88937   0.87352    0.894
 5707.00    0.79098   0.87309    0.864
 5708.00    0.82736   0.87322    0.865
 5709.00    0.90826   0.87329    0.897
 5710.00    0.93992   0.87330    0.938
 5711.00    0.96150   0.87312    0.951
 5712.00    0.98383   0.87287    0.931
 5713.00    0.89299   0.87247    0.920
 5714.00    0.68973   0.87221    0.941
 5715.00    0.60328   0.87198    0.968
 5716.00    0.75113   0.87170    0.982
 5717.00    0.96848   0.87100    1.004
 5718.00    1.05352   0.86994    1.036
 5719.00    0.93672   0.86943    1.030
 5720.00    0.80786   0.86968    0.983
 5721.00    1.04825   0.87042    0.953
 5722.00    1.68323   0.87018    0.955
 5723.00    2.28733   0.86973    0.952
 5724.00    2.56861   0.86947    0.925
 5725.00    2.52660   0.86924    0.892
 5726.00    2.17126   0.86899    0.867
 5727.00    1.48611   0.86858    0.849
 5728.00    0.63408   0.86831    0.842
 5729.00   -0.05302   0.86809    0.000
 5730.00   -0.29216   0.86789    0.000
 5731.00    0.00207   0.86790    0.862
 5732.00    0.51792   0.86811    0.854
 5733.00    0.79050   0.86793    0.852
 5734.00    0.84686   0.86610    0.859
 5735.00    1.02637   0.86330    0.863
 5736.00    1.32897   0.86221    0.862
 5737.00    1.50407   0.86308    0.862
 5738.00    1.45469   0.86485    0.869
 5739.00    1.27983   0.86488    0.886
 5740.00    1.20823   0.86498    0.000
 5741.00    1.35323   0.86480    0.000
 5742.00    1.40104   0.86435    0.000
 5743.00    1.04794   0.86386    0.000
 5744.00    0.59888   0.86344    0.000
 5745.00    0.52891   0.86338   -2.000
 5746.00    0.88020   0.86337   -2.000
 5747.00    1.31548   0.86314   -2.000
 5748.00    1.28997   0.86269   -2.000
 5749.00    0.49763   0.86224   -2.000
 5750.00   -0.75851   0.86193   -2.000
 5751.00   -1.94393   0.86154   -2.000
 5752.00   -2.65236   0.86146   -2.000
 5753.00   -2.65045   0.86126   -2.000
 5754.00   -1.91374   0.86105   -2.000
 5755.00   -0.78052   0.86097   -2.000
 5756.00    0.04580   0.86055   -2.000
 5757.00    0.14396   0.86006   -2.000
 5758.00   -0.28519   0.85960   -2.000
 5759.00   -0.80993   0.85932   -2.000
 5760.00   -1.05148   0.85912   -2.000
 5761.00   -0.93003   0.85906   -2.000
 5762.00   -0.68967   0.85886   -2.000
 5763.00   -0.48137   0.85859   -2.000
 5764.00   -0.23602   0.85816    0.000
 5765.00    0.07621   0.85792    0.000
 5766.00    0.35818   0.85783    0.000
 5767.00    0.46361   0.85744    0.000
 5768.00    0.28477   0.85716    0.000
 5769.00   -0.07001   0.85689    0.000
 5770.00   -0.30887   0.85642    0.000
 5771.00   -0.21338   0.85596    0.000
 5772.00    0.22060   0.85568    0.000
 5773.00    0.63153   0.85547    0.000
 5774.00    0.53288   0.85534    0.000
 5775.00   -0.06199   0.85473    0.000
 5776.00   -0.74787   0.85419    0.000
 5777.00   -1.24899   0.85376    0.000
 5778.00   -1.46496   0.85363    0.000
 5779.00   -1.35201   0.85320    0.000
 5780.00   -0.93381   0.85276    0.000
 5781.00   -0.35292   0.85267    0.000
 5782.00    0.19232   0.85249    0.000
 5783.00    0.55539   0.85247    0.000
 5784.00    0.67472   0.85241    0.000
 5785.00    0.59216   0.85201    0.000
 5786.00    0.39400   0.85169    0.000
 5787.00    0.13836   0.85125    0.000
 5788.00   -0.13212   0.85100    0.000
 5789.00   -0.36883   0.85094    0.000
 5790.00   -0.53106   0.85072    0.000
 5791.00   -0.60237   0.85047    0.000
 5792.00   -0.59659   0.85019    0.000
 5793.00   -0.54801   0.84979    0.000
 5794.00   -0.39897   0.84951    0.000
 5795.00    0.04186   0.84689    0.000
 5796.00    0.76174   0.83759    0.000
 5797.00    1.38255   0.82996    0.000
 5798.00    1.68302   0.83141    0.000
 5799.00    1.85097   0.84107    0.000
 5800.00    1.97206   0.84710    0.000
 5801.00    1.82323   0.84773    0.000
 5802.00    1.36283   0.84763    0.000
 5803.00    0.88461   0.84722    0.000
 5804.00    0.54159   0.84701    0.000
 5805.00    0.20956   0.84664    0.000
 5806.00   -0.15360   0.84272    0.000
 5807.00   -0.40128   0.83493    0.000
 5808.00   -0.36808   0.83136    0.000
 5809.00    0.02927   0.83457    0.000
 5810.00    0.68241   0.84251    0.000
 5811.00    1.28885   0.84494    0.000
 5812.00    1.45404   0.84507    0.000
 5813.00    0.93175   0.84466    0.000
 5814.00    0.14526   0.84433    0.000
 5815.00   -0.12675   0.84388    0.000
 5816.00    0.21315   0.84363    0.000
 5817.00    0.66469   0.84359    0.000
 5818.00    0.82821   0.84355    0.000
 5819.00    0.58889   0.84337    0.000
 5820.00    0.16526   0.84392    0.000
 5821.00   -0.11242   0.84732    0.000
 5822.00   -0.18146   0.85051    0.000
 5823.00   -0.15302   0.84965    0.000
 5824.00   -0.07487   0.84529    0.000
 5825.00    0.05063   0.84211    0.000
 5826.00    0.19753   0.84127    0.000
 5827.00    0.37563   0.84101    0.000
 5828.00    0.69928   0.84098    0.000
 5829.00    1.20004   0.84094    0.000
 5830.00    1.63831   0.84070    0.000
 5831.00    1.79514   0.84036    0.000
 5832.00    1.75664   0.83972    0.000
 5833.00    1.67773   0.83943    0.000
 5834.00    1.56442   0.83931    0.000
 5835.00    1.41513   0.83889    0.000
 5836.00    1.32456   0.83859    0.000
 5837.00    1.30665   0.83833    0.000
 5838.00    1.20683   0.83806    0.000
 5839.00    1.00249   0.83775    0.000
 5840.00    0.94064   0.83730    0.000
 5841.00    1.17584   0.83700    0.000
 5842.00    1.58555   0.83673    0.000
 5843.00    1.94300   0.83642    0.000
 5844.00    2.05205   0.83600    0.000
 5845.00    1.91887   0.83593    0.000
 5846.00    1.76562   0.83584    0.000
 5847.00    1.76213   0.83537    0.000
 5848.00    1.91807   0.83484    0.000
 5849.00    2.11452   0.83431    0.000
 5850.00    2.16840   0.83390    0.000
 5851.00    1.99658   0.83398    0.000
 5852.00    1.65063   0.83381    0.000
 5853.00    1.25160   0.83373    0.000
 5854.00    0.92797   0.83349    0.000
 5855.00    0.70959   0.83317    0.000
 5856.00    0.56129   0.83275    0.000
 5857.00    0.52713   0.83264    0.000
 5858.00    0.65856   0.83239    0.000
 5859.00    0.79396   0.83212    0.000
 5860.00    0.68180   0.83180    0.000
 5861.00    0.30468   0.83134    0.000
 5862.00   -0.11019   0.83099    0.000
 5863.00   -0.19620   0.83048    0.000
 5864.00    0.26377   0.82999    0.000
 5865.00    0.94591   0.82964    0.000
 5866.00    1.34975   0.82917    0.000
 5867.00    1.37666   0.82842    0.000
 5868.00    1.22822   0.82592    0.000
 5869.00    1.16609   0.81618    0.000
 5870.00    1.31094   0.77230    0.000
 5871.00    1.47539   0.72140    0.000
 5872.00    1.45091   0.71413    0.000
 5873.00    1.29746   0.75477    0.000
 5874.00    1.16704   0.80718    0.000
 5875.00    1.12196   0.82261    0.000
 5876.00    1.16380   0.82535    0.000
 5877.00    1.26634   0.82557    0.000
 5878.00    1.35392   0.82555    0.000
 5879.00    1.30342   0.82553    0.000
 5880.00    1.07480   0.82547    0.000
 5881.00    0.77710   0.82522    0.000
 5882.00    0.54416   0.82498    0.000
 5883.00    0.45000   0.82470    0.000
 5884.00    0.47013   0.82327    0.000
 5885.00    0.48305   0.82089    0.000
 5886.00    0.36486   0.81940    0.000
 5887.00    0.06335   0.82017    0.000
 5888.00   -0.28886   0.82222    0.000
 5889.00   -0.41015   0.82364    0.000
 5890.00   -0.17999   0.82370    0.000
 5891.00    0.27418   0.82229    0.000
 5892.00    0.69566   0.82096    0.000
 5893.00    0.83138   0.82087    0.000
 5894.00    0.69446   0.82123    0.000
 5895.00    0.52762   0.82131    0.000
 5896.00    0.48754   0.82148    0.000
 5897.00    0.58702   0.82144    0.000
 5898.00    0.77233   0.82113    0.000
 5899.00    0.95675   0.82070    0.000
 5900.00    1.05110   0.82067    0.000
 5901.00    1.00886   0.82069    1.055
 5902.00    0.89809   0.82013    1.060
 5903.00    0.87387   0.81998    1.030
 5904.00    1.09874   0.81972    0.989
 5905.00    1.59635   0.81948    0.977
 5906.00    2.06138   0.81938    0.994
 5907.00    2.12445   0.81911    1.016
 5908.00    1.75873   0.81882    1.032
 5909.00    1.17452   0.81843    1.038
 5910.00    0.61080   0.81776    1.039
 5911.00    0.28968   0.81747    1.040
 5912.00    0.37985   0.81747    1.050
 5913.00    0.83721   0.81753    1.074
 5914.00    1.28415   0.81705    1.104
 5915.00    1.39925   0.81660    1.125
 5916.00    1.25829   0.81652    1.129
 5917.00    1.06271   0.81649    1.125
 5918.00    0.89551   0.81636    1.144
 5919.00    0.77204   0.81596    1.182
 5920.00    0.69355   0.81577    1.165
 5921.00    0.66069   0.81532    1.076
 5922.00    0.67723   0.81500    1.006
 5923.00    0.73022   0.81465    0.994
 5924.00    0.78702   0.81422    1.015
 5925.00    0.84457   0.81403    1.030
 5926.00    0.94396   0.81352    1.008
 5927.00    1.11052   0.81301    0.976
 5928.00    1.31415   0.81279    0.992
 5929.00    1.42974   0.81292    1.062
 5930.00    1.27461   0.81287    1.115
 5931.00    0.81199   0.81265    1.108
 5932.00    0.20417   0.81254    1.087
 5933.00   -0.28428   0.81232    0.000
 5934.00   -0.39257   0.81211    0.000
 5935.00   -0.07378   0.81140    0.000
 5936.00    0.48668   0.81065    1.033
 5937.00    1.00600   0.80962    1.007
 5938.00    1.23812   0.80957    1.015
 5939.00    1.19892   0.80992    1.042
 5940.00    1.08712   0.80988    1.054
 5941.00    0.98763   0.80961    1.061
 5942.00    0.88003   0.80936    1.101
 5943.00    0.78736   0.80925    1.142
 5944.00    0.74295   0.80897    1.124
 5945.00    0.68184   0.80872    1.097
 5946.00    0.51840   0.80856    1.139
 5947.00    0.29654   0.80809    1.221
 5948.00    0.11957   0.80787    1.244
 5949.00    0.01777   0.80795    1.203
 5950.00   -0.01643   0.80769    0.000
 5951.00    0.03958   0.80722    1.157
 5952.00    0.21726   0.80618    1.183
 5953.00    0.51659   0.80524    1.196
 5954.00    0.84057   0.80514    1.164
 5955.00    0.95434   0.80595    1.123
 5956.00    0.71969   0.80628    1.108
 5957.00    0.29262   0.80586    1.102
 5958.00   -0.12251   0.80553    0.000
 5959.00   -0.48003   0.80528    0.000
 5960.00   -0.76256   0.80516    0.000
 5961.00   -0.87178   0.80488    0.000
 5962.00   -0.64554   0.80457    0.000
 5963.00    0.07387   0.80432    0.961
 5964.00    1.12501   0.80420    0.918
 5965.00    1.93981   0.80397    0.891
 5966.00    2.11907   0.80386    0.886
 5967.00    1.72227   0.80357    0.898
 5968.00    1.08965   0.80320    0.911
 5969.00    0.66139   0.80271    0.912
 5970.00    0.61632   0.80237    0.907
 5971.00    0.78241   0.80200    0.924
 5972.00    0.91484   0.80139    0.972
 5973.00    0.84887   0.80032    1.035
 5974.00    0.62639   0.79877    1.079
 5975.00    0.46168   0.79830    1.085
 5976.00    0.49815   0.79889    1.073
 5977.00    0.71788   0.79990    1.089
 5978.00    0.91769   0.80005    1.127
 5979.00    0.84905   0.79954    1.142
 5980.00    0.57457   0.79907    1.137
 5981.00    0.38889   0.79904    1.156
 5982.00    0.43569   0.79913    1.185
 5983.00    0.66067   0.79874    1.175
 5984.00    0.90171   0.79805    1.139
 5985.00    0.99409   0.79775    1.124
 5986.00    0.92143   0.79775    1.128
 5987.00    0.75704   0.79789    1.123
 5988.00    0.52642   0.79781    1.108
 5989.00    0.25255   0.79758    1.094
 5990.00    0.04867   0.79746    1.081
 5991.00    0.02780   0.79716    1.060
 5992.00    0.17232   0.79685    1.037
 5993.00    0.41607   0.79653    1.022
 5994.00    0.75517   0.79627    1.024
 5995.00    1.17837   0.79608    1.035
 5996.00    1.58360   0.79560    1.020
 5997.00    1.81968   0.79526    0.978
 5998.00    1.74951   0.79494    0.972
 5999.00    1.38704   0.79468    1.035
 6000.00    0.97993   0.79456    1.099
 6001.00    0.75800   0.79426    1.088
 6002.00    0.74057   0.79394    1.052
 6003.00    0.79979   0.79362    1.052
 6004.00    0.75132   0.79330    1.090
 6005.00    0.58640   0.79304    1.135
 6006.00    0.54070   0.79297    1.144
 6007.00    0.67924   0.79287    1.109
 6008.00    0.73738   0.79257    1.069
 6009.00    0.51645   0.79224    1.056
 6010.00    0.08229   0.79192    1.071
 6011.00   -0.27662   0.79173    0.000
 6012.00   -0.20155   0.79179    0.000
 6013.00    0.23482   0.79151    1.058
 6014.00    0.52556   0.79118    1.037
 6015.00    0.44097   0.79086    1.038
 6016.00    0.18644   0.79054    1.039
 6017.00    0.05940   0.79028    1.038
 6018.00    0.26602   0.79014    1.052
 6019.00    0.73846   0.78984    1.072
 6020.00    1.19476   0.78951    1.072
 6021.00    1.42628   0.78925    1.061
 6022.00    1.38931   0.78912    1.068
 6023.00    1.23224   0.78881    1.068
 6024.00    1.16425   0.78849    1.022
 6025.00    1.18152   0.78816    0.979
 6026.00    1.16776   0.78790    1.004
 6027.00    1.17810   0.78783    1.066
 6028.00    1.31798   0.78778    1.081
 6029.00    1.46484   0.78766    1.064
 6030.00    1.43409   0.78722    1.085
 6031.00    1.28545   0.78645    1.147
 6032.00    1.19219   0.78596    1.208
 6033.00    1.20694   0.78580    1.230
 6034.00    1.27490   0.78556    1.211
 6035.00    1.29349   0.78542    1.189
 6036.00    1.19608   0.78511    1.197
 6037.00    1.03143   0.78478    1.222
 6038.00    0.92383   0.78452    1.240
 6039.00    1.01060   0.78444    1.247
 6040.00    1.29670   0.78432    1.244
 6041.00    1.56328   0.78408    1.224
 6042.00    1.62903   0.78394    1.191
 6043.00    1.53938   0.78369    1.170
 6044.00    1.39114   0.78355    1.165
 6045.00    1.21388   0.78331    1.141
 6046.00    1.07289   0.78323    1.099
 6047.00    1.11102   0.78311    1.090
 6048.00    1.38461   0.78280    1.119
 6049.00    1.77765   0.78239    1.111
 6050.00    2.05780   0.78187    1.059
 6051.00    1.96877   0.78159    1.043
 6052.00    1.50019   0.78144    1.080
 6053.00    0.92983   0.78120    1.091
 6054.00    0.49064   0.78112    1.051
 6055.00    0.25422   0.78100    1.023
 6056.00    0.22228   0.78068    1.036
 6057.00    0.35411   0.78042    1.074
 6058.00    0.54005   0.78020    1.116
 6059.00    0.64835   0.77969    1.156
 6060.00    0.68322   0.77934    1.185
 6061.00    0.75610   0.77900    1.201
 6062.00    0.88992   0.77859    1.206
 6063.00    1.01936   0.77814    1.210
 6064.00    1.11478   0.77797    1.206
 6065.00    1.19778   0.77758    1.189
 6066.00    1.30844   0.77706    1.181
 6067.00    1.45452   0.77670    1.206
 6068.00    1.53514   0.77636    1.247
 6069.00    1.44274   0.77609    1.262
 6070.00    1.25256   0.77602    1.251
 6071.00    1.12349   0.77596    1.242
 6072.00    1.10103   0.77597    1.234
 6073.00    1.13440   0.77595    1.216
 6074.00    1.14430   0.77546    1.188
 6075.00    1.07706   0.77510    1.165
 6076.00    0.95801   0.77483    1.164
 6077.00    0.86881   0.77475    1.184
 6078.00    0.90535   0.77462    1.182
 6079.00    1.06642   0.77437    1.133
 6080.00    1.16824   0.77429    1.084
 6081.00    1.04404   0.77415    1.074
 6082.00    0.72503   0.77390    1.102
 6083.00    0.39631   0.77375    1.137
 6084.00    0.31879   0.77350    1.128
 6085.00    0.60151   0.77342    1.058
 6086.00    1.06738   0.77320    0.968
 6087.00    1.43623   0.77277    0.899
 6088.00    1.48147   0.77259    0.873
 6089.00    1.20713   0.77234    0.889
 6090.00    0.88013   0.77226    0.927
 6091.00    0.68349   0.77212    0.971
 6092.00    0.57314   0.77195    1.023
 6093.00    0.47323   0.77205    1.085
 6094.00    0.37005   0.77200    1.159
 6095.00    0.30018   0.77186    1.229
 6096.00    0.33298   0.77123    1.261
 6097.00    0.53015   0.77013    1.251
 6098.00    0.90016   0.76972    1.234
 6099.00    1.30314   0.76945    1.231
 6100.00    1.50165   0.76944    1.234
 6101.00    1.40230   0.76948    1.239
 6102.00    1.09054   0.76917    1.245
 6103.00    0.72359   0.76874    1.247
 6104.00    0.47220   0.76829    1.232
 6105.00    0.45472   0.76811    1.187
 6106.00    0.70980   0.76778    1.107
 6107.00    1.17402   0.76743    1.017
 6108.00    1.68917   0.76700    0.944
 6109.00    2.02886   0.76638    0.900
 6110.00    1.98359   0.76583    0.893
 6111.00    1.49805   0.76546    0.931
 6112.00    0.71321   0.76503    1.019
 6113.00   -0.02027   0.76458    0.000
 6114.00   -0.38295   0.76455    0.000
 6115.00   -0.40915   0.76459    0.000
 6116.00   -0.29767   0.76435    0.000
 6117.00   -0.12806   0.76418    0.000
 6118.00    0.05197   0.76393    1.151
 6119.00    0.10427   0.76384    1.183
 6120.00   -0.04046   0.76385    0.000
 6121.00   -0.22750   0.76397    0.000
 6122.00   -0.26581   0.76383    0.000
 6123.00   -0.11074   0.76350    0.000
 6124.00    0.15214   0.76323    1.318
 6125.00    0.35235   0.76314    1.316
 6126.00    0.38398   0.76307    1.325
 6127.00    0.29285   0.76300    1.311
 6128.00    0.13327   0.76284    1.269
 6129.00   -0.10510   0.76250    0.000
 6130.00   -0.34259   0.76215    0.000
 6131.00   -0.37000   0.76179    0.000
 6132.00   -0.14021   0.76135    0.000
 6133.00    0.14245   0.76081    1.245
 6134.00    0.34734   0.76069    1.235
 6135.00    0.53139   0.76097    1.142
 6136.00    0.74389   0.76085    1.015
 6137.00    0.95112   0.76034    0.967
 6138.00    1.08212   0.75970    1.000
 6139.00    1.05920   0.75957    1.036
 6140.00    0.83642   0.75950    1.049
 6141.00    0.44075   0.75943    1.099
 6142.00    0.05163   0.75927    1.201
 6143.00   -0.08197   0.75884    0.000
 6144.00    0.07431   0.75821    1.307
 6145.00    0.35155   0.75765    1.269
 6146.00    0.59727   0.75728   -2.000
 6147.00    0.72448   0.75709   -2.000
 6148.00    0.69601   0.75718   -2.000
 6149.00    0.51196   0.75712   -2.000
 6150.00    0.19473   0.75687   -2.000
 6151.00   -0.16060   0.75634   -2.000
 6152.00   -0.30440   0.75579   -2.000
 6153.00   -0.04237   0.75515   -2.000
 6154.00    0.42695   0.75503   -2.000
 6155.00    0.72667   0.75504   -2.000
 6156.00    0.68016   0.75506   -2.000
 6157.00    0.34530   0.75464   -2.000
 6158.00   -0.02477   0.75409    0.000
 6159.00   -0.18286   0.75371    0.000
 6160.00   -0.10624   0.75335    0.000
 6161.00    0.07041   0.75298    1.127
 6162.00    0.16236   0.75253    1.173
 6163.00    0.07344   0.75198    1.193
 6164.00   -0.09992   0.75143    0.000
 6165.00   -0.20349   0.75061    0.000
 6166.00   -0.14734   0.75030    0.000
 6167.00    0.07960   0.75064    1.274
 6168.00    0.41316   0.75078    1.228
 6169.00    0.76777   0.75071    1.177
 6170.00    1.06639   0.75063    1.156
 6171.00    1.20098   0.75055    1.173
 6172.00    1.04782   0.75056    1.200
 6173.00    0.68214   0.75067    1.223
 6174.00    0.41790   0.75060    1.250
 6175.00    0.43646   0.75043    1.278
 6176.00    0.64441   0.75017    1.268
 6177.00    0.85908   0.75016    1.215
 6178.00    0.91989   0.75017    1.153
 6179.00    0.78425   0.74992    1.106
 6180.00    0.53338   0.74974    1.079
 6181.00    0.26504   0.74938    1.089
 6182.00    0.04905   0.74920    1.160
 6183.00   -0.08862   0.74919    0.000
 6184.00   -0.13837   0.74885    0.000
 6185.00   -0.02180   0.74857    0.000
 6186.00    0.34463   0.74838    1.293
 6187.00    0.83808   0.74803    1.281
 6188.00    1.18685   0.74775    1.286
 6189.00    1.21610   0.74765    1.282
 6190.00    0.91956   0.74757    1.246
 6191.00    0.48287   0.74739    1.217
 6192.00    0.16171   0.74704    1.243
 6193.00    0.05951   0.74675    1.290
 6194.00    0.13539   0.74638    1.281
 6195.00    0.28427   0.74566    1.230
 6196.00    0.39473   0.74545    1.193
 6197.00    0.41402   0.74562    1.185
 6198.00    0.36467   0.74564    1.198
 6199.00    0.34532   0.74539    1.234
 6200.00    0.41502   0.74538    1.290
 6201.00    0.47089   0.74539    1.341
 6202.00    0.39114   0.74504    1.351
 6203.00    0.19360   0.74466    1.307
 6204.00   -0.02283   0.74429    0.000
 6205.00   -0.15358   0.74401    0.000
 6206.00   -0.13777   0.74391    0.000
 6207.00    0.00981   0.74373    1.233
 6208.00    0.23551   0.74336    1.268
 6209.00    0.47405   0.74299    1.250
 6210.00    0.62888   0.74261    1.181
 6211.00    0.58694   0.74233    1.118
 6212.00    0.39916   0.74223    1.084
 6213.00    0.32211   0.74205    1.055
 6214.00    0.43528   0.74178    1.035
 6215.00    0.50635   0.74158    1.065
 6216.00    0.38720   0.74122    1.156
 6217.00    0.17317   0.74094    1.249
 6218.00    0.01143   0.74064    1.291
 6219.00   -0.00639   0.74009    0.000
 6220.00    0.09122   0.73961    1.323
 6221.00    0.18383   0.73914    1.329
 6222.00    0.24156   0.73893    1.331
 6223.00    0.34034   0.73856    1.350
 6224.00    0.50318   0.73808    1.377
 6225.00    0.66891   0.73742    1.376
 6226.00    0.75217   0.73655    1.350
 6227.00    0.68953   0.73562    1.336
 6228.00    0.50836   0.73510    1.351
 6229.00    0.31389   0.73474    1.388
 6230.00    0.21913   0.73490    1.417
 6231.00    0.29641   0.73510    1.409
 6232.00    0.51508   0.73520    1.364
 6233.00    0.76581   0.73502    1.306
 6234.00    0.93034   0.73465    1.250
 6235.00    0.94615   0.73438    1.208
 6236.00    0.88488   0.73447    1.201
 6237.00    0.86606   0.73484    1.238
 6238.00    0.91291   0.73495    1.279
 6239.00    0.95735   0.73487    1.271
 6240.00    0.88167   0.73478    1.244
 6241.00    0.62401   0.73469    1.247
 6242.00    0.28705   0.73439    1.276
 6243.00    0.02207   0.73394    1.304
 6244.00   -0.10528   0.73393    0.000
 6245.00   -0.08827   0.73412    0.000
 6246.00    0.05906   0.73411    1.379
 6247.00    0.29803   0.73365    1.380
 6248.00    0.56359   0.73319    1.356
 6249.00    0.79948   0.73307    1.326
 6250.00    0.98161   0.73298    1.329
 6251.00    1.08730   0.73288    1.379
 6252.00    1.08418   0.73279    1.437
 6253.00    1.00249   0.73259    1.464
 6254.00    0.95446   0.73221    1.473
 6255.00    0.98434   0.73193    1.483
 6256.00    1.01495   0.73183    1.490
 6257.00    1.00983   0.73173    1.481
 6258.00    1.03033   0.73153    1.446
 6259.00    1.11333   0.73126    1.395
 6260.00    1.22384   0.73105    1.348
 6261.00    1.29614   0.73067    1.318
 6262.00    1.26725   0.73028    1.311
 6263.00    1.13127   0.73000    1.323
 6264.00    0.95281   0.72989    1.339
 6265.00    0.84479   0.72969    1.336
 6266.00    0.90891   0.72941    1.292
 6267.00    1.09186   0.72920    1.246
 6268.00    1.21978   0.72903    1.252
 6269.00    1.19346   0.72910    1.297
 6270.00    1.02893   0.72902    1.319
 6271.00    0.82850   0.72881    1.317
 6272.00    0.73209   0.72843    1.335
 6273.00    0.83214   0.72804    1.369
 6274.00    1.14091   0.72765    1.379
 6275.00    1.56584   0.72736    1.372
 6276.00    1.94176   0.72725    1.385
 6277.00    2.09485   0.72705    1.411
 6278.00    1.90415   0.72677    1.427
 6279.00    1.37734   0.72655    1.452
 6280.00    0.66189   0.72617    0.000
 6281.00    0.03478   0.72578    0.000
 6282.00   -0.24143   0.72549    0.000
 6283.00   -0.09195   0.72538    0.000
 6284.00    0.34800   0.72528    0.000
 6285.00    0.75375   0.72507    0.000
 6286.00    0.85414   0.72480    0.000
 6287.00    0.65624   0.72469    0.000
 6288.00    0.33753   0.72448    0.000
 6289.00    0.11891   0.72420    0.000
 6290.00    0.14779   0.72398    0.000
 6291.00    0.41928   0.72371    0.000
 6292.00    0.82426   0.72348    0.000
 6293.00    1.20271   0.72310    0.000
 6294.00    1.43961   0.72270    0.000
 6295.00    1.51459   0.72230    0.000
 6296.00    1.44243   0.72190    0.000
 6297.00    1.24355   0.72139    0.000
 6298.00    0.97745   0.72082    0.000
 6299.00    0.75038   0.72040    0.000
 6300.00    0.66789   0.71989    0.000
 6301.00    0.77890   0.71920    0.000
 6302.00    0.94519   0.71851    0.000
 6303.00    0.89398   0.71792    0.000
 6304.00    0.59823   0.71740    0.000
 6305.00    0.30887   0.71682    0.000
 6306.00    0.19559   0.71641    0.000
 6307.00    0.24706   0.71613    0.000
 6308.00    0.34135   0.71601    0.000
 6309.00    0.32535   0.71603    0.000
 6310.00    0.16023   0.71633    0.000
 6311.00   -0.07067   0.71669    0.000
 6312.00   -0.23688   0.71690    0.000
 6313.00   -0.22230   0.71698    0.000
 6314.00   -0.01310   0.71700    0.000
 6315.00    0.31160   0.71718    0.000
 6316.00    0.63451   0.71737    0.000
 6317.00    0.84667   0.71733    0.000
 6318.00    0.90769   0.71707    0.000
 6319.00    0.85660   0.71695    0.000
 6320.00    0.80648   0.71685    0.000
 6321.00    0.84077   0.71674    1.321
 6322.00    0.88257   0.71664    1.351
 6323.00    0.82363   0.71641    1.357
 6324.00    0.69757   0.71614    1.378
 6325.00    0.60079   0.71602    1.436
 6326.00    0.58116   0.71580    1.500
 6327.00    0.62388   0.71540    1.524
 6328.00    0.65653   0.71500    1.515
 6329.00    0.62136   0.71471    1.515
 6330.00    0.53320   0.71459    1.560
 6331.00    0.42342   0.71437    1.640
 6332.00    0.29572   0.71409    1.667
 6333.00    0.16259   0.71397    1.599
 6334.00    0.06731   0.71386    1.538
 6335.00    0.03946   0.71364    1.523
 6336.00    0.06651   0.71336    1.479
 6337.00    0.10510   0.71324    1.405
 6338.00    0.10120   0.71313    1.399
 6339.00    0.05442   0.71290    1.461
 6340.00    0.03214   0.71210    1.439
 6341.00    0.07939   0.70950    1.292
 6342.00    0.17740   0.70610    1.157
 6343.00    0.25336   0.70522    1.078
 6344.00    0.21113   0.70715    1.029
 6345.00    0.02493   0.70999    1.009
 6346.00   -0.22958   0.71101    0.000
 6347.00   -0.39335   0.71095    0.000
 6348.00   -0.31653   0.71085    0.000
 6349.00   -0.10504   0.71073    0.000
 6350.00   -0.04291   0.71050    0.000
 6351.00   -0.19160   0.71010    0.000
 6352.00   -0.38103   0.70969    0.000
 6353.00   -0.45303   0.70940    0.000
 6354.00   -0.33250   0.70928    0.000
 6355.00   -0.04688   0.70905    0.000
 6356.00    0.31148   0.70876    1.507
 6357.00    0.66427   0.70852    1.479
 6358.00    0.94568   0.70837    1.462
 6359.00    1.07471   0.70829    1.455
 6360.00    0.98952   0.70802    1.448
 6361.00    0.70818   0.70777    1.447
 6362.00    0.34033   0.70737    1.453
 6363.00    0.08036   0.70708    1.446
 6364.00    0.06002   0.70681    1.410
 6365.00    0.17975   0.70539    1.361
 6366.00    0.28784   0.70302    1.321
 6367.00    0.39420   0.70198    1.293
 6368.00    0.54973   0.70287    1.275
 6369.00    0.70939   0.70481    1.277
 6370.00    0.81468   0.70579    1.305
 6371.00    0.87556   0.70558    1.350
 6372.00    0.92560   0.70545    1.396
 6373.00    0.97842   0.70520    1.434
 6374.00    1.01890   0.70441    1.441
 6375.00    1.00279   0.70337    1.376
 6376.00    0.88230   0.70276    1.270
 6377.00    0.63581   0.70260    1.210
 6378.00    0.34141   0.70290    1.219
 6379.00    0.17607   0.70325    1.250
 6380.00    0.18541   0.70319    1.278
 6381.00    0.20897   0.70292    1.338
 6382.00    0.11635   0.70279    1.437
 6383.00   -0.08683   0.70268    0.000
 6384.00   -0.30698   0.70256    0.000
 6385.00   -0.41588   0.70245    0.000
 6386.00   -0.36328   0.70233    0.000
 6387.00   -0.19790   0.70195    0.000
 6388.00    0.00915   0.70138    1.273
 6389.00    0.19888   0.70095    1.236
 6390.00    0.34485   0.70053    1.241
 6391.00    0.44645   0.70024    1.269
 6392.00    0.49471   0.69998    1.306
 6393.00    0.48501   0.69957    1.339
 6394.00    0.46932   0.69914    1.332
 6395.00    0.52148   0.69845    1.261
 6396.00    0.63525   0.69743    1.168
 6397.00    0.73123   0.69640    1.108
 6398.00    0.71720   0.69537    1.088
 6399.00    0.54386   0.69460    1.103
 6400.00    0.27809   0.69416    1.169
 6401.00    0.06298   0.69360    1.301
 6402.00    0.03101   0.69315    1.448
 6403.00    0.23446   0.69315    1.483
 6404.00    0.57225   0.69348    1.375
 6405.00    0.86867   0.69422    1.225
 6406.00    0.98897   0.69491    1.127
 6407.00    0.87167   0.69512    1.109
 6408.00    0.54745   0.69530    1.146
 6409.00    0.11884   0.69549    1.202
 6410.00   -0.26881   0.69567    0.000
 6411.00   -0.48616   0.69572    0.000
 6412.00   -0.47349   0.69561    0.000
 6413.00   -0.25305   0.69549    0.000
 6414.00    0.07652   0.69537    1.253
 6415.00    0.43423   0.69525    1.262
 6416.00    0.81175   0.69500    1.307
 6417.00    1.16527   0.69485    1.356
 6418.00    1.36021   0.69502    1.348
 6419.00    1.29681   0.69507    1.277
 6420.00    0.98759   0.69482    1.214
 6421.00    0.54742   0.69454    1.196
 6422.00    0.16135   0.69441    1.210
 6423.00   -0.03199   0.69428    0.000
 6424.00    0.00540   0.69402    1.299
 6425.00    0.22598   0.69361    1.364
 6426.00    0.52670   0.69331    1.403
 6427.00    0.83286   0.69305    1.400
 6428.00    1.11598   0.69277    1.381
 6429.00    1.34050   0.69264    1.375
 6430.00    1.44802   0.69265    1.399
 6431.00    1.36924   0.69269    1.442
 6432.00    1.07151   0.69243    1.471
 6433.00    0.67440   0.69201    1.469
 6434.00    0.39146   0.69158    1.448
 6435.00    0.30886   0.69129    1.436
 6436.00    0.38376   0.69116    1.450
 6437.00    0.56631   0.69104    1.445
 6438.00    0.80265   0.69092    1.366
 6439.00    0.98786   0.69079    1.282
 6440.00    1.03053   0.69066    1.277
 6441.00    0.98044   0.69040    1.338
 6442.00    0.95991   0.68998    1.401
 6443.00    1.01729   0.68982    1.441
 6444.00    1.12275   0.68971    1.467
 6445.00    1.19894   0.68915    1.455
 6446.00    1.15979   0.68870    1.396
 6447.00    0.95801   0.68870    1.350
 6448.00    0.62529   0.68860    1.364
 6449.00    0.30424   0.68831    1.421
 6450.00    0.15562   0.68775    1.473
 6451.00    0.25235   0.68686    1.505
 6452.00    0.53054   0.68641    1.525
 6453.00    0.77354   0.68657    1.553
 6454.00    0.79900   0.68732    1.588
 6455.00    0.61107   0.68784    1.590
 6456.00    0.33104   0.68744    1.544
 6457.00    0.12190   0.68671    1.492
 6458.00    0.09648   0.68598    1.464
 6459.00    0.26228   0.68581    1.445
 6460.00    0.55445   0.68598    1.431
 6461.00    0.87000   0.68572    1.441
 6462.00    1.13060   0.68529    1.461
 6463.00    1.30053   0.68500    1.434
 6464.00    1.30664   0.68487    1.382
 6465.00    1.05017   0.68474    1.412
 6466.00    0.63307   0.68461    1.534
 6467.00    0.36483   0.68448    1.600
 6468.00    0.39259   0.68421    1.540
 6469.00    0.59029   0.68378    1.479
 6470.00    0.70355   0.68349    1.479
 6471.00    0.49552   0.68335    1.515
 6472.00    0.02390   0.68322    1.565
 6473.00   -0.39086   0.68294    0.000
 6474.00   -0.50471   0.68265    0.000
 6475.00   -0.26768   0.68237    0.000
 6476.00    0.13857   0.68193    1.441
 6477.00    0.42188   0.68135    1.451
 6478.00    0.46892   0.68091    1.514
 6479.00    0.35775   0.68106    1.500
 6480.00    0.24347   0.68124    1.439
 6481.00    0.27884   0.68112    1.436
 6482.00    0.51437   0.68099    1.469
 6483.00    0.87323   0.68086    1.454
 6484.00    1.14910   0.68072    1.415
 6485.00    1.15934   0.68030    1.418
 6486.00    0.96204   0.67985    1.461
 6487.00    0.75316   0.67956    1.507
 6488.00    0.68334   0.67912    1.547
 6489.00    0.77381   0.67867    1.584
 6490.00    0.85984   0.67808    1.604
 6491.00    0.77374   0.67764    1.596
 6492.00    0.53851   0.67750    1.587
 6493.00    0.27604   0.67752    1.601
 6494.00    0.09716   0.67754    1.629
 6495.00    0.07677   0.67757    1.648
 6496.00    0.23599   0.67758    1.649
 6497.00    0.50682   0.67731    1.637
 6498.00    0.72384   0.67702    1.631
 6499.00    0.75497   0.67687    1.623
 6500.00    0.59515   0.67643    1.575
 6501.00    0.37142   0.67583    1.489
 6502.00    0.30375   0.67524    1.427
 6503.00    0.48950   0.67495    1.415
 6504.00    0.81651   0.67496    1.432
 6505.00    1.14068   0.67498    1.440
 6506.00    1.36903   0.67484    1.405
 6507.00    1.41226   0.67441    1.350
 6508.00    1.19867   0.67411    1.333
 6509.00    0.81905   0.67381    1.372
 6510.00    0.51467   0.67336    1.431
 6511.00    0.42412   0.67276    1.474
 6512.00    0.51135   0.67215    1.490
 6513.00    0.64030   0.67155    1.498
 6514.00    0.66281   0.67094    1.534
 6515.00    0.59073   0.67048    1.598
 6516.00    0.56811   0.66987    1.646
 6517.00    0.67051   0.66910    1.635
 6518.00    0.84962   0.66801    1.571
 6519.00    0.93533   0.66662    1.530
 6520.00    0.76568   0.66507    1.585
 6521.00    0.44422   0.66368    1.662
 6522.00    0.22381   0.66276    1.613
 6523.00    0.19415   0.66247    1.501
 6524.00    0.29439   0.66281    1.459
 6525.00    0.43501   0.66360    1.475
 6526.00    0.55283   0.66424    1.476
 6527.00    0.65814   0.66458    1.439
 6528.00    0.77565   0.66475    0.000
 6529.00    0.86168   0.66478    0.000
 6530.00    0.88555   0.66479    0.000
 6531.00    0.92930   0.66465    0.000
 6532.00    1.04511   0.66418    0.000
 6533.00    1.10447   0.66343    0.000
 6534.00    0.98035   0.66282    0.000
 6535.00    0.73020   0.66234    0.000
 6536.00    0.49496   0.66139    0.000
 6537.00    0.38834   0.66017    0.000
 6538.00    0.44030   0.65922    0.000
 6539.00    0.57302   0.65810    0.000
 6540.00    0.70402   0.65621    0.000
 6541.00    0.80953   0.65402    0.000
 6542.00    0.84699   0.65198    0.000
 6543.00    0.72615   0.65024    0.000
 6544.00    0.44386   0.64831    0.000
 6545.00    0.13972   0.64560    0.000
 6546.00   -0.02470   0.64210    0.000
 6547.00    0.04760   0.63780    0.000
 6548.00    0.29352   0.63268    0.000
 6549.00    0.50941   0.62643    0.000
 6550.00    0.60320   0.61838    0.000
 6551.00    0.64764   0.60774    0.000
 6552.00    0.68748   0.59324    0.000
 6553.00    0.70644   0.57387    0.000
 6554.00    0.75849   0.55080    0.000
 6555.00    0.95324   0.52354    0.000
 6556.00    1.28579   0.49290    0.000
 6557.00    1.65055   0.46416    0.000
 6558.00    2.00997   0.44633    0.000
 6559.00    2.37009   0.45188    0.000
 6560.00    2.61963   0.48002    0.000
 6561.00    2.59519   0.51781    0.000
 6562.00    2.29626   0.55284    0.000
 6563.00    1.85541   0.57822    0.000
 6564.00    1.39382   0.59537    0.000
 6565.00    0.99328   0.60761    0.000
 6566.00    0.69794   0.61684    0.000
 6567.00    0.54568   0.62398    0.000
 6568.00    0.60930   0.62972    0.000
 6569.00    0.90553   0.63432    0.000
 6570.00    1.27199   0.63779    0.000
 6571.00    1.50637   0.63981    0.000
 6572.00    1.55224   0.64030    0.000
 6573.00    1.43215   0.64072    0.000
 6574.00    1.15413   0.64242    0.000
 6575.00    0.76537   0.64561    0.000
 6576.00    0.40397   0.64816    0.000
 6577.00    0.18647   0.64815    0.000
 6578.00    0.11330   0.64782    0.000
 6579.00    0.16035   0.64884    0.000
 6580.00    0.35027   0.65112    0.000
 6581.00    0.68475   0.65326    0.000
 6582.00    1.09108   0.65405    0.000
 6583.00    1.42207   0.65442    0.000
 6584.00    1.48862   0.65491    0.000
 6585.00    1.23546   0.65523    0.000
 6586.00    0.81191   0.65539    0.000
 6587.00    0.40261   0.65523    0.000
 6588.00    0.12885   0.65513    0.000
 6589.00    0.02154   0.65530    0.000
 6590.00    0.03067   0.65564    0.000
 6591.00    0.10957   0.65596    0.000
 6592.00    0.23754   0.65613    0.000
 6593.00    0.36915   0.65612    0.000
 6594.00    0.43186   0.65582    0.000
 6595.00    0.38334   0.65571    0.000
 6596.00    0.23036   0.65588    0.000
 6597.00    0.02512   0.65604    0.000
 6598.00   -0.14894   0.65604    0.000
 6599.00   -0.21153   0.65590    0.000
 6600.00   -0.11788   0.65575    0.000
 6601.00    0.08949   0.65561    0.000
 6602.00    0.32373   0.65546    0.000
 6603.00    0.56964   0.65531    0.000
 6604.00    0.84819   0.65515    0.000
 6605.00    1.10131   0.65484    0.000
 6606.00    1.21398   0.65456    0.000
 6607.00    1.09519   0.65458    0.000
 6608.00    0.76293   0.65457    0.000
 6609.00    0.44181   0.65442    1.600
 6610.00    0.37259   0.65428    1.571
 6611.00    0.53544   0.65431    1.537
 6612.00    0.76982   0.65448    1.528
 6613.00    0.97230   0.65446    1.528
 6614.00    1.10088   0.65415    1.514
 6615.00    1.15079   0.65386    1.495
 6616.00    1.13169   0.65371    1.486
 6617.00    1.04919   0.65356    1.480
 6618.00    0.92553   0.65341    1.467
 6619.00    0.81584   0.65326    1.457
 6620.00    0.77135   0.65311    1.464
 6621.00    0.80404   0.65295    1.497
 6622.00    0.85728   0.65263    1.546
 6623.00    0.81036   0.65235    1.574
 6624.00    0.64141   0.65236    1.570
 6625.00    0.50526   0.65218    1.578
 6626.00    0.54701   0.65206    1.623
 6627.00    0.78567   0.65187    1.672
 6628.00    1.11063   0.65158    1.688
 6629.00    1.32131   0.65125    1.676
 6630.00    1.30691   0.65097    1.658
 6631.00    1.11182   0.65099    1.657
 6632.00    0.84227   0.65098    1.657
 6633.00    0.60480   0.65099    1.618
 6634.00    0.43566   0.65063    1.568
 6635.00    0.30647   0.65021    1.578
 6636.00    0.23326   0.65005    1.624
 6637.00    0.27853   0.64989    1.596
 6638.00    0.44217   0.64974    1.513
 6639.00    0.65334   0.64960    1.490
 6640.00    0.84161   0.64961    1.535
 6641.00    0.95356   0.64942    1.579
 6642.00    0.94386   0.64914    1.589
 6643.00    0.79581   0.64898    1.592
 6644.00    0.56940   0.64884    1.610
 6645.00    0.37499   0.64885    1.641
 6646.00    0.30018   0.64866    1.663
 6647.00    0.36822   0.64837    1.651
 6648.00    0.49608   0.64820    1.640
 6649.00    0.58186   0.64787    1.664
 6650.00    0.64827   0.64758    1.678
 6651.00    0.75641   0.64743    1.632
 6652.00    0.85747   0.64727    1.598
 6653.00    0.87808   0.64712    1.641
 6654.00    0.85041   0.64697    1.682
 6655.00    0.84719   0.64681    1.619
 6656.00    0.88811   0.64665    1.520
 6657.00    0.93393   0.64630    1.473
 6658.00    0.89832   0.64583    1.472
 6659.00    0.72160   0.64555    1.494
 6660.00    0.43981   0.64555    1.538
 6661.00    0.19462   0.64515    1.588
 6662.00    0.20750   0.64437    1.579
 6663.00    0.55191   0.64395    1.464
 6664.00    1.01801   0.64398    1.286
 6665.00    1.35846   0.64413    1.121
 6666.00    1.45876   0.64391    1.019
 6667.00    1.31380   0.64342    0.978
 6668.00    0.99797   0.64275    0.968
 6669.00    0.61267   0.64193    0.970
 6670.00    0.24962   0.64065    0.990
 6671.00   -0.04735   0.63481    0.000
 6672.00   -0.28203   0.62203    0.000
 6673.00   -0.42668   0.61121    0.000
 6674.00   -0.40812   0.60973    0.000
 6675.00   -0.18969   0.61762    0.000
 6676.00    0.19369   0.62766    1.350
 6677.00    0.63022   0.63164    1.380
 6678.00    0.95723   0.63192    1.315
 6679.00    1.04508   0.63232    1.233
 6680.00    0.85793   0.63341    1.246
 6681.00    0.54194   0.63507    1.349
 6682.00    0.34293   0.63667    1.431
 6683.00    0.34563   0.63777    1.442
 6684.00    0.47103   0.63860    1.449
 6685.00    0.62028   0.63922    1.484
 6686.00    0.71868   0.63953    1.529
 6687.00    0.73577   0.63970    1.561
 6688.00    0.68198   0.63986    1.575
 6689.00    0.59485   0.63985    1.598
 6690.00    0.52819   0.63988    1.653
 6691.00    0.53523   0.63986    1.697
 6692.00    0.60427   0.63989    1.679
 6693.00    0.58236   0.63985    1.667
 6694.00    0.36842   0.63948    1.731
 6695.00    0.15938   0.63881    1.770
 6696.00    0.21107   0.63821    0.000
 6697.00    0.52659   0.63813    0.000
 6698.00    0.90219   0.63848    0.000
 6699.00    1.03554   0.63876    0.000
 6700.00    0.76755   0.63874    0.000
 6701.00    0.27311   0.63858    0.000
 6702.00   -0.19655   0.63842    0.000
 6703.00   -0.53388   0.63825    0.000
 6704.00   -0.65864   0.63790    0.000
 6705.00   -0.44868   0.63761    0.000
 6706.00    0.02950   0.63745    0.000
 6707.00    0.42334   0.63730    0.000
 6708.00    0.50061   0.63732    0.000
 6709.00    0.36581   0.63728    0.000
 6710.00    0.22964   0.63692    0.000
 6711.00    0.26158   0.63643    0.000
 6712.00    0.53719   0.63594    0.000
 6713.00    1.01754   0.63567    0.000
 6714.00    1.56430   0.63569    0.000
 6715.00    1.97307   0.63564    0.000
 6716.00    2.07378   0.63529    0.000
 6717.00    1.79990   0.63501    0.000
 6718.00    1.28346   0.63505    0.000
 6719.00    0.80725   0.63519    0.000
 6720.00    0.55153   0.63495    0.000
 6721.00    0.51822   0.63446    0.000
 6722.00    0.55624   0.63398    0.000
 6723.00    0.47675   0.63367    0.000
 6724.00    0.31541   0.63329    0.000
 6725.00    0.27395   0.63260    0.000
 6726.00    0.43489   0.63201    0.000
 6727.00    0.71339   0.63196    0.000
 6728.00    0.90227   0.63271    0.000
 6729.00    0.81969   0.63342    0.000
 6730.00    0.55097   0.63333    0.000
 6731.00    0.31402   0.63304    0.000
 6732.00    0.17127   0.63287    0.000
 6733.00    0.08843   0.63271    0.000
 6734.00    0.08849   0.63255    0.000
 6735.00    0.22334   0.63237    0.000
 6736.00    0.50543   0.63198    0.000
 6737.00    0.89276   0.63120    0.000
 6738.00    1.28722   0.62940    0.000
 6739.00    1.60450   0.62799    0.000
 6740.00    1.84250   0.62781    0.000
 6741.00    2.01263   0.62864    0.000
 6742.00    2.06915   0.63033    0.000
 6743.00    1.93037   0.63104    0.000
 6744.00    1.52438   0.63089    0.000
 6745.00    0.96491   0.63072    0.000
 6746.00    0.61972   0.63056    0.000
 6747.00    0.63348   0.63037    0.000
 6748.00    0.67508   0.63003    0.000
 6749.00    0.49497   0.62993    0.000
 6750.00    0.23491   0.62989    0.000
 6751.00    0.11851   0.62971    0.000
 6752.00    0.25680   0.62934    0.000
 6753.00    0.61272   0.62907    1.444
 6754.00    1.01143   0.62910    1.498
 6755.00    1.24897   0.62902    1.465
 6756.00    1.17208   0.62844    1.342
 6757.00    0.79133   0.62785    1.190
 6758.00    0.27878   0.62777    1.070
 6759.00   -0.20323   0.62792    0.000
 6760.00   -0.56613   0.62787    0.000
 6761.00   -0.79214   0.62771    0.000
 6762.00   -0.90685   0.62754    0.000
 6763.00   -0.90697   0.62738    0.000
 6764.00   -0.76757   0.62741    0.000
 6765.00   -0.51496   0.62736    0.000
 6766.00   -0.21604   0.62718    0.000
 6767.00    0.08958   0.62681    1.534
 6768.00    0.37026   0.62654    1.552
 6769.00    0.53254   0.62657    1.538
 6770.00    0.50127   0.62650    1.566
 6771.00    0.38855   0.62615    1.591
 6772.00    0.38302   0.62605    1.513
 6773.00    0.51599   0.62576    1.372
 6774.00    0.69608   0.62505    1.261
 6775.00    0.82075   0.62444    1.215
 6776.00    0.79332   0.62415    1.241
 6777.00    0.53293   0.62396    1.337
 6778.00    0.11172   0.62359    1.473
 6779.00   -0.11088   0.62332    0.000
 6780.00    0.14138   0.62336    1.413
 6781.00    0.66649   0.62352    1.240
 6782.00    1.06155   0.62367    1.105
 6783.00    1.05177   0.62364    0.998
 6784.00    0.64787   0.62366    0.917
 6785.00    0.21073   0.62340    0.890
 6786.00    0.04741   0.62311    0.936
 6787.00    0.11576   0.62296    1.055
 6788.00    0.25623   0.62299    1.224
 6789.00    0.37028   0.62293    1.369
 6790.00    0.39971   0.62278    1.425
 6791.00    0.31882   0.62279    1.449
 6792.00    0.20367   0.62253    1.500
 6793.00    0.22612   0.62223    1.553
 6794.00    0.41972   0.62185    1.576
 6795.00    0.60945   0.62156    1.585
 6796.00    0.65094   0.62140    1.596
 6797.00    0.53277   0.62145    1.598
 6798.00    0.32500   0.62160    1.587
 6799.00    0.13440   0.62152    1.566
 6800.00    0.02827   0.62115    1.522
 6801.00    0.02205   0.62088    1.443
 6802.00    0.13144   0.62089    1.353
 6803.00    0.36065   0.62062    1.291
 6804.00    0.61844   0.62033    1.244
 6805.00    0.75895   0.62016    1.190
 6806.00    0.75209   0.61998    1.172
 6807.00    0.67760   0.61981    1.255
 6808.00    0.60214   0.61963    1.399
 6809.00    0.54819   0.61946    1.432
 6810.00    0.49395   0.61928    1.325
 6811.00    0.41179   0.61913    1.215
 6812.00    0.33798   0.61914    1.151
 6813.00    0.32856   0.61887    1.131
 6814.00    0.36492   0.61858    1.150
 6815.00    0.39830   0.61841    1.211
 6816.00    0.43913   0.61823    1.297
 6817.00    0.51064   0.61807    1.384
 6818.00    0.57033   0.61810    1.463
 6819.00    0.55819   0.61804    1.532
 6820.00    0.46713   0.61785    1.567
 6821.00    0.31737   0.61746    1.555
 6822.00    0.12075   0.61715    1.537
 6823.00   -0.09588   0.61677    0.000
 6824.00   -0.26758   0.61648    0.000
 6825.00   -0.33018   0.61632    0.000
 6826.00   -0.25781   0.61635    0.000
 6827.00   -0.06752   0.61628    0.000
 6828.00    0.18225   0.61611    1.471
 6829.00    0.41280   0.61591    1.466
 6830.00    0.54769   0.61555    1.461
 6831.00    0.55823   0.61546    1.461
 6832.00    0.48610   0.61540    1.510
 6833.00    0.40488   0.61522    1.599
 6834.00    0.38717   0.61504    1.613
 6835.00    0.45691   0.61486    1.527
 6836.00    0.57507   0.61468    1.470
 6837.00    0.68706   0.61451    1.484
 6838.00    0.74669   0.61431    1.497
 6839.00    0.71890   0.61394    1.492
 6840.00    0.59820   0.61384    1.531
 6841.00    0.47178   0.61358    1.586
 6842.00    0.48160   0.61350    1.521
 6843.00    0.62242   0.61343    1.371
 6844.00    0.73634   0.61327    1.279
 6845.00    0.70360   0.61333    1.251
 6846.00    0.50661   0.61344    1.233
 6847.00    0.23861   0.61319    1.245
 6848.00    0.05429   0.61309    1.363
 6849.00    0.04775   0.61278    1.554
 6850.00    0.20348   0.61228    1.622
 6851.00    0.36240   0.61201    1.566
 6852.00    0.34764   0.61204    1.571
 6853.00    0.21283   0.61197    1.650
 6854.00    0.14208   0.61179    1.704
 6855.00    0.19520   0.61161    1.703
 6856.00    0.31653   0.61143    1.696
 6857.00    0.42103   0.61127    1.709
 6858.00    0.44869   0.61128    1.731
 6859.00    0.41644   0.61099    1.718
 6860.00    0.34580   0.61070    1.653
 6861.00    0.17282   0.61052    1.601
 6862.00   -0.12872   0.61034    0.000
 6863.00   -0.40787   0.61016    0.000
 6864.00   -0.47209   0.60997    0.000
 6865.00   -0.24460   0.60979    0.000
 6866.00    0.19479   0.60963    1.496
 6867.00    0.61019   0.60966    1.467
 6868.00    0.82048   0.60956    1.520
 6869.00    0.85535   0.60917    1.566
 6870.00    0.81333   0.60888    1.532
 6871.00    0.74934   0.60869    1.484
 6872.00    0.68761   0.60849    1.480
 6873.00    0.63099   0.60809    1.498
 6874.00    0.53808   0.60777    1.509
 6875.00    0.33099   0.60735    1.521
 6876.00    0.00980   0.60680    1.536
 6877.00   -0.30541   0.60602    0.000
 6878.00   -0.47047   0.60517    0.000
 6879.00   -0.38334   0.60453    0.000
 6880.00   -0.05852   0.60392    0.000
 6881.00    0.36002   0.60266    1.269
 6882.00    0.67069   0.60099    1.222
 6883.00    0.69338   0.59848    1.248
 6884.00    0.43441   0.59583    1.341
 6885.00    0.09511   0.59400    1.435
 6886.00   -0.07871   0.59326    0.000
 6887.00    0.07290   0.59400    1.482
 6888.00    0.41000   0.59592    1.470
 6889.00    0.60204   0.59812    1.468
 6890.00    0.53373   0.59984    1.492
 6891.00    0.32708   0.60094    1.546
 6892.00    0.16124   0.60199    1.590
 6893.00    0.15351   0.60269    1.574
 6894.00    0.21470   0.60299    1.537
 6895.00    0.16985   0.60337    1.549
 6896.00    0.01669   0.60361    1.597
 6897.00   -0.12173   0.60353    0.000
 6898.00   -0.14698   0.60337    0.000
 6899.00   -0.03099   0.60340    0.000
 6900.00    0.15811   0.60332    1.488
 6901.00    0.33162   0.60313    1.487
 6902.00    0.47924   0.60297    1.494
 6903.00    0.64136   0.60300    1.467
 6904.00    0.85577   0.60291    1.405
 6905.00    1.07175   0.60273    1.349
 6906.00    1.09279   0.60257    1.351
 6907.00    0.83538   0.60260    1.422
 6908.00    0.53629   0.60254    1.469
 6909.00    0.40266   0.60255    1.431
 6910.00    0.33702   0.60227    1.416
 6911.00    0.20541   0.60217    1.488
 6912.00    0.04013   0.60189    1.541
 6913.00   -0.07129   0.60182    0.000
 6914.00   -0.07575   0.60173    0.000
 6915.00    0.01713   0.60154    1.462
 6916.00    0.13390   0.60135    1.522
 6917.00    0.20880   0.60116    1.559
 6918.00    0.22353   0.60098    1.535
 6919.00    0.20620   0.60076    1.476
 6920.00    0.21580   0.60035    1.445
 6921.00    0.28240   0.60008    1.448
 6922.00    0.38384   0.60011    1.440
 6923.00    0.45913   0.60002    1.418
 6924.00    0.43516   0.59986    1.427
 6925.00    0.29703   0.59989    1.470
 6926.00    0.10766   0.59983    1.500
 6927.00   -0.01099   0.59984    0.000
 6928.00    0.06305   0.59955    1.537
 6929.00    0.31014   0.59946    1.580
 6930.00    0.57599   0.59917    1.594
 6931.00    0.69166   0.59910    1.573
 6932.00    0.57234   0.59901    1.556
 6933.00    0.36044   0.59882    1.570
 6934.00    0.32066   0.59863    1.615
 6935.00    0.56687   0.59846    1.657
 6936.00    1.01162   0.59850    1.650
 6937.00    1.38669   0.59843    1.611
 6938.00    1.44649   0.59844    1.587
 6939.00    1.27515   0.59809    1.584
 6940.00    1.09009   0.59758    1.591
 6941.00    0.89630   0.59728    1.615
 6942.00    0.61838   0.59712    1.654
 6943.00    0.32749   0.59715    1.653
 6944.00    0.11746   0.59705    1.585
 6945.00   -0.06071   0.59683    0.000
 6946.00   -0.24599   0.59644    0.000
 6947.00   -0.30468   0.59638    0.000
 6948.00   -0.11642   0.59628    0.000
 6949.00    0.24682   0.59609    1.516
 6950.00    0.63882   0.59593    1.518
 6951.00    0.95211   0.59596    1.533
 6952.00    1.10735   0.59586    1.533
 6953.00    1.04944   0.59567    1.553
 6954.00    0.82235   0.59550    1.608
 6955.00    0.58866   0.59551    1.636
 6956.00    0.42742   0.59518    1.613
 6957.00    0.25557   0.59492    1.605
 6958.00    0.09665   0.59495    1.637
 6959.00    0.15943   0.59485    1.633
 6960.00    0.47072   0.59466    1.572
 6961.00    0.76926   0.59446    1.526
 6962.00    0.86406   0.59427    1.518
 6963.00    0.77362   0.59410    1.510
 6964.00    0.61934   0.59411    1.489
 6965.00    0.53449   0.59381    1.482
 6966.00    0.51002   0.59375    1.495
 6967.00    0.40912   0.59364    1.503
 6968.00    0.18608   0.59345    1.511
 6969.00   -0.07590   0.59325    0.000
 6970.00   -0.26227   0.59306    0.000
 6971.00   -0.27050   0.59286    0.000
 6972.00   -0.04598   0.59266    0.000
 6973.00    0.35866   0.59243    1.414
 6974.00    0.67896   0.59201    1.394
 6975.00    0.62226   0.59175    1.412
 6976.00    0.27855   0.59178    1.449
 6977.00   -0.01726   0.59168    0.000
 6978.00   -0.09179   0.59151    0.000
 6979.00    0.01792   0.59154    1.505
 6980.00    0.11818   0.59144    1.527
 6981.00    0.02310   0.59128    1.562
 6982.00   -0.22434   0.59128    0.000
 6983.00   -0.45522   0.59094    0.000
 6984.00   -0.55541   0.59065    0.000
 6985.00   -0.49546   0.59045    0.000
 6986.00   -0.33496   0.59025    0.000
 6987.00   -0.18473   0.59009    0.000
 6988.00   -0.15892   0.59012    0.000
 6989.00   -0.30474   0.59001    0.000
 6990.00   -0.54345   0.58981    0.000
 6991.00   -0.71137   0.58965    0.000
 6992.00   -0.62333   0.58965    0.000
 6993.00   -0.26027   0.58930   -2.000
 6994.00    0.12979   0.58902   -2.000
 6995.00    0.33771   0.58885   -2.000
 6996.00    0.38968   0.58888   -2.000
 6997.00    0.38553   0.58877   -2.000
 6998.00    0.38745   0.58861   -2.000
 6999.00    0.41699   0.58864   -2.000
 7000.00    0.46110   0.58853   -2.000
 7001.00    0.49485   0.58830   -2.000
 7002.00    0.49683   0.58790   -2.000
 7003.00    0.46484   0.58784   -2.000
 7004.00    0.42163   0.58776   -2.000
 7005.00    0.40933   0.58779   -2.000
 7006.00    0.47284   0.58768   -2.000
 7007.00    0.61031   0.58748   -2.000
 7008.00    0.76099   0.58732   -2.000
 7009.00    0.82620   0.58731   -2.000
 7010.00    0.72741   0.58697   -2.000
 7011.00    0.54702   0.58668   -2.000
 7012.00    0.46857   0.58651   -2.000
 7013.00    0.51976   0.58658   -2.000
 7014.00    0.58797   0.58670   -2.000
 7015.00    0.61274   0.58659   -2.000
 7016.00    0.58444   0.58642   -2.000
 7017.00    0.44813   0.58645   -2.000
 7018.00    0.16086   0.58630   -2.000
 7019.00   -0.16831   0.58590   -2.000
 7020.00   -0.34475   0.58585   -2.000
 7021.00   -0.24666   0.58573   -2.000
 7022.00    0.09107   0.58553   -2.000
 7023.00    0.40775   0.58532   -2.000
 7024.00    0.47611   0.58512   -2.000
 7025.00    0.44395   0.58492   -2.000
 7026.00    0.54817   0.58475   -2.000
 7027.00    0.72923   0.58474   -2.000
 7028.00    0.82412   0.58439   -2.000
 7029.00    0.81717   0.58410   -2.000
 7030.00    0.74100   0.58393   -2.000
 7031.00    0.56643   0.58396   -2.000
 7032.00    0.32086   0.58385   -2.000
 7033.00    0.17931   0.58368   -2.000
 7034.00    0.27407   0.58371   -2.000
 7035.00    0.54390   0.58363   -2.000
 7036.00    0.78847   0.58363   -2.000
 7037.00    0.75884   0.58331   -2.000
 7038.00    0.43764   0.58326   -2.000
 7039.00    0.14673   0.58313   -2.000
 7040.00    0.14046   0.58293   -2.000
 7041.00    0.38669   0.58276   -2.000
 7042.00    0.68510   0.58279   -2.000
 7043.00    0.78747   0.58267   -2.000
 7044.00    0.63268   0.58251   -2.000
 7045.00    0.38990   0.58254   -2.000
 7046.00    0.19133   0.58242   -2.000
 7047.00    0.06239   0.58221   -2.000
 7048.00    0.08335   0.58201   -2.000
 7049.00    0.35418   0.58184   -2.000
 7050.00    0.68478   0.58187   -2.000
 7051.00    0.72786   0.58175   -2.000
 7052.00    0.65849   0.58154   -2.000
 7053.00    0.97825   0.58138   -2.000
 7054.00    1.48231   0.58136   -2.000
 7055.00    1.50186   0.58100   -2.000
 7056.00    1.11327   0.58075   -2.000
 7057.00    0.92752   0.58078   -2.000
 7058.00    1.03851   0.58070   -2.000
 7059.00    1.12496   0.58073   -2.000
 7060.00    1.07377   0.58061   -2.000
 7061.00    0.99412   0.58040   -2.000
 7062.00    1.02800   0.58019   -2.000
 7063.00    1.20405   0.57994   -2.000
 7064.00    1.28275   0.57953   -2.000
 7065.00    1.03979   0.57948   -2.000
 7066.00    0.66043   0.57940   -2.000
 7067.00    0.37205   0.57943   -2.000
 7068.00   -0.03717   0.57930   -2.000
 7069.00   -0.74645   0.57909   -2.000
 7070.00   -1.36443   0.57888   -2.000
 7071.00   -1.48212   0.57867   -2.000
 7072.00   -1.24638   0.57842   -2.000
 7073.00   -1.00032   0.57801   -2.000
 7074.00   -0.90504   0.57796   -2.000
 7075.00   -0.89268   0.57783   -2.000
 7076.00   -0.69916   0.57762   -2.000
 7077.00   -0.20856   0.57741   -2.000
 7078.00    0.34678   0.57720   -2.000
 7079.00    0.72604   0.57699   -2.000
 7080.00    0.90007   0.57678   -2.000
 7081.00    0.97440   0.57652   -2.000
 7082.00    1.09615   0.57607   -2.000
 7083.00    1.24783   0.57578   -2.000
 7084.00    1.22461   0.57561   -2.000
 7085.00    1.02714   0.57564   -2.000
 7086.00    0.91581   0.57551   -2.000
 7087.00    0.85484   0.57529   -2.000
 7088.00    0.48162   0.57508   -2.000
 7089.00   -0.12122   0.57487   -2.000
 7090.00   -0.38811   0.57461   -2.000
 7091.00   -0.13380   0.57416   -2.000
 7092.00    0.33071   0.57391   -2.000
 7093.00    0.74894   0.57412   -2.000
 7094.00    1.03703   0.57500   -2.000
 7095.00    1.13512   0.57535   -2.000
 7096.00    1.01213   0.57522   -2.000
 7097.00    0.77565   0.57505   -2.000
 7098.00    0.64235   0.57503   -2.000
 7099.00    0.81426   0.57470   -2.000
 7100.00    1.38982   0.57465   -2.000
 7101.00    2.24601   0.57452   -2.000
 7102.00    2.98573   0.57431   -2.000
 7103.00    2.91503   0.57414   -2.000
 7104.00    1.59039   0.57417   -2.000
 7105.00   -0.36667   0.57403   -2.000
 7106.00   -1.87725   0.57382   -2.000
 7107.00   -2.42612   0.57355   -2.000
 7108.00   -2.03987   0.57314   -2.000
 7109.00   -1.07194   0.57309   -2.000
 7110.00   -0.07066   0.57300   -2.000
 7111.00    0.37864   0.57303   -2.000
 7112.00    0.08686   0.57294   -2.000
 7113.00   -0.39036   0.57297   -2.000
 7114.00   -0.50467   0.57283   -2.000
 7115.00   -0.37699   0.57262   -2.000
 7116.00   -0.27692   0.57240   -2.000
 7117.00   -0.18638   0.57219   -2.000
 7118.00   -0.10672   0.57202   -2.000
 7119.00   -0.24329   0.57205   -2.000
 7120.00   -0.54733   0.57191   -2.000
 7121.00   -0.52762   0.57174   -2.000
 7122.00   -0.01076   0.57177   -2.000
 7123.00    0.53428   0.57163   -2.000
 7124.00    0.75344   0.57141   -2.000
 7125.00    0.75303   0.57120   -2.000
 7126.00    0.73464   0.57098   -2.000
 7127.00    0.81055   0.57081   -2.000
 7128.00    1.01379   0.57084   -2.000
 7129.00    1.28645   0.57070   -2.000
 7130.00    1.41173   0.57053   -2.000
 7131.00    1.11306   0.57056   -2.000
 7132.00    0.47011   0.57047   -2.000
 7133.00   -0.08782   0.57049   -2.000
 7134.00   -0.24404   0.57035   -2.000
 7135.00    0.06165   0.57018   -2.000
 7136.00    0.64913   0.57016   -2.000
 7137.00    1.20248   0.56982   -2.000
 7138.00    1.50928   0.56977   -2.000
 7139.00    1.56146   0.56963   -2.000
 7140.00    1.62956   0.56941   -2.000
 7141.00    1.96754   0.56924   -2.000
 7142.00    2.22586   0.56922   -2.000
 7143.00    1.83532   0.56888   -2.000
 7144.00    0.87433   0.56883   -2.000
 7145.00   -0.10970   0.56869   -2.000
 7146.00   -0.63938   0.56852   -2.000
 7147.00   -0.52649   0.56854   -2.000
 7148.00   -0.03710   0.56845   -2.000
 7149.00    0.45482   0.56848   -2.000
 7150.00    0.92128   0.56833   -2.000
 7151.00    1.44292   0.56811   -2.000
 7152.00    1.88371   0.56794   -2.000
 7153.00    2.04089   0.56792   -2.000
 7154.00    1.83758   0.56752   -2.000
 7155.00    1.32270   0.56728   -2.000
 7156.00    0.65090   0.56731   -2.000
 7157.00    0.05853   0.56716   -2.000
 7158.00   -0.18344   0.56694   -2.000
 7159.00    0.01222   0.56672   -2.000
 7160.00    0.42691   0.56649   -2.000
 7161.00    0.82209   0.56633   -2.000
 7162.00    1.12504   0.56635   -2.000
 7163.00    1.33276   0.56620   -2.000
 7164.00    1.43151   0.56604   -2.000
 7165.00    1.31908   0.56606   -2.000
 7166.00    0.80296   0.56596   -2.000
 7167.00   -0.21110   0.56599   -2.000
 7168.00   -1.55517   0.56589   -2.000
 7169.00   -2.51122   0.56592   -2.000
 7170.00   -2.09078   0.56571   -2.000
 7171.00   -0.56715   0.56530   -2.000
 7172.00    0.55183   0.56525   -2.000
 7173.00    0.70863   0.56510   -2.000
 7174.00    0.59465   0.56488   -2.000
 7175.00    0.63447   0.56465   -2.000
 7176.00    0.69209   0.56448   -2.000
 7177.00    0.63139   0.56451   -2.000
 7178.00    0.47478   0.56436   -2.000
 7179.00    0.38186   0.56419   -2.000
 7180.00    0.53331   0.56416   -2.000
 7181.00    0.89123   0.56381   -2.000
 7182.00    1.21048   0.56376   -2.000
 7183.00    1.17954   0.56361   -2.000
 7184.00    0.63570   0.56344   -2.000
 7185.00   -0.11919   0.56347   -2.000
 7186.00   -0.59907   0.56331   -2.000
 7187.00   -0.66901   0.56314   -2.000
 7188.00   -0.44873   0.56311   -2.000
 7189.00   -0.04742   0.56276   -2.000
 7190.00    0.43561   0.56272   -2.000
 7191.00    0.86207   0.56262   -2.000
 7192.00    1.07923   0.56264   -2.000
 7193.00    0.96817   0.56248   -2.000
 7194.00    0.58772   0.56232   -2.000
 7195.00    0.27638   0.56234   -2.000
 7196.00    0.19164   0.56218   -2.000
 7197.00   -0.05561   0.56190   -2.000
 7198.00   -0.65219   0.56148   -2.000
 7199.00   -1.02670   0.56149   -2.000
 7200.00   -0.75913   0.56158   -2.000
 7201.00   -0.21495   0.56142   -2.000
 7202.00    0.17762   0.56120   -2.000
 7203.00    0.40455   0.56103   -2.000
 7204.00    0.51399   0.56105   -2.000
 7205.00    0.42238   0.56095   -2.000
 7206.00    0.15850   0.56104   -2.000
 7207.00   -0.04733   0.56107   -2.000
 7208.00   -0.02868   0.56066   -2.000
 7209.00    0.19691   0.56036   -2.000
 7210.00    0.50498   0.56019   -2.000
 7211.00    0.72817   0.56028   -2.000
 7212.00    0.75854   0.56037   -2.000
 7213.00    0.60350   0.56027   -2.000
 7214.00    0.43309   0.56029   -2.000
 7215.00    0.49083   0.56006   -2.000
 7216.00    0.76813   0.55964   -2.000
 7217.00    1.01788   0.55960   -2.000
 7218.00    1.09104   0.55944   -2.000
