###################################################################
## OUTPUT of StarlightChains_v04.for    [Cid@UFSC - 01/Apr/2007] ##
###################################################################

## Some input info
2012bp.txt                               [arq_obs]
Base.CB07.vall.4m                        [arq_base]
Masks.EmLines.NEW.gm                     [arq_masks]
StCv04.C11.config                        [arq_config]
   66                                    [N_base]
    0                                    [N_YAV_components = # of components with extra extinction!]
    0                                    [i_FitPowerLaw (1/0 = Yes/No)]
-9.99                                    [alpha_PowerLaw]
CCM                                      [red_law_option]
 1.458241                                [q_norm = A(l_norm)/A(V)]

## (Re)Sampling Parameters
 3741.00                                 [l_ini (A)]
 7218.00                                 [l_fin (A)]
    1.00                                 [dl    (A)]     (OBS: dl_cushion =    50.00 A)

## Normalization info
 4020.00                                 [l_norm (A) - for base]
 4010.00                                 [llow_norm (A) - window for f_obs]
 4060.00                                 [lupp_norm (A) - window for f_obs]
4.798755E-18                             [fobs_norm (in input units)]

## S/N
 3691.00                                 [llow_SN (A) - window for S/N]
 7268.00                                 [lupp_SN (A) - window for S/N]
   1.667                                 [S/N in S/N window]
   1.100                                 [S/N in norm. window]
  10.000                                 [S/N_err in S/N window]
   6.600                                 [S/N_err in norm. window]
  1.0000                                 [fscale_chi2]

## etc...
    -2007389                             [idum_orig]
  2089                                   [NOl_eff]
   115                                   [Nl_eff]
  1974    NSIGMA                         [Ntot_cliped & clip_method]
   889980                                [Nglobal_steps]
   7                                     [N_chains]
  24                                     [NEX0s_base = N_base in EX0s-fits]
 0   0   1       21   2.0   1.365E+02    [Clip-Bug, RC-Crash & Burn-In warning-flags, n_censored_weights, wei_nsig_threshold & wei_limit]
    13     13.171     12.665      0.507  [idt_all, wdt_TotTime, wdt_UsrTime & wdt_SysTime (sec)]

## Synthesis Results - Best model ##

 2.79456E+00                             [chi2/Nl_eff]
    14.56420                             [adev (%)]

    75.22433                             [sum-of-x (%)]
 9.93332E-19                             [Flux_tot (units of input spectrum!)]
 4.82657E-15                             [Mini_tot (???)]
 2.84188E-15                             [Mcor_tot (???)]

 -35.08                                  [v0_min  (km/s)]
   0.01                                  [vd_min  (km/s)]
-0.9607                                  [AV_min  (mag)]
 0.0000                                  [YAV_min (mag)]

# j     x_j(%)      Mini_j(%)     Mcor_j(%)     age_j(yr)     Z_j      (L/M)_j    YAV?  Mstars   component_j        a/Fe...       SSP_chi2r SSP_adev(%)   SSP_AV   SSP_x(%)
  1      0.0000     0.0000E+00    0.0000E+00    1.000000E+06  0.00400  1.094E-02    0   1.0000   age020_m42            0.0000     3.5307E+00    16.0318   1.5721    61.7221
  2      0.0000     0.0000E+00    0.0000E+00    3.160000E+06  0.00400  4.007E-02    0   0.9999   age045_m42            0.0000     3.2580E+00    15.5924   0.8441    65.7000
  3      0.0000     0.0000E+00    0.0000E+00    5.010000E+06  0.00400  2.539E-02    0   0.9488   age055_m42            0.0000     3.4192E+00    15.8623   1.1757    63.7777
  4      0.0000     0.0000E+00    0.0000E+00    6.610000E+06  0.00400  2.620E-02    0   0.9220   age061_m42            0.0000     3.2698E+00    15.6457   0.7751    65.5166
  5      0.0000     0.0000E+00    0.0000E+00    1.000000E+07  0.00400  1.322E-02    0   0.8862   age070_m42            0.0000     3.3861E+00    16.0324   0.4883    66.2428
  6      0.0000     0.0000E+00    0.0000E+00    1.445000E+07  0.00400  7.883E-03    0   0.8571   age078_m42            0.0000     3.4734E+00    16.1265   0.8186    64.6361
  7      0.0000     0.0000E+00    0.0000E+00    2.512000E+07  0.00400  5.251E-03    0   0.8174   age090_m42            0.0000     3.4003E+00    16.0737   0.3570    66.4542
  8      0.0000     0.0000E+00    0.0000E+00    4.000000E+07  0.00400  3.649E-03    0   0.7851   age104_m42            0.0000     3.3109E+00    15.9448   0.1235    67.2436
  9      0.0000     0.0000E+00    0.0000E+00    5.500000E+07  0.00400  3.098E-03    0   0.7629   age110_m42            0.0000     3.2125E+00    15.7467   0.2780    67.5941
 10      0.0000     0.0000E+00    0.0000E+00    1.015200E+08  0.00400  2.228E-03    0   0.7207   age116_m42            0.0000     3.1514E+00    15.5484   0.3018    67.8187
 11      0.0000     0.0000E+00    0.0000E+00    2.861200E+08  0.00400  1.093E-03    0   0.6648   age125_m42            0.0000     3.1322E+00    15.5098  -0.2739    69.4997
 12      0.0000     0.0000E+00    0.0000E+00    5.088000E+08  0.00400  6.597E-04    0   0.6365   age130_m42            0.0000     3.0426E+00    15.1567  -0.2846    70.4932
 13      0.0000     0.0000E+00    0.0000E+00    1.434000E+09  0.00400  2.132E-04    0   0.5798   age139_m42            0.0000     3.3678E+00    15.8481  -1.0000    65.8690
 14      0.0000     0.0000E+00    0.0000E+00    4.250000E+09  0.00400  5.895E-05    0   0.5377   age158_m42            0.0000     5.8727E+00    19.8208  -1.0000    53.0916
 15      0.0000     0.0000E+00    0.0000E+00    7.500000E+09  0.00400  3.510E-05    0   0.5212   age171_m42            0.0000     7.5091E+00    22.5683  -1.0000    48.4612
 16      0.0000     0.0000E+00    0.0000E+00    1.300000E+10  0.00400  2.005E-05    0   0.5034   age193_m42            0.0000     9.1809E+00    25.2472  -1.0000    44.5767
 17      0.0000     0.0000E+00    0.0000E+00    1.800000E+10  0.00400  1.525E-05    0   0.4967   age213_m42            0.0000     9.4206E+00    25.6238  -1.0000    43.7809
 18      0.0000     0.0000E+00    0.0000E+00    1.000000E+06  0.00800  1.238E-02    0   1.0000   age020_m52            0.0000     3.5378E+00    16.0353   1.5690    61.8266
 19      0.0000     0.0000E+00    0.0000E+00    3.160000E+06  0.00800  3.074E-02    0   0.9966   age045_m52            0.0000     3.5444E+00    16.0199   1.4954    62.2547
 20      0.0000     0.0000E+00    0.0000E+00    5.010000E+06  0.00800  2.668E-02    0   0.9443   age055_m52            0.0000     3.4533E+00    15.9320   1.2551    63.3258
 21      0.0000     0.0000E+00    0.0000E+00    6.610000E+06  0.00800  2.136E-02    0   0.9177   age061_m52            0.0000     3.3049E+00    15.8052  -0.0223    67.4980
 22      0.0000     0.0000E+00    0.0000E+00    1.000000E+07  0.00800  1.215E-02    0   0.8827   age070_m52            0.0000     3.4736E+00    16.1472   0.6676    65.9397
 23      0.0000     0.0000E+00    0.0000E+00    1.445000E+07  0.00800  8.717E-03    0   0.8552   age078_m52            0.0000     3.4274E+00    16.0193   0.7819    65.5764
 24      0.0000     0.0000E+00    0.0000E+00    2.512000E+07  0.00800  5.592E-03    0   0.8162   age090_m52            0.0000     3.3724E+00    16.0173   0.4194    67.2857
 25      0.0000     0.0000E+00    0.0000E+00    4.000000E+07  0.00800  3.896E-03    0   0.7841   age104_m52            0.0000     3.2882E+00    15.8701   0.3313    67.9438
 26      0.0000     0.0000E+00    0.0000E+00    1.015200E+08  0.00800  2.148E-03    0   0.7226   age116_m52            0.0000     3.1815E+00    15.5958   0.2730    68.0755
 27      0.0000     0.0000E+00    0.0000E+00    2.861200E+08  0.00800  9.925E-04    0   0.6683   age125_m52            0.0000     2.9773E+00    15.0737  -0.2241    71.5139
 28      0.0000     0.0000E+00    0.0000E+00    9.047900E+08  0.00800  3.141E-04    0   0.6138   age135_m52            0.0000     2.9092E+00    14.7986  -1.0000    74.3932
 29      0.0000     0.0000E+00    0.0000E+00    1.434000E+09  0.00800  1.719E-04    0   0.5853   age139_m52            0.0000     5.1816E+00    18.5582  -1.0000    58.0416
 30      0.0000     0.0000E+00    0.0000E+00    2.500000E+09  0.00800  7.872E-05    0   0.5600   age150_m52            0.0000     7.2811E+00    22.1041  -1.0000    50.4456
 31      0.0000     0.0000E+00    0.0000E+00    4.250000E+09  0.00800  4.336E-05    0   0.5426   age158_m52            0.0000     7.4706E+00    22.3755  -1.0000    49.6007
 32      0.0000     0.0000E+00    0.0000E+00    6.250000E+09  0.00800  3.159E-05    0   0.5319   age166_m52            0.0000     9.5098E+00    25.5246  -1.0000    45.0656
 33      0.0000     0.0000E+00    0.0000E+00    1.300000E+10  0.00800  1.361E-05    0   0.5073   age193_m52            0.0000     1.4689E+01    32.2939  -1.0000    35.1119
 34      0.0000     0.0000E+00    0.0000E+00    1.800000E+10  0.00800  9.886E-06    0   0.4990   age213_m52            0.0000     1.5991E+01    33.6250  -1.0000    33.0560
 35      0.0000     0.0000E+00    0.0000E+00    1.000000E+06  0.02000  1.544E-02    0   1.0000   age020_m62            0.0000     3.5524E+00    16.0618   1.5653    61.9733
 36      0.0000     0.0000E+00    0.0000E+00    3.160000E+06  0.02000  3.762E-02    0   0.9858   age045_m62            0.0000     3.5544E+00    16.0199   1.5055    62.5089
 37      0.0000     0.0000E+00    0.0000E+00    5.010000E+06  0.02000  3.296E-02    0   0.9342   age055_m62            0.0000     3.3130E+00    15.6896   1.1300    64.8904
 38      0.0000     0.0000E+00    0.0000E+00    8.710000E+06  0.02000  1.154E-02    0   0.8861   age067_m62            0.0000     3.9991E+00    17.0696   0.0994    66.7447
 39      0.0000     0.0000E+00    0.0000E+00    1.445000E+07  0.02000  7.663E-03    0   0.8472   age078_m62            0.0000     3.5749E+00    16.3288   0.3012    67.3009
 40      0.0000     0.0000E+00    0.0000E+00    2.512000E+07  0.02000  4.532E-03    0   0.8099   age090_m62            0.0000     3.6179E+00    16.4067   0.2988    66.7726
 41      0.0000     0.0000E+00    0.0000E+00    5.500000E+07  0.02000  2.733E-03    0   0.7595   age110_m62            0.0000     3.3061E+00    15.8655   0.3156    67.4213
 42      0.0000     0.0000E+00    0.0000E+00    1.609000E+08  0.02000  1.369E-03    0   0.6985   age120_m62            0.0000     3.0744E+00    15.4138   0.1475    69.9262
 43      8.2229     2.4961E+00    2.8462E+00    2.861200E+08  0.02000  9.013E-04    0   0.6714   age125_m62            0.0000     2.9677E+00    15.0251  -0.1178    72.6041
 44      0.0000     0.0000E+00    0.0000E+00    5.088000E+08  0.02000  5.028E-04    0   0.6449   age130_m62            0.0000     2.9109E+00    14.7611  -0.5104    75.6252
 45      0.0000     0.0000E+00    0.0000E+00    9.047900E+08  0.02000  2.428E-04    0   0.6179   age135_m62            0.0000     2.9212E+00    14.8816  -1.0000    72.9186
 46      0.0000     0.0000E+00    0.0000E+00    1.434000E+09  0.02000  1.263E-04    0   0.5908   age139_m62            0.0000     4.5861E+00    17.5554  -1.0000    60.5397
 47      0.0000     0.0000E+00    0.0000E+00    2.500000E+09  0.02000  5.985E-05    0   0.5673   age150_m62            0.0000     7.4894E+00    22.2538  -1.0000    50.9277
 48      0.0000     0.0000E+00    0.0000E+00    4.250000E+09  0.02000  3.271E-05    0   0.5468   age158_m62            0.0000     1.0619E+01    26.8612  -1.0000    43.6023
 49      0.0000     0.0000E+00    0.0000E+00    1.000000E+10  0.02000  1.360E-05    0   0.5167   age181_m62            0.0000     1.4601E+01    31.7726  -1.0000    36.2595
 50      0.2000     7.6810E+00    6.5395E+00    1.800000E+10  0.02000  7.124E-06    0   0.5013   age213_m62            0.0000     1.7083E+01    34.3980  -1.0000    32.1737
 51      0.0000     0.0000E+00    0.0000E+00    1.000000E+06  0.05000  2.592E-02    0   0.9998   age020_m72            0.0000     3.6254E+00    16.1603   1.5589    61.8904
 52      0.0000     0.0000E+00    0.0000E+00    3.160000E+06  0.05000  4.845E-02    0   0.9577   age045_m72            0.0000     3.4781E+00    15.9104   1.3949    63.1548
 53      0.0000     0.0000E+00    0.0000E+00    5.010000E+06  0.05000  3.072E-02    0   0.9147   age055_m72            0.0000     3.6014E+00    16.1984   0.9025    65.0734
 54      0.0000     0.0000E+00    0.0000E+00    6.610000E+06  0.05000  1.455E-02    0   0.8877   age061_m72            0.0000     4.5666E+00    18.0545   0.1459    66.7523
 55      0.0000     0.0000E+00    0.0000E+00    1.000000E+07  0.05000  9.074E-03    0   0.8524   age070_m72            0.0000     3.6403E+00    16.2596   1.0948    64.8344
 56      0.0000     0.0000E+00    0.0000E+00    2.512000E+07  0.05000  4.250E-03    0   0.7902   age090_m72            0.0000     3.5437E+00    16.1779   0.7887    65.8072
 57      0.0000     0.0000E+00    0.0000E+00    4.000000E+07  0.05000  3.087E-03    0   0.7618   age104_m72            0.0000     3.5435E+00    16.2060   0.5525    66.8298
 58      0.0000     0.0000E+00    0.0000E+00    1.015200E+08  0.05000  1.700E-03    0   0.7096   age116_m72            0.0000     3.1833E+00    15.6434   0.2898    69.3587
 59     29.0785     1.0774E+01    1.2137E+01    2.861200E+08  0.05000  7.384E-04    0   0.6633   age125_m72            0.0000     2.9001E+00    14.7807  -0.2606    74.2504
 60      1.6694     1.1959E+00    1.2942E+00    5.088000E+08  0.05000  3.819E-04    0   0.6372   age130_m72            0.0000     2.8246E+00    14.5161  -0.7543    76.1333
 61     35.5829     5.8085E+01    6.0275E+01    9.047900E+08  0.05000  1.676E-04    0   0.6110   age135_m72            0.0000     4.0942E+00    16.7127  -1.0000    63.8811
 62      0.0000     0.0000E+00    0.0000E+00    1.434000E+09  0.05000  8.837E-05    0   0.5874   age139_m72            0.0000     7.5419E+00    22.3224  -1.0000    51.8087
 63      0.0000     0.0000E+00    0.0000E+00    2.500000E+09  0.05000  4.233E-05    0   0.5598   age150_m72            0.0000     1.0680E+01    26.8007  -1.0000    44.1357
 64      0.0000     0.0000E+00    0.0000E+00    6.250000E+09  0.05000  1.435E-05    0   0.5249   age166_m72            0.0000     1.5737E+01    33.0319  -1.0000    34.3252
 65      0.4706     1.9768E+01    1.6907E+01    1.300000E+10  0.05000  6.513E-06    0   0.5036   age193_m72            0.0000     1.9048E+01    36.3143  -1.0000    29.7462
 66      0.0000     0.0000E+00    0.0000E+00    1.800000E+10  0.05000  4.527E-06    0   0.4945   age213_m72            0.0000     2.0862E+01    37.9722  -1.0000    27.1600


## Synthesis Results - Average & Chains ##

# j      x_j: min, <> & last-chain-values for 1 ...  7 chains
  1      0.0000      0.4013      0.7445      0.0000      0.1134      1.5969      0.0477      0.0318      0.0000
  2      0.0000      0.6810      0.0000      1.9791      3.7029      1.0235      0.0000      0.0000      1.4697
  3      0.0000      0.4210      0.0000      0.0000      0.0209      0.7523      0.0000      0.0000      0.0000
  4      0.0000      0.7553      1.5918      1.1058      0.0000      1.0073      0.0000      2.9189      0.0000
  5      0.0000      0.4858      0.0000      0.4472      0.0000      0.0000      0.2399      0.5499      2.6878
  6      0.0000      0.4677      0.0000      0.2102      0.0000      0.0000      0.0000      0.9497      0.2541
  7      0.0000      0.5922      0.0000      0.0000      0.0000      0.0000      0.0000      1.5579      0.0000
  8      0.0000      0.5585      0.0000      0.0000      0.3412      0.0000      0.0000      0.0820      0.5208
  9      0.0000      1.0285      1.4051      1.8341      0.0000      0.0000      0.0000      0.0000      0.5578
 10      0.0000      1.2014      2.2285      2.7787      5.4370      0.0000      1.6640      2.0604      1.3896
 11      0.0000      1.2097      1.7355      4.4232      0.0000      0.0000      0.0000      0.4691      0.0000
 12      0.0000      2.1257      2.7432      8.0239      0.0000      0.0000      1.6417      0.2870      5.3360
 13      0.0000      2.7373      4.3668      2.1627      6.1410      8.6698      0.0000      3.8016      5.6831
 14      0.0000      1.6233      0.0000      0.0000      7.0578      0.0000      0.0000      3.7619      0.0000
 15      0.0000      1.1150      1.4628      3.1299      1.3098      0.6318      0.8984      0.0000      0.5101
 16      0.0000      0.9307      1.1308      0.0000      0.8969      0.6190      0.0000      0.5524      0.0000
 17      0.0000      0.5921      0.0000      0.2389      0.0000      0.0000      0.0000      0.0000      0.0000
 18      0.0000      0.4172      0.0000      0.3159      0.0000      0.1362      0.0000      0.4785      0.1947
 19      0.0000      0.3835      0.0000      0.0000      0.0000      0.0000      0.0000      0.0000      0.0000
 20      0.0000      0.4169      0.0000      0.0000      0.0000      0.0000      0.0000      0.0000      0.1870
 21      0.0000      0.7103      0.0000      0.0000      0.0000      0.0000      0.0000      0.0000      0.0000
 22      0.0000      0.5956      0.7142      0.5587      0.0000      0.0000      0.0000      0.0000      0.0000
 23      0.0000      0.5243      0.0116      0.0000      0.0296      0.5116      0.0000      0.0000      1.3549
 24      0.0000      0.7960      1.2802      0.0000      0.0000      0.3037      2.8627      0.0000      0.2414
 25      0.0000      0.5245      0.0000      0.0000      0.0000      1.3942      1.4576      1.0278      0.0000
 26      0.0000      0.6970      0.5312      0.0000      0.0000      3.8693      0.0000      0.0000      0.4069
 27      0.0000      1.7910      0.0000      1.8982      0.0000      0.0000      0.0000      1.4054      0.3728
 28      0.0000      2.9090      5.2262      0.4181      1.5015      6.8062      5.3272      3.3664      0.0000
 29      0.0000      1.4743      0.0000      1.7711      3.2851      0.0000      0.0000      0.0000      0.7339
 30      0.0000      0.8734      0.0000      0.4510      0.0000      0.0000      1.1923      3.8397      0.0000
 31      0.0000      0.8715      0.0000      0.0000      0.0000      0.0000      2.3003      2.8344      1.2143
 32      0.0000      0.9398      1.9057      0.3750      1.2651      0.0000      2.6370      0.0000      0.4110
 33      0.0000      0.4574      0.0000      0.0000      0.0000      0.1651      0.0000      0.0000      0.0000
 34      0.0000      0.2385      0.0000      0.0000      0.0107      0.0000      0.0000      0.2540      0.0000
 35      0.0000      0.3474      0.0000      0.0000      1.9951      0.0000      0.0000      0.0000      0.0264
 36      0.0000      0.3535      0.0000      0.0000      1.1094      0.0000      0.0000      0.2806      0.0000
 37      0.0000      0.4748      0.0000      0.0000      0.0000      0.3184      3.7317      0.4851      0.2497
 38      0.0000      0.3351      0.0000      0.8146      0.0000      0.0000      0.0000      0.0000      0.0000
 39      0.0000      0.9652      4.9282      0.0000      0.0000      0.7657      0.0000      0.2656      0.0000
 40      0.0000      0.5321      0.0000      0.0000      0.0000      1.4360      0.0000      0.4856      0.0902
 41      0.0000      0.8395      0.0000      0.0000      2.9713      0.0000      0.0000      0.0000      0.6696
 42      0.0000      1.2235      2.4780      0.6954      1.8515      0.0000      1.9826      0.0000      0.0000
 43      8.2229      1.4224      3.6423      2.9903      2.6534      9.4984      0.0000      3.1177      2.5436
 44      0.0000      4.0780      5.9369      8.4845      3.1784      2.5671      4.1586      5.3953      0.0000
 45      0.0000      3.2371      4.6108      0.9442      1.6176      1.6026      5.0379      7.1326      8.0785
 46      0.0000      2.1441      0.0000      3.1662      3.1637      1.8931      0.0000      2.5228      1.5715
 47      0.0000      1.2917      4.8384      0.5491      0.2546      0.6525      2.8619      0.0000      0.7803
 48      0.0000      0.7655      0.0000      0.0479      0.0000      0.0000      2.2039      0.0000      0.8687
 49      0.0000      0.4649      1.6723      1.3138      0.0000      0.0000      0.0000      0.6327      1.4111
 50      0.2000      0.3132      0.0000      1.0461      0.0000      1.0722      0.0000      0.0000      0.6037
 51      0.0000      0.4474      0.0000      0.0000      0.0000      0.1397      0.0000      0.0000      0.0000
 52      0.0000      0.3318      0.0000      0.0000      0.0000      0.0000      3.2675      0.0000      0.0000
 53      0.0000      0.5620      0.2070      0.7180      0.0000      0.0000      0.0000      0.0000      1.0746
 54      0.0000      0.3487      0.0000      0.1271      0.0000      0.0000      0.0000      0.0000      0.0000
 55      0.0000      0.2876      0.0149      0.0000      0.0000      0.0000      0.8243      0.0000      0.1048
 56      0.0000      0.6452      0.3524      0.5685      0.0000      0.0000      0.0000      0.0000      4.1206
 57      0.0000      0.7140      1.1945      0.0000      0.0000      0.0000      0.0000      0.1131      0.9573
 58      0.0000      1.1190      0.0000      0.5423      0.0000      0.0000      0.0000      0.0000      0.0000
 59     29.0785      1.6989      1.4383      0.0000      1.8585      4.7778     12.5807      9.2258      0.5989
 60      1.6694      6.8941      7.8312      9.9540     14.1507      8.6026      0.0000      3.7826     16.8306
 61     35.5829      6.2758      4.8985      4.2881      4.7775      9.2783     15.2820      5.4882      4.9731
 62      0.0000      1.0603      0.0000      2.2791      0.0000      0.0000      0.0000      2.6552      2.1352
 63      0.0000      0.4957      0.0549      0.1143      0.0000      1.4372      1.6703      0.7597      0.0000
 64      0.0000      0.6433      1.1387      0.8637      0.0000      0.0000      0.0000      0.0000      1.8818
 65      0.4706      0.3386      0.6512      0.1714      0.0000      1.5734      0.0000      0.0000      0.2544
 66      0.0000      0.2753      0.0000      1.1521      1.3536      0.0000      0.0000      0.0000      0.0000

# j      m_j: min, <> & last-chain-values for 1 ...  7 chains
  1  0.0000E+00  9.6424E-03  1.8484E-02  0.0000E+00  2.7230E-03  3.9634E-02  1.5527E-03  1.0789E-03  0.0000E+00
  2  0.0000E+00  4.4671E-03  0.0000E+00  1.0508E-02  2.4265E-02  6.9343E-03  0.0000E+00  0.0000E+00  1.0395E-02
  3  0.0000E+00  4.1353E-03  0.0000E+00  0.0000E+00  2.0487E-04  7.6332E-03  0.0000E+00  0.0000E+00  0.0000E+00
  4  0.0000E+00  6.9867E-03  1.5214E-02  8.2796E-03  0.0000E+00  9.6250E-03  0.0000E+00  3.8138E-02  0.0000E+00
  5  0.0000E+00  8.5608E-03  0.0000E+00  6.3788E-03  0.0000E+00  0.0000E+00  5.7269E-03  1.3686E-02  5.1066E-02
  6  0.0000E+00  1.3368E-02  0.0000E+00  4.8634E-03  0.0000E+00  0.0000E+00  0.0000E+00  3.8340E-02  7.8302E-03
  7  0.0000E+00  2.4231E-02  0.0000E+00  0.0000E+00  0.0000E+00  0.0000E+00  0.0000E+00  9.0043E-02  0.0000E+00
  8  0.0000E+00  3.1584E-02  0.0000E+00  0.0000E+00  1.9280E-02  0.0000E+00  0.0000E+00  6.5515E-03  3.1758E-02
  9  0.0000E+00  6.6577E-02  9.3978E-02  9.6099E-02  0.0000E+00  0.0000E+00  0.0000E+00  0.0000E+00  3.8931E-02
 10  0.0000E+00  1.0216E-01  1.9579E-01  1.9124E-01  4.6184E-01  0.0000E+00  1.9172E-01  2.4746E-01  1.2740E-01
 11  0.0000E+00  1.9340E-01  2.8671E-01  5.7241E-01  0.0000E+00  0.0000E+00  0.0000E+00  1.0594E-01  0.0000E+00
 12  0.0000E+00  5.3910E-01  7.1888E-01  1.6471E+00  0.0000E+00  0.0000E+00  5.6419E-01  1.0280E-01  1.4592E+00
 13  0.0000E+00  1.9568E+00  3.2255E+00  1.2514E+00  4.3856E+00  6.4017E+00  0.0000E+00  3.8386E+00  4.3803E+00
 14  0.0000E+00  3.8920E+00  0.0000E+00  0.0000E+00  1.6905E+01  0.0000E+00  0.0000E+00  1.2740E+01  0.0000E+00
 15  0.0000E+00  4.3519E+00  5.8996E+00  9.8882E+00  5.1075E+00  2.5471E+00  4.7513E+00  0.0000E+00  2.1466E+00
 16  0.0000E+00  6.1421E+00  7.7112E+00  0.0000E+00  5.9136E+00  4.2195E+00  0.0000E+00  5.1494E+00  0.0000E+00
 17  0.0000E+00  5.0691E+00  0.0000E+00  1.6552E+00  0.0000E+00  0.0000E+00  0.0000E+00  0.0000E+00  0.0000E+00
 18  0.0000E+00  8.8575E-03  0.0000E+00  5.4296E-03  0.0000E+00  2.9873E-03  0.0000E+00  1.4351E-02  4.4582E-03
 19  0.0000E+00  3.2683E-03  0.0000E+00  0.0000E+00  0.0000E+00  0.0000E+00  0.0000E+00  0.0000E+00  0.0000E+00
 20  0.0000E+00  3.8787E-03  0.0000E+00  0.0000E+00  0.0000E+00  0.0000E+00  0.0000E+00  0.0000E+00  1.8757E-03
 21  0.0000E+00  8.0215E-03  0.0000E+00  0.0000E+00  0.0000E+00  0.0000E+00  0.0000E+00  0.0000E+00  0.0000E+00
 22  0.0000E+00  1.1373E-02  1.4092E-02  8.6363E-03  0.0000E+00  0.0000E+00  0.0000E+00  0.0000E+00  0.0000E+00
 23  0.0000E+00  1.3520E-02  3.0792E-04  0.0000E+00  7.6184E-04  1.3628E-02  0.0000E+00  0.0000E+00  3.7675E-02
 24  0.0000E+00  3.0538E-02  5.0751E-02  0.0000E+00  0.0000E+00  1.2037E-02  1.4882E-01  0.0000E+00  9.9866E-03
 25  0.0000E+00  2.7747E-02  0.0000E+00  0.0000E+00  0.0000E+00  7.6184E-02  1.0449E-01  7.6801E-02  0.0000E+00
 26  0.0000E+00  6.1635E-02  4.8540E-02  0.0000E+00  0.0000E+00  3.5343E-01  0.0000E+00  0.0000E+00  3.8793E-02
 27  0.0000E+00  3.1700E-01  0.0000E+00  2.7195E-01  0.0000E+00  0.0000E+00  0.0000E+00  3.5135E-01  7.1153E-02
 28  0.0000E+00  1.4943E+00  2.7739E+00  1.7385E-01  7.7053E-01  3.6113E+00  3.7079E+00  2.4425E+00  0.0000E+00
 29  0.0000E+00  1.3195E+00  0.0000E+00  1.2831E+00  2.9373E+00  0.0000E+00  0.0000E+00  0.0000E+00  7.0825E-01
 30  0.0000E+00  1.6332E+00  0.0000E+00  6.8263E-01  0.0000E+00  0.0000E+00  3.0212E+00  1.0142E+01  0.0000E+00
 31  0.0000E+00  2.8667E+00  0.0000E+00  0.0000E+00  0.0000E+00  0.0000E+00  1.0253E+01  1.3169E+01  4.3069E+00
 32  0.0000E+00  4.1596E+00  8.7151E+00  1.3435E+00  5.5937E+00  0.0000E+00  1.5815E+01  0.0000E+00  1.9613E+00
 33  0.0000E+00  4.4818E+00  0.0000E+00  0.0000E+00  0.0000E+00  1.6706E+00  0.0000E+00  0.0000E+00  0.0000E+00
 34  0.0000E+00  3.1649E+00  0.0000E+00  0.0000E+00  1.4158E-01  0.0000E+00  0.0000E+00  4.7603E+00  0.0000E+00
 35  0.0000E+00  5.9142E-03  0.0000E+00  0.0000E+00  3.3932E-02  0.0000E+00  0.0000E+00  0.0000E+00  4.8406E-04
 36  0.0000E+00  2.4351E-03  0.0000E+00  0.0000E+00  7.6340E-03  0.0000E+00  0.0000E+00  2.7304E-03  0.0000E+00
 37  0.0000E+00  3.5373E-03  0.0000E+00  0.0000E+00  0.0000E+00  2.4503E-03  3.7673E-02  5.1053E-03  2.0056E-03
 38  0.0000E+00  6.7631E-03  0.0000E+00  1.3308E-02  0.0000E+00  0.0000E+00  0.0000E+00  0.0000E+00  0.0000E+00
 39  0.0000E+00  2.8048E-02  1.4799E-01  0.0000E+00  0.0000E+00  2.2986E-02  0.0000E+00  1.0901E-02  0.0000E+00
 40  0.0000E+00  2.4995E-02  0.0000E+00  0.0000E+00  0.0000E+00  6.9676E-02  0.0000E+00  3.2219E-02  4.5674E-03
 41  0.0000E+00  6.1323E-02  0.0000E+00  0.0000E+00  2.1683E-01  0.0000E+00  0.0000E+00  0.0000E+00  5.2736E-02
 42  0.0000E+00  1.6409E-01  3.4341E-01  7.5496E-02  2.4807E-01  0.0000E+00  3.6030E-01  0.0000E+00  0.0000E+00
 43  2.8462E+00  2.7852E-01  7.3693E-01  4.7395E-01  5.1905E-01  1.9211E+00  0.0000E+00  8.6230E-01  5.3702E-01
 44  0.0000E+00  1.3749E+00  2.0682E+00  2.3154E+00  1.0705E+00  8.9398E-01  1.8998E+00  2.5694E+00  0.0000E+00
 45  0.0000E+00  2.1654E+00  3.1870E+00  5.1123E-01  1.0810E+00  1.1074E+00  4.5666E+00  6.7395E+00  5.8269E+00
 46  0.0000E+00  2.6363E+00  0.0000E+00  3.1512E+00  3.8862E+00  2.4044E+00  0.0000E+00  4.3815E+00  2.0835E+00
 47  0.0000E+00  3.2183E+00  1.2456E+01  1.1074E+00  6.3366E-01  1.6794E+00  9.6620E+00  0.0000E+00  2.0964E+00
 48  0.0000E+00  3.3636E+00  0.0000E+00  1.7048E-01  0.0000E+00  0.0000E+00  1.3122E+01  0.0000E+00  4.1157E+00
 49  0.0000E+00  4.6423E+00  1.7256E+01  1.0620E+01  0.0000E+00  0.0000E+00  0.0000E+00  8.9248E+00  1.5195E+01
 50  6.5395E+00  5.7924E+00  0.0000E+00  1.5661E+01  0.0000E+00  2.0485E+01  0.0000E+00  0.0000E+00  1.2040E+01
 51  0.0000E+00  4.5366E-03  0.0000E+00  0.0000E+00  0.0000E+00  1.4629E-03  0.0000E+00  0.0000E+00  0.0000E+00
 52  0.0000E+00  1.7239E-03  0.0000E+00  0.0000E+00  0.0000E+00  0.0000E+00  2.3005E-02  0.0000E+00  0.0000E+00
 53  0.0000E+00  4.3985E-03  1.6739E-03  4.5489E-03  0.0000E+00  0.0000E+00  0.0000E+00  0.0000E+00  9.0688E-03
 54  0.0000E+00  5.5922E-03  0.0000E+00  1.6495E-03  0.0000E+00  0.0000E+00  0.0000E+00  0.0000E+00  0.0000E+00
 55  0.0000E+00  7.1004E-03  3.8032E-04  0.0000E+00  0.0000E+00  0.0000E+00  2.7580E-02  0.0000E+00  2.7909E-03
 56  0.0000E+00  3.1532E-02  1.7796E-02  2.2491E-02  0.0000E+00  0.0000E+00  0.0000E+00  0.0000E+00  2.1714E-01
 57  0.0000E+00  4.6312E-02  8.0061E-02  0.0000E+00  0.0000E+00  0.0000E+00  0.0000E+00  1.0361E-02  6.6954E-02
 58  0.0000E+00  1.2278E-01  0.0000E+00  4.8165E-02  0.0000E+00  0.0000E+00  0.0000E+00  0.0000E+00  0.0000E+00
 59  1.2137E+01  4.0115E-01  3.5092E-01  0.0000E+00  4.3840E-01  1.1653E+00  4.0253E+00  3.0771E+00  1.5247E-01
 60  1.2942E+00  3.0236E+00  3.5489E+00  3.5336E+00  6.2002E+00  3.8972E+00  0.0000E+00  2.3433E+00  7.9590E+00
 61  6.0275E+01  6.0139E+00  4.8504E+00  3.3261E+00  4.5737E+00  9.1841E+00  1.9843E+01  7.4287E+00  5.1385E+00
 62  0.0000E+00  1.8526E+00  0.0000E+00  3.2232E+00  0.0000E+00  0.0000E+00  0.0000E+00  6.5531E+00  4.0226E+00
 63  0.0000E+00  1.7233E+00  1.9733E-01  3.2156E-01  0.0000E+00  5.1605E+00  7.8677E+00  3.7301E+00  0.0000E+00
 64  0.0000E+00  6.1850E+00  1.1313E+01  6.7218E+00  0.0000E+00  0.0000E+00  0.0000E+00  0.0000E+00  1.9509E+01
 65  1.6907E+01  6.8812E+00  1.3675E+01  2.8195E+00  0.0000E+00  3.3033E+01  0.0000E+00  0.0000E+00  5.5742E+00
 66  0.0000E+00  7.9048E+00  0.0000E+00  2.6776E+01  3.8827E+01  0.0000E+00  0.0000E+00  0.0000E+00  0.0000E+00

# AV, chi2 & Mass for <> & i_chain = 1 ...  7 solutions
AV      -0.9607     -0.9610     -0.9724     -0.9878     -0.9732     -0.9349     -1.0000     -0.9921     -0.9739
chi2 2.7946E+00  2.9317E+00  2.8973E+00  2.8862E+00  2.8980E+00  2.8729E+00  2.8756E+00  2.8753E+00  2.8903E+00
Mass 2.8419E-15  5.0222E-15  4.7860E-15  5.9851E-15  4.9451E-15  5.0352E-15  3.5169E-15  3.4098E-15  4.5775E-15
 -35.08                                  [v0_min (km/s) before EX0s...]
   0.01                                  [vd_min (km/s) before EX0s...]


## Synthetic spectrum (Best Model) ##l_obs f_obs f_syn wei
 3478    [Nl_obs]
 3741.00   -2.33699   0.44900   -2.000
 3742.00   -3.45144   0.43119   -2.000
 3743.00   -3.37991   0.41423   -2.000
 3744.00   -2.33045   0.39777   -2.000
 3745.00   -0.83216   0.37091   -2.000
 3746.00    0.55968   0.33809   -1.000
 3747.00    1.54522   0.30139   -1.000
 3748.00    1.75779   0.25798   -1.000
 3749.00    0.49788   0.23142   -1.000
 3750.00   -2.22697   0.24729   -2.000
 3751.00   -4.89309   0.29729   -2.000
 3752.00   -5.99014   0.35395   -2.000
 3753.00   -5.26341   0.40458   -2.000
 3754.00   -3.17364   0.44891   -2.000
 3755.00   -0.42339   0.47545   -2.000
 3756.00    2.14777   0.46608   -1.000
 3757.00    3.70655   0.42921   -1.000
 3758.00    3.93664   0.40470   -1.000
 3759.00    3.17980   0.41105   -1.000
 3760.00    1.71974   0.42807   -1.000
 3761.00   -0.32699   0.44130   -2.000
 3762.00   -1.93108   0.45077   -2.000
 3763.00   -1.45630   0.45293   -2.000
 3764.00    0.43849   0.44851   22.806
 3765.00    0.98415   0.43265   -1.000
 3766.00   -0.39084   0.39905   -2.000
 3767.00   -1.70202   0.36591   -2.000
 3768.00   -1.68096   0.34083   -2.000
 3769.00   -0.49544   0.31100   -2.000
 3770.00    0.99337   0.29157   -1.000
 3771.00    1.67077   0.31162   -1.000
 3772.00    0.70720   0.35733   -1.000
 3773.00   -1.92583   0.39295   -2.000
 3774.00   -4.73742   0.41207   -2.000
 3775.00   -5.78980   0.43218   -2.000
 3776.00   -4.79515   0.46279   -2.000
 3777.00   -2.78727   0.49613   -2.000
 3778.00   -1.00758   0.52589   -2.000
 3779.00   -0.32109   0.55502   -2.000
 3780.00   -0.67672   0.57694   -2.000
 3781.00   -1.35360   0.58279   -2.000
 3782.00   -1.40443   0.58297   -2.000
 3783.00   -0.33696   0.59123   -2.000
 3784.00    1.30637   0.59320   -1.000
 3785.00    2.92022   0.56263   -1.000
 3786.00    4.69016   0.51741   -1.000
 3787.00    6.51784   0.49209   -1.000
 3788.00    7.24549   0.48183   -1.000
 3789.00    6.08766   0.47455   -1.000
 3790.00    3.68520   0.47234   -1.000
 3791.00    1.72730   0.46833   -1.000
 3792.00    2.20649   0.44701   -1.000
 3793.00    4.87333   0.40814   -1.000
 3794.00    6.64130   0.36761   -1.000
 3795.00    5.89438   0.33337   -1.000
 3796.00    4.06525   0.29641   -1.000
 3797.00    2.73284   0.26063   -1.000
 3798.00    2.31260   0.25662   -1.000
 3799.00    2.25442   0.29666   -1.000
 3800.00    1.67576   0.35491   -1.000
 3801.00    1.12600   0.40831   -1.000
 3802.00    2.15143   0.45622   -1.000
 3803.00    4.23196   0.49501   -1.000
 3804.00    5.29056   0.51340   -1.000
 3805.00    5.44410   0.51182   -1.000
 3806.00    6.49109   0.50593   -1.000
 3807.00    8.41948   0.51860   -1.000
 3808.00    9.70215   0.55503   -1.000
 3809.00    9.58216   0.59537   -1.000
 3810.00    8.21124   0.61990   -1.000
 3811.00    6.03163   0.61610   -1.000
 3812.00    3.64531   0.58140   -1.000
 3813.00    1.76635   0.53868   -1.000
 3814.00    0.86055   0.51785   -1.000
 3815.00    0.67857   0.52497   -1.000
 3816.00    0.60363   0.55281   16.566
 3817.00    0.18970   0.58258   -1.000
 3818.00   -0.47657   0.58510   -2.000
 3819.00   -0.54523   0.55722   -2.000
 3820.00    0.59811   0.53252   16.719
 3821.00    2.40539   0.54014   -1.000
 3822.00    3.74756   0.55571   -1.000
 3823.00    3.60981   0.53544   -1.000
 3824.00    2.06084   0.49072   -1.000
 3825.00    0.63887   0.46125   -1.000
 3826.00    0.24278   0.44997   -1.000
 3827.00    0.01757   0.44052   -1.000
 3828.00   -0.75674   0.42855   -2.000
 3829.00   -1.68543   0.41534   -2.000
 3830.00   -2.19655   0.39544   -2.000
 3831.00   -2.11073   0.35818   -2.000
 3832.00   -1.85654   0.31010   -2.000
 3833.00   -2.20214   0.27009   -2.000
 3834.00   -2.87895   0.24432   -2.000
 3835.00   -2.61504   0.23878   -2.000
 3836.00   -1.16227   0.25816   -2.000
 3837.00    0.51243   0.28791   -1.000
 3838.00    1.86925   0.31456   -1.000
 3839.00    3.08484   0.34131   -1.000
 3840.00    4.40968   0.37573   -1.000
 3841.00    5.71597   0.42157   -1.000
 3842.00    5.91298   0.46622   -1.000
 3843.00    4.04221   0.49508   -1.000
 3844.00    1.74040   0.51098   -1.000
 3845.00    1.60229   0.52245   -1.000
 3846.00    3.32251   0.53964   -1.000
 3847.00    4.99180   0.56107    0.000
 3848.00    6.29608   0.56674    0.000
 3849.00    7.71957   0.55727    0.000
 3850.00    8.71963   0.56494    0.000
 3851.00    8.46203   0.59487    0.000
 3852.00    7.03524   0.61453    0.000
 3853.00    4.99830   0.61402    0.000
 3854.00    2.74821   0.60490    0.000
 3855.00    0.91281   0.59204    0.000
 3856.00    0.64012   0.59058    0.000
 3857.00    2.05780   0.59807    0.000
 3858.00    3.23488   0.58865    0.000
 3859.00    2.83199   0.57748    0.000
 3860.00    1.89881   0.59572    0.000
 3861.00    1.64084   0.62618    0.000
 3862.00    1.94396   0.63929    0.000
 3863.00    2.23965   0.63900    0.000
 3864.00    2.12140   0.63578    0.000
 3865.00    1.53851   0.62907    0.000
 3866.00    0.81696   0.62711    0.000
 3867.00    0.34480   0.63666    0.000
 3868.00    0.42073   0.64731    0.000
 3869.00    1.25305   0.64474    0.000
 3870.00    2.86672   0.62317    0.000
 3871.00    4.77976   0.58574    0.000
 3872.00    6.08220   0.55406    0.000
 3873.00    6.04658   0.55695    0.000
 3874.00    4.45868   0.58504    0.000
 3875.00    1.95727   0.60143    0.000
 3876.00   -0.28559   0.58497   -2.000
 3877.00   -1.55186   0.54089   -2.000
 3878.00   -1.68823   0.50685   -2.000
 3879.00   -0.81608   0.51201   -2.000
 3880.00    0.68265   0.52196    0.000
 3881.00    2.08616   0.50154   -1.000
 3882.00    2.65698   0.47170   -1.000
 3883.00    2.19808   0.45186   -1.000
 3884.00    1.08109   0.42371   -1.000
 3885.00    0.11966   0.37607   -1.000
 3886.00    0.05151   0.32865   -1.000
 3887.00    0.91322   0.29356   -1.000
 3888.00    2.25301   0.26867   -1.000
 3889.00    3.47079   0.26973   -1.000
 3890.00    3.89386   0.30829   -1.000
 3891.00    2.91682   0.36249   -1.000
 3892.00    0.95647   0.40509   -1.000
 3893.00   -0.01206   0.42876   -2.000
 3894.00    1.05353   0.44231   -1.000
 3895.00    2.61253   0.45919   -1.000
 3896.00    3.08986   0.48437   -1.000
 3897.00    2.56601   0.50477   -1.000
 3898.00    1.66174   0.50978   -1.000
 3899.00    0.81305   0.51461   -1.000
 3900.00    0.43711   0.54083   22.878
 3901.00    0.95411   0.57550   -1.000
 3902.00    2.38119   0.58516   -1.000
 3903.00    4.16667   0.57758   -1.000
 3904.00    5.33272   0.57104   -1.000
 3905.00    4.87929   0.56084   -1.000
 3906.00    2.97729   0.56522   -1.000
 3907.00    0.86539   0.59923   -1.000
 3908.00   -0.87801   0.63920   -2.000
 3909.00   -2.49253   0.66406   -2.000
 3910.00   -3.87622   0.67567   -2.000
 3911.00   -4.45993   0.67782   -2.000
 3912.00   -3.74416   0.66478   -2.000
 3913.00   -1.65252   0.64252   -2.000
 3914.00    1.03185   0.63328   -1.000
 3915.00    3.06809   0.63436   -1.000
 3916.00    3.70781   0.62948   -1.000
 3917.00    2.92364   0.62306   -1.000
 3918.00    1.45267   0.61678   -1.000
 3919.00    0.40117   0.60812   -1.000
 3920.00    0.61548   0.60502   16.248
 3921.00    2.11930   0.61212   -1.000
 3922.00    3.59942   0.62302   -1.000
 3923.00    3.77145   0.63215   -1.000
 3924.00    2.94904   0.63125   -1.000
 3925.00    1.94811   0.61310   -1.000
 3926.00    0.85879   0.58694   -1.000
 3927.00   -0.17521   0.55805   -2.000
 3928.00   -0.29961   0.52367   -2.000
 3929.00    0.68400   0.48501   -1.000
 3930.00    1.42936   0.44257   -1.000
 3931.00    0.93017   0.39232   -1.000
 3932.00   -0.25321   0.33157   -2.000
 3933.00   -1.07594   0.28632   -2.000
 3934.00   -0.83351   0.29680   -2.000
 3935.00    0.35849   0.35752   -1.000
 3936.00    1.53512   0.42581   -1.000
 3937.00    1.92072   0.47687   -1.000
 3938.00    1.46238   0.51703   -1.000
 3939.00    0.87651   0.55402   -1.000
 3940.00    1.18830   0.57684   -1.000
 3941.00    2.03360   0.58019   -1.000
 3942.00    1.86257   0.57332   -1.000
 3943.00    0.67183   0.56439   14.885
 3944.00   -0.02506   0.57057   -2.000
 3945.00    0.10260   0.60022   -1.000
 3946.00    0.21425   0.62201   -1.000
 3947.00    0.33301   0.61167   -1.000
 3948.00    1.04966   0.59436   -1.000
 3949.00    1.72818   0.59627   -1.000
 3950.00    1.30572   0.60502   -1.000
 3951.00    0.58069   0.60055   17.221
 3952.00    0.97159   0.59420   -1.000
 3953.00    1.68519   0.60617   -1.000
 3954.00    1.18727   0.61612   -1.000
 3955.00    0.09311   0.59320   -1.000
 3956.00   -0.25533   0.55844   -2.000
 3957.00   -0.20468   0.54979   -2.000
 3958.00   -0.67063   0.56102   -2.000
 3959.00   -1.47638   0.55728   -2.000
 3960.00   -1.91204   0.52029   -2.000
 3961.00   -1.55007   0.46941   -2.000
 3962.00   -0.52700   0.43285   -2.000
 3963.00    0.37375   0.40797    0.000
 3964.00    0.64268   0.37613    0.000
 3965.00    0.68807   0.32936    0.000
 3966.00    0.91659   0.27144    0.000
 3967.00    1.10811   0.21391    0.000
 3968.00    0.94722   0.17303    0.000
 3969.00    0.38122   0.16322    0.000
 3970.00   -0.44793   0.18703   -2.000
 3971.00   -1.30408   0.23308   -2.000
 3972.00   -2.10209   0.28351   -2.000
 3973.00   -2.88824   0.32931   -2.000
 3974.00   -3.24061   0.37450   -2.000
 3975.00   -2.37786   0.41728   -2.000
 3976.00   -0.55667   0.45159   -2.000
 3977.00    0.91880   0.48412    0.000
 3978.00    1.47273   0.52164    0.000
 3979.00    1.49491   0.55620    0.000
 3980.00    1.22889   0.57209    0.000
 3981.00    0.71329   0.56718   14.019
 3982.00    0.49236   0.56367   20.310
 3983.00    1.11542   0.57732   -1.000
 3984.00    1.63490   0.60021   -1.000
 3985.00    0.76867   0.61824   13.009
 3986.00   -0.18572   0.62852   -2.000
 3987.00    0.97568   0.64018   -1.000
 3988.00    3.46096   0.65014   -1.000
 3989.00    4.75352   0.64947   -1.000
 3990.00    3.69016   0.65038   -1.000
 3991.00    0.90345   0.66466   -1.000
 3992.00   -1.37191   0.68354   -2.000
 3993.00   -1.32312   0.69148   -2.000
 3994.00    0.17418   0.68259   -1.000
 3995.00    1.41576   0.66285   -1.000
 3996.00    2.07661   0.64086   -1.000
 3997.00    2.45125   0.63103   -1.000
 3998.00    2.53209   0.65010   -1.000
 3999.00    2.12822   0.68667   -1.000
 4000.00    1.09892   0.70691   -1.000
 4001.00   -0.13759   0.70472   -2.000
 4002.00   -0.46929   0.70053   -2.000
 4003.00    0.37601   0.69098   -1.000
 4004.00    1.16591   0.65858   -1.000
 4005.00    1.21975   0.62895   -1.000
 4006.00    1.28176   0.64218   -1.000
 4007.00    1.74746   0.68293   -1.000
 4008.00    2.02798   0.71099   -1.000
 4009.00    1.88762   0.71844   -1.000
 4010.00    1.84144   0.71768   -1.000
 4011.00    2.28368   0.71195   -1.000
 4012.00    3.14646   0.70511   -1.000
 4013.00    3.96633   0.70559   -1.000
 4014.00    4.08989   0.71227   -1.000
 4015.00    3.19774   0.71877   -1.000
 4016.00    1.47815   0.71645   -1.000
 4017.00   -0.35894   0.71200   -2.000
 4018.00   -1.46024   0.72511   -2.000
 4019.00   -1.68936   0.74517   -2.000
 4020.00   -1.47882   0.74558   -2.000
 4021.00   -1.11263   0.72897   -2.000
 4022.00   -0.66091   0.71168   -2.000
 4023.00   -0.14216   0.69491   -2.000
 4024.00    0.34262   0.68442   -1.000
 4025.00    0.46759   0.70011   -1.000
 4026.00    0.05078   0.73233   -1.000
 4027.00   -0.43524   0.74609   -2.000
 4028.00   -0.39359   0.72964   -2.000
 4029.00    0.17322   0.68965   -1.000
 4030.00    0.92079   0.64498   -1.000
 4031.00    1.55003   0.62314   -1.000
 4032.00    1.89540   0.62552   -1.000
 4033.00    1.95536   0.63972   -1.000
 4034.00    1.73757   0.66270   -1.000
 4035.00    1.18120   0.69173   -1.000
 4036.00    0.61485   0.72291   16.264
 4037.00    0.90507   0.74576   11.049
 4038.00    2.06944   0.74947   -1.000
 4039.00    2.70290   0.73516   -1.000
 4040.00    2.16474   0.71741   -1.000
 4041.00    1.49552   0.71491   -1.000
 4042.00    1.30598   0.72057   -1.000
 4043.00    1.00000   0.70036   -1.000
 4044.00    0.40829   0.64816   -1.000
 4045.00    0.19700   0.61147   -1.000
 4046.00    0.41538   0.63552   -1.000
 4047.00    0.37327   0.68916   -1.000
 4048.00    0.28995   0.71418   -1.000
 4049.00    1.17363   0.71597   -1.000
 4050.00    2.65662   0.71784   -1.000
 4051.00    3.22512   0.71154   -1.000
 4052.00    2.65923   0.69243   -1.000
 4053.00    2.00432   0.67084   -1.000
 4054.00    1.88313   0.65900   -1.000
 4055.00    2.12740   0.66306   -1.000
 4056.00    1.91599   0.66841   -1.000
 4057.00    0.46774   0.66431   -1.000
 4058.00   -1.77739   0.66950   -2.000
 4059.00   -3.58360   0.69225   -2.000
 4060.00   -3.99111   0.70656   -2.000
 4061.00   -2.79008   0.68686   -2.000
 4062.00   -0.88392   0.64079   -2.000
 4063.00    0.63440   0.61236   15.763
 4064.00    1.65717   0.63115   -1.000
 4065.00    2.32610   0.66065   -1.000
 4066.00    2.12989   0.66019   -1.000
 4067.00    0.83231   0.65678   12.015
 4068.00   -0.63309   0.67889   -2.000
 4069.00   -1.30712   0.69298   -2.000
 4070.00   -1.22003   0.66726   -2.000
 4071.00   -0.87283   0.63431   -2.000
 4072.00   -0.75678   0.63870   -2.000
 4073.00   -1.26413   0.66469   -2.000
 4074.00   -2.52934   0.66646   -2.000
 4075.00   -3.72564   0.63107   -2.000
 4076.00   -3.11348   0.58114   -2.000
 4077.00   -0.49813   0.55601   -2.000
 4078.00    2.01460   0.57739   -1.000
 4079.00    2.65203   0.62415   -1.000
 4080.00    1.25529   0.66319   -1.000
 4081.00   -0.74699   0.67683   -2.000
 4082.00   -1.20150   0.66314   -2.000
 4083.00   -0.10855   0.63795   -2.000
 4084.00    0.51532   0.61812   19.406
 4085.00    0.33256   0.61101   -1.000
 4086.00    0.66253   0.62111   15.094
 4087.00    1.15366   0.64101   -1.000
 4088.00    0.32400   0.65183   -1.000
 4089.00   -0.89555   0.64495   -2.000
 4090.00   -0.30562   0.62843   -2.000
 4091.00    1.32334   0.61085   -1.000
 4092.00    1.67806   0.59720    0.000
 4093.00    1.22660   0.58667    0.000
 4094.00    1.66508   0.56399    0.000
 4095.00    2.09116   0.52592    0.000
 4096.00    0.98951   0.49077    0.000
 4097.00   -0.09652   0.46471   -2.000
 4098.00    0.92841   0.43790    0.000
 4099.00    2.94606   0.39845    0.000
 4100.00    3.76569   0.34459    0.000
 4101.00    3.05452   0.30527    0.000
 4102.00    1.59532   0.31480    0.000
 4103.00    0.18468   0.36347    0.000
 4104.00   -0.66428   0.41861   -2.000
 4105.00   -0.88256   0.46391   -2.000
 4106.00   -0.73114   0.49435   -2.000
 4107.00   -0.63803   0.51071   -2.000
 4108.00   -0.76228   0.51794   -2.000
 4109.00   -0.80193   0.52084   -2.000
 4110.00   -0.65719   0.52819   -2.000
 4111.00   -0.71621   0.54608   -2.000
 4112.00   -1.12407   0.57097   -2.000
 4113.00   -1.49244   0.59633   -2.000
 4114.00   -1.47320   0.61905   -2.000
 4115.00   -1.01245   0.63833   -2.000
 4116.00   -0.21282   0.64612   -2.000
 4117.00    0.77804   0.63106   12.853
 4118.00    1.93894   0.60673   -1.000
 4119.00    3.25776   0.60357   -1.000
 4120.00    4.17208   0.61847   -1.000
 4121.00    3.87939   0.62288   -1.000
 4122.00    2.69579   0.61732   -1.000
 4123.00    1.70716   0.62448   -1.000
 4124.00    0.95476   0.64379   -1.000
 4125.00   -0.16860   0.65228   -2.000
 4126.00   -1.08314   0.63817   -2.000
 4127.00   -0.68398   0.61256   -2.000
 4128.00    0.64013   0.59846   15.622
 4129.00    1.63838   0.60238   -1.000
 4130.00    1.92934   0.60384   -1.000
 4131.00    1.87892   0.59210   -1.000
 4132.00    1.95267   0.58586   -1.000
 4133.00    2.39716   0.60038   -1.000
 4134.00    2.96512   0.62945   -1.000
 4135.00    3.12957   0.65915   -1.000
 4136.00    2.42697   0.67309   -1.000
 4137.00    1.05889   0.67607   -1.000
 4138.00    0.29877   0.68800   -1.000
 4139.00    0.75795   0.70259   13.193
 4140.00    1.05222   0.70043   -1.000
 4141.00    0.27745   0.67200   -1.000
 4142.00   -0.26080   0.62444   -2.000
 4143.00    0.21252   0.59351   -1.000
 4144.00    0.36145   0.60807   -1.000
 4145.00   -0.20391   0.64446   -2.000
 4146.00    0.37796   0.66618   -1.000
 4147.00    2.35605   0.66835   -1.000
 4148.00    3.11842   0.65712   -1.000
 4149.00    1.86285   0.64255   -1.000
 4150.00    0.88390   0.63958   -1.000
 4151.00    1.06670   0.64548   -1.000
 4152.00    0.85244   0.64567   11.731
 4153.00   -0.18019   0.63421   -2.000
 4154.00   -0.67946   0.62049   -2.000
 4155.00   -0.02599   0.61639   -2.000
 4156.00    1.16728   0.62075   -1.000
 4157.00    2.11199   0.63371   -1.000
 4158.00    2.28134   0.65231   -1.000
 4159.00    1.68486   0.66213   -1.000
 4160.00    0.84102   0.65785   11.890
 4161.00    0.54381   0.65570   18.389
 4162.00    1.28799   0.66609   -1.000
 4163.00    2.30164   0.67499   -1.000
 4164.00    2.41776   0.67766   -1.000
 4165.00    1.86684   0.67593   -1.000
 4166.00    1.56977   0.66488   -1.000
 4167.00    1.60833   0.65739   -1.000
 4168.00    1.61321   0.66643   -1.000
 4169.00    1.58510   0.67271   -1.000
 4170.00    1.62043   0.64983   -1.000
 4171.00    1.49513   0.60249   -1.000
 4172.00    1.15181   0.56332   -1.000
 4173.00    1.16844   0.55996   -1.000
 4174.00    1.76868   0.58664   -1.000
 4175.00    2.01330   0.61145   -1.000
 4176.00    1.21520   0.61031   -1.000
 4177.00    0.02945   0.59173   -1.000
 4178.00   -0.60650   0.58621   -2.000
 4179.00   -0.33489   0.60838   -2.000
 4180.00    0.47142   0.63317   21.213
 4181.00    0.84544   0.63387   -1.000
 4182.00    0.34521   0.62493   -1.000
 4183.00   -0.46574   0.62763   -2.000
 4184.00   -0.82060   0.64219   -2.000
 4185.00   -0.27111   0.65129   -2.000
 4186.00    0.89304   0.63433   -1.000
 4187.00    1.74874   0.61344   -1.000
 4188.00    1.81216   0.62466   -1.000
 4189.00    1.32185   0.64889   -1.000
 4190.00    0.75510   0.65288   13.243
 4191.00    0.46573   0.65165   -1.000
 4192.00    0.15377   0.67024   -1.000
 4193.00   -0.75916   0.68826   -2.000
 4194.00   -1.78031   0.67445   -2.000
 4195.00   -1.83596   0.64154   -2.000
 4196.00   -1.17039   0.61812   -2.000
 4197.00   -0.85889   0.60104   -2.000
 4198.00   -0.96767   0.58910   -2.000
 4199.00   -0.92380   0.59993   -2.000
 4200.00   -0.81239   0.61532   -2.000
 4201.00   -0.85939   0.60910   -2.000
 4202.00   -0.33135   0.60206   -2.000
 4203.00    1.32101   0.60893   -1.000
 4204.00    2.78305   0.61532   -1.000
 4205.00    2.77166   0.62416   -1.000
 4206.00    2.43647   0.64207   -1.000
 4207.00    3.06076   0.65599   -1.000
 4208.00    3.51015   0.65509   -1.000
 4209.00    2.69459   0.64607   -1.000
 4210.00    1.89734   0.64730   -1.000
 4211.00    2.34688   0.66283   -1.000
 4212.00    3.18504   0.67437   -1.000
 4213.00    3.00465   0.66399   -1.000
 4214.00    1.22410   0.62987   -1.000
 4215.00   -1.23866   0.60087   -2.000
 4216.00   -2.06928   0.61402   -2.000
 4217.00   -0.37834   0.65443   -2.000
 4218.00    2.13794   0.67844   -1.000
 4219.00    3.74545   0.68060   -1.000
 4220.00    3.98340   0.68038   -1.000
 4221.00    3.42926   0.67569   -1.000
 4222.00    3.14784   0.65618   -1.000
 4223.00    3.10448   0.62617   -1.000
 4224.00    2.18790   0.58683   -1.000
 4225.00    0.43814   0.54129   22.824
 4226.00   -0.78203   0.51504   -2.000
 4227.00   -0.65940   0.54158   -2.000
 4228.00    0.52182   0.60868   19.164
 4229.00    1.53130   0.66407   -1.000
 4230.00    1.19249   0.68465   -1.000
 4231.00    0.51937   0.67101   -2.000
 4232.00    1.37459   0.63150   -2.000
 4233.00    2.77168   0.60414   -2.000
 4234.00    2.40625   0.60669   -2.000
 4235.00    0.74278   0.61235   -2.000
 4236.00   -0.19030   0.61528   -2.000
 4237.00    0.10674   0.62165   -2.000
 4238.00    0.82885   0.62167   -2.000
 4239.00    0.94267   0.62425   -2.000
 4240.00    0.01473   0.64146   -2.000
 4241.00   -1.04788   0.65671   -2.000
 4242.00   -1.24654   0.66112   -2.000
 4243.00   -0.88591   0.67034   -2.000
 4244.00   -0.71112   0.67781   -2.000
 4245.00   -0.93938   0.66017   -2.000
 4246.00   -1.43134   0.62818   -2.000
 4247.00   -1.91707   0.61470   -2.000
 4248.00   -2.01648   0.62043   -2.000
 4249.00   -1.32671   0.61472   -2.000
 4250.00    0.00466   0.60108   -1.000
 4251.00    1.11544   0.61027   -1.000
 4252.00    1.73380   0.62843   -1.000
 4253.00    2.60474   0.62576   -1.000
 4254.00    3.62009   0.61783   -1.000
 4255.00    3.38839   0.63180   -1.000
 4256.00    1.82334   0.65412   -1.000
 4257.00    0.66270   0.65263   15.090
 4258.00    0.68318   0.62699   14.637
 4259.00    1.02811   0.59844   -1.000
 4260.00    0.92420   0.58530   -1.000
 4261.00    0.25105   0.60314   -1.000
 4262.00   -0.67672   0.64220   -2.000
 4263.00   -1.33280   0.67327   -2.000
 4264.00   -1.37566   0.68836   -2.000
 4265.00   -0.75018   0.69416   -2.000
 4266.00    0.34096   0.68657   -1.000
 4267.00    1.50368   0.66538   -1.000
 4268.00    2.27921   0.64269   -1.000
 4269.00    2.35551   0.61882   -1.000
 4270.00    1.88987   0.58335   -1.000
 4271.00    1.27553   0.55272   -1.000
 4272.00    0.67311   0.55531   14.857
 4273.00    0.15845   0.57398   -1.000
 4274.00    0.02379   0.58366   -1.000
 4275.00    0.44116   0.60107   22.667
 4276.00    1.02199   0.63339   -1.000
 4277.00    1.35283   0.65728   -1.000
 4278.00    1.60366   0.66003   -1.000
 4279.00    1.90810   0.64794   -1.000
 4280.00    1.78483   0.63441   -1.000
 4281.00    1.12280   0.62593   -1.000
 4282.00    0.90513   0.62008   -1.000
 4283.00    1.63423   0.61972   -1.000
 4284.00    2.28766   0.62155   -1.000
 4285.00    1.96323   0.61958   -1.000
 4286.00    0.93701   0.61509   -1.000
 4287.00   -0.14434   0.60154   -2.000
 4288.00   -0.78665   0.56888   -2.000
 4289.00   -0.59665   0.53263   -2.000
 4290.00    0.58026   0.53363   17.234
 4291.00    1.84875   0.57687   -1.000
 4292.00    1.55276   0.61403   -1.000
 4293.00   -0.03586   0.61244   -2.000
 4294.00   -0.62446   0.59475   -2.000
 4295.00    0.41100   0.58883   -1.000
 4296.00    1.55462   0.58799   -1.000
 4297.00    1.99097   0.57623   -1.000
 4298.00    2.06742   0.54263   -1.000
 4299.00    1.97841   0.50402   -1.000
 4300.00    1.61694   0.49383   -1.000
 4301.00    1.14162   0.50217   -1.000
 4302.00    0.89789   0.50850   -1.000
 4303.00    0.94696   0.52429   -1.000
 4304.00    1.13714   0.54331   -1.000
 4305.00    1.42836   0.54508   -1.000
 4306.00    1.79687   0.53161   -1.000
 4307.00    1.99298   0.51122   -1.000
 4308.00    1.91865   0.50145   -1.000
 4309.00    2.17446   0.52063   -1.000
 4310.00    3.02911   0.55722   -1.000
 4311.00    3.12715   0.57992   -1.000
 4312.00    1.42740   0.57336   -1.000
 4313.00   -0.57748   0.55216   -2.000
 4314.00   -1.12234   0.54845   -2.000
 4315.00   -0.56935   0.58216   -2.000
 4316.00    0.08488   0.62716   -1.000
 4317.00    0.68598   0.64605   14.578
 4318.00    1.29209   0.64000   -1.000
 4319.00    1.64497   0.62287   -1.000
 4320.00    1.66742   0.60327   -1.000
 4321.00    1.73408   0.59626   -1.000
 4322.00    2.00590   0.59576   -1.000
 4323.00    2.11261   0.57128   -1.000
 4324.00    1.74759   0.51955   -1.000
 4325.00    1.02264   0.48092   -1.000
 4326.00    0.52818   0.49525   18.933
 4327.00    1.03649   0.54660   -1.000
 4328.00    2.20627   0.58130   -1.000
 4329.00    2.61562   0.57413   -1.000
 4330.00    1.87879   0.54925    0.000
 4331.00    0.95081   0.53826    0.000
 4332.00    0.50679   0.53736    0.000
 4333.00    0.50953   0.53293    0.000
 4334.00    0.55647   0.52636    0.000
 4335.00    0.24346   0.50594    0.000
 4336.00   -0.21690   0.45384   -2.000
 4337.00   -0.22687   0.38805   -2.000
 4338.00    0.35441   0.33719    0.000
 4339.00    1.24863   0.30048    0.000
 4340.00    2.19801   0.28713    0.000
 4341.00    2.92448   0.31922    0.000
 4342.00    2.94150   0.37258    0.000
 4343.00    2.10912   0.40979    0.000
 4344.00    1.43651   0.43886    0.000
 4345.00    1.82764   0.47226    0.000
 4346.00    2.36929   0.49922    0.000
 4347.00    1.83815   0.52233    0.000
 4348.00    0.64482   0.54754    0.000
 4349.00   -0.16446   0.55305   -2.000
 4350.00   -0.17209   0.52068   -2.000
 4351.00    0.40788   0.48259   24.517
 4352.00    0.92532   0.48787   -1.000
 4353.00    1.01125   0.52801   -1.000
 4354.00    1.05107   0.56294   -1.000
 4355.00    1.44870   0.58722   -1.000
 4356.00    2.13180   0.60498   -1.000
 4357.00    2.95313   0.60248   -1.000
 4358.00    3.86927   0.58406   -1.000
 4359.00    4.40275   0.57989   -1.000
 4360.00    3.65614   0.60075   -1.000
 4361.00    1.86109   0.62455   -1.000
 4362.00    0.61548   0.63606   16.247
 4363.00    0.59867   0.64570   16.704
 4364.00    0.97306   0.65878   -1.000
 4365.00    0.94785   0.65912   -1.000
 4366.00    0.45019   0.63498   -1.000
 4367.00    0.26263   0.60323   -1.000
 4368.00    1.38435   0.59045   -1.000
 4369.00    3.12667   0.59713   -1.000
 4370.00    3.69523   0.61033   -1.000
 4371.00    3.07338   0.62334   -1.000
 4372.00    2.64261   0.62148   -1.000
 4373.00    2.65755   0.59088   -1.000
 4374.00    2.47593   0.55498   -1.000
 4375.00    2.14365   0.55716   -1.000
 4376.00    2.05101   0.59913   -1.000
 4377.00    1.81140   0.63992   -1.000
 4378.00    0.90053   0.65090   -1.000
 4379.00   -0.10895   0.64088   -2.000
 4380.00   -0.28733   0.62917   -2.000
 4381.00    0.41399   0.60713   -1.000
 4382.00    1.43889   0.55398   -1.000
 4383.00    2.18292   0.49317   -1.000
 4384.00    2.28145   0.47796   -1.000
 4385.00    1.83187   0.51709   -1.000
 4386.00    1.22921   0.56496   -1.000
 4387.00    0.93990   0.58789   -1.000
 4388.00    1.04433   0.59287   -1.000
 4389.00    1.00343   0.58960   -1.000
 4390.00    0.65346   0.58428   15.303
 4391.00    0.73286   0.59225   13.645
 4392.00    1.43763   0.60565   -1.000
 4393.00    1.78424   0.59623   -1.000
 4394.00    1.47128   0.57202   -1.000
 4395.00    1.55519   0.57534   -1.000
 4396.00    2.35509   0.61040   -1.000
 4397.00    2.78322   0.63211   -1.000
 4398.00    2.16735   0.61697   -1.000
 4399.00    0.93733   0.58360   -1.000
 4400.00    0.04125   0.56746   -1.000
 4401.00    0.36341   0.58775   -1.000
 4402.00    1.61948   0.61013   -1.000
 4403.00    2.53809   0.59294   -1.000
 4404.00    2.50687   0.56235   -1.000
 4405.00    1.80671   0.56564   -1.000
 4406.00    0.89600   0.58506   -1.000
 4407.00    0.17678   0.58333   -1.000
 4408.00   -0.08635   0.57764   -2.000
 4409.00    0.21683   0.59418   -1.000
 4410.00    1.04499   0.61858   -1.000
 4411.00    2.16227   0.63440   -1.000
 4412.00    3.07163   0.63898   -1.000
 4413.00    3.25984   0.61806   -1.000
 4414.00    2.60566   0.57440   -1.000
 4415.00    1.52467   0.54600   -1.000
 4416.00    1.01462   0.54824   -1.000
 4417.00    1.71331   0.56595   -1.000
 4418.00    2.83400   0.59600   -1.000
 4419.00    3.32566   0.62807   -1.000
 4420.00    3.20542   0.63450   -1.000
 4421.00    2.91222   0.61159   -1.000
 4422.00    2.57156   0.59017   -1.000
 4423.00    2.16650   0.59448   -1.000
 4424.00    1.73477   0.61043   -1.000
 4425.00    1.34762   0.61552   -1.000
 4426.00    1.07789   0.61067   -1.000
 4427.00    0.96686   0.60928   -1.000
 4428.00    1.02334   0.61123   -1.000
 4429.00    1.33695   0.60243   -1.000
 4430.00    2.03841   0.59235   -1.000
 4431.00    2.76386   0.59786   -1.000
 4432.00    2.66404   0.60110   -1.000
 4433.00    1.67515   0.58322   -1.000
 4434.00    0.73076   0.55909   13.684
 4435.00    0.30655   0.55837   -1.000
 4436.00    0.08986   0.58950   -1.000
 4437.00   -0.10871   0.62886   -2.000
 4438.00   -0.18028   0.65198   -2.000
 4439.00   -0.18671   0.64982   -2.000
 4440.00   -0.31630   0.62250   -2.000
 4441.00   -0.38079   0.58116   -2.000
 4442.00   -0.00241   0.54582   -2.000
 4443.00    0.64117   0.53989   15.597
 4444.00    1.02767   0.57243   -1.000
 4445.00    1.08451   0.61388   -1.000
 4446.00    1.10933   0.62841   -1.000
 4447.00    1.30987   0.62570   -1.000
 4448.00    1.60887   0.62379   -1.000
 4449.00    1.50667   0.61313   -1.000
 4450.00    0.69503   0.60039   14.388
 4451.00   -0.10101   0.60404   -2.000
 4452.00    0.04311   0.60964   -1.000
 4453.00    1.08325   0.59170   -1.000
 4454.00    2.29302   0.55816   -1.000
 4455.00    2.80147   0.54341   -1.000
 4456.00    2.25196   0.55494   -1.000
 4457.00    1.30402   0.56503   -1.000
 4458.00    0.77610   0.56220   -1.000
 4459.00    0.87414   0.55783   -1.000
 4460.00    1.31847   0.55085   -1.000
 4461.00    1.57580   0.54399    0.000
 4462.00    1.45889   0.55755    0.000
 4463.00    1.38750   0.58182    0.000
 4464.00    1.55786   0.59014    0.000
 4465.00    1.59818   0.58675    0.000
 4466.00    1.43543   0.58216    0.000
 4467.00    1.56099   0.57182    0.000
 4468.00    2.09586   0.55697    0.000
 4469.00    2.52487   0.55337    0.000
 4470.00    2.41457   0.56713    0.000
 4471.00    1.71519   0.58821    0.000
 4472.00    0.74268   0.60936    0.000
 4473.00    0.01119   0.62627    0.000
 4474.00   -0.24308   0.63156   -2.000
 4475.00   -0.13878   0.62939   -2.000
 4476.00    0.06124   0.63561    0.000
 4477.00    0.14191   0.64478    0.000
 4478.00    0.23713   0.63229    0.000
 4479.00    0.63596   0.59054    0.000
 4480.00    1.23201   0.54016    0.000
 4481.00    1.68324   0.51904    0.000
 4482.00    1.92181   0.54563   -1.000
 4483.00    2.05842   0.59168   -1.000
 4484.00    2.06930   0.62404   -1.000
 4485.00    1.84512   0.63868   -1.000
 4486.00    1.34500   0.63615   -1.000
 4487.00    0.72658   0.61180   13.763
 4488.00    0.44141   0.57750   22.655
 4489.00    0.67122   0.55936   14.898
 4490.00    0.77201   0.56786   -1.000
 4491.00    0.32631   0.59058   -1.000
 4492.00    0.11600   0.60458   -1.000
 4493.00    0.77188   0.59437   12.955
 4494.00    1.63966   0.57580   -1.000
 4495.00    1.95912   0.57358   -1.000
 4496.00    1.79398   0.58736   -1.000
 4497.00    1.54109   0.60772   -1.000
 4498.00    1.50709   0.62371   -1.000
 4499.00    1.69099   0.62067   -1.000
 4500.00    1.81183   0.59972   -1.000
 4501.00    2.08251   0.59234   -1.000
 4502.00    3.26597   0.61999   -1.000
 4503.00    4.99069   0.65475   -1.000
 4504.00    5.58959   0.66623   -1.000
 4505.00    4.73690   0.65730   -1.000
 4506.00    3.83299   0.63842   -1.000
 4507.00    3.37648   0.61914   -1.000
 4508.00    2.63757   0.61452   -1.000
 4509.00    1.74131   0.62891   -1.000
 4510.00    1.67026   0.64347   -1.000
 4511.00    2.37558   0.64136   -1.000
 4512.00    2.86577   0.62730   -1.000
 4513.00    2.74803   0.60960   -1.000
 4514.00    2.29755   0.59391   -1.000
 4515.00    1.75724   0.59145   -1.000
 4516.00    1.30284   0.59918   -1.000
 4517.00    1.25993   0.60143   -1.000
 4518.00    1.76324   0.60028   -1.000
 4519.00    2.16161   0.60407   -1.000
 4520.00    1.76094   0.60950   -1.000
 4521.00    1.01346   0.60315   -1.000
 4522.00    0.69707   0.58588   14.346
 4523.00    0.66404   0.57890   15.059
 4524.00    0.49854   0.57878   20.058
 4525.00    0.41265   0.57015   -1.000
 4526.00    0.70032   0.55657   14.279
 4527.00    1.12700   0.54222   -1.000
 4528.00    1.41716   0.53188   -1.000
 4529.00    1.69841   0.53490   -1.000
 4530.00    2.07312   0.54945   -1.000
 4531.00    2.30128   0.56467   -1.000
 4532.00    2.20210   0.56317   -1.000
 4533.00    1.90610   0.54077   -1.000
 4534.00    1.53970   0.52739   -1.000
 4535.00    1.07178   0.54806   -1.000
 4536.00    0.61291   0.59124   16.316
 4537.00    0.49508   0.62232   20.199
 4538.00    0.84067   0.62051   -1.000
 4539.00    1.41068   0.59805   -1.000
 4540.00    1.87192   0.57821   -1.000
 4541.00    1.97259   0.57768   -1.000
 4542.00    1.74153   0.59282   -1.000
 4543.00    1.48336   0.59736   -1.000
 4544.00    1.52091   0.58540   -1.000
 4545.00    1.93143   0.57999   -1.000
 4546.00    2.07318   0.58591   -1.000
 4547.00    1.17521   0.58044   -1.000
 4548.00    0.09972   0.55159   -1.000
 4549.00    0.46045   0.52962   21.718
 4550.00    1.74907   0.54523    0.000
 4551.00    2.21030   0.57101    0.000
 4552.00    1.75512   0.57169    0.000
 4553.00    1.44588   0.55212    0.000
 4554.00    1.63231   0.53308    0.000
 4555.00    2.08565   0.53535    0.000
 4556.00    2.68309   0.56204    0.000
 4557.00    3.26828   0.58671    0.000
 4558.00    3.37003   0.59410    0.000
 4559.00    2.80157   0.59840    0.000
 4560.00    2.32247   0.60720    0.000
 4561.00    2.60902   0.61045    0.000
 4562.00    3.19192   0.59465    0.000
 4563.00    3.37700   0.56575    0.000
 4564.00    3.14869   0.55005    0.000
 4565.00    2.78233   0.56057    0.000
 4566.00    2.45868   0.58748    0.000
 4567.00    2.23372   0.61068    0.000
 4568.00    2.04823   0.61795    0.000
 4569.00    1.80483   0.61061    0.000
 4570.00    1.44130   0.58703    0.000
 4571.00    1.06244   0.56299    0.000
 4572.00    0.92709   0.57063    0.000
 4573.00    1.03247   0.59676    0.000
 4574.00    1.04436   0.60452    0.000
 4575.00    0.88712   0.59653    0.000
 4576.00    0.85609   0.59307    0.000
 4577.00    1.05491   0.59308    0.000
 4578.00    1.25307   0.58233    0.000
 4579.00    1.15509   0.56221    0.000
 4580.00    0.64680   0.54981    0.000
 4581.00    0.21210   0.54765    0.000
 4582.00    0.53053   0.54205    0.000
 4583.00    1.16955   0.53626    0.000
 4584.00    1.07522   0.54460    0.000
 4585.00    0.42168   0.55999    0.000
 4586.00    0.19289   0.57004    0.000
 4587.00    0.52140   0.57606    0.000
 4588.00    0.90903   0.58130    0.000
 4589.00    1.19482   0.58252    0.000
 4590.00    1.46483   0.57408    0.000
 4591.00    1.65091   0.56017    0.000
 4592.00    1.61220   0.55515    0.000
 4593.00    1.33501   0.56156    0.000
 4594.00    0.98783   0.56560    0.000
 4595.00    0.91638   0.56451    0.000
 4596.00    1.18455   0.56645    0.000
 4597.00    1.17601   0.57213    0.000
 4598.00    0.54156   0.57655    0.000
 4599.00    0.00441   0.57197    0.000
 4600.00    0.21884   0.56293    0.000
 4601.00    0.85975   0.56396    0.000
 4602.00    1.41423   0.57128    0.000
 4603.00    1.77596   0.57343    0.000
 4604.00    1.96307   0.56944    0.000
 4605.00    1.94787   0.56829    0.000
 4606.00    1.88438   0.57885    0.000
 4607.00    2.12852   0.59804    0.000
 4608.00    2.65993   0.61438    0.000
 4609.00    2.95237   0.61655    0.000
 4610.00    2.70982   0.60498    0.000
 4611.00    2.12823   0.59230    0.000
 4612.00    1.59844   0.58511    0.000
 4613.00    1.46747   0.58496    0.000
 4614.00    1.66221   0.58973    0.000
 4615.00    1.75979   0.58855    0.000
 4616.00    1.57988   0.58418    0.000
 4617.00    1.27991   0.58091    0.000
 4618.00    1.11712   0.57069    0.000
 4619.00    1.26920   0.56475    0.000
 4620.00    1.58443   0.57712    0.000
 4621.00    1.73633   0.59290    0.000
 4622.00    1.65156   0.59948    0.000
 4623.00    1.46967   0.59991    0.000
 4624.00    1.30878   0.59348    0.000
 4625.00    1.19116   0.58490    0.000
 4626.00    1.00720   0.58409    0.000
 4627.00    0.73777   0.58292    0.000
 4628.00    0.73599   0.57081    0.000
 4629.00    1.22105   0.56538    0.000
 4630.00    1.66830   0.58141    0.000
 4631.00    1.55850   0.59520    0.000
 4632.00    1.21203   0.58490    0.000
 4633.00    1.13953   0.56547    0.000
 4634.00    1.35798   0.55837    0.000
 4635.00    1.62417   0.56267    0.000
 4636.00    1.70864   0.56435    0.000
 4637.00    1.56461   0.56029    0.000
 4638.00    1.38827   0.55817    0.000
 4639.00    1.26760   0.56003    0.000
 4640.00    1.00451   0.56728    0.000
 4641.00    0.47181   0.57771    0.000
 4642.00   -0.19137   0.57982   -2.000
 4643.00   -0.70141   0.57237   -2.000
 4644.00   -0.77505   0.56031   -2.000
 4645.00   -0.46047   0.54117   -2.000
 4646.00   -0.16104   0.52231   -2.000
 4647.00   -0.13497   0.51828   -2.000
 4648.00   -0.30504   0.53064   -2.000
 4649.00   -0.32142   0.55086   -2.000
 4650.00    0.21391   0.56687    0.000
 4651.00    1.15940   0.57437    0.000
 4652.00    1.91300   0.57685    0.000
 4653.00    2.11011   0.56862    0.000
 4654.00    1.81074   0.55074    0.000
 4655.00    1.46182   0.53762    0.000
 4656.00    1.52782   0.53825    0.000
 4657.00    1.77541   0.55721    0.000
 4658.00    1.67806   0.58590    0.000
 4659.00    1.40478   0.60252    0.000
 4660.00    1.42139   0.59762    0.000
 4661.00    1.57622   0.57845    0.000
 4662.00    1.49397   0.55761    0.000
 4663.00    1.31962   0.54782    0.000
 4664.00    1.32956   0.54595    0.000
 4665.00    1.34540   0.53000    0.000
 4666.00    1.16907   0.49815    0.000
 4667.00    1.09970   0.48082    0.000
 4668.00    1.41130   0.49277    0.000
 4669.00    1.83324   0.51754    0.000
 4670.00    2.00512   0.54059    0.000
 4671.00    1.89544   0.55468    0.000
 4672.00    1.63857   0.55587    0.000
 4673.00    1.37199   0.55329    0.000
 4674.00    1.16188   0.55832    0.000
 4675.00    0.99331   0.57025    0.000
 4676.00    0.97315   0.57617    0.000
 4677.00    1.33160   0.56573    0.000
 4678.00    1.79230   0.54816    0.000
 4679.00    1.54585   0.53825    0.000
 4680.00    0.66403   0.53596    0.000
 4681.00    0.31914   0.53835    0.000
 4682.00    0.98277   0.54793    0.000
 4683.00    1.98905   0.55905    0.000
 4684.00    2.66588   0.56274    0.000
 4685.00    2.72640   0.56145    0.000
 4686.00    2.16003   0.55904    0.000
 4687.00    1.20994   0.55562    0.000
 4688.00    0.40814   0.55370    0.000
 4689.00    0.29849   0.55236    0.000
 4690.00    0.76688   0.54744    0.000
 4691.00    1.20327   0.54387    0.000
 4692.00    1.20146   0.54710    0.000
 4693.00    0.75971   0.55346    0.000
 4694.00    0.34403   0.56070    0.000
 4695.00    0.45733   0.56735    0.000
 4696.00    0.93720   0.56472    0.000
 4697.00    1.32165   0.54751    0.000
 4698.00    1.53782   0.52965    0.000
 4699.00    1.71090   0.52669    0.000
 4700.00    1.80208   0.53087    0.000
 4701.00    1.75686   0.52648    0.000
 4702.00    1.70731   0.51614    0.000
 4703.00    1.77260   0.51739    0.000
 4704.00    1.85369   0.53184    0.000
 4705.00    1.80271   0.54008    0.000
 4706.00    1.58660   0.53182    0.000
 4707.00    1.24750   0.51778    0.000
 4708.00    0.87075   0.51228    0.000
 4709.00    0.65490   0.52122    0.000
 4710.00    0.89016   0.53986    0.000
 4711.00    1.51925   0.55263    0.000
 4712.00    1.98831   0.54841    0.000
 4713.00    1.90024   0.53245    0.000
 4714.00    1.34180   0.52363    0.000
 4715.00    0.70976   0.53475    0.000
 4716.00    0.48660   0.55316    0.000
 4717.00    0.70374   0.56260    0.000
 4718.00    0.90225   0.56655    0.000
 4719.00    0.80263   0.57097    0.000
 4720.00    0.48078   0.57206    0.000
 4721.00    0.11811   0.56677    0.000
 4722.00   -0.10237   0.56198   -2.000
 4723.00   -0.04800   0.56627   -2.000
 4724.00    0.31958   0.57473    0.000
 4725.00    0.87688   0.57242    0.000
 4726.00    1.41574   0.55211    0.000
 4727.00    1.84260   0.52627    0.000
 4728.00    2.12270   0.51344    0.000
 4729.00    2.09909   0.51232    0.000
 4730.00    1.69083   0.51264    0.000
 4731.00    1.26131   0.51815    0.000
 4732.00    1.21780   0.53093    0.000
 4733.00    1.35120   0.54192    0.000
 4734.00    1.22435   0.54648    0.000
 4735.00    0.80227   0.54025    0.000
 4736.00    0.36941   0.52973    0.000
 4737.00    0.30807   0.53519    0.000
 4738.00    0.74628   0.55026    0.000
 4739.00    1.27141   0.55254    0.000
 4740.00    1.41907   0.54541    0.000
 4741.00    1.13087   0.54464    0.000
 4742.00    0.64227   0.55092    0.000
 4743.00    0.32378   0.55390    0.000
 4744.00    0.41170   0.55061    0.000
 4745.00    0.83659   0.55105    0.000
 4746.00    1.30998   0.55638    0.000
 4747.00    1.45146   0.55651    0.000
 4748.00    1.14659   0.55395    0.000
 4749.00    0.68268   0.55627    0.000
 4750.00    0.45227   0.55735    0.000
 4751.00    0.72747   0.55058    0.000
 4752.00    1.35448   0.54089    0.000
 4753.00    1.80665   0.53318    0.000
 4754.00    1.84741   0.52786    0.000
 4755.00    1.65984   0.52556    0.000
 4756.00    1.43504   0.52836    0.000
 4757.00    1.25062   0.53610    0.000
 4758.00    1.13151   0.54522    0.000
 4759.00    1.11467   0.55061    0.000
 4760.00    1.35579   0.54407    0.000
 4761.00    1.93084   0.52462   -1.000
 4762.00    2.35947   0.50681   -1.000
 4763.00    2.03154   0.49933   -1.000
 4764.00    1.22227   0.49611   -1.000
 4765.00    0.72576   0.49563   -1.000
 4766.00    0.87985   0.50337   -1.000
 4767.00    1.48662   0.51839   -1.000
 4768.00    1.98285   0.53405   -1.000
 4769.00    1.91677   0.54317   -1.000
 4770.00    1.52158   0.53870   -1.000
 4771.00    1.32172   0.52783   -1.000
 4772.00    1.56848   0.52818   -1.000
 4773.00    2.13404   0.54159   -1.000
 4774.00    2.52370   0.55209   -1.000
 4775.00    2.43269   0.55199   -1.000
 4776.00    2.19284   0.55205   -1.000
 4777.00    2.15801   0.55531   -1.000
 4778.00    2.21675   0.55071   -1.000
 4779.00    2.17103   0.54131   -1.000
 4780.00    2.01381   0.53950   -1.000
 4781.00    1.76963   0.53940   -1.000
 4782.00    1.41354   0.53081   -1.000
 4783.00    1.05562   0.52502   -1.000
 4784.00    0.96539   0.52805   -1.000
 4785.00    1.16797   0.52461   -1.000
 4786.00    1.34607   0.51739   -1.000
 4787.00    1.30058   0.51937   -1.000
 4788.00    1.12523   0.52168   -1.000
 4789.00    1.07524   0.52032   -1.000
 4790.00    1.40646   0.52353   -1.000
 4791.00    2.03246   0.53037   -1.000
 4792.00    2.55798   0.54028   -1.000
 4793.00    2.71812   0.55444   -1.000
 4794.00    2.47812   0.56444   -1.000
 4795.00    1.94095   0.56237   -1.000
 4796.00    1.30747   0.55126   -1.000
 4797.00    0.84269   0.53661   -1.000
 4798.00    0.77653   0.52304   -1.000
 4799.00    1.12507   0.51784   -1.000
 4800.00    1.68655   0.52537   -1.000
 4801.00    2.10941   0.54015   -1.000
 4802.00    2.11008   0.54869   -1.000
 4803.00    1.77973   0.54150   -1.000
 4804.00    1.42697   0.52498   -1.000
 4805.00    1.29208   0.51671   -1.000
 4806.00    1.45066   0.51847   -1.000
 4807.00    1.75484   0.51978   -1.000
 4808.00    1.95947   0.52149   -1.000
 4809.00    1.87633   0.52567   -1.000
 4810.00    1.48803   0.52757   -1.000
 4811.00    1.02708   0.52625   -1.000
 4812.00    0.83718   0.52631   -1.000
 4813.00    1.20234   0.52985   -1.000
 4814.00    1.98241   0.53424   -1.000
 4815.00    2.48837   0.53830   -1.000
 4816.00    2.38470   0.54228   -1.000
 4817.00    2.13487   0.54586   -1.000
 4818.00    2.09381   0.54921   -1.000
 4819.00    2.06772   0.55036   -1.000
 4820.00    1.84798   0.54679   -1.000
 4821.00    1.46685   0.53496   -1.000
 4822.00    1.05866   0.50945   -1.000
 4823.00    0.78168   0.48611   -1.000
 4824.00    0.77901   0.49016   -1.000
 4825.00    1.09859   0.51197   -1.000
 4826.00    1.48080   0.52510   -1.000
 4827.00    1.50261   0.52302   -1.000
 4828.00    1.21501   0.51649   -1.000
 4829.00    1.08299   0.51510   -1.000
 4830.00    1.31563   0.51329   -1.000
 4831.00    1.75931   0.50556   -1.000
 4832.00    2.08708   0.50258   -1.000
 4833.00    2.02829   0.50957   -1.000
 4834.00    1.72549   0.51470   -1.000
 4835.00    1.49276   0.51169   -1.000
 4836.00    1.26633   0.50925   -1.000
 4837.00    0.86890   0.50804   -1.000
 4838.00    0.56578   0.49941   17.675
 4839.00    0.71103   0.48864   -1.000
 4840.00    1.14808   0.48785   -1.000
 4841.00    1.47291   0.49186   -1.000
 4842.00    1.46982   0.48913   -1.000
 4843.00    1.21862   0.48635   -1.000
 4844.00    1.10992   0.49231   -1.000
 4845.00    1.37493   0.49737   -1.000
 4846.00    1.68845   0.48826   -1.000
 4847.00    1.72170   0.46679   -1.000
 4848.00    1.59268   0.45173    0.000
 4849.00    1.42806   0.45602    0.000
 4850.00    1.07330   0.46543    0.000
 4851.00    0.57145   0.46436    0.000
 4852.00    0.37763   0.45472    0.000
 4853.00    0.64668   0.43465    0.000
 4854.00    0.94613   0.40367    0.000
 4855.00    1.00032   0.38269    0.000
 4856.00    0.99427   0.38361    0.000
 4857.00    1.13525   0.38456    0.000
 4858.00    1.46349   0.36279    0.000
 4859.00    1.94108   0.31864    0.000
 4860.00    2.49852   0.27349    0.000
 4861.00    3.05834   0.26285    0.000
 4862.00    3.54289   0.29408    0.000
 4863.00    3.87304   0.33217    0.000
 4864.00    3.98300   0.35808    0.000
 4865.00    3.86056   0.38047    0.000
 4866.00    3.53408   0.40094    0.000
 4867.00    3.01788   0.41545    0.000
 4868.00    2.34931   0.42533    0.000
 4869.00    1.69039   0.42437    0.000
 4870.00    1.27993   0.40652    0.000
 4871.00    1.29959   0.39328    0.000
 4872.00    1.73287   0.40591    0.000
 4873.00    2.19629   0.42908    0.000
 4874.00    2.27146   0.44160    0.000
 4875.00    2.00546   0.44560   -1.000
 4876.00    1.73008   0.45094   -1.000
 4877.00    1.72564   0.46082   -1.000
 4878.00    1.99642   0.47748   -1.000
 4879.00    2.11165   0.49204   -1.000
 4880.00    1.71939   0.48888   -1.000
 4881.00    1.03431   0.47661   -1.000
 4882.00    0.47263   0.47114   21.158
 4883.00    0.28192   0.46732   -1.000
 4884.00    0.46141   0.45915   21.673
 4885.00    0.75739   0.45341   -1.000
 4886.00    0.90487   0.45676   -1.000
 4887.00    0.80456   0.46553   -1.000
 4888.00    0.57971   0.46918   17.250
 4889.00    0.53504   0.45833   18.690
 4890.00    0.79560   0.43931   -1.000
 4891.00    1.17110   0.44116   -1.000
 4892.00    1.42403   0.47085   -1.000
 4893.00    1.41261   0.50194   -1.000
 4894.00    1.13544   0.52071   -1.000
 4895.00    0.74158   0.52865   -1.000
 4896.00    0.50409   0.52873   19.838
 4897.00    0.69675   0.52412   14.352
 4898.00    1.25055   0.51164   -1.000
 4899.00    1.77776   0.49525   -1.000
 4900.00    1.94482   0.49168   -1.000
 4901.00    1.65287   0.49766   -1.000
 4902.00    1.20020   0.49545   -1.000
 4903.00    1.05824   0.49092   -1.000
 4904.00    1.31989   0.50009   -1.000
 4905.00    1.72532   0.51690   -1.000
 4906.00    1.94889   0.52265   -1.000
 4907.00    1.82725   0.51282   -1.000
 4908.00    1.62275   0.49442   -1.000
 4909.00    1.67399   0.47354   -1.000
 4910.00    1.84516   0.46248   -1.000
 4911.00    1.85918   0.47057   -1.000
 4912.00    1.80822   0.48737   -1.000
 4913.00    1.86436   0.50058   -1.000
 4914.00    1.90117   0.51121   -1.000
 4915.00    1.78735   0.51742   -1.000
 4916.00    1.69376   0.50871   -1.000
 4917.00    1.78827   0.48100   -1.000
 4918.00    1.96362   0.44568   -1.000
 4919.00    2.06487   0.42130   -1.000
 4920.00    2.07942   0.42063   -1.000
 4921.00    2.07550   0.44010   -1.000
 4922.00    2.12462   0.45441   -1.000
 4923.00    2.14863   0.45098   -1.000
 4924.00    1.91038   0.45304   -1.000
 4925.00    1.45939   0.47533   -1.000
 4926.00    1.23025   0.49784   -1.000
 4927.00    1.35189   0.50824   -1.000
 4928.00    1.48053   0.51578   -1.000
 4929.00    1.50211   0.52044   -1.000
 4930.00    1.64754   0.51864   -1.000
 4931.00    1.81149   0.50983   -1.000
 4932.00    1.58647   0.48848   -1.000
 4933.00    1.18295   0.46738   -1.000
 4934.00    1.27599   0.47026   -1.000
 4935.00    1.73870   0.48492   -1.000
 4936.00    1.83931   0.48203   -1.000
 4937.00    1.61806   0.46096   -1.000
 4938.00    1.68615   0.44551   -1.000
 4939.00    2.03140   0.45581   -1.000
 4940.00    2.14653   0.48358    0.000
 4941.00    1.79230   0.50360    0.000
 4942.00    1.10854   0.51076    0.000
 4943.00    0.52905   0.51338    0.000
 4944.00    0.43565   0.50908    0.000
 4945.00    0.68746   0.49965    0.000
 4946.00    0.95034   0.49833    0.000
 4947.00    1.20657   0.50541    0.000
 4948.00    1.53141   0.51009    0.000
 4949.00    1.77498   0.51112    0.000
 4950.00    1.79014   0.51248    0.000
 4951.00    1.68403   0.51068    0.000
 4952.00    1.61521   0.50407    0.000
 4953.00    1.59515   0.50039    0.000
 4954.00    1.57167   0.50099    0.000
 4955.00    1.52664   0.48948    0.000
 4956.00    1.59802   0.45505    0.000
 4957.00    2.08352   0.43129    0.000
 4958.00    2.94191   0.45212    0.000
 4959.00    3.59870   0.49057    0.000
 4960.00    3.62582   0.50849    0.000
 4961.00    3.07815   0.50803    0.000
 4962.00    2.23754   0.50716    0.000
 4963.00    1.44670   0.50587    0.000
 4964.00    0.97766   0.49446    0.000
 4965.00    0.94610   0.47952    0.000
 4966.00    1.20538   0.47401    0.000
 4967.00    1.42911   0.47547    0.000
 4968.00    1.50173   0.47731    0.000
 4969.00    1.58025   0.47909    0.000
 4970.00    1.88506   0.48377    0.000
 4971.00    2.51212   0.49207    0.000
 4972.00    3.13491   0.49935    0.000
 4973.00    3.23338   0.50443    0.000
 4974.00    2.76272   0.50676    0.000
 4975.00    2.09680   0.50396    0.000
 4976.00    1.60816   0.49716    0.000
 4977.00    1.49494   0.48702    0.000
 4978.00    1.64182   0.47718    0.000
 4979.00    1.81452   0.47135    0.000
 4980.00    1.98412   0.46126    0.000
 4981.00    2.21429   0.43845    0.000
 4982.00    2.44703   0.41613    0.000
 4983.00    2.56927   0.41324    0.000
 4984.00    2.53006   0.42690    0.000
 4985.00    2.38726   0.44637    0.000
 4986.00    2.32152   0.46804    0.000
 4987.00    2.42619   0.48291    0.000
 4988.00    2.53973   0.48368    0.000
 4989.00    2.51373   0.47538    0.000
 4990.00    2.41944   0.46697    0.000
 4991.00    2.33989   0.46616    0.000
 4992.00    2.23551   0.46801    0.000
 4993.00    2.13443   0.46669    0.000
 4994.00    2.20553   0.47113    0.000
 4995.00    2.44285   0.48026    0.000
 4996.00    2.55829   0.48401    0.000
 4997.00    2.35744   0.48024    0.000
 4998.00    1.90493   0.46837    0.000
 4999.00    1.39879   0.45222    0.000
 5000.00    1.07583   0.44042    0.000
 5001.00    1.08050   0.43793    0.000
 5002.00    1.44204   0.44397    0.000
 5003.00    2.16814   0.44787    0.000
 5004.00    3.26258   0.43706    0.000
 5005.00    4.67722   0.41963    0.000
 5006.00    6.23290   0.41961    0.000
 5007.00    7.46306   0.44231    0.000
 5008.00    7.80277   0.46448    0.000
 5009.00    7.10577   0.46878    0.000
 5010.00    5.68156   0.45939    0.000
 5011.00    4.11158   0.44219    0.000
 5012.00    2.95629   0.42423    0.000
 5013.00    2.32034   0.41486    0.000
 5014.00    2.01733   0.41983    0.000
 5015.00    1.94624   0.43254    0.000
 5016.00    2.04217   0.43239    0.000
 5017.00    2.13902   0.41601    0.000
 5018.00    2.13778   0.40962    0.000
 5019.00    2.20966   0.42390    0.000
 5020.00    2.49873   0.43757    0.000
 5021.00    2.79565   0.43790    0.000
 5022.00    2.75128   0.43870    0.000
 5023.00    2.14995   0.44994    0.000
 5024.00    1.24238   0.46131    0.000
 5025.00    0.87416   0.46233    0.000
 5026.00    1.44671   0.45145    0.000
 5027.00    2.28398   0.44215    0.000
 5028.00    2.65703   0.44793    0.000
 5029.00    2.46231   0.45784   -1.000
 5030.00    2.04058   0.46181   -1.000
 5031.00    1.93838   0.46842   -1.000
 5032.00    2.35143   0.48019   -1.000
 5033.00    2.93638   0.48323   -1.000
 5034.00    3.23749   0.46699   -1.000
 5035.00    2.97472   0.44499   -1.000
 5036.00    2.37079   0.44052   -1.000
 5037.00    2.02458   0.44664   -1.000
 5038.00    2.05936   0.44021   -1.000
 5039.00    2.08416   0.41733   -1.000
 5040.00    1.98148   0.39338   -1.000
 5041.00    1.95858   0.39485   -1.000
 5042.00    2.03206   0.42562   -1.000
 5043.00    2.04619   0.45697   -1.000
 5044.00    2.04039   0.47508   -1.000
 5045.00    2.17627   0.48513   -1.000
 5046.00    2.41147   0.48272   -1.000
 5047.00    2.56534   0.46395   -1.000
 5048.00    2.56131   0.44261   -1.000
 5049.00    2.43689   0.43329   -1.000
 5050.00    2.28340   0.43306   -1.000
 5051.00    2.15258   0.43508   -1.000
 5052.00    1.95203   0.44353   -1.000
 5053.00    1.63309   0.45773   -1.000
 5054.00    1.41859   0.46620   -1.000
 5055.00    1.51309   0.46518   -1.000
 5056.00    1.77680   0.46464   -1.000
 5057.00    1.97908   0.47011   -1.000
 5058.00    2.06993   0.47544   -1.000
 5059.00    2.09318   0.47842   -1.000
 5060.00    2.08596   0.48260   -1.000
 5061.00    2.04401   0.48583   -1.000
 5062.00    1.91553   0.48053   -1.000
 5063.00    1.70221   0.46173   -1.000
 5064.00    1.50357   0.44063   -1.000
 5065.00    1.37179   0.43669   -1.000
 5066.00    1.24973   0.44322   -1.000
 5067.00    1.10893   0.44292   -1.000
 5068.00    1.00734   0.44169   -1.000
 5069.00    1.01145   0.44936   -1.000
 5070.00    1.15121   0.45308   -1.000
 5071.00    1.39285   0.44359   -1.000
 5072.00    1.64863   0.43759   -1.000
 5073.00    1.84714   0.44236   -1.000
 5074.00    1.96158   0.44412   -1.000
 5075.00    2.01604   0.44276   -1.000
 5076.00    2.05765   0.44715   -1.000
 5077.00    2.07807   0.44613   -1.000
 5078.00    2.01730   0.42508   -1.000
 5079.00    1.82635   0.40173   -1.000
 5080.00    1.52473   0.40122   -1.000
 5081.00    1.28222   0.41595   -1.000
 5082.00    1.30369   0.42497   -1.000
 5083.00    1.58790   0.42892   -1.000
 5084.00    1.95270   0.43791   -1.000
 5085.00    2.16005   0.44632   -1.000
 5086.00    2.09852   0.44602   -1.000
 5087.00    1.99174   0.44415   -1.000
 5088.00    2.05339   0.44814   -1.000
 5089.00    2.04771   0.45248   -1.000
 5090.00    1.74880   0.45331   -1.000
 5091.00    1.47058   0.45641   -1.000
 5092.00    1.53791   0.46324   -1.000
 5093.00    1.75054   0.46708   -1.000
 5094.00    1.82522   0.46338   -1.000
 5095.00    1.79448   0.45262   -1.000
 5096.00    1.72631   0.43668   -1.000
 5097.00    1.52160   0.41878   -1.000
 5098.00    1.20410   0.40509   -1.000
 5099.00    1.06279   0.40629   -1.000
 5100.00    1.24321   0.42356   -1.000
 5101.00    1.55372   0.44187   -1.000
 5102.00    1.79753   0.44882   -1.000
 5103.00    1.94065   0.44669   -1.000
 5104.00    2.02691   0.44308   -1.000
 5105.00    2.09510   0.43907   -1.000
 5106.00    2.02647   0.43099   -1.000
 5107.00    1.61007   0.42364   -1.000
 5108.00    0.99263   0.42190   -1.000
 5109.00    0.64018   0.42105   -1.000
 5110.00    0.70300   0.42475   -1.000
 5111.00    0.95669   0.43591   -1.000
 5112.00    1.21432   0.44487   -1.000
 5113.00    1.40924   0.44811   -1.000
 5114.00    1.50409   0.44882   -1.000
 5115.00    1.49299   0.45017   -1.000
 5116.00    1.45236   0.45540   -1.000
 5117.00    1.46158   0.46036   -1.000
 5118.00    1.44074   0.45871   -1.000
 5119.00    1.29259   0.45136   -1.000
 5120.00    1.17707   0.44228   -1.000
 5121.00    1.28991   0.43220   -1.000
 5122.00    1.48803   0.41874   -1.000
 5123.00    1.55555   0.40695   -1.000
 5124.00    1.60013   0.40549   -1.000
 5125.00    1.79611   0.41103   -1.000
 5126.00    2.04868   0.41441   -1.000
 5127.00    2.18499   0.41247   -1.000
 5128.00    2.17934   0.40891   -1.000
 5129.00    2.08764   0.41046   -1.000
 5130.00    1.96708   0.41844   -1.000
 5131.00    1.85944   0.42518   -1.000
 5132.00    1.78144   0.42602   -1.000
 5133.00    1.71593   0.42817   -1.000
 5134.00    1.62749   0.43702   -1.000
 5135.00    1.59455   0.43996   -1.000
 5136.00    1.82679   0.42918   -1.000
 5137.00    2.31868   0.41588   -1.000
 5138.00    2.73895   0.40708   -1.000
 5139.00    2.82211   0.40935   -1.000
 5140.00    2.54951   0.41934   -1.000
 5141.00    2.08915   0.41636   -1.000
 5142.00    1.70054   0.40753   -1.000
 5143.00    1.49873   0.41322   -1.000
 5144.00    1.43587   0.42109   -1.000
 5145.00    1.52417   0.41646   -1.000
 5146.00    1.82369   0.40837   -1.000
 5147.00    2.20076   0.40725   -1.000
 5148.00    2.37093   0.41341   -1.000
 5149.00    2.18103   0.41831   -1.000
 5150.00    1.69409   0.41563   -1.000
 5151.00    1.20680   0.41018   -1.000
 5152.00    1.05035   0.40446   -1.000
 5153.00    1.20860   0.39972   -1.000
 5154.00    1.41107   0.40398   -1.000
 5155.00    1.42555   0.41732   -1.000
 5156.00    1.20168   0.43109   -1.000
 5157.00    0.99165   0.43923   -1.000
 5158.00    1.05728   0.44011   -1.000
 5159.00    1.27613   0.43827   -1.000
 5160.00    1.38388   0.43455   -1.000
 5161.00    1.31333   0.42581   -1.000
 5162.00    1.13009   0.41951   -1.000
 5163.00    0.92927   0.41765   -1.000
 5164.00    0.85885   0.40633   -1.000
 5165.00    1.11436   0.37880   -1.000
 5166.00    1.63364   0.34440   -1.000
 5167.00    1.93961   0.32302   -1.000
 5168.00    1.81191   0.33112   -1.000
 5169.00    1.66027   0.35934   -1.000
 5170.00    1.76074   0.37075   -1.000
 5171.00    1.85360   0.34937   -1.000
 5172.00    1.70804   0.33345   -1.000
 5173.00    1.41764   0.35721   -1.000
 5174.00    1.21952   0.39797   -1.000
 5175.00    1.33376   0.42014   -1.000
 5176.00    1.70148   0.42471   -1.000
 5177.00    1.98990   0.42736   -1.000
 5178.00    2.03061   0.42853   -1.000
 5179.00    1.91269   0.42471   -1.000
 5180.00    1.72634   0.41595   -1.000
 5181.00    1.50212   0.39481   -1.000
 5182.00    1.29322   0.35699   -1.000
 5183.00    1.17369   0.33088   -1.000
 5184.00    1.17070   0.34644   -1.000
 5185.00    1.26624   0.38417   -1.000
 5186.00    1.44011   0.40861   -1.000
 5187.00    1.65486   0.41166   -1.000
 5188.00    1.80973   0.41129   -1.000
 5189.00    1.81907   0.41799   -1.000
 5190.00    1.75783   0.41084    0.000
 5191.00    1.75922   0.38672    0.000
 5192.00    1.82384   0.37831    0.000
 5193.00    1.89393   0.39036    0.000
 5194.00    1.98966   0.39620    0.000
 5195.00    2.15445   0.39357    0.000
 5196.00    2.37126   0.39534    0.000
 5197.00    2.60582   0.40239    0.000
 5198.00    2.85487   0.41250    0.000
 5199.00    3.06711   0.42108    0.000
 5200.00    3.08449   0.42323    0.000
 5201.00    2.81441   0.42020    0.000
 5202.00    2.35979   0.41516    0.000
 5203.00    1.88089   0.40284    0.000
 5204.00    1.49334   0.38157    0.000
 5205.00    1.31536   0.36845    0.000
 5206.00    1.46203   0.37147    0.000
 5207.00    1.81714   0.37363    0.000
 5208.00    1.99203   0.37336    0.000
 5209.00    1.77533   0.38304    0.000
 5210.00    1.32137   0.39871    0.000
 5211.00    0.95955   0.41466   -1.000
 5212.00    1.00947   0.42760   -1.000
 5213.00    1.42906   0.42872   -1.000
 5214.00    1.81077   0.41449   -1.000
 5215.00    1.83132   0.39796   -1.000
 5216.00    1.43680   0.39528   -1.000
 5217.00    0.91003   0.40762   -1.000
 5218.00    0.68766   0.42384   -1.000
 5219.00    0.84681   0.43392   -1.000
 5220.00    1.12557   0.43754   -1.000
 5221.00    1.28687   0.43704   -1.000
 5222.00    1.26339   0.43065   -1.000
 5223.00    1.26100   0.41665   -1.000
 5224.00    1.52387   0.39491   -1.000
 5225.00    1.89536   0.36576   -1.000
 5226.00    2.03064   0.34505   -1.000
 5227.00    1.84773   0.35756   -1.000
 5228.00    1.46552   0.39205   -1.000
 5229.00    1.01779   0.41625   -1.000
 5230.00    0.63833   0.42354   -1.000
 5231.00    0.46636   0.41596   21.443
 5232.00    0.55949   0.39721   -1.000
 5233.00    0.80810   0.38430   -1.000
 5234.00    1.04102   0.38722   -1.000
 5235.00    1.14310   0.40114   -1.000
 5236.00    1.12188   0.41585   -1.000
 5237.00    1.12522   0.42412   -1.000
 5238.00    1.20756   0.42636   -1.000
 5239.00    1.20169   0.42685   -1.000
 5240.00    1.04812   0.42882   -1.000
 5241.00    0.96053   0.42845   -1.000
 5242.00    1.07673   0.42555   -1.000
 5243.00    1.29028   0.42908   -1.000
 5244.00    1.47212   0.43605   -1.000
 5245.00    1.58084   0.42993   -1.000
 5246.00    1.61757   0.41218   -1.000
 5247.00    1.60437   0.40327   -1.000
 5248.00    1.58766   0.40427   -1.000
 5249.00    1.62378   0.40043   -1.000
 5250.00    1.72508   0.39667   -1.000
 5251.00    1.84986   0.40382   -1.000
 5252.00    1.93053   0.41277   -1.000
 5253.00    1.92113   0.41020   -1.000
 5254.00    1.89474   0.40085   -1.000
 5255.00    1.97012   0.40294   -1.000
 5256.00    2.08372   0.41939   -1.000
 5257.00    2.05501   0.43478   -1.000
 5258.00    1.83219   0.43911   -1.000
 5259.00    1.49985   0.43235   -1.000
 5260.00    1.19382   0.41670   -1.000
 5261.00    1.02072   0.39540   -1.000
 5262.00    0.96101   0.37375   -1.000
 5263.00    0.96524   0.35597   -1.000
 5264.00    1.09965   0.34366   -1.000
 5265.00    1.37411   0.34168   -1.000
 5266.00    1.52883   0.35601   -1.000
 5267.00    1.37980   0.36902   -1.000
 5268.00    1.19236   0.35443   -1.000
 5269.00    1.28049   0.33300   -1.000
 5270.00    1.59596   0.34406   -1.000
 5271.00    1.91451   0.37496   -1.000
 5272.00    2.04100   0.39053   -1.000
 5273.00    1.90300   0.38708   -1.000
 5274.00    1.59531   0.37610   -1.000
 5275.00    1.27366   0.37403   -1.000
 5276.00    1.06847   0.39380   -1.000
 5277.00    1.01786   0.41833   -1.000
 5278.00    1.05043   0.42485   -1.000
 5279.00    1.09237   0.41577   -1.000
 5280.00    1.13173   0.40471   -1.000
 5281.00    1.24463   0.39658   -1.000
 5282.00    1.54438   0.38752   -1.000
 5283.00    1.93939   0.38168   -1.000
 5284.00    2.15513   0.39421   -1.000
 5285.00    2.15662   0.42058   -1.000
 5286.00    2.17270   0.43734   -1.000
 5287.00    2.29693   0.43751   -1.000
 5288.00    2.41780   0.43397   -1.000
 5289.00    2.38252   0.43595   -1.000
 5290.00    2.11572   0.43919   -1.000
 5291.00    1.78208   0.43658   -1.000
 5292.00    1.66869   0.42947   -1.000
 5293.00    1.85728   0.42559   -1.000
 5294.00    2.20213   0.42441   -1.000
 5295.00    2.43084   0.41485   -1.000
 5296.00    2.33346   0.39357   -1.000
 5297.00    2.02729   0.37705   -1.000
 5298.00    1.76608   0.38263   -1.000
 5299.00    1.60669   0.39987   -1.000
 5300.00    1.48589   0.40614   -1.000
 5301.00    1.37912   0.40265   -1.000
 5302.00    1.29488   0.40625   -1.000
 5303.00    1.24605   0.41956   -2.000
 5304.00    1.24908   0.42988   -2.000
 5305.00    1.32505   0.42903   -2.000
 5306.00    1.48682   0.42197   -2.000
 5307.00    1.72622   0.41923   -2.000
 5308.00    2.00152   0.42484   -2.000
 5309.00    2.23663   0.43187   -2.000
 5310.00    2.38041   0.43366   -2.000
 5311.00    2.43790   0.43053   -2.000
 5312.00    2.40954   0.42467   -2.000
 5313.00    2.26303   0.42029   -2.000
 5314.00    1.98924   0.41564   -2.000
 5315.00    1.64187   0.40406   -2.000
 5316.00    1.37362   0.39484   -2.000
 5317.00    1.39408   0.40044   -2.000
 5318.00    1.73438   0.41184   -1.000
 5319.00    2.19936   0.41724   -1.000
 5320.00    2.55401   0.41839   -1.000
 5321.00    2.63293   0.41704   -1.000
 5322.00    2.45661   0.40866   -1.000
 5323.00    2.20101   0.39347   -1.000
 5324.00    2.00951   0.38577   -1.000
 5325.00    1.93978   0.38840   -1.000
 5326.00    1.96962   0.37773   -1.000
 5327.00    2.01035   0.34818   -1.000
 5328.00    1.93506   0.33634   -1.000
 5329.00    1.68913   0.36112   -1.000
 5330.00    1.47554   0.39357   -1.000
 5331.00    1.54326   0.40656   -1.000
 5332.00    1.78792   0.40516   -1.000
 5333.00    1.95318   0.40613   -1.000
 5334.00    2.01838   0.41147   -1.000
 5335.00    2.08155   0.41167   -1.000
 5336.00    2.13662   0.40635   -1.000
 5337.00    2.13627   0.40310   -1.000
 5338.00    2.09424   0.39757   -1.000
 5339.00    2.04995   0.38366   -1.000
 5340.00    2.02486   0.37668   -1.000
 5341.00    2.06056   0.38945   -1.000
 5342.00    2.23954   0.40764   -1.000
 5343.00    2.53956   0.41502   -1.000
 5344.00    2.74890   0.40999   -1.000
 5345.00    2.70850   0.40121   -1.000
 5346.00    2.46915   0.39930   -1.000
 5347.00    2.17038   0.39916   -1.000
 5348.00    1.94808   0.39404   -1.000
 5349.00    1.87811   0.39408   -1.000
 5350.00    1.95125   0.40545   -1.000
 5351.00    2.09186   0.41667   -1.000
 5352.00    2.18526   0.41939   -1.000
 5353.00    2.14951   0.42153   -1.000
 5354.00    1.97719   0.42868   -1.000
 5355.00    1.77263   0.43436   -1.000
 5356.00    1.71230   0.43529   -1.000
 5357.00    1.87628   0.43474   -1.000
 5358.00    2.20294   0.43448   -1.000
 5359.00    2.52337   0.43250   -1.000
 5360.00    2.64773   0.42478   -1.000
 5361.00    2.54984   0.41178   -1.000
 5362.00    2.36476   0.40258   -1.000
 5363.00    2.27396   0.39967   -1.000
 5364.00    2.37340   0.39746   -1.000
 5365.00    2.48030   0.39670   -1.000
 5366.00    2.32507   0.39775   -1.000
 5367.00    1.93695   0.39733   -1.000
 5368.00    1.54933   0.39090   -1.000
 5369.00    1.35064   0.37475   -1.000
 5370.00    1.38916   0.35963   -1.000
 5371.00    1.51083   0.36399   -1.000
 5372.00    1.54946   0.38736   -1.000
 5373.00    1.55122   0.41003   -1.000
 5374.00    1.66952   0.42088   -1.000
 5375.00    2.01539   0.42166   -1.000
 5376.00    2.52722   0.41735   -1.000
 5377.00    2.89940   0.41503   -1.000
 5378.00    2.88274   0.41463   -1.000
 5379.00    2.52401   0.40970   -1.000
 5380.00    2.07286   0.40305   -1.000
 5381.00    1.85187   0.39957   -1.000
 5382.00    1.94257   0.39715   -1.000
 5383.00    2.06356   0.39938   -1.000
 5384.00    1.98637   0.40821   -1.000
 5385.00    1.74147   0.41424   -1.000
 5386.00    1.44603   0.41364   -1.000
 5387.00    1.20986   0.41000   -1.000
 5388.00    1.12497   0.40357   -1.000
 5389.00    1.24087   0.39576   -1.000
 5390.00    1.48638   0.39094   -1.000
 5391.00    1.68865   0.38909   -1.000
 5392.00    1.73484   0.38820   -1.000
 5393.00    1.62573   0.38909   -1.000
 5394.00    1.46638   0.38969   -1.000
 5395.00    1.40804   0.38078   -1.000
 5396.00    1.51129   0.36567   -1.000
 5397.00    1.72477   0.36535   -1.000
 5398.00    1.92241   0.38063   -1.000
 5399.00    1.97427   0.39041   -1.000
 5400.00    1.86637   0.39129   -1.000
 5401.00    1.68371   0.39260   -1.000
 5402.00    1.53511   0.38849   -1.000
 5403.00    1.49647   0.37158   -1.000
 5404.00    1.54736   0.35227   -1.000
 5405.00    1.61757   0.34688   -1.000
 5406.00    1.66447   0.35897   -1.000
 5407.00    1.68016   0.37372   -1.000
 5408.00    1.68128   0.37444   -1.000
 5409.00    1.63381   0.36621   -1.000
 5410.00    1.40670   0.36904   -1.000
 5411.00    1.10538   0.38486   -1.000
 5412.00    1.28303   0.39588   -2.000
 5413.00    1.98765   0.39368   -2.000
 5414.00    2.20204   0.38917   -2.000
 5415.00    1.74953   0.39456   -2.000
 5416.00    2.18697   0.40471   -2.000
 5417.00    3.18218   0.40732   -2.000
 5418.00    1.50045   0.40170   -2.000
 5419.00   -1.04252   0.39452   -2.000
 5420.00    2.31678   0.39214   -2.000
 5421.00   -0.07315   0.39581   -2.000
 5422.00  -35.82933   0.39396   -2.000
 5423.00  -86.29842   0.38173   -2.000
 5424.00  -85.92599   0.37741   -2.000
 5425.00  -26.59617   0.39089   -2.000
 5426.00   29.26436   0.40615   -2.000
 5427.00   44.86403   0.40361   -2.000
 5428.00   31.03613   0.38176   -2.000
 5429.00    9.93382   0.36656   -2.000
 5430.00   -0.97681   0.37512   -2.000
 5431.00   -0.20009   0.38544   -2.000
 5432.00    2.32909   0.37984   -2.000
 5433.00    2.36538   0.36896   -2.000
 5434.00    1.88267   0.36545   -2.000
 5435.00    1.87870   0.37154   -2.000
 5436.00    1.88757   0.38369   -1.000
 5437.00    1.80850   0.39795   -1.000
 5438.00    1.85846   0.40901   -1.000
 5439.00    1.97840   0.41416   -1.000
 5440.00    1.96439   0.41459   -1.000
 5441.00    1.77745   0.41356   -1.000
 5442.00    1.50195   0.41202   -1.000
 5443.00    1.23956   0.40524   -1.000
 5444.00    1.08470   0.38944   -1.000
 5445.00    1.10941   0.36822   -1.000
 5446.00    1.34376   0.35668   -1.000
 5447.00    1.74900   0.36802   -1.000
 5448.00    2.13860   0.39037   -1.000
 5449.00    2.16656   0.40405   -1.000
 5450.00    1.74480   0.40655   -1.000
 5451.00    1.27965   0.40400   -1.000
 5452.00    1.12839   0.39851   -1.000
 5453.00    1.26212   0.38622   -1.000
 5454.00    1.49039   0.36753   -1.000
 5455.00    1.62643   0.35945   -1.000
 5456.00    1.59281   0.37380   -1.000
 5457.00    1.45106   0.39519   -1.000
 5458.00    1.30264   0.40580   -1.000
 5459.00    1.23143   0.40417   -1.000
 5460.00    1.26360   0.39658   -1.000
 5461.00    1.37121   0.38486   -1.000
 5462.00    1.53882   0.37299   -1.000
 5463.00    1.75936   0.37336   -1.000
 5464.00    1.95160   0.38412   -1.000
 5465.00    2.00003   0.38957   -1.000
 5466.00    1.92693   0.38957   -1.000
 5467.00    1.85273   0.39253   -1.000
 5468.00    1.79368   0.39467   -1.000
 5469.00    1.69140   0.39164   -1.000
 5470.00    1.57291   0.38847   -1.000
 5471.00    1.50001   0.38653   -1.000
 5472.00    1.42081   0.38115   -1.000
 5473.00    1.27035   0.37657   -1.000
 5474.00    1.16804   0.37319   -1.000
 5475.00    1.27463   0.35954   -1.000
 5476.00    1.54851   0.34547   -1.000
 5477.00    1.81343   0.35310   -1.000
 5478.00    1.89671   0.37367   -1.000
 5479.00    1.75250   0.38091   -1.000
 5480.00    1.56285   0.37235   -1.000
 5481.00    1.54238   0.36725   -1.000
 5482.00    1.73813   0.37396   -1.000
 5483.00    2.05742   0.38572   -1.000
 5484.00    2.32405   0.39517   -1.000
 5485.00    2.40296   0.39479   -1.000
 5486.00    2.28620   0.38361   -1.000
 5487.00    2.04043   0.37498   -1.000
 5488.00    1.76218   0.37703   -1.000
 5489.00    1.55117   0.38179   -1.000
 5490.00    1.48153   0.38499   -1.000
 5491.00    1.53130   0.38671   -1.000
 5492.00    1.57625   0.38381   -1.000
 5493.00    1.53181   0.38103   -1.000
 5494.00    1.40876   0.38420   -1.000
 5495.00    1.26420   0.38506   -1.000
 5496.00    1.16103   0.37817   -1.000
 5497.00    1.10341   0.37632   -1.000
 5498.00    1.05017   0.38631   -1.000
 5499.00    1.02730   0.39136   -1.000
 5500.00    1.10625   0.38142   -1.000
 5501.00    1.24888   0.36966   -1.000
 5502.00    1.34180   0.36871   -1.000
 5503.00    1.38180   0.37492   -1.000
 5504.00    1.46011   0.37635   -1.000
 5505.00    1.63115   0.36860   -1.000
 5506.00    1.87718   0.36415   -1.000
 5507.00    2.10063   0.37065   -1.000
 5508.00    2.20188   0.37669   -1.000
 5509.00    2.20492   0.37599   -1.000
 5510.00    2.18992   0.37195   -1.000
 5511.00    2.16761   0.36598   -1.000
 5512.00    2.10532   0.36268   -1.000
 5513.00    1.98475   0.36578   -1.000
 5514.00    1.81464   0.37172   -1.000
 5515.00    1.63789   0.37664   -1.000
 5516.00    1.54331   0.38093   -1.000
 5517.00    1.65858   0.38729   -1.000
 5518.00    1.97751   0.39238   -1.000
 5519.00    2.24077   0.39191   -1.000
 5520.00    2.21616   0.38884   -1.000
 5521.00    1.91797   0.38747   -1.000
 5522.00    1.53761   0.38766   -1.000
 5523.00    1.34671   0.38619   -1.000
 5524.00    1.46337   0.38084   -1.000
 5525.00    1.75272   0.37270   -1.000
 5526.00    2.05193   0.36258   -1.000
 5527.00    2.28502   0.35335   -1.000
 5528.00    2.40780   0.35520   -1.000
 5529.00    2.39099   0.36907   -1.000
 5530.00    2.26902   0.38097   -1.000
 5531.00    2.13645   0.38321   -1.000
 5532.00    2.05963   0.37930   -1.000
 5533.00    2.04226   0.37200   -1.000
 5534.00    2.02375   0.36561   -1.000
 5535.00    1.92966   0.36786   -1.000
 5536.00    1.80842   0.37538   -1.000
 5537.00    1.80103   0.37930   -1.000
 5538.00    1.97083   0.38186   -1.000
 5539.00    2.27518   0.38646   -1.000
 5540.00    2.60188   0.38970   -1.000
 5541.00    2.82767   0.38680   -1.000
 5542.00    2.91076   0.37875   -1.000
 5543.00    2.85168   0.37342   -1.000
 5544.00    2.60229   0.37356   -1.000
 5545.00    2.16013   0.37450   -1.000
 5546.00    1.71983   0.37747   -1.000
 5547.00    1.50803   0.38443   -1.000
 5548.00    1.54280   0.39027   -1.000
 5549.00    1.69351   0.39206   -1.000
 5550.00    1.79847   0.39142   -1.000
 5551.00    1.79518   0.38877   -1.000
 5552.00    1.81790   0.38393   -1.000
 5553.00    1.97107   0.37853   -1.000
 5554.00    2.14004   0.37670   -1.000
 5555.00    2.20327   0.37915   -1.000
 5556.00    2.20120   0.38079   -1.000
 5557.00    2.22772   0.37985   -1.000
 5558.00    2.33527   0.37973   -1.000
 5559.00    2.48196   0.38024   -1.000
 5560.00    2.52957   0.37882   -1.000
 5561.00    2.39464   0.37458   -1.000
 5562.00    2.11678   0.37026   -1.000
 5563.00    1.77726   0.36993   -1.000
 5564.00    1.46562   0.37018   -1.000
 5565.00    1.31415   0.36742   -1.000
 5566.00    1.45422   0.36591   -1.000
 5567.00    1.80291   0.36643   -1.000
 5568.00    2.07479   0.36488   -1.000
 5569.00    2.08321   0.36509   -1.000
 5570.00    1.83504   0.37013   -1.000
 5571.00    1.50324   0.36896   -1.000
 5572.00    1.31669   0.36252   -1.000
 5573.00    1.31297   0.36556   -1.000
 5574.00    1.35841   0.37270   -1.000
 5575.00    1.33661   0.37344   -1.000
 5576.00    1.21370   0.37354   -1.000
 5577.00    1.07685   0.37557   -1.000
 5578.00    1.07049   0.37645   -1.000
 5579.00    1.27237   0.37786   -1.000
 5580.00    1.64395   0.37780   -1.000
 5581.00    1.99664   0.37466   -1.000
 5582.00    2.13681   0.37355   -1.000
 5583.00    2.06311   0.37378   -1.000
 5584.00    1.92428   0.36890   -1.000
 5585.00    1.92414   0.35634   -1.000
 5586.00    2.15559   0.34174   -1.000
 5587.00    2.45605   0.33406   -1.000
 5588.00    2.59687   0.33531   -1.000
 5589.00    2.47351   0.34326   -1.000
 5590.00    2.10866   0.35332   -1.000
 5591.00    1.63421   0.35913   -1.000
 5592.00    1.23724   0.35857   -1.000
 5593.00    1.10151   0.35478   -1.000
 5594.00    1.27896   0.35721   -1.000
 5595.00    1.63187   0.36869   -1.000
 5596.00    1.96097   0.37417   -1.000
 5597.00    2.10429   0.36645   -1.000
 5598.00    2.04842   0.35835   -1.000
 5599.00    1.93970   0.35642   -1.000
 5600.00    1.89895   0.35289   -1.000
 5601.00    1.95732   0.34691   -1.000
 5602.00    2.12895   0.34671   -1.000
 5603.00    2.40427   0.35750   -1.000
 5604.00    2.63399   0.37236   -1.000
 5605.00    2.58542   0.38234   -1.000
 5606.00    2.21771   0.38561   -1.000
 5607.00    1.70416   0.38460   -1.000
 5608.00    1.27118   0.38232   -1.000
 5609.00    1.08636   0.38116   -1.000
 5610.00    1.11099   0.38237   -1.000
 5611.00    1.18132   0.38499   -1.000
 5612.00    1.23532   0.38403   -1.000
 5613.00    1.31113   0.37147   -1.000
 5614.00    1.46068   0.34925   -1.000
 5615.00    1.71245   0.33822   -1.000
 5616.00    2.03754   0.34818   -1.000
 5617.00    2.33461   0.36139   -1.000
 5618.00    2.42693   0.36449   -1.000
 5619.00    2.21524   0.36341   -1.000
 5620.00    1.84786   0.36620   -1.000
 5621.00    1.54279   0.37090   -1.000
 5622.00    1.37957   0.36817   -1.000
 5623.00    1.34241   0.35523   -1.000
 5624.00    1.38574   0.34490   -1.000
 5625.00    1.47955   0.34808   -1.000
 5626.00    1.63434   0.35731   -1.000
 5627.00    1.83413   0.36383   -1.000
 5628.00    1.99350   0.37016   -1.000
 5629.00    2.01128   0.37650   -1.000
 5630.00    1.82680   0.37909   -1.000
 5631.00    1.52617   0.37794   -1.000
 5632.00    1.34390   0.37406   -1.000
 5633.00    1.37181   0.36921   -1.000
 5634.00    1.46691   0.36566   -1.000
 5635.00    1.50806   0.36234   -1.000
 5636.00    1.49275   0.35767   -1.000
 5637.00    1.45075   0.35558   -1.000
 5638.00    1.41769   0.35872   -1.000
 5639.00    1.46690   0.36024   -1.000
 5640.00    1.66955   0.35637   -1.000
 5641.00    1.94651   0.35425   -1.000
 5642.00    2.11417   0.35718   -1.000
 5643.00    2.12069   0.36048   -1.000
 5644.00    2.05049   0.36270   -1.000
 5645.00    1.98439   0.36499   -1.000
 5646.00    1.97057   0.36743   -1.000
 5647.00    2.03460   0.36819   -1.000
 5648.00    2.17239   0.36549   -1.000
 5649.00    2.33485   0.36241   -1.000
 5650.00    2.45369   0.36424   -1.000
 5651.00    2.48672   0.36898   -1.000
 5652.00    2.42360   0.36993   -1.000
 5653.00    2.28311   0.36353   -1.000
 5654.00    2.10680   0.35615   -1.000
 5655.00    1.94836   0.35563   -1.000
 5656.00    1.83021   0.35210   -1.000
 5657.00    1.70651   0.33713   -1.000
 5658.00    1.55809   0.32921   -1.000
 5659.00    1.47638   0.34031   -1.000
 5660.00    1.55565   0.35115   -1.000
 5661.00    1.79641   0.34815   -1.000
 5662.00    2.12407   0.34400   -1.000
 5663.00    2.42555   0.35045   -1.000
 5664.00    2.66608   0.36037   -1.000
 5665.00    2.92520   0.36295   -1.000
 5666.00    3.15716   0.35764   -1.000
 5667.00    3.12259   0.35222   -1.000
 5668.00    2.77378   0.35233   -1.000
 5669.00    2.37799   0.35599   -1.000
 5670.00    2.14792   0.35993   -1.000
 5671.00    2.08792   0.36512   -1.000
 5672.00    2.08153   0.37140   -1.000
 5673.00    1.98030   0.37366   -1.000
 5674.00    1.77429   0.37032   -1.000
 5675.00    1.59290   0.36858   -1.000
 5676.00    1.52227   0.37056   -1.000
 5677.00    1.55897   0.37014   -1.000
 5678.00    1.64488   0.36658   -1.000
 5679.00    1.71384   0.36463   -1.000
 5680.00    1.77488   0.36244   -1.000
 5681.00    1.87888   0.35491   -1.000
 5682.00    2.00817   0.34747   -1.000
 5683.00    2.07825   0.34813   -1.000
 5684.00    1.98879   0.35331   -1.000
 5685.00    1.71918   0.35429   -1.000
 5686.00    1.45657   0.34949   -1.000
 5687.00    1.43187   0.34568   -1.000
 5688.00    1.66014   0.34836   -1.000
 5689.00    1.99232   0.35545   -1.000
 5690.00    2.23763   0.36132   -1.000
 5691.00    2.29365   0.36561   -1.000
 5692.00    2.25887   0.36792   -1.000
 5693.00    2.25938   0.36667   -1.000
 5694.00    2.27646   0.36471   -1.000
 5695.00    2.24683   0.36506   -1.000
 5696.00    2.16103   0.36482   -1.000
 5697.00    2.03509   0.36029   -1.000
 5698.00    1.88831   0.35586   -1.000
 5699.00    1.78382   0.35283   -1.000
 5700.00    1.83078   0.34774   -1.000
 5701.00    2.02356   0.34409   -1.000
 5702.00    2.18458   0.34710   -1.000
 5703.00    2.17854   0.35302   -1.000
 5704.00    2.01905   0.35348   -1.000
 5705.00    1.81889   0.34724   -1.000
 5706.00    1.72253   0.34026   -1.000
 5707.00    1.74126   0.33453   -1.000
 5708.00    1.73609   0.32955   -1.000
 5709.00    1.59855   0.32992   -1.000
 5710.00    1.32632   0.33299   -1.000
 5711.00    1.04483   0.33547   -1.000
 5712.00    0.95102   0.34312   -1.000
 5713.00    1.14456   0.35255   -1.000
 5714.00    1.57759   0.35701   -1.000
 5715.00    2.05539   0.35921   -1.000
 5716.00    2.33173   0.36039   -1.000
 5717.00    2.30776   0.36001   -1.000
 5718.00    2.04148   0.36103   -1.000
 5719.00    1.68220   0.36313   -1.000
 5720.00    1.41881   0.36495   -1.000
 5721.00    1.41413   0.36758   -1.000
 5722.00    1.77257   0.36985   -2.000
 5723.00    2.50843   0.37021   -2.000
 5724.00    3.52686   0.36913   -2.000
 5725.00    4.60760   0.36521   -2.000
 5726.00    5.45340   0.35893   -2.000
 5727.00    5.76708   0.35699   -2.000
 5728.00    5.47906   0.36136   -2.000
 5729.00    4.93110   0.36342   -2.000
 5730.00    4.51803   0.35787   -2.000
 5731.00    4.35029   0.35263   -2.000
 5732.00    4.24512   0.35589   -2.000
 5733.00    3.80254   0.36261   -2.000
 5734.00    2.83822   0.36605   -2.000
 5735.00    1.64214   0.36544   -2.000
 5736.00    0.71306   0.36293   -2.000
 5737.00    0.50541   0.36100   -2.000
 5738.00    1.02141   0.36056   -2.000
 5739.00    1.72999   0.36083   -2.000
 5740.00    2.21505   0.36053   -2.000
 5741.00    2.42628   0.35868    0.000
 5742.00    2.39898   0.35643    0.000
 5743.00    2.15564   0.35746    0.000
 5744.00    1.80093   0.36226    0.000
 5745.00    1.52195   0.36502    0.000
 5746.00    1.47137   0.35999    0.000
 5747.00    1.71153   0.35169    0.000
 5748.00    2.17037   0.35061    0.000
 5749.00    2.66628   0.35689    0.000
 5750.00    2.99939   0.36042    0.000
 5751.00    3.01087   0.35498    0.000
 5752.00    2.65873   0.34407    0.000
 5753.00    2.03861   0.33715    0.000
 5754.00    1.38493   0.34099    0.000
 5755.00    0.95398   0.35199    0.000
 5756.00    0.82991   0.36068    0.000
 5757.00    0.94883   0.36349    0.000
 5758.00    1.18976   0.36136    0.000
 5759.00    1.44370   0.35562    0.000
 5760.00    1.68125   0.34783    0.000
 5761.00    1.88022   0.34016    0.000
 5762.00    1.94386   0.33795    0.000
 5763.00    1.84324   0.34611    0.000
 5764.00    1.75170   0.35781    0.000
 5765.00    1.82357   0.36376    0.000
 5766.00    1.99829   0.36458    0.000
 5767.00    2.15883   0.36381    0.000
 5768.00    2.26695   0.36223    0.000
 5769.00    2.31648   0.36034    0.000
 5770.00    2.29776   0.35782    0.000
 5771.00    2.22700   0.35472    0.000
 5772.00    2.15347   0.35319    0.000
 5773.00    2.09002   0.35272    0.000
 5774.00    1.99027   0.35229    0.000
 5775.00    1.82753   0.35433    0.000
 5776.00    1.63511   0.35753    0.000
 5777.00    1.50615   0.35816    0.000
 5778.00    1.55065   0.35441    0.000
 5779.00    1.74285   0.34496    0.000
 5780.00    1.91917   0.33280    0.000
 5781.00    1.95974   0.32733    0.000
 5782.00    1.83101   0.33034    0.000
 5783.00    1.52917   0.33205    0.000
 5784.00    1.09948   0.32882    0.000
 5785.00    0.72444   0.32954    0.000
 5786.00    0.62611   0.33786    0.000
 5787.00    0.80398   0.34623    0.000
 5788.00    1.07490   0.35023    0.000
 5789.00    1.26984   0.34865    0.000
 5790.00    1.30834   0.34388    0.000
 5791.00    1.25310   0.34323    0.000
 5792.00    1.23571   0.34700    0.000
 5793.00    1.32857   0.35153    0.000
 5794.00    1.52322   0.35547    0.000
 5795.00    1.73181   0.35553    0.000
 5796.00    1.84868   0.34924    0.000
 5797.00    1.82425   0.34322    0.000
 5798.00    1.67518   0.34615    0.000
 5799.00    1.48119   0.35465    0.000
 5800.00    1.33709   0.36052    0.000
 5801.00    1.30451   0.36230    0.000
 5802.00    1.37912   0.36003    0.000
 5803.00    1.48138   0.35299    0.000
 5804.00    1.56274   0.34638    0.000
 5805.00    1.66647   0.34471    0.000
 5806.00    1.81301   0.34680    0.000
 5807.00    1.93689   0.34936    0.000
 5808.00    1.96641   0.35091    0.000
 5809.00    1.87529   0.35268    0.000
 5810.00    1.70062   0.35504    0.000
 5811.00    1.52280   0.35597    0.000
 5812.00    1.34655   0.35511    0.000
 5813.00    1.09265   0.35291    0.000
 5814.00    0.76639   0.34849    0.000
 5815.00    0.49545   0.34328    0.000
 5816.00    0.43196   0.34335    0.000
 5817.00    0.66682   0.35013    0.000
 5818.00    1.08619   0.35685    0.000
 5819.00    1.43148   0.35959    0.000
 5820.00    1.56173   0.35947    0.000
 5821.00    1.50496   0.35753    0.000
 5822.00    1.40930   0.35498    0.000
 5823.00    1.44671   0.35425    0.000
 5824.00    1.64799   0.35566    0.000
 5825.00    1.91928   0.35670    0.000
 5826.00    2.13330   0.35631    0.000
 5827.00    2.19454   0.35586    0.000
 5828.00    2.11158   0.35667    0.000
 5829.00    1.95342   0.35731    0.000
 5830.00    1.77377   0.35659    0.000
 5831.00    1.60983   0.35582    0.000
 5832.00    1.49149   0.35492    0.000
 5833.00    1.41925   0.35184    0.000
 5834.00    1.34525   0.34881    0.000
 5835.00    1.23381   0.34993    0.000
 5836.00    1.11719   0.35227    0.000
 5837.00    1.06072   0.35113    0.000
 5838.00    1.12573   0.35011    0.000
 5839.00    1.34306   0.35283    0.000
 5840.00    1.68637   0.35654    0.000
 5841.00    2.01643   0.35819    0.000
 5842.00    2.09254   0.35812    0.000
 5843.00    1.84345   0.35646    0.000
 5844.00    1.46963   0.35345    0.000
 5845.00    1.16073   0.34987    0.000
 5846.00    0.96416   0.34632    0.000
 5847.00    0.86621   0.34497    0.000
 5848.00    0.83897   0.34649    0.000
 5849.00    0.86722   0.34861    0.000
 5850.00    0.94959   0.34823    0.000
 5851.00    1.06761   0.34296    0.000
 5852.00    1.18014   0.33488    0.000
 5853.00    1.24039   0.33191    0.000
 5854.00    1.21846   0.33584    0.000
 5855.00    1.14483   0.33691    0.000
 5856.00    1.09340   0.32949    0.000
 5857.00    1.11474   0.32302    0.000
 5858.00    1.19856   0.32590    0.000
 5859.00    1.23519   0.33374    0.000
 5860.00    1.12020   0.33962    0.000
 5861.00    0.94958   0.34013    0.000
 5862.00    0.90794   0.33881    0.000
 5863.00    1.03552   0.34114    0.000
 5864.00    1.24129   0.34433    0.000
 5865.00    1.37988   0.34287    0.000
 5866.00    1.34829   0.33964    0.000
 5867.00    1.18724   0.34107    0.000
 5868.00    1.01522   0.34591    0.000
 5869.00    0.93870   0.34925    0.000
 5870.00    1.01284   0.34967    0.000
 5871.00    1.21445   0.34766    0.000
 5872.00    1.46671   0.34530    0.000
 5873.00    1.67066   0.34557    0.000
 5874.00    1.76780   0.34746    0.000
 5875.00    1.77867   0.34711    0.000
 5876.00    1.75119   0.34482    0.000
 5877.00    1.71846   0.34237    0.000
 5878.00    1.66674   0.33927    0.000
 5879.00    1.53857   0.33504    0.000
 5880.00    1.33948   0.33377    0.000
 5881.00    1.16556   0.33624    0.000
 5882.00    1.07436   0.33677    0.000
 5883.00    1.04080   0.33389    0.000
 5884.00    1.02602   0.33269    0.000
 5885.00    1.01307   0.33396    0.000
 5886.00    1.02781   0.33130    0.000
 5887.00    1.11429   0.31533    0.000
 5888.00    1.23959   0.28095    0.000
 5889.00    1.31392   0.24916    0.000
 5890.00    1.32473   0.25110    0.000
 5891.00    1.33469   0.27830    0.000
 5892.00    1.38687   0.30026    0.000
 5893.00    1.46988   0.30390    0.000
 5894.00    1.49753   0.28546    0.000
 5895.00    1.37576   0.26251    0.000
 5896.00    1.13097   0.26727    0.000
 5897.00    0.88438   0.29412    0.000
 5898.00    0.76741   0.31440    0.000
 5899.00    0.85694   0.32359    0.000
 5900.00    1.10582   0.32932    0.000
 5901.00    1.38596   0.33253   -1.000
 5902.00    1.55975   0.33383   -1.000
 5903.00    1.54238   0.33468   -1.000
 5904.00    1.35757   0.33353   -1.000
 5905.00    1.09329   0.33200   -1.000
 5906.00    0.84934   0.33314   -1.000
 5907.00    0.71765   0.33605   -1.000
 5908.00    0.76305   0.33726   -1.000
 5909.00    0.97607   0.33739   -1.000
 5910.00    1.24967   0.33897   -1.000
 5911.00    1.46473   0.33983   -1.000
 5912.00    1.55915   0.33522   -1.000
 5913.00    1.57866   0.32711   -1.000
 5914.00    1.66646   0.32293   -1.000
 5915.00    1.85691   0.32399   -1.000
 5916.00    2.00735   0.32840   -1.000
 5917.00    1.99902   0.33306   -1.000
 5918.00    1.83132   0.33544   -1.000
 5919.00    1.60456   0.33699   -1.000
 5920.00    1.46952   0.33720   -1.000
 5921.00    1.48267   0.33517   -1.000
 5922.00    1.58371   0.33394   -1.000
 5923.00    1.69395   0.33518   -1.000
 5924.00    1.75200   0.33723   -1.000
 5925.00    1.72144   0.33910   -1.000
 5926.00    1.60540   0.33866   -1.000
 5927.00    1.47521   0.33504   -1.000
 5928.00    1.43581   0.32924   -1.000
 5929.00    1.53733   0.32453   -1.000
 5930.00    1.76340   0.32691   -1.000
 5931.00    2.04773   0.33410   -1.000
 5932.00    2.30325   0.33675   -1.000
 5933.00    2.46541   0.33215   -1.000
 5934.00    2.50861   0.32788   -1.000
 5935.00    2.45741   0.33029   -1.000
 5936.00    2.35732   0.33502   -1.000
 5937.00    2.23659   0.33736   -1.000
 5938.00    2.12676   0.33862   -1.000
 5939.00    2.08631   0.33704   -1.000
 5940.00    2.13623   0.33189   -1.000
 5941.00    2.20124   0.32844   -1.000
 5942.00    2.19987   0.32953   -1.000
 5943.00    2.12352   0.33283   -1.000
 5944.00    1.97902   0.33611   -1.000
 5945.00    1.75150   0.33797   -1.000
 5946.00    1.50433   0.33631   -1.000
 5947.00    1.41533   0.33052   -1.000
 5948.00    1.55219   0.32520   -1.000
 5949.00    1.77038   0.32686   -1.000
 5950.00    1.92903   0.33185   -1.000
 5951.00    2.00363   0.33069   -1.000
 5952.00    2.03763   0.32566   -1.000
 5953.00    2.09476   0.32643   -1.000
 5954.00    2.17067   0.33104   -1.000
 5955.00    2.19313   0.33095   -1.000
 5956.00    2.15777   0.32687   -1.000
 5957.00    2.13910   0.32511   -1.000
 5958.00    2.16211   0.32782   -1.000
 5959.00    2.18544   0.33237   -1.000
 5960.00    2.17599   0.33585   -1.000
 5961.00    2.12251   0.33750   -1.000
 5962.00    2.01446   0.33762   -1.000
 5963.00    1.84569   0.33718   -1.000
 5964.00    1.63457   0.33487   -1.000
 5965.00    1.42733   0.33181   -1.000
 5966.00    1.29414   0.33212   -1.000
 5967.00    1.29798   0.33476   -1.000
 5968.00    1.44325   0.33682   -1.000
 5969.00    1.66969   0.33841   -1.000
 5970.00    1.86212   0.33967   -1.000
 5971.00    1.93518   0.33966   -1.000
 5972.00    1.93761   0.33897   -1.000
 5973.00    1.97310   0.33747   -1.000
 5974.00    2.08878   0.33319   -1.000
 5975.00    2.24310   0.32712   -1.000
 5976.00    2.30151   0.32295   -1.000
 5977.00    2.19250   0.32226   -1.000
 5978.00    2.03133   0.32480   -1.000
 5979.00    1.94531   0.33011   -1.000
 5980.00    1.93307   0.33387   -1.000
 5981.00    1.93999   0.33259   -1.000
 5982.00    1.92006   0.32574   -1.000
 5983.00    1.83578   0.31665   -1.000
 5984.00    1.66206   0.31396   -1.000
 5985.00    1.41956   0.31884   -1.000
 5986.00    1.18849   0.32333   -1.000
 5987.00    1.08379   0.32561   -1.000
 5988.00    1.20464   0.32820   -1.000
 5989.00    1.47812   0.32907   -1.000
 5990.00    1.67044   0.32560   -1.000
 5991.00    1.68023   0.32298   -1.000
 5992.00    1.59498   0.32664   -1.000
 5993.00    1.50142   0.33197   -1.000
 5994.00    1.42864   0.33326   -1.000
 5995.00    1.37518   0.33008   -1.000
 5996.00    1.34089   0.32439   -1.000
 5997.00    1.38320   0.32044   -1.000
 5998.00    1.56733   0.32115   -1.000
 5999.00    1.82649   0.32465   -1.000
 6000.00    2.02340   0.32725   -1.000
 6001.00    2.13094   0.32531   -1.000
 6002.00    2.18358   0.32130   -1.000
 6003.00    2.13459   0.32193   -1.000
 6004.00    1.92812   0.32462   -1.000
 6005.00    1.64349   0.32350   -1.000
 6006.00    1.42519   0.31787   -1.000
 6007.00    1.35493   0.31101   -1.000
 6008.00    1.40589   0.31160   -1.000
 6009.00    1.42373   0.32077   -1.000
 6010.00    1.31630   0.32731   -1.000
 6011.00    1.23425   0.32487   -1.000
 6012.00    1.33798   0.31807   -1.000
 6013.00    1.57782   0.31554   -1.000
 6014.00    1.83156   0.31790   -1.000
 6015.00    2.03338   0.31820   -1.000
 6016.00    2.16725   0.31672   -1.000
 6017.00    2.24552   0.31791   -1.000
 6018.00    2.24815   0.31770   -1.000
 6019.00    2.10929   0.31361   -1.000
 6020.00    1.86127   0.31146   -1.000
 6021.00    1.67569   0.31330   -1.000
 6022.00    1.65611   0.31530   -1.000
 6023.00    1.75298   0.31591   -1.000
 6024.00    1.86042   0.31867   -1.000
 6025.00    1.88144   0.32178   -1.000
 6026.00    1.80054   0.32155   -1.000
 6027.00    1.68585   0.32219   -1.000
 6028.00    1.60307   0.32523   -1.000
 6029.00    1.59286   0.32698   -1.000
 6030.00    1.69318   0.32667   -1.000
 6031.00    1.91995   0.32738   -1.000
 6032.00    2.20057   0.32925   -1.000
 6033.00    2.39650   0.32974   -1.000
 6034.00    2.39578   0.32878   -1.000
 6035.00    2.17667   0.32858   -1.000
 6036.00    1.88407   0.32929   -1.000
 6037.00    1.70948   0.32993   -1.000
 6038.00    1.65625   0.32899   -1.000
 6039.00    1.61299   0.32646   -1.000
 6040.00    1.53443   0.32405   -1.000
 6041.00    1.45651   0.32280   -1.000
 6042.00    1.46915   0.32458   -1.000
 6043.00    1.59651   0.32768   -1.000
 6044.00    1.67181   0.32856   -1.000
 6045.00    1.53789   0.32814   -1.000
 6046.00    1.26631   0.32890   -1.000
 6047.00    1.01243   0.32940   -1.000
 6048.00    0.85347   0.32890   -1.000
 6049.00    0.77099   0.32923   -1.000
 6050.00    0.66582   0.32966   -1.000
 6051.00    0.49351   0.32738   -1.000
 6052.00    0.34849   0.32320   28.695
 6053.00    0.35104   0.32059   28.487
 6054.00    0.55899   0.31951   -1.000
 6055.00    0.91617   0.31775   -1.000
 6056.00    1.26324   0.31766   -1.000
 6057.00    1.52996   0.32034   -1.000
 6058.00    1.78909   0.32372   -1.000
 6059.00    2.05197   0.32591   -1.000
 6060.00    2.20894   0.32631   -1.000
 6061.00    2.16895   0.32478   -1.000
 6062.00    1.92894   0.32174   -1.000
 6063.00    1.61018   0.31698   -1.000
 6064.00    1.39997   0.31012   -1.000
 6065.00    1.34456   0.30861   -1.000
 6066.00    1.35267   0.31668   -1.000
 6067.00    1.37644   0.32556   -1.000
 6068.00    1.42037   0.32861   -1.000
 6069.00    1.44605   0.32822   -1.000
 6070.00    1.39801   0.32794   -1.000
 6071.00    1.30254   0.32897   -1.000
 6072.00    1.25110   0.33001   -1.000
 6073.00    1.33013   0.33023   -1.000
 6074.00    1.56296   0.32927   -1.000
 6075.00    1.84391   0.32711   -1.000
 6076.00    2.03033   0.32349   -1.000
 6077.00    2.08210   0.31778   -1.000
 6078.00    1.98666   0.31398   -1.000
 6079.00    1.65049   0.31581   -1.000
 6080.00    1.01396   0.31743   -1.000
 6081.00    0.17507   0.31449   -1.000
 6082.00   -0.79908   0.31206   -2.000
 6083.00   -2.02341   0.31283   -2.000
 6084.00   -3.36192   0.31349   -2.000
 6085.00   -4.12497   0.31348   -2.000
 6086.00   -3.74813   0.31489   -2.000
 6087.00   -2.31703   0.31754   -2.000
 6088.00   -0.46013   0.31744   -2.000
 6089.00    0.88559   0.31362   -1.000
 6090.00    1.27440   0.31108   -1.000
 6091.00    1.09273   0.31168   -1.000
 6092.00    0.85230   0.31238   -1.000
 6093.00    0.80729   0.31429   -1.000
 6094.00    0.98190   0.31845   -1.000
 6095.00    1.23597   0.32039   -1.000
 6096.00    1.44452   0.31839   -1.000
 6097.00    1.57390   0.31697   -1.000
 6098.00    1.68620   0.31858   -1.000
 6099.00    1.88539   0.32034   -1.000
 6100.00    2.15305   0.31613   -1.000
 6101.00    2.36104   0.30197   -1.000
 6102.00    2.44659   0.28977   -1.000
 6103.00    2.42021   0.29510   -1.000
 6104.00    2.26771   0.30907   -1.000
 6105.00    1.97149   0.31629   -1.000
 6106.00    1.60468   0.31571   -1.000
 6107.00    1.31659   0.31364   -1.000
 6108.00    1.26291   0.31571   -1.000
 6109.00    1.49443   0.31900   -1.000
 6110.00    1.80829   0.31718   -1.000
 6111.00    1.94243   0.31341   -1.000
 6112.00    1.88426   0.31402   -1.000
 6113.00    1.77451   0.31782   -1.000
 6114.00    1.72366   0.31914   -1.000
 6115.00    1.75543   0.31583   -1.000
 6116.00    1.77943   0.31342   -1.000
 6117.00    1.71329   0.31521   -1.000
 6118.00    1.60642   0.31535   -1.000
 6119.00    1.62628   0.31077   -1.000
 6120.00    2.02565   0.30252   -1.000
 6121.00    3.05813   0.29344   -2.000
 6122.00    4.87616   0.29360   -2.000
 6123.00    7.26492   0.30428   -2.000
 6124.00    9.54639   0.31202   -2.000
 6125.00   11.10322   0.31223   -2.000
 6126.00   11.63296   0.30971   -2.000
 6127.00   10.76990   0.30662   -2.000
 6128.00    8.12891   0.30513   -2.000
 6129.00    4.48092   0.30765   -2.000
 6130.00    1.77500   0.31185   -2.000
 6131.00    0.94103   0.31470   -2.000
 6132.00    1.32541   0.31624   -2.000
 6133.00    2.02273   0.31481   -1.000
 6134.00    2.42939   0.30656   -1.000
 6135.00    2.37166   0.29038   -1.000
 6136.00    2.02893   0.27448   -1.000
 6137.00    1.61541   0.27511   -1.000
 6138.00    1.28357   0.29279   -1.000
 6139.00    1.11707   0.30635   -1.000
 6140.00    1.14299   0.30320   -1.000
 6141.00    1.35945   0.29581   -1.000
 6142.00    1.70658   0.29991   -1.000
 6143.00    2.00624   0.31012   -1.000
 6144.00    2.07742   0.31510   -1.000
 6145.00    1.94218   0.31391   -1.000
 6146.00    1.74150   0.30948   -1.000
 6147.00    1.56051   0.30369   -1.000
 6148.00    1.41822   0.30004   -1.000
 6149.00    1.29300   0.30040   -1.000
 6150.00    1.18946   0.30402   -1.000
 6151.00    1.20201   0.30835   -1.000
 6152.00    1.40238   0.31080   -1.000
 6153.00    1.72396   0.30831   -1.000
 6154.00    2.02121   0.30327   -1.000
 6155.00    2.14121   0.30188   -1.000
 6156.00    1.99237   0.30288   -1.000
 6157.00    1.59787   0.30379   -1.000
 6158.00    1.11848   0.30504   -1.000
 6159.00    0.82159   0.30091   -1.000
 6160.00    0.80965   0.28616   -1.000
 6161.00    0.90246   0.27077   -1.000
 6162.00    0.92422   0.26896   -1.000
 6163.00    0.85473   0.27970   -1.000
 6164.00    0.76873   0.29141   -1.000
 6165.00    0.77625   0.29748   -1.000
 6166.00    0.91485   0.30097   -1.000
 6167.00    1.11685   0.29998   -1.000
 6168.00    1.26012   0.28963   -1.000
 6169.00    1.23433   0.28044   -1.000
 6170.00    1.08521   0.28565   -1.000
 6171.00    0.98059   0.29727   -1.000
 6172.00    0.98243   0.30177   -1.000
 6173.00    1.03062   0.30138   -1.000
 6174.00    1.07176   0.30163   -1.000
 6175.00    1.09702   0.30091   -1.000
 6176.00    1.14832   0.29970   -1.000
 6177.00    1.26928   0.30177   -1.000
 6178.00    1.41175   0.30448   -1.000
 6179.00    1.48903   0.30389   -1.000
 6180.00    1.49540   0.30424   -1.000
 6181.00    1.46990   0.30713   -1.000
 6182.00    1.41402   0.30859   -1.000
 6183.00    1.34914   0.30825   -1.000
 6184.00    1.40195   0.30740   -1.000
 6185.00    1.70675   0.30407   -1.000
 6186.00    2.27325   0.29966   -1.000
 6187.00    2.94487   0.29771   -1.000
 6188.00    3.39247   0.29827   -1.000
 6189.00    3.33165   0.29580   -1.000
 6190.00    2.72561   0.28624   -1.000
 6191.00    1.79713   0.28090   -1.000
 6192.00    0.97741   0.28919   -1.000
 6193.00    0.54877   0.30012   -1.000
 6194.00    0.43212   0.30425   -1.000
 6195.00    0.47024   0.30563   -1.000
 6196.00    0.60518   0.30779   -1.000
 6197.00    0.80380   0.30687   -1.000
 6198.00    1.01695   0.29998   -1.000
 6199.00    1.21268   0.29320   -1.000
 6200.00    1.38922   0.29450   -1.000
 6201.00    1.55585   0.30160   -1.000
 6202.00    1.70826   0.30651   -1.000
 6203.00    1.77168   0.30698   -1.000
 6204.00    1.63910   0.30601   -1.000
 6205.00    1.36497   0.30607   -1.000
 6206.00    1.15398   0.30629   -1.000
 6207.00    1.13696   0.30607   -1.000
 6208.00    1.30921   0.30571   -1.000
 6209.00    1.55046   0.30436   -1.000
 6210.00    1.69382   0.30246   -1.000
 6211.00    1.66442   0.29958   -1.000
 6212.00    1.48088   0.29298   -1.000
 6213.00    1.19296   0.28481   -1.000
 6214.00    0.85880   0.28103   -1.000
 6215.00    0.52881   0.28305   -1.000
 6216.00    0.26697   0.28872   37.457
 6217.00    0.18245   0.29262   -1.000
 6218.00    0.33587   0.28970   29.773
 6219.00    0.61412   0.28465   -1.000
 6220.00    0.84422   0.28480   -1.000
 6221.00    0.95013   0.29011   -1.000
 6222.00    0.94693   0.29466   -1.000
 6223.00    0.90732   0.29474   -1.000
 6224.00    0.87571   0.29382   -1.000
 6225.00    0.80551   0.29520   -1.000
 6226.00    0.69480   0.29674   -1.000
 6227.00    0.67883   0.29681   -1.000
 6228.00    0.83700   0.29203   -1.000
 6229.00    1.06678   0.28106   -1.000
 6230.00    1.22614   0.27272   -1.000
 6231.00    1.23673   0.27440   -1.000
 6232.00    1.10738   0.28132   -1.000
 6233.00    0.92337   0.29025   -1.000
 6234.00    0.74173   0.29867   -1.000
 6235.00    0.55641   0.30092   -1.000
 6236.00    0.38021   0.29599   26.301
 6237.00    0.26670   0.28874   37.495
 6238.00    0.24963   0.28299   40.059
 6239.00    0.31930   0.28040   31.319
 6240.00    0.42625   0.28314   -1.000
 6241.00    0.50398   0.28627   -1.000
 6242.00    0.52957   0.28237   -1.000
 6243.00    0.52529   0.27785   -1.000
 6244.00    0.51419   0.27740   -1.000
 6245.00    0.51498   0.27606   -1.000
 6246.00    0.55771   0.27672   -1.000
 6247.00    0.67020   0.28336   -1.000
 6248.00    0.84352   0.29067   -1.000
 6249.00    1.04067   0.29357   -1.000
 6250.00    1.22498   0.29093   -1.000
 6251.00    1.36517   0.28289   -1.000
 6252.00    1.43508   0.27568   -1.000
 6253.00    1.41399   0.27452   -1.000
 6254.00    1.28864   0.27683   -1.000
 6255.00    1.07559   0.27727   -1.000
 6256.00    0.84535   0.27470   -1.000
 6257.00    0.68186   0.27154   -1.000
 6258.00    0.63399   0.27235   -1.000
 6259.00    0.70084   0.27879   -1.000
 6260.00    0.82571   0.28448   -1.000
 6261.00    0.92622   0.28842   -1.000
 6262.00    0.93001   0.29342   -1.000
 6263.00    0.84941   0.29423   -1.000
 6264.00    0.80933   0.28881   -1.000
 6265.00    0.87061   0.28603   -1.000
 6266.00    0.93964   0.28956   -1.000
 6267.00    0.93903   0.29214   -1.000
 6268.00    0.89917   0.29019   -1.000
 6269.00    0.89216   0.28776   -1.000
 6270.00    0.97372   0.28820   -1.000
 6271.00    1.09220   0.29083   -1.000
 6272.00    1.10848   0.29349   -1.000
 6273.00    1.03085   0.29403   -1.000
 6274.00    1.03231   0.29350   -1.000
 6275.00    1.18220   0.29362   -1.000
 6276.00    1.38963   0.29338   -1.000
 6277.00    1.52756   0.29213   -1.000
 6278.00    1.50342   0.28956   -1.000
 6279.00    1.33716   0.28494   -1.000
 6280.00    1.13509   0.28273    0.000
 6281.00    0.98032   0.28487    0.000
 6282.00    0.92545   0.28879    0.000
 6283.00    1.03167   0.29247    0.000
 6284.00    1.33051   0.29314    0.000
 6285.00    1.74151   0.29241    0.000
 6286.00    2.09573   0.29375    0.000
 6287.00    2.20477   0.29652    0.000
 6288.00    1.99007   0.29828    0.000
 6289.00    1.63762   0.29639    0.000
 6290.00    1.42313   0.29221    0.000
 6291.00    1.46532   0.28941    0.000
 6292.00    1.72338   0.28872    0.000
 6293.00    2.03737   0.29017    0.000
 6294.00    2.24452   0.29176    0.000
 6295.00    2.28547   0.28885    0.000
 6296.00    2.16463   0.28341    0.000
 6297.00    1.90968   0.28104    0.000
 6298.00    1.59091   0.28288    0.000
 6299.00    1.32375   0.28386    0.000
 6300.00    1.16505   0.27997    0.000
 6301.00    1.06176   0.27577    0.000
 6302.00    0.96894   0.27802    0.000
 6303.00    0.90953   0.28386    0.000
 6304.00    0.90372   0.28622    0.000
 6305.00    0.93732   0.28644    0.000
 6306.00    0.99703   0.28976    0.000
 6307.00    1.09239   0.29391    0.000
 6308.00    1.27312   0.29416    0.000
 6309.00    1.59043   0.29044    0.000
 6310.00    1.94122   0.28611    0.000
 6311.00    2.09837   0.28466    0.000
 6312.00    1.97627   0.28591    0.000
 6313.00    1.66946   0.28422    0.000
 6314.00    1.32140   0.27894    0.000
 6315.00    1.06279   0.27694    0.000
 6316.00    0.95629   0.27649    0.000
 6317.00    0.98637   0.27199    0.000
 6318.00    1.06869   0.27018    0.000
 6319.00    1.10593   0.27570    0.000
 6320.00    1.08590   0.28170    0.000
 6321.00    1.06663   0.28345   -1.000
 6322.00    1.11867   0.28435   -1.000
 6323.00    1.27888   0.28763   -1.000
 6324.00    1.49734   0.29069   -1.000
 6325.00    1.63698   0.29115   -1.000
 6326.00    1.49859   0.28941   -1.000
 6327.00    1.02547   0.28888   -1.000
 6328.00    0.50433   0.29026   -1.000
 6329.00    0.25745   0.28931   38.843
 6330.00    0.32195   0.28701   31.061
 6331.00    0.55280   0.28785   -1.000
 6332.00    0.75852   0.29040   -1.000
 6333.00    0.85255   0.28882   -1.000
 6334.00    0.93699   0.27987   -1.000
 6335.00    1.10899   0.27116   -1.000
 6336.00    1.33030   0.27136   -1.000
 6337.00    1.48242   0.27695   -1.000
 6338.00    1.43030   0.28017   -1.000
 6339.00    1.15387   0.28272   -1.000
 6340.00    0.78677   0.28618   -1.000
 6341.00    0.46855   0.28588   -1.000
 6342.00    0.27128   0.28083   36.862
 6343.00    0.19779   0.27580   -1.000
 6344.00    0.20026   0.27521   49.935
 6345.00    0.24553   0.27563   40.728
 6346.00    0.32648   0.27483   30.629
 6347.00    0.42073   0.27759   -1.000
 6348.00    0.49036   0.28320   -1.000
 6349.00    0.51921   0.28635   -1.000
 6350.00    0.51721   0.28716   -1.000
 6351.00    0.50457   0.28786   -1.000
 6352.00    0.51949   0.28696   -1.000
 6353.00    0.64024   0.28252   -1.000
 6354.00    0.90201   0.27798   -1.000
 6355.00    1.13784   0.27827   -1.000
 6356.00    1.10951   0.27988   -1.000
 6357.00    0.77653   0.27680   -1.000
 6358.00    0.28648   0.27164   34.907
 6359.00   -0.11742   0.26978   -2.000
 6360.00   -0.24654   0.26860   -2.000
 6361.00   -0.13626   0.26562   -2.000
 6362.00    0.07401   0.26488   -1.000
 6363.00    0.30140   0.26835   33.178
 6364.00    0.48904   0.27300   -1.000
 6365.00    0.56392   0.27656   -1.000
 6366.00    0.51242   0.27945   -1.000
 6367.00    0.43775   0.28228   -1.000
 6368.00    0.43557   0.28214   -1.000
 6369.00    0.49826   0.27793   -1.000
 6370.00    0.57443   0.27486   -1.000
 6371.00    0.62083   0.27829   -1.000
 6372.00    0.62948   0.28492   -1.000
 6373.00    0.63023   0.28785   -1.000
 6374.00    0.62163   0.28702   -1.000
 6375.00    0.55523   0.28678   -1.000
 6376.00    0.44478   0.28682   -1.000
 6377.00    0.38780   0.28440   -1.000
 6378.00    0.42930   0.28153   -1.000
 6379.00    0.52517   0.28007   -1.000
 6380.00    0.62794   0.27988   -1.000
 6381.00    0.72049   0.28132   -1.000
 6382.00    0.81532   0.28251   -1.000
 6383.00    0.93579   0.28107   -1.000
 6384.00    1.06539   0.28008   -1.000
 6385.00    1.14613   0.28244   -1.000
 6386.00    1.11295   0.28546   -1.000
 6387.00    0.92002   0.28621   -1.000
 6388.00    0.57850   0.28626   -1.000
 6389.00    0.16675   0.28682   -1.000
 6390.00   -0.16963   0.28590   -2.000
 6391.00   -0.27875   0.28024   -2.000
 6392.00   -0.10879   0.27076   -2.000
 6393.00    0.23840   0.26687   41.947
 6394.00    0.46986   0.27351   -1.000
 6395.00    0.37018   0.28235   -1.000
 6396.00    0.14535   0.28681   -1.000
 6397.00    0.12120   0.28564   -1.000
 6398.00    0.34188   0.27688   29.250
 6399.00    0.67277   0.26578   -1.000
 6400.00    0.96369   0.26638   -1.000
 6401.00    1.13614   0.27738   -1.000
 6402.00    1.23489   0.28503   -1.000
 6403.00    1.30417   0.28669   -1.000
 6404.00    1.29647   0.28586   -1.000
 6405.00    1.17853   0.28251   -1.000
 6406.00    0.99986   0.27632   -1.000
 6407.00    0.80359   0.27133   -1.000
 6408.00    0.58133   0.27387   -1.000
 6409.00    0.35733   0.27848   27.986
 6410.00    0.21760   0.27605   45.957
 6411.00    0.21086   0.27287   47.424
 6412.00    0.30483   0.27502   32.806
 6413.00    0.41670   0.27724   -1.000
 6414.00    0.46306   0.27706   -1.000
 6415.00    0.48960   0.27714   -1.000
 6416.00    0.62664   0.27742   -1.000
 6417.00    0.78242   0.27751   -1.000
 6418.00    0.69277   0.27517   -1.000
 6419.00    0.36589   0.26938   -1.000
 6420.00    0.08871   0.26573   -1.000
 6421.00    0.09417   0.27025   -1.000
 6422.00    0.42113   0.28003   -1.000
 6423.00    0.81175   0.28508   -1.000
 6424.00    0.90765   0.28416   -1.000
 6425.00    0.67715   0.28371   -1.000
 6426.00    0.34028   0.28580   29.387
 6427.00    0.08117   0.28720   -1.000
 6428.00   -0.01921   0.28436   -2.000
 6429.00   -0.00103   0.27557   -2.000
 6430.00    0.06711   0.26614   -1.000
 6431.00    0.21140   0.26475   47.304
 6432.00    0.46150   0.27059   -1.000
 6433.00    0.72725   0.27757   -1.000
 6434.00    0.88546   0.28216   -1.000
 6435.00    0.88835   0.28338   -1.000
 6436.00    0.76547   0.28066   -1.000
 6437.00    0.60874   0.27226   -1.000
 6438.00    0.51752   0.26398   -1.000
 6439.00    0.55123   0.26657   -1.000
 6440.00    0.71329   0.27689   -1.000
 6441.00    0.94268   0.28339   -1.000
 6442.00    1.12050   0.28427   -1.000
 6443.00    1.10414   0.28350   -1.000
 6444.00    0.89308   0.28379   -1.000
 6445.00    0.68064   0.28527   -1.000
 6446.00    0.63212   0.28623   -1.000
 6447.00    0.76917   0.28175   -1.000
 6448.00    0.97526   0.26845   -1.000
 6449.00    1.05381   0.25642   -1.000
 6450.00    0.93022   0.25848   -1.000
 6451.00    0.69477   0.26911   -1.000
 6452.00    0.47347   0.27731   -1.000
 6453.00    0.36309   0.27857   27.541
 6454.00    0.37855   0.27121   -1.000
 6455.00    0.45619   0.26217   -1.000
 6456.00    0.50444   0.26290   -1.000
 6457.00    0.45298   0.27261   -1.000
 6458.00    0.33085   0.28125   30.226
 6459.00    0.23121   0.28416   43.251
 6460.00    0.20280   0.27955   49.309
 6461.00    0.23747   0.26750   42.111
 6462.00    0.29125   0.25909   34.335
 6463.00    0.33188   0.26369   30.132
 6464.00    0.40304   0.27256   -1.000
 6465.00    0.55574   0.27764   -1.000
 6466.00    0.74266   0.28000   -1.000
 6467.00    0.88112   0.28040   -1.000
 6468.00    0.94839   0.27812   -1.000
 6469.00    0.97697   0.27483   -1.000
 6470.00    1.02980   0.27156   -1.000
 6471.00    1.12270   0.27064   -1.000
 6472.00    1.16469   0.27457   -1.000
 6473.00    1.07805   0.27771   -1.000
 6474.00    0.89790   0.27627   -1.000
 6475.00    0.71038   0.27517   -1.000
 6476.00    0.59859   0.27723   -1.000
 6477.00    0.63241   0.27842   -1.000
 6478.00    0.84442   0.27793   -1.000
 6479.00    1.11676   0.27704   -1.000
 6480.00    1.17867   0.27264   -1.000
 6481.00    0.93070   0.26541   -1.000
 6482.00    0.55467   0.26271   -1.000
 6483.00    0.23658   0.26675   42.269
 6484.00    0.04673   0.27192   -1.000
 6485.00   -0.01235   0.27439   -2.000
 6486.00    0.02306   0.27553   -1.000
 6487.00    0.10334   0.27635   -1.000
 6488.00    0.19036   0.27534   -1.000
 6489.00    0.30305   0.27149   32.998
 6490.00    0.49586   0.26682   -1.000
 6491.00    0.76373   0.26296   -1.000
 6492.00    1.03165   0.25581   -1.000
 6493.00    1.19490   0.24242   -1.000
 6494.00    1.17899   0.23167   -1.000
 6495.00    1.03914   0.23074   -1.000
 6496.00    0.88894   0.23708   -1.000
 6497.00    0.73458   0.24629   -1.000
 6498.00    0.52955   0.25253   -1.000
 6499.00    0.31068   0.25699   32.187
 6500.00    0.16938   0.26257   -1.000
 6501.00    0.17631   0.26673   -1.000
 6502.00    0.33817   0.26897   29.571
 6503.00    0.56280   0.27055   -1.000
 6504.00    0.73176   0.27177   -1.000
 6505.00    0.78600   0.27303   -1.000
 6506.00    0.72235   0.27335   -1.000
 6507.00    0.58002   0.27120   -1.000
 6508.00    0.42654   0.26923   -1.000
 6509.00    0.34076   0.27015   29.346
 6510.00    0.36787   0.27197   -1.000
 6511.00    0.49024   0.27226   -1.000
 6512.00    0.66095   0.27214   -1.000
 6513.00    0.82769   0.27133   -1.000
 6514.00    0.92841   0.26711   -1.000
 6515.00    0.90413   0.26190   -1.000
 6516.00    0.78253   0.26036   -1.000
 6517.00    0.68924   0.26050   -1.000
 6518.00    0.69640   0.26108   -1.000
 6519.00    0.76257   0.26505   -1.000
 6520.00    0.78343   0.26982   -1.000
 6521.00    0.65315   0.27137   -1.000
 6522.00    0.39906   0.27059   -1.000
 6523.00    0.17272   0.27065   -1.000
 6524.00    0.07101   0.27107   -1.000
 6525.00    0.09061   0.26829   -1.000
 6526.00    0.16533   0.26382   -1.000
 6527.00    0.22362   0.26273   44.719
 6528.00    0.29668   0.26528    0.000
 6529.00    0.45875   0.26777    0.000
 6530.00    0.64848   0.26718    0.000
 6531.00    0.74250   0.26359    0.000
 6532.00    0.76128   0.26037    0.000
 6533.00    0.80321   0.26058    0.000
 6534.00    0.87274   0.26408    0.000
 6535.00    0.91346   0.26650    0.000
 6536.00    0.89793   0.26487    0.000
 6537.00    0.82594   0.26304    0.000
 6538.00    0.70641   0.26446    0.000
 6539.00    0.56936   0.26658    0.000
 6540.00    0.47542   0.26588    0.000
 6541.00    0.43763   0.26280    0.000
 6542.00    0.35862   0.25999    0.000
 6543.00    0.19391   0.25816    0.000
 6544.00    0.08203   0.25433    0.000
 6545.00    0.17019   0.24816    0.000
 6546.00    0.47044   0.24602    0.000
 6547.00    0.88032   0.24955    0.000
 6548.00    1.22262   0.25373    0.000
 6549.00    1.35694   0.25437    0.000
 6550.00    1.24840   0.25152    0.000
 6551.00    0.96940   0.24815    0.000
 6552.00    0.67530   0.24522    0.000
 6553.00    0.49378   0.24078    0.000
 6554.00    0.47496   0.23528    0.000
 6555.00    0.60749   0.23182    0.000
 6556.00    0.84269   0.23128    0.000
 6557.00    1.15212   0.23014    0.000
 6558.00    1.56325   0.22575    0.000
 6559.00    2.20117   0.21815    0.000
 6560.00    3.23523   0.20247    0.000
 6561.00    4.69398   0.17346    0.000
 6562.00    6.37235   0.15122    0.000
 6563.00    7.74843   0.16284    0.000
 6564.00    8.20877   0.19454    0.000
 6565.00    7.57380   0.21837    0.000
 6566.00    6.10923   0.23020    0.000
 6567.00    4.31043   0.23486    0.000
 6568.00    2.69762   0.23421    0.000
 6569.00    1.54522   0.23400    0.000
 6570.00    0.89426   0.23712    0.000
 6571.00    0.64190   0.23937    0.000
 6572.00    0.59477   0.23859    0.000
 6573.00    0.53278   0.23688    0.000
 6574.00    0.34485   0.23724    0.000
 6575.00    0.15830   0.24255    0.000
 6576.00    0.12388   0.25037    0.000
 6577.00    0.19332   0.25582    0.000
 6578.00    0.25859   0.25708    0.000
 6579.00    0.29535   0.25486    0.000
 6580.00    0.33176   0.25168    0.000
 6581.00    0.41073   0.25148    0.000
 6582.00    0.56792   0.25413    0.000
 6583.00    0.81442   0.25614    0.000
 6584.00    1.11558   0.25602    0.000
 6585.00    1.38356   0.25427    0.000
 6586.00    1.50665   0.25419    0.000
 6587.00    1.39398   0.25698    0.000
 6588.00    1.10638   0.25968    0.000
 6589.00    0.85619   0.26098    0.000
 6590.00    0.74140   0.25923    0.000
 6591.00    0.68522   0.25120    0.000
 6592.00    0.64458   0.24082    0.000
 6593.00    0.65191   0.23973    0.000
 6594.00    0.68648   0.24783    0.000
 6595.00    0.67528   0.25459    0.000
 6596.00    0.61948   0.25585    0.000
 6597.00    0.57250   0.25452    0.000
 6598.00    0.49290   0.25445    0.000
 6599.00    0.30562   0.25756    0.000
 6600.00    0.11673   0.26152    0.000
 6601.00    0.11921   0.26298    0.000
 6602.00    0.31703   0.26146    0.000
 6603.00    0.56381   0.25833    0.000
 6604.00    0.72799   0.25522    0.000
 6605.00    0.75026   0.25377    0.000
 6606.00    0.68188   0.25326    0.000
 6607.00    0.61421   0.25148    0.000
 6608.00    0.57820   0.24872    0.000
 6609.00    0.56282   0.25010   -1.000
 6610.00    0.55536   0.25609   -1.000
 6611.00    0.56934   0.25993   -1.000
 6612.00    0.66076   0.25859   -1.000
 6613.00    0.84419   0.25677   -1.000
 6614.00    1.02421   0.25889   -1.000
 6615.00    1.08977   0.26163   -1.000
 6616.00    1.00073   0.26140   -1.000
 6617.00    0.81318   0.26023   -1.000
 6618.00    0.67168   0.26087   -1.000
 6619.00    0.66962   0.26239   -1.000
 6620.00    0.76991   0.26311   -1.000
 6621.00    0.86837   0.26253   -1.000
 6622.00    0.85356   0.25997   -1.000
 6623.00    0.70832   0.25543   -1.000
 6624.00    0.53038   0.25227   -1.000
 6625.00    0.40474   0.25390   -1.000
 6626.00    0.34894   0.25697   -1.000
 6627.00    0.32602   0.25810   30.673
 6628.00    0.27948   0.25777   35.781
 6629.00    0.22825   0.25663   43.812
 6630.00    0.26095   0.25496   38.322
 6631.00    0.42384   0.25221   -1.000
 6632.00    0.67672   0.24762   -1.000
 6633.00    0.87110   0.24437   -1.000
 6634.00    0.82786   0.24689   -1.000
 6635.00    0.52305   0.25272   -1.000
 6636.00    0.09166   0.25694   -1.000
 6637.00   -0.25655   0.25793   -2.000
 6638.00   -0.35504   0.25617   -2.000
 6639.00   -0.24979   0.25470   -2.000
 6640.00   -0.09028   0.25617   -2.000
 6641.00    0.07962   0.25650   -1.000
 6642.00    0.22484   0.25199   44.476
 6643.00    0.16138   0.24835   -1.000
 6644.00   -0.15690   0.25080   -2.000
 6645.00   -0.30987   0.25465   -2.000
 6646.00    0.04466   0.25524   -1.000
 6647.00    0.59138   0.25461   -1.000
 6648.00    0.85479   0.25569   -1.000
 6649.00    0.72236   0.25690   -1.000
 6650.00    0.37826   0.25673   -1.000
 6651.00    0.16594   0.25596   -1.000
 6652.00    0.26068   0.25545   38.361
 6653.00    0.48571   0.25521   -1.000
 6654.00    0.67360   0.25564   -1.000
 6655.00    0.87676   0.25552   -1.000
 6656.00    1.15180   0.25507   -1.000
 6657.00    1.43737   0.25560   -1.000
 6658.00    1.61027   0.25565   -1.000
 6659.00    1.55240   0.25429   -1.000
 6660.00    1.30132   0.25256   -1.000
 6661.00    1.05168   0.24977   -1.000
 6662.00    0.90160   0.24510   -1.000
 6663.00    0.78901   0.24344   -1.000
 6664.00    0.62547   0.24648   -1.000
 6665.00    0.37427   0.24885   -1.000
 6666.00    0.13444   0.24866   -1.000
 6667.00    0.05616   0.24871   -1.000
 6668.00    0.05900   0.25062   -1.000
 6669.00   -0.05436   0.25358   -2.000
 6670.00   -0.16608   0.25526   -2.000
 6671.00    0.03373   0.25505   -1.000
 6672.00    0.59053   0.25482   -1.000
 6673.00    1.33448   0.25531   -1.000
 6674.00    2.13846   0.25574   -1.000
 6675.00    2.84789   0.25375   -1.000
 6676.00    3.10813   0.24604   -1.000
 6677.00    2.59005   0.23736   -1.000
 6678.00    1.35002   0.23760   -1.000
 6679.00   -0.10097   0.24527   -2.000
 6680.00   -0.83717   0.25073   -2.000
 6681.00   -0.30102   0.25238   -2.000
 6682.00    0.91864   0.25313   -1.000
 6683.00    1.89271   0.25415   -1.000
 6684.00    2.20428   0.25485   -1.000
 6685.00    1.86488   0.25490   -1.000
 6686.00    1.15530   0.25436   -1.000
 6687.00    0.46647   0.25345   -1.000
 6688.00    0.15426   0.25344   -1.000
 6689.00    0.32739   0.25415   30.545
 6690.00    0.74954   0.25455   -1.000
 6691.00    1.07997   0.25435   -1.000
 6692.00    1.06596   0.25412   -1.000
 6693.00    0.76509   0.25367   -1.000
 6694.00    0.53634   0.25140   -1.000
 6695.00    0.49574   0.24717   -1.000
 6696.00    0.40607   0.24467    0.000
 6697.00    0.24314   0.24538    0.000
 6698.00    0.28297   0.24797    0.000
 6699.00    0.58956   0.25138    0.000
 6700.00    0.93375   0.25330    0.000
 6701.00    1.11889   0.25277    0.000
 6702.00    1.08690   0.24985    0.000
 6703.00    0.91618   0.24664    0.000
 6704.00    0.76109   0.24624    0.000
 6705.00    0.71319   0.24831    0.000
 6706.00    0.79939   0.24946    0.000
 6707.00    1.04738   0.24923    0.000
 6708.00    1.43512   0.24922    0.000
 6709.00    1.77892   0.24861    0.000
 6710.00    1.86905   0.24787    0.000
 6711.00    1.71840   0.24767    0.000
 6712.00    1.49053   0.24676    0.000
 6713.00    1.33357   0.24521    0.000
 6714.00    1.31109   0.24326    0.000
 6715.00    1.35050   0.23989    0.000
 6716.00    1.32276   0.23592    0.000
 6717.00    1.14473   0.23570    0.000
 6718.00    0.84150   0.24153    0.000
 6719.00    0.58193   0.24701    0.000
 6720.00    0.53225   0.24760    0.000
 6721.00    0.71747   0.24646    0.000
 6722.00    0.96853   0.24774    0.000
 6723.00    0.94593   0.24993    0.000
 6724.00    0.53570   0.24923    0.000
 6725.00    0.05808   0.24625    0.000
 6726.00   -0.12218   0.24509   -2.000
 6727.00    0.14738   0.24615    0.000
 6728.00    0.75490   0.24779    0.000
 6729.00    1.37148   0.24936    0.000
 6730.00    1.76918   0.25028    0.000
 6731.00    1.93620   0.24954    0.000
 6732.00    1.92871   0.24764    0.000
 6733.00    1.79236   0.24687    0.000
 6734.00    1.51654   0.24776    0.000
 6735.00    1.07752   0.24892    0.000
 6736.00    0.61918   0.24794    0.000
 6737.00    0.40658   0.24494    0.000
 6738.00    0.53925   0.24263    0.000
 6739.00    0.88303   0.24335    0.000
 6740.00    1.11158   0.24508    0.000
 6741.00    0.91076   0.24439    0.000
 6742.00    0.37920   0.24204    0.000
 6743.00   -0.11236   0.24183   -2.000
 6744.00   -0.34884   0.24349   -2.000
 6745.00   -0.29618   0.24394   -2.000
 6746.00   -0.00436   0.24291   -2.000
 6747.00    0.41962   0.24136    0.000
 6748.00    0.82977   0.24006    0.000
 6749.00    1.09794   0.23950    0.000
 6750.00    1.18037   0.24070    0.000
 6751.00    1.07683   0.24173    0.000
 6752.00    0.78771   0.24099    0.000
 6753.00    0.46775   0.24160   -1.000
 6754.00    0.53376   0.24299   -1.000
 6755.00    1.14806   0.24364   -1.000
 6756.00    1.81938   0.24438   -1.000
 6757.00    2.02291   0.24627   -1.000
 6758.00    1.69165   0.24824   -1.000
 6759.00    1.00802   0.24921   -1.000
 6760.00    0.22840   0.24893   43.783
 6761.00   -0.35191   0.24749   -2.000
 6762.00   -0.45516   0.24702   -2.000
 6763.00   -0.03811   0.24733   -2.000
 6764.00    0.63598   0.24668   -1.000
 6765.00    1.21421   0.24403   -1.000
 6766.00    1.40488   0.23997   -1.000
 6767.00    1.15022   0.23853   -1.000
 6768.00    0.66507   0.24082   -1.000
 6769.00    0.31267   0.24218   31.983
 6770.00    0.43120   0.24066   -1.000
 6771.00    0.94579   0.23993   -1.000
 6772.00    1.42731   0.24218   -1.000
 6773.00    1.61167   0.24557   -1.000
 6774.00    1.49734   0.24769   -1.000
 6775.00    1.20273   0.24838   -1.000
 6776.00    0.87895   0.24747   -1.000
 6777.00    0.60335   0.24701   -1.000
 6778.00    0.36057   0.24822   -1.000
 6779.00    0.05825   0.24905   -1.000
 6780.00   -0.33493   0.24773   -2.000
 6781.00   -0.57820   0.24487   -2.000
 6782.00   -0.45731   0.24061   -2.000
 6783.00   -0.24987   0.23681   -2.000
 6784.00   -0.19556   0.23575   -2.000
 6785.00    0.22345   0.23691   44.753
 6786.00    1.31222   0.23955   -1.000
 6787.00    2.04184   0.24249   -1.000
 6788.00    1.48335   0.24358   -1.000
 6789.00    0.30092   0.24324   33.231
 6790.00   -0.45948   0.24358   -2.000
 6791.00   -0.56969   0.24377   -2.000
 6792.00   -0.24386   0.24177   -2.000
 6793.00    0.26053   0.23923   38.383
 6794.00    0.72407   0.23851   -1.000
 6795.00    1.00645   0.23901   -1.000
 6796.00    1.05869   0.24017   -1.000
 6797.00    0.92350   0.24126   -1.000
 6798.00    0.70321   0.24155   -1.000
 6799.00    0.51497   0.24174   -1.000
 6800.00    0.36375   0.24260   -1.000
 6801.00    0.14048   0.24313   -1.000
 6802.00   -0.12513   0.24229   -2.000
 6803.00   -0.24402   0.24086   -2.000
 6804.00   -0.20069   0.24087   -2.000
 6805.00   -0.15635   0.24113   -2.000
 6806.00   -0.04085   0.24043   -2.000
 6807.00    0.39850   0.24037   -1.000
 6808.00    1.06415   0.24000   -1.000
 6809.00    1.55746   0.23871   -1.000
 6810.00    1.70135   0.23887   -1.000
 6811.00    1.56906   0.24017   -1.000
 6812.00    1.24008   0.24028   -1.000
 6813.00    0.82801   0.23852   -1.000
 6814.00    0.63481   0.23702   -1.000
 6815.00    0.89651   0.23857   -1.000
 6816.00    1.30964   0.24173   -1.000
 6817.00    1.36636   0.24267   -1.000
 6818.00    0.98497   0.24086   -1.000
 6819.00    0.38755   0.23841   -1.000
 6820.00   -0.19959   0.23825   -2.000
 6821.00   -0.59619   0.24061   -2.000
 6822.00   -0.68219   0.24317   -2.000
 6823.00   -0.41334   0.24416   -2.000
 6824.00    0.16182   0.24376   -1.000
 6825.00    0.89154   0.24285   -1.000
 6826.00    1.52369   0.24036   -1.000
 6827.00    1.80213   0.23669   -1.000
 6828.00    1.57171   0.23555   -1.000
 6829.00    0.96243   0.23789   -1.000
 6830.00    0.45336   0.24071   -1.000
 6831.00    0.43354   0.24114   -1.000
 6832.00    0.91443   0.24015   -1.000
 6833.00    1.54517   0.24017   -1.000
 6834.00    1.75891   0.24137   -1.000
 6835.00    1.39598   0.24123   -1.000
 6836.00    0.87293   0.23926   -1.000
 6837.00    0.54668   0.23680   -1.000
 6838.00    0.48020   0.23376   -1.000
 6839.00    0.65814   0.23051   -1.000
 6840.00    1.03086   0.22740   -1.000
 6841.00    1.36771   0.22582   -1.000
 6842.00    1.33936   0.22738   -1.000
 6843.00    0.90503   0.23169   -1.000
 6844.00    0.34493   0.23595   -1.000
 6845.00    0.03248   0.23811   -1.000
 6846.00    0.23573   0.23852   42.422
 6847.00    0.81897   0.23862   -1.000
 6848.00    1.37222   0.23889   -1.000
 6849.00    1.60938   0.23892   -1.000
 6850.00    1.45751   0.23879   -1.000
 6851.00    1.06043   0.23922   -1.000
 6852.00    0.66645   0.23955   -1.000
 6853.00    0.44923   0.23657   -1.000
 6854.00    0.44101   0.23119   -1.000
 6855.00    0.48926   0.22922   -1.000
 6856.00    0.40138   0.23080   -1.000
 6857.00    0.13389   0.23257   -1.000
 6858.00   -0.14584   0.23408   -2.000
 6859.00   -0.06918   0.23377   -2.000
 6860.00    0.39502   0.23037   -1.000
 6861.00    0.54332   0.22868   -1.000
 6862.00    0.00802   0.23215   -1.000
 6863.00   -0.47110   0.23710   -2.000
 6864.00   -0.33494   0.23867   -2.000
 6865.00   -0.05377   0.23630   -2.000
 6866.00   -0.03756   0.23194   -2.000
 6867.00   -0.00381   0.22922   -2.000
 6868.00    0.26655   0.23051   37.516
 6869.00    0.54437   0.23347   -1.000
 6870.00    0.56737   0.23424   -1.000
 6871.00    0.26852   0.23204   37.241
 6872.00   -0.21767   0.23082   -2.000
 6873.00   -0.59863   0.23160   -2.000
 6874.00   -0.58512   0.23183   -2.000
 6875.00   -0.05566   0.23194   -2.000
 6876.00    0.62026   0.23387   -1.000
 6877.00    0.80032   0.23607   -1.000
 6878.00    0.54408   0.23635   -1.000
 6879.00    0.48851   0.23506   -1.000
 6880.00    0.72923   0.23218   -1.000
 6881.00    0.85965   0.22878   -1.000
 6882.00    0.77722   0.22801   -1.000
 6883.00    0.65972   0.23093   -1.000
 6884.00    0.51836   0.23364   -1.000
 6885.00    0.23162   0.23328   43.175
 6886.00   -0.21944   0.23325   -2.000
 6887.00   -0.67862   0.23527   -2.000
 6888.00   -0.78798   0.23716   -2.000
 6889.00   -0.31234   0.23850   -2.000
 6890.00    0.42321   0.23889   -1.000
 6891.00    0.88002   0.23795   -1.000
 6892.00    0.81709   0.23679   -1.000
 6893.00    0.34282   0.23611   -1.000
 6894.00   -0.13141   0.23449   -2.000
 6895.00   -0.25651   0.23334   -2.000
 6896.00   -0.08034   0.23459   -2.000
 6897.00    0.12121   0.23611   -1.000
 6898.00    0.05818   0.23550   -1.000
 6899.00   -0.24807   0.23404   -2.000
 6900.00   -0.32502   0.23457   -2.000
 6901.00    0.07943   0.23609   -1.000
 6902.00    0.61594   0.23645   -1.000
 6903.00    0.82704   0.23564   -1.000
 6904.00    0.49764   0.23494   -1.000
 6905.00   -0.14492   0.23481   -2.000
 6906.00   -0.49215   0.23584   -2.000
 6907.00   -0.27253   0.23671   -2.000
 6908.00    0.22165   0.23729   45.116
 6909.00    0.57695   0.23718   -1.000
 6910.00    0.50780   0.23565   -1.000
 6911.00    0.06046   0.23396   -1.000
 6912.00   -0.43292   0.23196   -2.000
 6913.00   -0.71677   0.22946   -2.000
 6914.00   -0.74924   0.22900   -2.000
 6915.00   -0.74639   0.23013   -2.000
 6916.00   -0.96012   0.23024   -2.000
 6917.00   -1.14117   0.23104   -2.000
 6918.00   -0.81070   0.23363   -2.000
 6919.00   -0.09069   0.23579   -2.000
 6920.00    0.51318   0.23707   -1.000
 6921.00    0.83651   0.23729   -1.000
 6922.00    0.95270   0.23563   -1.000
 6923.00    0.78973   0.23150   -1.000
 6924.00    0.27316   0.22731   36.609
 6925.00   -0.38279   0.22610   -2.000
 6926.00   -0.75406   0.22845   -2.000
 6927.00   -0.40189   0.23143   -2.000
 6928.00    0.58999   0.23269   -1.000
 6929.00    1.15866   0.23302   -1.000
 6930.00    0.57856   0.23261   -1.000
 6931.00   -0.31469   0.23121   -2.000
 6932.00   -0.46759   0.22896   -2.000
 6933.00    0.15184   0.22892   -1.000
 6934.00    0.97451   0.23124   -1.000
 6935.00    1.33507   0.23241   -1.000
 6936.00    1.15060   0.23162   -1.000
 6937.00    1.15262   0.23113   -1.000
 6938.00    1.56437   0.23223   -1.000
 6939.00    1.59135   0.23390   -1.000
 6940.00    1.07624   0.23499   -1.000
 6941.00    0.97486   0.23400   -1.000
 6942.00    1.34436   0.23091   -1.000
 6943.00    0.96826   0.22697   -1.000
 6944.00   -0.21151   0.22347   -2.000
 6945.00   -0.74200   0.22376   -2.000
 6946.00   -0.09028   0.22729   -2.000
 6947.00    0.90126   0.23046   -1.000
 6948.00    1.45343   0.23205   -1.000
 6949.00    1.29045   0.23147   -1.000
 6950.00    0.51872   0.22826   -1.000
 6951.00   -0.49379   0.22586   -2.000
 6952.00   -1.32040   0.22565   -2.000
 6953.00   -1.67161   0.22588   -2.000
 6954.00   -1.68420   0.22650   -2.000
 6955.00   -1.54041   0.22860   -2.000
 6956.00   -0.68314   0.23063   -2.000
 6957.00    1.17583   0.23089   -1.000
 6958.00    2.25993   0.23030   -1.000
 6959.00    1.05885   0.22976   -1.000
 6960.00   -0.08456   0.23025   -2.000
 6961.00    0.77782   0.23107   -1.000
 6962.00   -0.44579   0.23127   -2.000
 6963.00   -6.47731   0.23144   -2.000
 6964.00  -10.26932   0.23052   -2.000
 6965.00   -5.91923   0.22838   -2.000
 6966.00    0.41851   0.22883   -2.000
 6967.00    1.71499   0.23161   -2.000
 6968.00    0.20605   0.23312   -2.000
 6969.00   -0.12081   0.23195   -2.000
 6970.00    0.29329   0.22915   -2.000
 6971.00    0.24273   0.22888   -2.000
 6972.00    0.31211   0.23128   -2.000
 6973.00    0.71510   0.23103   -2.000
 6974.00    0.30997   0.22733   -2.000
 6975.00   -0.87478   0.22369   -2.000
 6976.00   -1.00545   0.21985   -2.000
 6977.00   -0.19228   0.21388   -2.000
 6978.00   -1.03785   0.21027   -2.000
 6979.00   -3.26418   0.21455   -2.000
 6980.00   -3.21629   0.22205   -2.000
 6981.00   -0.49887   0.22686   -2.000
 6982.00    1.39847   0.22963   -2.000
 6983.00    1.23420   0.23077   -2.000
 6984.00    0.73627   0.22995   -2.000
 6985.00    0.79166   0.22904   -2.000
 6986.00    0.90907   0.22911   -2.000
 6987.00    0.71265   0.22890   -2.000
 6988.00    0.31589   0.22716   -2.000
 6989.00    0.25510   0.22612   -2.000
 6990.00    0.93299   0.22765   -2.000
 6991.00    1.62754   0.22988   -2.000
 6992.00    1.32576   0.23024   -2.000
 6993.00    0.42962   0.22897   -2.000
 6994.00    0.08614   0.22789   -2.000
 6995.00    0.72681   0.22830   -2.000
 6996.00    1.89310   0.22880   -2.000
 6997.00    2.38562   0.22741   -2.000
 6998.00    1.43380   0.22356   -2.000
 6999.00   -0.06182   0.22015   -2.000
 7000.00   -0.83481   0.22109   -2.000
 7001.00   -0.70692   0.22475   -2.000
 7002.00   -0.05051   0.22567   -2.000
 7003.00    0.81849   0.22286   -2.000
 7004.00    1.47761   0.22020   -2.000
 7005.00    1.35077   0.22013   -2.000
 7006.00    0.63260   0.22195   -2.000
 7007.00    0.61470   0.22429   -2.000
 7008.00    1.46979   0.22618   -2.000
 7009.00    1.40522   0.22659   -2.000
 7010.00   -0.07785   0.22520   -2.000
 7011.00   -1.01351   0.22415   -2.000
 7012.00   -0.36984   0.22502   -2.000
 7013.00    0.74939   0.22528   -2.000
 7014.00    1.37874   0.22125   -2.000
 7015.00    1.49190   0.21378   -2.000
 7016.00    1.13944   0.21091   -2.000
 7017.00    0.38714   0.21655   -2.000
 7018.00    0.22332   0.22395   -2.000
 7019.00    1.60399   0.22728   -2.000
 7020.00    1.91868   0.22765   -2.000
 7021.00   -2.58773   0.22560   -2.000
 7022.00   -8.21437   0.22085   -2.000
 7023.00   -7.42650   0.21642   -2.000
 7024.00   -1.77075   0.21615   -2.000
 7025.00    1.32918   0.21962   -2.000
 7026.00    0.68564   0.22302   -2.000
 7027.00   -0.16936   0.22446   -2.000
 7028.00    0.11553   0.22507   -2.000
 7029.00    0.87359   0.22554   -2.000
 7030.00    1.56699   0.22557   -2.000
 7031.00    1.96157   0.22469   -2.000
 7032.00    1.91915   0.22388   -2.000
 7033.00    1.49358   0.22330   -2.000
 7034.00    1.04882   0.22362   -2.000
 7035.00    0.90127   0.22554   -2.000
 7036.00    0.94765   0.22499   -2.000
 7037.00    0.89986   0.21947   -2.000
 7038.00    0.56084   0.21690   -2.000
 7039.00    0.00049   0.22212   -2.000
 7040.00   -0.42601   0.22928   -2.000
 7041.00   -0.89861   0.23283   -2.000
 7042.00   -2.43253   0.23285   -2.000
 7043.00   -4.87191   0.22971   -2.000
 7044.00   -6.13586   0.22541   -2.000
 7045.00   -5.48787   0.22437   -2.000
 7046.00   -4.74721   0.22709   -2.000
 7047.00   -4.77420   0.23041   -2.000
 7048.00   -4.28611   0.23206   -2.000
 7049.00   -2.66341   0.23180   -2.000
 7050.00   -0.82606   0.22968   -2.000
 7051.00    0.36879   0.22460   -2.000
 7052.00    0.68952   0.21869   -2.000
 7053.00    0.21605   0.21668   -2.000
 7054.00   -0.72884   0.21861   -2.000
 7055.00   -1.45042   0.22189   -2.000
 7056.00   -1.22670   0.22453   -2.000
 7057.00   -0.27946   0.22488   -2.000
 7058.00    0.50352   0.22193   -2.000
 7059.00    0.79464   0.21766   -2.000
 7060.00    0.84172   0.21659   -2.000
 7061.00    0.90417   0.21849   -2.000
 7062.00    1.08400   0.22075   -2.000
 7063.00    1.24655   0.22336   -2.000
 7064.00    1.19134   0.22506   -2.000
 7065.00    0.93488   0.22242   -2.000
 7066.00    0.60221   0.21683   -2.000
 7067.00    0.22792   0.21181   -2.000
 7068.00   -0.04772   0.21129   -2.000
 7069.00    0.24156   0.21616   -2.000
 7070.00    1.22446   0.22135   -2.000
 7071.00    2.05299   0.22297   -2.000
 7072.00    2.05668   0.22284   -2.000
 7073.00    1.78623   0.22274   -2.000
 7074.00    1.84085   0.22205   -2.000
 7075.00    1.84092   0.22092   -2.000
 7076.00    0.82914   0.22081   -2.000
 7077.00   -2.05082   0.22181   -2.000
 7078.00   -5.45339   0.22263   -2.000
 7079.00   -5.49039   0.22369   -2.000
 7080.00   -1.73260   0.22471   -2.000
 7081.00    0.81885   0.22328   -2.000
 7082.00   -0.22179   0.21825   -2.000
 7083.00   -1.77969   0.21144   -2.000
 7084.00   -1.66979   0.20772   -2.000
 7085.00   -0.82605   0.20977   -2.000
 7086.00   -0.28282   0.21272   -2.000
 7087.00   -0.10540   0.21320   -2.000
 7088.00   -0.07584   0.21232   -2.000
 7089.00   -0.00043   0.21074   -2.000
 7090.00    0.14701   0.21023   -2.000
 7091.00    0.31119   0.21135   -2.000
 7092.00    0.68774   0.21150   -2.000
 7093.00    1.47142   0.21169   -2.000
 7094.00    2.07980   0.21227   -2.000
 7095.00    1.65088   0.21251   -2.000
 7096.00    0.42912   0.21291   -2.000
 7097.00   -0.56276   0.21396   -2.000
 7098.00   -0.66433   0.21561   -2.000
 7099.00    0.13142   0.21664   -2.000
 7100.00    1.09014   0.21602   -2.000
 7101.00    1.39375   0.21415   -2.000
 7102.00    1.06385   0.21301   -2.000
 7103.00    0.57999   0.21438   -2.000
 7104.00    0.23878   0.21655   -2.000
 7105.00    0.15410   0.21627   -2.000
 7106.00    0.34413   0.21333   -2.000
 7107.00    0.73774   0.21161   -2.000
 7108.00    1.18513   0.21220   -2.000
 7109.00    1.58866   0.21141   -2.000
 7110.00    1.95893   0.20840   -2.000
 7111.00    1.96391   0.20672   -2.000
 7112.00    0.82725   0.20801   -2.000
 7113.00   -0.96825   0.21034   -2.000
 7114.00   -1.15340   0.21145   -2.000
 7115.00    0.49391   0.21192   -2.000
 7116.00    0.88165   0.21155   -2.000
 7117.00   -0.84535   0.21090   -2.000
 7118.00   -1.57950   0.21009   -2.000
 7119.00   -0.03242   0.20949   -2.000
 7120.00    1.53529   0.20876   -2.000
 7121.00    1.48393   0.20743   -2.000
 7122.00    0.22825   0.20793   -2.000
 7123.00   -0.97445   0.21066   -2.000
 7124.00   -0.88433   0.21157   -2.000
 7125.00    0.53311   0.21012   -2.000
 7126.00    2.10374   0.20919   -2.000
 7127.00    2.48557   0.21015   -2.000
 7128.00    1.05239   0.20984   -2.000
 7129.00   -0.78191   0.20557   -2.000
 7130.00   -0.88090   0.20197   -2.000
 7131.00    0.24464   0.20355   -2.000
 7132.00    0.69203   0.20781   -2.000
 7133.00    0.77003   0.21136   -2.000
 7134.00    1.75515   0.21282   -2.000
 7135.00    2.82575   0.21297   -2.000
 7136.00    2.66739   0.21441   -2.000
 7137.00    2.37389   0.21503   -2.000
 7138.00    3.15120   0.21228   -2.000
 7139.00    3.10186   0.20996   -2.000
 7140.00    0.52922   0.21158   -2.000
 7141.00   -2.20301   0.21319   -2.000
 7142.00   -2.45515   0.21258   -2.000
 7143.00   -1.24067   0.21180   -2.000
 7144.00   -0.50446   0.21135   -2.000
 7145.00   -0.49125   0.21103   -2.000
 7146.00   -0.64153   0.20822   -2.000
 7147.00   -0.49948   0.20256   -2.000
 7148.00    0.03953   0.20117   -2.000
 7149.00    0.65987   0.20486   -2.000
 7150.00    1.00051   0.20837   -2.000
 7151.00    0.93219   0.21139   -2.000
 7152.00    0.77576   0.21431   -2.000
 7153.00    1.17896   0.21455   -2.000
 7154.00    2.03736   0.21162   -2.000
 7155.00    2.35324   0.21025   -2.000
 7156.00    1.76666   0.21333   -2.000
 7157.00    0.91321   0.21511   -2.000
 7158.00    0.35888   0.21342   -2.000
 7159.00    0.24241   0.21099   -2.000
 7160.00    0.43680   0.21044   -2.000
 7161.00    0.70862   0.21199   -2.000
 7162.00    0.99525   0.21127   -2.000
 7163.00    1.38988   0.20507   -2.000
 7164.00    1.91058   0.19912   -2.000
 7165.00    2.48011   0.20048   -2.000
 7166.00    3.00787   0.20767   -2.000
 7167.00    3.33240   0.21399   -2.000
 7168.00    3.09389   0.21551   -2.000
 7169.00    2.06299   0.21379   -2.000
 7170.00    0.70919   0.21324   -2.000
 7171.00   -0.19386   0.21522   -2.000
 7172.00   -0.29913   0.21707   -2.000
 7173.00    0.21340   0.21681   -2.000
 7174.00    0.69635   0.21396   -2.000
 7175.00    0.67935   0.21021   -2.000
 7176.00    0.53954   0.20998   -2.000
 7177.00    0.74532   0.21353   -2.000
 7178.00    1.06458   0.21420   -2.000
 7179.00    1.15890   0.20891   -2.000
 7180.00    1.14105   0.20273   -2.000
 7181.00    1.14947   0.20249   -2.000
 7182.00    1.03655   0.20839   -2.000
 7183.00    0.85329   0.21322   -2.000
 7184.00    1.05898   0.21315   -2.000
 7185.00    1.57542   0.20935   -2.000
 7186.00    1.48109   0.20343   -2.000
 7187.00    0.63492   0.19967   -2.000
 7188.00    0.18582   0.20033   -2.000
 7189.00    0.65148   0.20329   -2.000
 7190.00    1.30472   0.20659   -2.000
 7191.00    1.62639   0.20707   -2.000
 7192.00    1.74180   0.20482   -2.000
 7193.00    1.65723   0.20427   -2.000
 7194.00    1.19022   0.20737   -2.000
 7195.00    0.69543   0.20930   -2.000
 7196.00    0.85882   0.20806   -2.000
 7197.00    1.43950   0.20782   -2.000
 7198.00    1.50581   0.20949   -2.000
 7199.00    0.93659   0.21014   -2.000
 7200.00    0.33124   0.20842   -2.000
 7201.00   -0.04101   0.20586   -2.000
 7202.00   -0.25819   0.20669   -2.000
 7203.00   -0.30949   0.21078   -2.000
 7204.00   -0.06665   0.21284   -2.000
 7205.00    0.60144   0.20849   -2.000
 7206.00    1.56734   0.19998   -2.000
 7207.00    2.12691   0.19619   -2.000
 7208.00    1.74978   0.19961   -2.000
 7209.00    1.07558   0.20573   -2.000
 7210.00    0.97868   0.21102   -2.000
 7211.00    1.34886   0.21201   -2.000
 7212.00    1.56394   0.20870   -2.000
 7213.00    1.17572   0.20496   -2.000
 7214.00    0.37147   0.20356   -2.000
 7215.00    0.16388   0.20451   -2.000
 7216.00    0.85666   0.20738   -2.000
 7217.00    1.09253   0.21033   -2.000
 7218.00    0.24703   0.21072   -2.000
