###################################################################
## OUTPUT of StarlightChains_v04.for    [Cid@UFSC - 01/Apr/2007] ##
###################################################################

## Some input info
2012cd.txt                               [arq_obs]
Base.CB07.vall.4m                        [arq_base]
Masks.EmLines.NEW.gm                     [arq_masks]
StCv04.C11.config                        [arq_config]
   66                                    [N_base]
    0                                    [N_YAV_components = # of components with extra extinction!]
    0                                    [i_FitPowerLaw (1/0 = Yes/No)]
-9.99                                    [alpha_PowerLaw]
CCM                                      [red_law_option]
 1.458241                                [q_norm = A(l_norm)/A(V)]

## (Re)Sampling Parameters
 3741.00                                 [l_ini (A)]
 7218.00                                 [l_fin (A)]
    1.00                                 [dl    (A)]     (OBS: dl_cushion =    50.00 A)

## Normalization info
 4020.00                                 [l_norm (A) - for base]
 4010.00                                 [llow_norm (A) - window for f_obs]
 4060.00                                 [lupp_norm (A) - window for f_obs]
3.916927E-17                             [fobs_norm (in input units)]

## S/N
 3691.00                                 [llow_SN (A) - window for S/N]
 7268.00                                 [lupp_SN (A) - window for S/N]
   2.372                                 [S/N in S/N window]
   3.596                                 [S/N in norm. window]
  10.000                                 [S/N_err in S/N window]
  15.164                                 [S/N_err in norm. window]
  1.0000                                 [fscale_chi2]

## etc...
    -2007391                             [idum_orig]
  2372                                   [NOl_eff]
  1005                                   [Nl_eff]
  1367    NSIGMA                         [Ntot_cliped & clip_method]
  1029630                                [Nglobal_steps]
   7                                     [N_chains]
  23                                     [NEX0s_base = N_base in EX0s-fits]
 0   0   1        7   2.0   1.855E+02    [Clip-Bug, RC-Crash & Burn-In warning-flags, n_censored_weights, wei_nsig_threshold & wei_limit]
    12     12.204     11.690      0.514  [idt_all, wdt_TotTime, wdt_UsrTime & wdt_SysTime (sec)]

## Synthesis Results - Best model ##

 2.55447E+00                             [chi2/Nl_eff]
    13.39403                             [adev (%)]

    72.44167                             [sum-of-x (%)]
 7.40692E-18                             [Flux_tot (units of input spectrum!)]
 2.09355E-13                             [Mini_tot (???)]
 1.09308E-13                             [Mcor_tot (???)]

  36.00                                  [v0_min  (km/s)]
 118.03                                  [vd_min  (km/s)]
-1.0000                                  [AV_min  (mag)]
 0.0000                                  [YAV_min (mag)]

# j     x_j(%)      Mini_j(%)     Mcor_j(%)     age_j(yr)     Z_j      (L/M)_j    YAV?  Mstars   component_j        a/Fe...       SSP_chi2r SSP_adev(%)   SSP_AV   SSP_x(%)
  1      0.0000     0.0000E+00    0.0000E+00    1.000000E+06  0.00400  1.094E-02    0   1.0000   age020_m42            0.0000     3.6858E+00    14.9087   2.3629    56.9142
  2      0.0000     0.0000E+00    0.0000E+00    3.160000E+06  0.00400  4.007E-02    0   0.9999   age045_m42            0.0000     3.0968E+00    14.2529   1.5699    62.8495
  3      0.0000     0.0000E+00    0.0000E+00    5.010000E+06  0.00400  2.539E-02    0   0.9488   age055_m42            0.0000     3.2710E+00    14.4676   1.9070    60.7913
  4      0.0000     0.0000E+00    0.0000E+00    6.610000E+06  0.00400  2.620E-02    0   0.9220   age061_m42            0.0000     3.0438E+00    14.2215   1.4804    63.4077
  5      0.0000     0.0000E+00    0.0000E+00    1.000000E+07  0.00400  1.322E-02    0   0.8862   age070_m42            0.0000     3.3247E+00    14.7614   1.1857    64.6406
  6      0.0000     0.0000E+00    0.0000E+00    1.445000E+07  0.00400  7.883E-03    0   0.8571   age078_m42            0.0000     3.4188E+00    14.8404   1.5278    62.6077
  7      0.0000     0.0000E+00    0.0000E+00    2.512000E+07  0.00400  5.251E-03    0   0.8174   age090_m42            0.0000     3.3460E+00    14.8375   1.0501    65.1013
  8      0.0000     0.0000E+00    0.0000E+00    4.000000E+07  0.00400  3.649E-03    0   0.7851   age104_m42            0.0000     3.2333E+00    14.6787   0.8144    65.9584
  9      0.0000     0.0000E+00    0.0000E+00    5.500000E+07  0.00400  3.098E-03    0   0.7629   age110_m42            0.0000     3.0483E+00    14.3595   0.9637    66.3089
 10      0.0000     0.0000E+00    0.0000E+00    1.015200E+08  0.00400  2.228E-03    0   0.7207   age116_m42            0.0000     2.9239E+00    14.1421   0.9784    66.7538
 11      0.0000     0.0000E+00    0.0000E+00    2.861200E+08  0.00400  1.093E-03    0   0.6648   age125_m42            0.0000     2.9639E+00    14.3348   0.3873    69.2046
 12      0.0000     0.0000E+00    0.0000E+00    5.088000E+08  0.00400  6.597E-04    0   0.6365   age130_m42            0.0000     2.7983E+00    13.9845   0.3782    70.0093
 13     22.7009     5.2002E+00    5.7747E+00    1.434000E+09  0.00400  2.132E-04    0   0.5798   age139_m42            0.0000     2.6359E+00    13.6018  -0.5836    71.2554
 14      0.0000     0.0000E+00    0.0000E+00    4.250000E+09  0.00400  5.895E-05    0   0.5377   age158_m42            0.0000     2.6715E+00    13.5900  -0.9880    67.6592
 15      0.0000     0.0000E+00    0.0000E+00    7.500000E+09  0.00400  3.510E-05    0   0.5212   age171_m42            0.0000     2.8078E+00    13.7083  -1.0000    62.5044
 16      0.0000     0.0000E+00    0.0000E+00    1.300000E+10  0.00400  2.005E-05    0   0.5034   age193_m42            0.0000     3.1440E+00    14.2876  -1.0000    57.8882
 17      0.0000     0.0000E+00    0.0000E+00    1.800000E+10  0.00400  1.525E-05    0   0.4967   age213_m42            0.0000     3.2033E+00    14.3873  -1.0000    57.0289
 18      0.0000     0.0000E+00    0.0000E+00    1.000000E+06  0.00800  1.238E-02    0   1.0000   age020_m52            0.0000     3.6786E+00    14.8993   2.3592    57.0315
 19      0.0000     0.0000E+00    0.0000E+00    3.160000E+06  0.00800  3.074E-02    0   0.9966   age045_m52            0.0000     3.5433E+00    14.7575   2.2674    57.9999
 20      0.0000     0.0000E+00    0.0000E+00    5.010000E+06  0.00800  2.668E-02    0   0.9443   age055_m52            0.0000     3.3203E+00    14.5248   1.9919    60.1583
 21      0.0000     0.0000E+00    0.0000E+00    6.610000E+06  0.00800  2.136E-02    0   0.9177   age061_m52            0.0000     3.3399E+00    14.7110   0.7080    64.7691
 22      0.0000     0.0000E+00    0.0000E+00    1.000000E+07  0.00800  1.215E-02    0   0.8827   age070_m52            0.0000     3.4835E+00    14.9984   1.3689    64.2276
 23      0.0000     0.0000E+00    0.0000E+00    1.445000E+07  0.00800  8.717E-03    0   0.8552   age078_m52            0.0000     3.3671E+00    14.7763   1.4872    63.6390
 24      0.0000     0.0000E+00    0.0000E+00    2.512000E+07  0.00800  5.592E-03    0   0.8162   age090_m52            0.0000     3.3209E+00    14.8018   1.1080    66.0102
 25      0.0000     0.0000E+00    0.0000E+00    4.000000E+07  0.00800  3.896E-03    0   0.7841   age104_m52            0.0000     3.1868E+00    14.6184   1.0117    66.8793
 26      0.0000     0.0000E+00    0.0000E+00    1.015200E+08  0.00800  2.148E-03    0   0.7226   age116_m52            0.0000     2.9679E+00    14.2524   0.9432    67.2487
 27      0.0000     0.0000E+00    0.0000E+00    2.861200E+08  0.00800  9.925E-04    0   0.6683   age125_m52            0.0000     2.7907E+00    13.9739   0.4429    70.6349
 28      0.0000     0.0000E+00    0.0000E+00    9.047900E+08  0.00800  3.141E-04    0   0.6138   age135_m52            0.0000     2.6433E+00    13.6450  -0.3434    73.4116
 29      0.0000     0.0000E+00    0.0000E+00    1.434000E+09  0.00800  1.719E-04    0   0.5853   age139_m52            0.0000     2.6522E+00    13.6237  -0.9110    71.5403
 30      0.0005     3.3526E-04    3.5959E-04    2.500000E+09  0.00800  7.872E-05    0   0.5600   age150_m52            0.0000     2.7327E+00    13.5769  -1.0000    64.8381
 31      0.0000     0.0000E+00    0.0000E+00    4.250000E+09  0.00800  4.336E-05    0   0.5426   age158_m52            0.0000     2.7831E+00    13.6602  -1.0000    63.8139
 32      0.0000     0.0000E+00    0.0000E+00    6.250000E+09  0.00800  3.159E-05    0   0.5319   age166_m52            0.0000     3.1782E+00    14.3185  -1.0000    58.5247
 33      0.0000     0.0000E+00    0.0000E+00    1.300000E+10  0.00800  1.361E-05    0   0.5073   age193_m52            0.0000     5.0201E+00    17.5961  -1.0000    46.7629
 34      0.0000     0.0000E+00    0.0000E+00    1.800000E+10  0.00800  9.886E-06    0   0.4990   age213_m52            0.0000     5.5451E+00    18.3841  -1.0000    44.2435
 35      0.0000     0.0000E+00    0.0000E+00    1.000000E+06  0.02000  1.544E-02    0   1.0000   age020_m62            0.0000     3.6751E+00    14.9041   2.3547    57.1863
 36      0.0000     0.0000E+00    0.0000E+00    3.160000E+06  0.02000  3.762E-02    0   0.9858   age045_m62            0.0000     3.5680E+00    14.7945   2.2802    58.1007
 37      0.0000     0.0000E+00    0.0000E+00    5.010000E+06  0.02000  3.296E-02    0   0.9342   age055_m62            0.0000     3.1116E+00    14.2679   1.8499    62.0962
 38      0.0000     0.0000E+00    0.0000E+00    8.710000E+06  0.02000  1.154E-02    0   0.8861   age067_m62            0.0000     4.5512E+00    16.6906   0.8189    65.0117
 39      0.0000     0.0000E+00    0.0000E+00    1.445000E+07  0.02000  7.663E-03    0   0.8472   age078_m62            0.0000     3.7396E+00    15.4567   1.0103    65.5000
 40      0.0000     0.0000E+00    0.0000E+00    2.512000E+07  0.02000  4.532E-03    0   0.8099   age090_m62            0.0000     3.7251E+00    15.4919   0.9892    65.6831
 41      0.0000     0.0000E+00    0.0000E+00    5.500000E+07  0.02000  2.733E-03    0   0.7595   age110_m62            0.0000     3.1879E+00    14.6204   0.9948    66.3997
 42      0.0000     0.0000E+00    0.0000E+00    1.609000E+08  0.02000  1.369E-03    0   0.6985   age120_m62            0.0000     2.8874E+00    14.1548   0.8130    69.1612
 43      0.0000     0.0000E+00    0.0000E+00    2.861200E+08  0.02000  9.013E-04    0   0.6714   age125_m62            0.0000     2.7704E+00    13.9125   0.5530    71.5827
 44     23.0079     2.2349E+00    2.7604E+00    5.088000E+08  0.02000  5.028E-04    0   0.6449   age130_m62            0.0000     2.6403E+00    13.5856   0.1850    73.4498
 45      0.0000     0.0000E+00    0.0000E+00    9.047900E+08  0.02000  2.428E-04    0   0.6179   age135_m62            0.0000     2.6045E+00    13.5338  -0.3808    72.4703
 46      0.0000     0.0000E+00    0.0000E+00    1.434000E+09  0.02000  1.263E-04    0   0.5908   age139_m62            0.0000     2.6365E+00    13.5337  -0.8089    70.9653
 47      0.0000     0.0000E+00    0.0000E+00    2.500000E+09  0.02000  5.985E-05    0   0.5673   age150_m62            0.0000     2.7649E+00    13.5726  -1.0000    65.2326
 48      1.2837     1.9167E+00    2.0073E+00    4.250000E+09  0.02000  3.271E-05    0   0.5468   age158_m62            0.0000     3.4512E+00    14.7652  -1.0000    56.7052
 49      0.0000     0.0000E+00    0.0000E+00    1.000000E+10  0.02000  1.360E-05    0   0.5167   age181_m62            0.0000     4.8950E+00    17.2169  -1.0000    48.0571
 50      0.1635     1.1211E+00    1.0764E+00    1.800000E+10  0.02000  7.124E-06    0   0.5013   age213_m62            0.0000     5.9663E+00    18.8289  -1.0000    43.1234
 51      0.0000     0.0000E+00    0.0000E+00    1.000000E+06  0.05000  2.592E-02    0   0.9998   age020_m72            0.0000     3.7102E+00    14.9616   2.3488    57.1295
 52      0.0000     0.0000E+00    0.0000E+00    3.160000E+06  0.05000  4.845E-02    0   0.9577   age045_m72            0.0000     3.3297E+00    14.5244   2.1382    59.6449
 53      0.0000     0.0000E+00    0.0000E+00    5.010000E+06  0.05000  3.072E-02    0   0.9147   age055_m72            0.0000     3.6572E+00    15.2144   1.6179    62.7234
 54      0.0000     0.0000E+00    0.0000E+00    6.610000E+06  0.05000  1.455E-02    0   0.8877   age061_m72            0.0000     5.4326E+00    18.2732   0.8514    65.4781
 55      0.0000     0.0000E+00    0.0000E+00    1.000000E+07  0.05000  9.074E-03    0   0.8524   age070_m72            0.0000     3.8159E+00    15.5735   1.7988    62.6143
 56      0.0000     0.0000E+00    0.0000E+00    2.512000E+07  0.05000  4.250E-03    0   0.7902   age090_m72            0.0000     3.4881E+00    15.1039   1.4648    64.7752
 57      0.0000     0.0000E+00    0.0000E+00    4.000000E+07  0.05000  3.087E-03    0   0.7618   age104_m72            0.0000     3.4359E+00    15.0739   1.2209    66.2723
 58      0.0000     0.0000E+00    0.0000E+00    1.015200E+08  0.05000  1.700E-03    0   0.7096   age116_m72            0.0000     2.9885E+00    14.3499   0.9510    68.8446
 59      0.0047     3.0959E-04    3.9331E-04    2.861200E+08  0.05000  7.384E-04    0   0.6633   age125_m72            0.0000     2.6927E+00    13.7338   0.4231    72.6049
 60      0.0000     0.0000E+00    0.0000E+00    5.088000E+08  0.05000  3.819E-04    0   0.6372   age130_m72            0.0000     2.5880E+00    13.4804  -0.0495    73.4050
 61      0.4167     1.2142E-01    1.4209E-01    9.047900E+08  0.05000  1.676E-04    0   0.6110   age135_m72            0.0000     2.6183E+00    13.4218  -0.7109    71.3135
 62      0.0000     0.0000E+00    0.0000E+00    1.434000E+09  0.05000  8.837E-05    0   0.5874   age139_m72            0.0000     2.7608E+00    13.5148  -1.0000    66.2056
 63     12.2003     1.4076E+01    1.5092E+01    2.500000E+09  0.05000  4.233E-05    0   0.5598   age150_m72            0.0000     3.4672E+00    14.7644  -1.0000    57.2210
 64      6.6469     2.2622E+01    2.2743E+01    6.250000E+09  0.05000  1.435E-05    0   0.5249   age166_m72            0.0000     5.3445E+00    17.9293  -1.0000    45.7055
 65      3.7093     2.7815E+01    2.6828E+01    1.300000E+10  0.05000  6.513E-06    0   0.5036   age193_m72            0.0000     6.8775E+00    20.1120  -1.0000    40.2449
 66      2.3073     2.4892E+01    2.3575E+01    1.800000E+10  0.05000  4.527E-06    0   0.4945   age213_m72            0.0000     7.8220E+00    21.3338  -1.0000    37.0713


## Synthesis Results - Average & Chains ##

# j      x_j: min, <> & last-chain-values for 1 ...  7 chains
  1      0.0000      0.0192      0.0000      0.0000      0.0000      0.0000      0.0000      0.0000      0.0000
  2      0.0000      0.0964      0.0000      0.0000      0.0000      0.0000      0.0000      0.0000      0.0000
  3      0.0000      0.0701      0.0000      0.0000      0.0000      0.0000      0.0000      0.5560      0.0000
  4      0.0000      0.1295      0.3056      0.0000      0.0000      0.0000      0.0000      0.0746      0.0000
  5      0.0000      0.1383      0.0000      0.0000      0.1505      0.0000      0.0000      0.0000      0.0000
  6      0.0000      0.0533      0.0000      0.0000      0.0000      0.0000      0.0000      0.0000      0.0000
  7      0.0000      0.0939      0.0000      0.0000      0.0000      0.0000      0.0000      0.0000      0.0000
  8      0.0000      0.1697      0.0000      0.0000      0.0000      0.0588      0.0000      0.5655      0.0000
  9      0.0000      0.3972      0.0000      0.0000      0.0000      0.0574      0.0000      0.0000      0.0000
 10      0.0000      0.2113      0.6073      0.7337      0.0000      0.0000      0.0000      0.0000      0.5924
 11      0.0000      0.4252      0.0000      0.0000      1.7917      0.0038      0.0000      0.5227      0.4127
 12      0.0000      0.6064      1.3091      1.4057      0.3459      0.0000      0.0000      1.2442      0.3052
 13     22.7009      2.0992      1.0143     10.1703      1.8199      1.6927      6.0406      0.8140      5.8806
 14      0.0000      2.3726      1.8003      4.7802      1.1397      5.9609      3.5725      0.0620      1.6039
 15      0.0000      1.5155      0.5419      0.0000      1.3885      6.3014      2.6582      2.0435      0.0000
 16      0.0000      0.7149      1.7645      0.5098      2.1833      0.0000      0.0308      0.2067      0.0000
 17      0.0000      1.4039      0.0000      0.9439      0.0000      0.5362      0.0000      0.4112      0.0000
 18      0.0000      0.0182      0.0000      0.0000      0.0034      0.0000      0.0000      0.0000      0.0000
 19      0.0000      0.0375      0.0000      0.0000      0.0000      0.0000      0.1650      0.0875      0.0000
 20      0.0000      0.0740      0.0000      0.0000      0.0000      0.2834      0.0000      0.0000      0.0000
 21      0.0000      0.0482      0.0000      0.0150      0.0000      0.0000      0.0000      0.0000      0.0000
 22      0.0000      0.0981      0.0000      0.0000      0.0000      0.0000      0.0000      0.0000      0.0000
 23      0.0000      0.0834      0.0000      0.0000      0.0000      0.3165      0.0000      0.0000      0.0000
 24      0.0000      0.1342      0.0000      0.0000      0.0000      0.0663      0.0000      0.0000      0.0000
 25      0.0000      0.1449      0.1501      0.0000      0.0000      0.0000      0.0000      0.0000      0.0000
 26      0.0000      0.1379      0.0000      0.0000      0.0000      0.0000      0.2635      0.0000      0.0000
 27      0.0000      0.6657      2.9147      0.0000      0.7494      0.8965      1.3880      0.0000      0.0000
 28      0.0000      0.8399      1.7465      0.6140      1.6253      1.7365      1.0223      1.9953      1.7361
 29      0.0000      1.6812      0.3328      2.5309      0.0000      0.6807      6.3769      0.2730      1.9966
 30      0.0005      1.5086      0.0000      1.1292      1.4718      0.0000      2.7294      3.4054      0.9794
 31      0.0000      1.0156      0.0000      0.0000      1.9695      0.0000      0.0000      0.0000      1.6812
 32      0.0000      1.5351      3.4930      0.0000      2.8285      0.3659      0.0000      0.6475      2.3511
 33      0.0000      0.7632      0.0633      0.0353      0.0000      0.0000      0.0000      2.9263      0.0000
 34      0.0000      0.6792      1.4352      0.0000      0.0000      0.0000      0.0000      0.0000      0.0000
 35      0.0000      0.0253      0.0000      0.0000      0.0000      0.0348      0.0000      0.0000      0.0000
 36      0.0000      0.0544      0.0000      0.0000      0.0000      0.0000      0.0000      0.0769      0.0000
 37      0.0000      0.0498      0.0000      0.0326      0.0605      0.0000      0.0000      0.0000      0.0000
 38      0.0000      0.0566      0.0000      0.0000      0.0000      0.0000      0.0000      0.0000      0.0000
 39      0.0000      0.0660      0.0000      0.0000      0.0304      0.0000      0.0000      0.0000      0.0000
 40      0.0000      0.1019      0.0000      0.0000      0.0000      0.0000      0.0000      0.0000      0.0000
 41      0.0000      0.1415      0.0000      0.0000      0.0000      0.0000      0.0000      0.9646      0.0000
 42      0.0000      0.5195      1.1124      0.0000      0.1400      0.3123      1.0470      0.9932      1.3607
 43      0.0000      1.4449      1.6818      4.8289      0.8384      1.4499      2.7779      1.8316      1.8518
 44     23.0079     20.2079     21.6728     12.9435     26.0260     22.5640     11.9951     24.2695     19.9653
 45      0.0000      1.0178      1.4690      3.3237      2.1233      0.1056      1.0548      1.8941      0.0000
 46      0.0000      1.7576      0.8846      1.6657      0.0000      2.7082      2.3977      0.4006      0.9610
 47      0.0000      1.2018      0.0000      0.0000      0.8470      1.5123      0.0000      0.0000      1.6650
 48      1.2837      1.8203      2.4301      3.2321      1.0088      2.9874      1.5650      0.0521      1.6913
 49      0.0000      1.3005      0.8580      2.5402      0.0000      1.3866      0.0000      1.1105      0.0000
 50      0.1635      0.6350      1.7973      0.0000      0.6742      0.5100      0.0000      1.3251      0.7354
 51      0.0000      0.0288      0.0000      0.0000      0.0000      0.0000      0.0000      0.0000      0.0000
 52      0.0000      0.0471      0.0000      0.0000      0.0000      0.0000      0.0000      0.0000      0.0000
 53      0.0000      0.0718      0.0000      0.0000      0.0000      0.0020      0.0000      0.0000      0.0000
 54      0.0000      0.0424      0.0000      0.0000      0.0000      0.0000      0.0000      0.0000      0.0000
 55      0.0000      0.0676      0.0000      0.0000      0.0000      0.0000      0.0000      0.0000      0.0000
 56      0.0000      0.0622      0.0000      0.0000      0.0322      0.0000      0.0000      0.0000      0.0000
 57      0.0000      0.2117      0.6303      0.0000      0.0000      0.0000      0.0000      0.0000      0.0000
 58      0.0000      0.1556      0.4438      0.0000      0.0000      0.0000      0.0000      0.0000      0.2370
 59      0.0047      0.8073      0.4098      0.0000      1.2339      0.0000      0.3058      1.2335      0.9357
 60      0.0000      1.3597      1.4413      2.1188      0.7635      3.1446      2.2893      0.6383      2.0212
 61      0.4167      4.0650      2.8470      2.4276      5.5706      4.9830      3.5987      5.5445      4.1697
 62      0.0000      2.8919      2.1850      5.0987      1.6899      0.0000      7.2106      3.5305      6.6079
 63     12.2003      1.6187      5.1916      2.4026      0.9435      0.0000      4.3860      0.0000      1.9136
 64      6.6469      1.1804      1.6581      1.7624      0.0000      2.6092      2.1577      1.9737      1.9446
 65      3.7093      3.8980      2.7496      4.1954      5.5481      3.2726      3.0870      5.5590      3.8602
 66      2.3073      4.9345      4.8762      2.7241      7.3299      5.2112      3.4504      5.1165      4.7845

# j      m_j: min, <> & last-chain-values for 1 ...  7 chains
  1  0.0000E+00  1.2978E-04  0.0000E+00  0.0000E+00  0.0000E+00  0.0000E+00  0.0000E+00  0.0000E+00  0.0000E+00
  2  0.0000E+00  1.7801E-04  0.0000E+00  0.0000E+00  0.0000E+00  0.0000E+00  0.0000E+00  0.0000E+00  0.0000E+00
  3  0.0000E+00  1.9400E-04  0.0000E+00  0.0000E+00  0.0000E+00  0.0000E+00  0.0000E+00  1.3988E-03  0.0000E+00
  4  0.0000E+00  3.3747E-04  7.9485E-04  0.0000E+00  0.0000E+00  0.0000E+00  0.0000E+00  1.7683E-04  0.0000E+00
  5  0.0000E+00  6.8612E-04  0.0000E+00  0.0000E+00  6.4404E-04  0.0000E+00  0.0000E+00  0.0000E+00  0.0000E+00
  6  0.0000E+00  4.2914E-04  0.0000E+00  0.0000E+00  0.0000E+00  0.0000E+00  0.0000E+00  0.0000E+00  0.0000E+00
  7  0.0000E+00  1.0824E-03  0.0000E+00  0.0000E+00  0.0000E+00  0.0000E+00  0.0000E+00  0.0000E+00  0.0000E+00
  8  0.0000E+00  2.7035E-03  0.0000E+00  0.0000E+00  0.0000E+00  9.5946E-04  0.0000E+00  8.1914E-03  0.0000E+00
  9  0.0000E+00  7.2404E-03  0.0000E+00  0.0000E+00  0.0000E+00  1.0716E-03  0.0000E+00  0.0000E+00  0.0000E+00
 10  0.0000E+00  5.0598E-03  1.4520E-02  2.1834E-02  0.0000E+00  0.0000E+00  0.0000E+00  0.0000E+00  1.5732E-02
 11  0.0000E+00  1.9147E-02  0.0000E+00  0.0000E+00  6.9567E-02  1.7555E-04  0.0000E+00  2.1402E-02  2.0606E-02
 12  0.0000E+00  4.3315E-02  9.3358E-02  1.2477E-01  2.1304E-02  0.0000E+00  0.0000E+00  8.0810E-02  2.4175E-02
 13  5.7747E+00  4.2263E-01  2.0388E-01  2.5444E+00  3.1594E-01  3.4883E-01  1.6279E+00  1.4903E-01  1.3129E+00
 14  0.0000E+00  1.6021E+00  1.2137E+00  4.0111E+00  6.6363E-01  4.1201E+00  3.2291E+00  3.8074E-02  1.2010E+00
 15  0.0000E+00  1.6659E+00  5.9476E-01  0.0000E+00  1.3162E+00  7.0904E+00  3.9114E+00  2.0427E+00  0.0000E+00
 16  0.0000E+00  1.3288E+00  3.2745E+00  1.1775E+00  3.4993E+00  0.0000E+00  7.6710E-02  3.4934E-01  0.0000E+00
 17  0.0000E+00  3.3850E+00  0.0000E+00  2.8282E+00  0.0000E+00  1.3234E+00  0.0000E+00  9.0157E-01  0.0000E+00
 18  0.0000E+00  1.0891E-04  0.0000E+00  0.0000E+00  1.7601E-05  0.0000E+00  0.0000E+00  0.0000E+00  0.0000E+00
 19  0.0000E+00  8.9912E-05  0.0000E+00  0.0000E+00  0.0000E+00  0.0000E+00  5.3021E-04  1.9094E-04  0.0000E+00
 20  0.0000E+00  1.9381E-04  0.0000E+00  0.0000E+00  0.0000E+00  7.6011E-04  0.0000E+00  0.0000E+00  0.0000E+00
 21  0.0000E+00  1.5318E-04  0.0000E+00  5.9406E-05  0.0000E+00  0.0000E+00  0.0000E+00  0.0000E+00  0.0000E+00
 22  0.0000E+00  5.2753E-04  0.0000E+00  0.0000E+00  0.0000E+00  0.0000E+00  0.0000E+00  0.0000E+00  0.0000E+00
 23  0.0000E+00  6.0545E-04  0.0000E+00  0.0000E+00  0.0000E+00  2.3530E-03  0.0000E+00  0.0000E+00  0.0000E+00
 24  0.0000E+00  1.4501E-03  0.0000E+00  0.0000E+00  0.0000E+00  7.3302E-04  0.0000E+00  0.0000E+00  0.0000E+00
 25  0.0000E+00  2.1583E-03  2.2322E-03  0.0000E+00  0.0000E+00  0.0000E+00  0.0000E+00  0.0000E+00  0.0000E+00
 26  0.0000E+00  3.4341E-03  0.0000E+00  0.0000E+00  0.0000E+00  0.0000E+00  8.7855E-03  0.0000E+00  0.0000E+00
 27  0.0000E+00  3.3182E-02  1.4507E-01  0.0000E+00  3.2213E-02  4.5742E-02  9.2618E-02  0.0000E+00  0.0000E+00
 28  0.0000E+00  1.2151E-01  2.5227E-01  1.1037E-01  2.0275E-01  2.5713E-01  1.9796E-01  2.6249E-01  2.7852E-01
 29  0.0000E+00  4.2377E-01  8.3760E-02  7.9276E-01  0.0000E+00  1.7562E-01  2.1516E+00  6.2571E-02  5.5810E-01
 30  3.5959E-04  7.9450E-01  0.0000E+00  7.3899E-01  6.6837E-01  0.0000E+00  1.9241E+00  1.6308E+00  5.7199E-01
 31  0.0000E+00  9.4089E-01  0.0000E+00  0.0000E+00  1.5733E+00  0.0000E+00  0.0000E+00  0.0000E+00  1.7271E+00
 32  0.0000E+00  1.9134E+00  4.3472E+00  0.0000E+00  3.0402E+00  4.6689E-01  0.0000E+00  7.3399E-01  3.2500E+00
 33  0.0000E+00  2.1059E+00  1.7428E-01  1.2108E-01  0.0000E+00  0.0000E+00  0.0000E+00  7.3428E+00  0.0000E+00
 34  0.0000E+00  2.5380E+00  5.3545E+00  0.0000E+00  0.0000E+00  0.0000E+00  0.0000E+00  0.0000E+00  0.0000E+00
 35  0.0000E+00  1.2109E-04  0.0000E+00  0.0000E+00  0.0000E+00  1.7094E-04  0.0000E+00  0.0000E+00  0.0000E+00
 36  0.0000E+00  1.0554E-04  0.0000E+00  0.0000E+00  0.0000E+00  0.0000E+00  0.0000E+00  1.3574E-04  0.0000E+00
 37  0.0000E+00  1.0442E-04  0.0000E+00  8.5103E-05  1.0948E-04  0.0000E+00  0.0000E+00  0.0000E+00  0.0000E+00
 38  0.0000E+00  3.2183E-04  0.0000E+00  0.0000E+00  0.0000E+00  0.0000E+00  0.0000E+00  0.0000E+00  0.0000E+00
 39  0.0000E+00  5.4005E-04  0.0000E+00  0.0000E+00  2.1475E-04  0.0000E+00  0.0000E+00  0.0000E+00  0.0000E+00
 40  0.0000E+00  1.3479E-03  0.0000E+00  0.0000E+00  0.0000E+00  0.0000E+00  0.0000E+00  0.0000E+00  0.0000E+00
 41  0.0000E+00  2.9102E-03  0.0000E+00  0.0000E+00  0.0000E+00  0.0000E+00  0.0000E+00  1.8047E-02  0.0000E+00
 42  0.0000E+00  1.9624E-02  4.1953E-02  0.0000E+00  4.5608E-03  1.2073E-02  5.2935E-02  3.4116E-02  5.6995E-02
 43  0.0000E+00  7.9683E-02  9.2602E-02  3.3091E-01  3.9869E-02  8.1844E-02  2.0506E-01  9.1850E-02  1.1325E-01
 44  2.7604E+00  1.9188E+00  2.0547E+00  1.5272E+00  2.1309E+00  2.1931E+00  1.5246E+00  2.0955E+00  2.1023E+00
 45  0.0000E+00  1.9176E-01  2.7632E-01  7.7811E-01  3.4494E-01  2.0367E-02  2.6601E-01  3.2450E-01  0.0000E+00
 46  0.0000E+00  6.0865E-01  3.0585E-01  7.1678E-01  0.0000E+00  9.5998E-01  1.1115E+00  1.2615E-01  3.6904E-01
 47  0.0000E+00  8.4330E-01  0.0000E+00  0.0000E+00  5.1249E-01  1.0862E+00  0.0000E+00  0.0000E+00  1.2956E+00
 48  2.0073E+00  2.2527E+00  3.0026E+00  4.9705E+00  1.0765E+00  3.7842E+00  2.5925E+00  5.8677E-02  2.3211E+00
 49  0.0000E+00  3.6578E+00  2.4093E+00  8.8782E+00  0.0000E+00  3.9920E+00  0.0000E+00  2.8403E+00  0.0000E+00
 50  1.0764E+00  3.3081E+00  9.3481E+00  0.0000E+00  3.0286E+00  2.7196E+00  0.0000E+00  6.2773E+00  4.2485E+00
 51  0.0000E+00  8.2217E-05  0.0000E+00  0.0000E+00  0.0000E+00  0.0000E+00  0.0000E+00  0.0000E+00  0.0000E+00
 52  0.0000E+00  6.8888E-05  0.0000E+00  0.0000E+00  0.0000E+00  0.0000E+00  0.0000E+00  0.0000E+00  0.0000E+00
 53  0.0000E+00  1.5832E-04  0.0000E+00  0.0000E+00  0.0000E+00  4.4632E-06  0.0000E+00  0.0000E+00  0.0000E+00
 54  0.0000E+00  1.9134E-04  0.0000E+00  0.0000E+00  0.0000E+00  0.0000E+00  0.0000E+00  0.0000E+00  0.0000E+00
 55  0.0000E+00  4.7033E-04  0.0000E+00  0.0000E+00  0.0000E+00  0.0000E+00  0.0000E+00  0.0000E+00  0.0000E+00
 56  0.0000E+00  8.5567E-04  0.0000E+00  0.0000E+00  3.8235E-04  0.0000E+00  0.0000E+00  0.0000E+00  0.0000E+00
 57  0.0000E+00  3.8670E-03  1.1497E-02  0.0000E+00  0.0000E+00  0.0000E+00  0.0000E+00  0.0000E+00  0.0000E+00
 58  0.0000E+00  4.8072E-03  1.3691E-02  0.0000E+00  0.0000E+00  0.0000E+00  0.0000E+00  0.0000E+00  8.1230E-03
 59  3.9331E-04  5.3689E-02  2.7208E-02  0.0000E+00  7.0758E-02  0.0000E+00  2.7223E-02  7.4592E-02  6.9007E-02
 60  0.0000E+00  1.6795E-01  1.7775E-01  3.2522E-01  8.1317E-02  3.9759E-01  3.7852E-01  7.1694E-02  2.7685E-01
 61  1.4209E-01  1.0971E+00  7.6716E-01  8.1416E-01  1.2964E+00  1.3766E+00  1.3000E+00  1.3607E+00  1.2479E+00
 62  0.0000E+00  1.4231E+00  1.0735E+00  3.1178E+00  7.1706E-01  0.0000E+00  4.7495E+00  1.5798E+00  3.6059E+00
 63  1.5092E+01  1.5848E+00  5.0747E+00  2.9230E+00  7.9649E-01  0.0000E+00  5.7478E+00  0.0000E+00  2.0776E+00
 64  2.2743E+01  3.1963E+00  4.4830E+00  5.9303E+00  0.0000E+00  7.2323E+00  7.8209E+00  4.8601E+00  5.8395E+00
 65  2.6828E+01  2.2313E+01  1.5715E+01  2.9843E+01  2.7385E+01  1.9175E+01  2.3654E+01  2.8936E+01  2.4504E+01
 66  2.3575E+01  3.9903E+01  3.9370E+01  2.7374E+01  5.1111E+01  4.3135E+01  3.7349E+01  3.7625E+01  4.2905E+01

# AV, chi2 & Mass for <> & i_chain = 1 ...  7 solutions
AV      -1.0000     -0.9683     -0.9554     -0.9595     -0.9849     -0.9616     -0.9651     -0.9752     -0.9540
chi2 2.5545E+00  2.5859E+00  2.5771E+00  2.5719E+00  2.5710E+00  2.5757E+00  2.5783E+00  2.5789E+00  2.5708E+00
Mass 1.0931E-13  1.4412E-13  1.4688E-13  1.1737E-13  1.6345E-13  1.4207E-13  1.0813E-13  1.5703E-13  1.3249E-13
  36.00                                  [v0_min (km/s) before EX0s...]
 118.03                                  [vd_min (km/s) before EX0s...]


## Synthetic spectrum (Best Model) ##l_obs f_obs f_syn wei
 3478    [Nl_obs]
 3741.00    0.99733   0.40592    0.000
 3742.00    1.02201   0.40733    0.000
 3743.00    0.93581   0.39257    0.000
 3744.00    0.96268   0.36937    0.000
 3745.00    0.70678   0.34397   -1.000
 3746.00   -0.02600   0.31837   -2.000
 3747.00   -0.50489   0.29287   -2.000
 3748.00   -0.20663   0.26897   -2.000
 3749.00    0.23094   0.25211   43.301
 3750.00    0.18118   0.25199   55.193
 3751.00   -0.00419   0.27389   -2.000
 3752.00    0.07705   0.31256   -1.000
 3753.00    0.14703   0.35677   -1.000
 3754.00   -0.04530   0.39638   -2.000
 3755.00   -0.20363   0.42312   -2.000
 3756.00   -0.00130   0.43021   -2.000
 3757.00    0.52058   0.41785   -1.000
 3758.00    1.01941   0.39704   -1.000
 3759.00    1.01234   0.38326   -1.000
 3760.00    0.52217   0.38381   -1.000
 3761.00    0.31751   0.39312   31.495
 3762.00    0.75452   0.40144   -1.000
 3763.00    1.21544   0.40365   -1.000
 3764.00    1.17440   0.39975   -1.000
 3765.00    0.77146   0.39168   -1.000
 3766.00    0.34020   0.38006   29.394
 3767.00    0.12642   0.36555   -1.000
 3768.00    0.31030   0.35192   32.226
 3769.00    0.95005   0.34277   -1.000
 3770.00    1.61672   0.33935   -1.000
 3771.00    1.45520   0.34415   -1.000
 3772.00    0.33676   0.35952   29.695
 3773.00   -0.82970   0.38195   -2.000
 3774.00   -1.20843   0.40439   -2.000
 3775.00   -0.59211   0.42342   -2.000
 3776.00    0.47035   0.44045   21.261
 3777.00    0.94743   0.45792   -1.000
 3778.00    0.58535   0.47652   17.084
 3779.00    0.12819   0.49553   -1.000
 3780.00    0.18011   0.51345   -1.000
 3781.00    0.77903   0.52772   -1.000
 3782.00    1.50759   0.53665   -1.000
 3783.00    1.76624   0.54014   -1.000
 3784.00    1.52180   0.53687   -1.000
 3785.00    1.28621   0.52369   -1.000
 3786.00    1.21422   0.50003   -1.000
 3787.00    1.05335   0.47216   -1.000
 3788.00    0.90461   0.44875   -1.000
 3789.00    1.13233   0.43364   -1.000
 3790.00    1.42530   0.42580   -1.000
 3791.00    1.04625   0.42115   -1.000
 3792.00    0.25465   0.41330   -1.000
 3793.00    0.05919   0.39709   -1.000
 3794.00    0.55797   0.37301   -1.000
 3795.00    1.00771   0.34562   -1.000
 3796.00    1.07958   0.31925   -1.000
 3797.00    0.94541   0.29729   -1.000
 3798.00    0.73282   0.28480   -1.000
 3799.00    0.51295   0.28867   -1.000
 3800.00    0.55536   0.31162   -1.000
 3801.00    1.08758   0.34782   -1.000
 3802.00    1.69414   0.38725   -1.000
 3803.00    1.69680   0.42198   -1.000
 3804.00    1.14375   0.44716   -1.000
 3805.00    0.65735   0.46078   -1.000
 3806.00    0.76134   0.46583   -1.000
 3807.00    1.52037   0.46967   -1.000
 3808.00    2.16970   0.47958   -1.000
 3809.00    1.87366   0.49655   -1.000
 3810.00    1.07101   0.51351   -1.000
 3811.00    0.73519   0.52125   -1.000
 3812.00    0.85362   0.51527   -1.000
 3813.00    0.87830   0.49795   -1.000
 3814.00    0.76352   0.47731   -1.000
 3815.00    0.71989   0.46243   -1.000
 3816.00    0.64961   0.45778   -1.000
 3817.00    0.40368   0.46113   24.772
 3818.00    0.22177   0.46439   -1.000
 3819.00    0.39766   0.45979   25.147
 3820.00    0.78671   0.44827   -1.000
 3821.00    1.06970   0.43796   -1.000
 3822.00    1.14911   0.43318   -1.000
 3823.00    1.06892   0.42839   -1.000
 3824.00    0.87139   0.41587   -1.000
 3825.00    0.66494   0.39624   -1.000
 3826.00    0.68993   0.37690   -1.000
 3827.00    0.99248   0.36311   -1.000
 3828.00    1.12908   0.35450   -1.000
 3829.00    0.79515   0.34727   -1.000
 3830.00    0.41577   0.33718   24.052
 3831.00    0.41784   0.32092   -1.000
 3832.00    0.54633   0.29794   -1.000
 3833.00    0.47808   0.27278   -1.000
 3834.00    0.38190   0.25296   -1.000
 3835.00    0.46712   0.24336   -1.000
 3836.00    0.59043   0.24419   -1.000
 3837.00    0.55349   0.25199   -1.000
 3838.00    0.36486   0.26315   -1.000
 3839.00    0.18904   0.27760   -1.000
 3840.00    0.25633   0.29799   39.012
 3841.00    0.59318   0.32587   -1.000
 3842.00    0.89176   0.35971   -1.000
 3843.00    0.96893   0.39392   -1.000
 3844.00    1.02883   0.42198   -1.000
 3845.00    1.22516   0.44196   -1.000
 3846.00    1.40077   0.45579   -1.000
 3847.00    1.35161   0.46566    0.000
 3848.00    1.01444   0.47195    0.000
 3849.00    0.53092   0.47456    0.000
 3850.00    0.21960   0.47628    0.000
 3851.00    0.23868   0.48166    0.000
 3852.00    0.45502   0.49077    0.000
 3853.00    0.76736   0.49793    0.000
 3854.00    1.22370   0.49873    0.000
 3855.00    1.71732   0.49391    0.000
 3856.00    1.91284   0.48650    0.000
 3857.00    1.64471   0.47879    0.000
 3858.00    1.07954   0.47148    0.000
 3859.00    0.56018   0.46570    0.000
 3860.00    0.43868   0.46621    0.000
 3861.00    0.69962   0.47746    0.000
 3862.00    0.93593   0.49671    0.000
 3863.00    0.90092   0.51515    0.000
 3864.00    0.68894   0.52550    0.000
 3865.00    0.54067   0.52695    0.000
 3866.00    0.68447   0.52371    0.000
 3867.00    1.06077   0.51983    0.000
 3868.00    1.33226   0.51543    0.000
 3869.00    1.26176   0.50796    0.000
 3870.00    0.87563   0.49583    0.000
 3871.00    0.54624   0.48122    0.000
 3872.00    0.74604   0.47006    0.000
 3873.00    1.24127   0.46790    0.000
 3874.00    1.27826   0.47492    0.000
 3875.00    0.83545   0.48339    0.000
 3876.00    0.58269   0.48300    0.000
 3877.00    0.75079   0.46999    0.000
 3878.00    1.02763   0.45006    0.000
 3879.00    1.12923   0.43270    0.000
 3880.00    0.96436   0.42257    0.000
 3881.00    0.65029   0.41623   -1.000
 3882.00    0.42640   0.40920   23.452
 3883.00    0.44647   0.40051   22.398
 3884.00    0.68157   0.38867   -1.000
 3885.00    0.82797   0.36989   -1.000
 3886.00    0.56828   0.34359   -1.000
 3887.00    0.14170   0.31680   -1.000
 3888.00    0.06542   0.29920   -1.000
 3889.00    0.35349   0.29686   28.289
 3890.00    0.66012   0.31157   -1.000
 3891.00    0.84216   0.33974   -1.000
 3892.00    0.93717   0.37242   -1.000
 3893.00    0.93399   0.40035   -1.000
 3894.00    0.80948   0.41972   -1.000
 3895.00    0.65714   0.43299   -1.000
 3896.00    0.61265   0.44467   -1.000
 3897.00    0.70092   0.45669   -1.000
 3898.00    0.84995   0.46722   -1.000
 3899.00    0.95364   0.47534   -1.000
 3900.00    0.94638   0.48329   -1.000
 3901.00    0.89236   0.49280   -1.000
 3902.00    0.92011   0.50171   -1.000
 3903.00    1.11114   0.50585   -1.000
 3904.00    1.42999   0.50544   -1.000
 3905.00    1.66519   0.50487   -1.000
 3906.00    1.60640   0.50933   -1.000
 3907.00    1.26942   0.52320   -1.000
 3908.00    0.86122   0.54514   -1.000
 3909.00    0.68447   0.56834   14.610
 3910.00    0.85087   0.58656   -1.000
 3911.00    1.01383   0.59741   -1.000
 3912.00    0.84412   0.60177   -1.000
 3913.00    0.53421   0.60121   18.719
 3914.00    0.47931   0.59757   20.863
 3915.00    0.88570   0.59307   -1.000
 3916.00    1.55207   0.58790   -1.000
 3917.00    1.78490   0.58073   -1.000
 3918.00    1.27788   0.57094   -1.000
 3919.00    0.78372   0.55860   -1.000
 3920.00    0.89966   0.54573   -1.000
 3921.00    1.10459   0.53599   -1.000
 3922.00    0.88683   0.53217   -1.000
 3923.00    0.62149   0.53330   16.090
 3924.00    0.70712   0.53488   14.142
 3925.00    0.91799   0.53145   -1.000
 3926.00    0.95906   0.51917   -1.000
 3927.00    0.87323   0.49818   -1.000
 3928.00    0.78953   0.47099   -1.000
 3929.00    0.73248   0.44019   -1.000
 3930.00    0.65084   0.40666   -1.000
 3931.00    0.46810   0.36987   21.363
 3932.00    0.23325   0.33163   -1.000
 3933.00    0.16654   0.29930   -1.000
 3934.00    0.37420   0.28435   26.724
 3935.00    0.71744   0.29481   -1.000
 3936.00    1.05052   0.32794   -1.000
 3937.00    1.33304   0.37237   -1.000
 3938.00    1.48354   0.41631   -1.000
 3939.00    1.36255   0.45284   -1.000
 3940.00    1.09408   0.47932   -1.000
 3941.00    1.08799   0.49492   -1.000
 3942.00    1.36886   0.50096   -1.000
 3943.00    1.44240   0.50211   -1.000
 3944.00    1.16241   0.50478   -1.000
 3945.00    0.95135   0.51370   -1.000
 3946.00    1.02463   0.52785   -1.000
 3947.00    1.16304   0.54110   -1.000
 3948.00    1.18489   0.54949   -1.000
 3949.00    1.10911   0.55487   -1.000
 3950.00    1.01153   0.55976   -1.000
 3951.00    0.94787   0.56347   -1.000
 3952.00    0.89166   0.56431   -1.000
 3953.00    0.75952   0.56276   13.166
 3954.00    0.57069   0.56014   17.523
 3955.00    0.43304   0.55491   23.093
 3956.00    0.32023   0.54504   -1.000
 3957.00    0.12177   0.53274   -1.000
 3958.00    0.01539   0.52082   -1.000
 3959.00    0.33790   0.50689   -1.000
 3960.00    0.88640   0.48538    0.000
 3961.00    1.06779   0.45449    0.000
 3962.00    0.86600   0.41942    0.000
 3963.00    0.75960   0.38688    0.000
 3964.00    0.80453   0.35753    0.000
 3965.00    0.68110   0.32667    0.000
 3966.00    0.41096   0.29069    0.000
 3967.00    0.31917   0.25147    0.000
 3968.00    0.52122   0.21641    0.000
 3969.00    0.87938   0.19444    0.000
 3970.00    1.18415   0.19170    0.000
 3971.00    1.27231   0.20856    0.000
 3972.00    1.17937   0.24020    0.000
 3973.00    1.03438   0.27981    0.000
 3974.00    0.79551   0.32172    0.000
 3975.00    0.40961   0.36268    0.000
 3976.00    0.19798   0.40106    0.000
 3977.00    0.55910   0.43655    0.000
 3978.00    1.32066   0.46956    0.000
 3979.00    1.92257   0.49914    0.000
 3980.00    1.93319   0.52271    0.000
 3981.00    1.28700   0.53825   -1.000
 3982.00    0.49723   0.54676   20.111
 3983.00    0.19595   0.55273   -1.000
 3984.00    0.39756   0.56040   -1.000
 3985.00    0.70112   0.57116   14.263
 3986.00    0.75751   0.58417   13.201
 3987.00    0.51235   0.59742   19.518
 3988.00    0.40998   0.60941   -1.000
 3989.00    0.83887   0.61878   11.921
 3990.00    1.41567   0.62531   -1.000
 3991.00    1.56639   0.63140   -1.000
 3992.00    1.33221   0.63829   -1.000
 3993.00    1.04787   0.64405   -1.000
 3994.00    0.85436   0.64556   11.705
 3995.00    0.73445   0.64139   13.616
 3996.00    0.62370   0.63400   16.033
 3997.00    0.53471   0.62864   18.702
 3998.00    0.64860   0.63055   15.418
 3999.00    1.00635   0.64148   -1.000
 4000.00    1.23897   0.65761   -1.000
 4001.00    1.08789   0.67186   -1.000
 4002.00    0.87294   0.67874   11.456
 4003.00    0.96686   0.67541   -1.000
 4004.00    1.30489   0.66197   -1.000
 4005.00    1.60693   0.64395   -1.000
 4006.00    1.61870   0.63190   -1.000
 4007.00    1.24037   0.63380   -1.000
 4008.00    0.61285   0.64758   16.317
 4009.00    0.08445   0.66433   -1.000
 4010.00    0.10184   0.67677   -1.000
 4011.00    0.62203   0.68338   16.076
 4012.00    0.85650   0.68643   11.675
 4013.00    0.51148   0.68886   19.551
 4014.00    0.43571   0.69215   -1.000
 4015.00    1.03302   0.69567   -1.000
 4016.00    1.42871   0.69832   -1.000
 4017.00    1.07443   0.69988   -1.000
 4018.00    0.59027   0.70192   16.941
 4019.00    0.53678   0.70565   18.630
 4020.00    0.75539   0.70891   13.238
 4021.00    0.97285   0.70854   -1.000
 4022.00    1.12665   0.70402   -1.000
 4023.00    1.15925   0.69753   -1.000
 4024.00    0.95543   0.69252   -1.000
 4025.00    0.62340   0.69224   16.041
 4026.00    0.52962   0.69799   18.881
 4027.00    0.77543   0.70599   12.896
 4028.00    1.06260   0.70823   -1.000
 4029.00    1.23905   0.69813   -1.000
 4030.00    1.45234   0.67546   -1.000
 4031.00    1.71721   0.64788   -1.000
 4032.00    1.80146   0.62616   -1.000
 4033.00    1.54165   0.61706   -1.000
 4034.00    1.00454   0.62236   -1.000
 4035.00    0.58382   0.64045   17.129
 4036.00    0.79299   0.66658   12.610
 4037.00    1.41129   0.69345   -1.000
 4038.00    1.57150   0.71302   -1.000
 4039.00    1.12090   0.72074   -1.000
 4040.00    0.72948   0.71818   13.708
 4041.00    0.68789   0.71002   14.537
 4042.00    0.73001   0.69821   13.699
 4043.00    0.73177   0.67950   13.666
 4044.00    0.81121   0.65151   12.327
 4045.00    0.96879   0.62151   -1.000
 4046.00    1.06719   0.60447   -1.000
 4047.00    1.07367   0.61080   -1.000
 4048.00    1.06706   0.63639   -1.000
 4049.00    1.07668   0.66678   -1.000
 4050.00    1.07128   0.68956   -1.000
 4051.00    1.03945   0.69974   -1.000
 4052.00    1.00000   0.69805   -1.000
 4053.00    0.97724   0.68844   -1.000
 4054.00    0.98556   0.67568   -1.000
 4055.00    1.00957   0.66342   -1.000
 4056.00    1.02028   0.65363   -1.000
 4057.00    1.01661   0.64709   -1.000
 4058.00    1.00146   0.64493   -1.000
 4059.00    0.91964   0.64816   -1.000
 4060.00    0.73496   0.65323   13.606
 4061.00    0.59141   0.65199   16.909
 4062.00    0.67001   0.63913   14.925
 4063.00    0.88706   0.61931   -1.000
 4064.00    1.04333   0.60472   -1.000
 4065.00    1.16047   0.60414   -1.000
 4066.00    1.33506   0.61555   -1.000
 4067.00    1.42392   0.63114   -1.000
 4068.00    1.24994   0.64513   -1.000
 4069.00    0.97930   0.65332   -1.000
 4070.00    0.89946   0.65212   -1.000
 4071.00    1.02241   0.64272   -1.000
 4072.00    1.18487   0.63322   -1.000
 4073.00    1.26310   0.63105   -1.000
 4074.00    1.16349   0.63328   -1.000
 4075.00    0.78768   0.62983   12.695
 4076.00    0.25787   0.61611   -1.000
 4077.00    0.14803   0.59899   -1.000
 4078.00    0.76343   0.59134   13.099
 4079.00    1.34564   0.60056   -1.000
 4080.00    1.13699   0.62214   -1.000
 4081.00    0.59185   0.64392   16.896
 4082.00    0.46645   0.65515   21.438
 4083.00    0.74833   0.65318   13.363
 4084.00    0.99378   0.64399   -1.000
 4085.00    0.81423   0.63656   12.281
 4086.00    0.28182   0.63679   -1.000
 4087.00    0.16766   0.64456   -1.000
 4088.00    0.89210   0.65438   -1.000
 4089.00    1.68119   0.65927   -1.000
 4090.00    1.76757   0.65546   -1.000
 4091.00    1.39597   0.64423   -1.000
 4092.00    1.02427   0.62953    0.000
 4093.00    0.65717   0.61381    0.000
 4094.00    0.27485   0.59626    0.000
 4095.00    0.14305   0.57460    0.000
 4096.00    0.34877   0.54905    0.000
 4097.00    0.52703   0.52266    0.000
 4098.00    0.47814   0.49689    0.000
 4099.00    0.52190   0.47000    0.000
 4100.00    0.87375   0.44104    0.000
 4101.00    1.27941   0.41473    0.000
 4102.00    1.43296   0.40079    0.000
 4103.00    1.26087   0.40664    0.000
 4104.00    0.95133   0.43086    0.000
 4105.00    0.87294   0.46482    0.000
 4106.00    1.07529   0.49860    0.000
 4107.00    1.13165   0.52516    0.000
 4108.00    0.81513   0.54199    0.000
 4109.00    0.38961   0.55083    0.000
 4110.00    0.19849   0.55594    0.000
 4111.00    0.41808   0.56210    0.000
 4112.00    0.93364   0.57238    0.000
 4113.00    1.36273   0.58691   -1.000
 4114.00    1.41322   0.60328   -1.000
 4115.00    1.06450   0.61773   -1.000
 4116.00    0.62351   0.62690   16.038
 4117.00    0.56903   0.62903   17.574
 4118.00    0.85130   0.62531   -1.000
 4119.00    0.88005   0.62006   -1.000
 4120.00    0.57217   0.61790   17.477
 4121.00    0.46262   0.61998   21.616
 4122.00    0.62063   0.62452   16.113
 4123.00    0.55320   0.63024   18.077
 4124.00    0.26010   0.63673   -1.000
 4125.00    0.28713   0.64237   -1.000
 4126.00    0.69429   0.64416   14.403
 4127.00    0.98982   0.64070   -1.000
 4128.00    0.99052   0.63368   -1.000
 4129.00    0.92194   0.62555   -1.000
 4130.00    0.91018   0.61691   -1.000
 4131.00    0.89899   0.60723   -1.000
 4132.00    0.84800   0.59816   -1.000
 4133.00    0.79106   0.59439   12.641
 4134.00    0.83430   0.60023   -1.000
 4135.00    1.04927   0.61530   -1.000
 4136.00    1.22238   0.63472   -1.000
 4137.00    1.07188   0.65242   -1.000
 4138.00    0.88367   0.66489   -1.000
 4139.00    1.16987   0.67099   -1.000
 4140.00    1.60270   0.66898   -1.000
 4141.00    1.43835   0.65665   -1.000
 4142.00    0.88564   0.63496   -1.000
 4143.00    0.70682   0.61154   14.148
 4144.00    0.85793   0.59776   -1.000
 4145.00    0.80339   0.60010   12.447
 4146.00    0.61122   0.61444   16.361
 4147.00    0.64643   0.63026   15.470
 4148.00    0.66904   0.63930   14.947
 4149.00    0.27533   0.64020   -1.000
 4150.00   -0.11060   0.63663   -2.000
 4151.00    0.18004   0.63260   -1.000
 4152.00    0.88211   0.62922   -1.000
 4153.00    1.29653   0.62550   -1.000
 4154.00    1.32951   0.62103   -1.000
 4155.00    1.26523   0.61735   -1.000
 4156.00    1.21293   0.61700   -1.000
 4157.00    1.16599   0.62157   -1.000
 4158.00    1.18428   0.63079   -1.000
 4159.00    1.26397   0.64236   -1.000
 4160.00    1.16188   0.65334   -1.000
 4161.00    0.77848   0.66200   12.846
 4162.00    0.60845   0.66809   16.435
 4163.00    1.03725   0.67127   -1.000
 4164.00    1.51830   0.67050   -1.000
 4165.00    1.43088   0.66547   -1.000
 4166.00    1.08358   0.65773   -1.000
 4167.00    1.01707   0.65031   -1.000
 4168.00    1.17922   0.64586   -1.000
 4169.00    1.25191   0.64385   -1.000
 4170.00    1.07180   0.63964   -1.000
 4171.00    0.72156   0.62858   13.859
 4172.00    0.53837   0.61180   18.574
 4173.00    0.69652   0.59653   14.357
 4174.00    0.88169   0.58980   -1.000
 4175.00    0.79513   0.59213   12.577
 4176.00    0.57871   0.59833   17.280
 4177.00    0.51696   0.60355   19.344
 4178.00    0.75613   0.60726   13.225
 4179.00    1.23536   0.61143   -1.000
 4180.00    1.67746   0.61643   -1.000
 4181.00    1.80597   0.62068   -1.000
 4182.00    1.52181   0.62371   -1.000
 4183.00    1.00571   0.62730   -1.000
 4184.00    0.70406   0.63228   14.203
 4185.00    0.80945   0.63600   12.354
 4186.00    0.99910   0.63474   -1.000
 4187.00    0.98731   0.62902   -1.000
 4188.00    0.84220   0.62438   11.874
 4189.00    0.71677   0.62570   13.952
 4190.00    0.67882   0.63257   14.731
 4191.00    0.72584   0.64145   13.777
 4192.00    0.80923   0.64973   12.357
 4193.00    0.89459   0.65535   -1.000
 4194.00    0.97644   0.65487   -1.000
 4195.00    0.99001   0.64557   -1.000
 4196.00    0.82903   0.62914   12.062
 4197.00    0.64368   0.61108   15.536
 4198.00    0.81872   0.59688   -1.000
 4199.00    1.23143   0.58931   -1.000
 4200.00    1.19943   0.58780   -1.000
 4201.00    0.70723   0.59001   14.140
 4202.00    0.57344   0.59458   17.439
 4203.00    0.95045   0.60209   -1.000
 4204.00    1.07236   0.61319   -1.000
 4205.00    0.68373   0.62680   14.626
 4206.00    0.31722   0.64055   -1.000
 4207.00    0.23769   0.65194   -1.000
 4208.00    0.23725   0.65898   -1.000
 4209.00    0.30142   0.66118   -1.000
 4210.00    0.65506   0.66031   15.266
 4211.00    1.14560   0.65895   -1.000
 4212.00    1.30611   0.65717   -1.000
 4213.00    1.17465   0.65203   -1.000
 4214.00    1.23277   0.64159   -1.000
 4215.00    1.48283   0.62960   -1.000
 4216.00    1.48485   0.62442   -1.000
 4217.00    1.21676   0.63158   -1.000
 4218.00    1.03629   0.64842   -1.000
 4219.00    0.94850   0.66642   -1.000
 4220.00    0.67273   0.67768   14.865
 4221.00    0.28870   0.67803   -1.000
 4222.00    0.18132   0.66598   -1.000
 4223.00    0.52468   0.64153   19.059
 4224.00    1.16524   0.60684   -1.000
 4225.00    1.65198   0.56786   -1.000
 4226.00    1.54397   0.53533   -1.000
 4227.00    1.02147   0.52206   -1.000
 4228.00    0.62840   0.53496   15.913
 4229.00    0.50787   0.56828   19.690
 4230.00    0.47837   0.60633   20.904
 4231.00    0.46948   0.63338   21.300
 4232.00    0.50904   0.64273   19.645
 4233.00    0.55332   0.63795   18.073
 4234.00    0.57050   0.62744   17.529
 4235.00    0.72198   0.61814   13.851
 4236.00    1.10735   0.61318   -1.000
 4237.00    1.33215   0.61291   -1.000
 4238.00    1.01727   0.61674   -1.000
 4239.00    0.64221   0.62396   15.571
 4240.00    0.87710   0.63376   -1.000
 4241.00    1.46195   0.64526   -1.000
 4242.00    1.70733   0.65730   -1.000
 4243.00    1.40180   0.66848   -1.000
 4244.00    0.76375   0.67670   13.093
 4245.00    0.19931   0.67871   -1.000
 4246.00    0.00429   0.67179   -1.000
 4247.00    0.05551   0.65660   -1.000
 4248.00    0.11298   0.63770   -1.000
 4249.00    0.20484   0.62047   -1.000
 4250.00    0.44556   0.60893   22.444
 4251.00    0.79067   0.60492   12.648
 4252.00    1.11498   0.60685   -1.000
 4253.00    1.32514   0.61047   -1.000
 4254.00    1.37437   0.61314   -1.000
 4255.00    1.26629   0.61653   -1.000
 4256.00    1.05218   0.62300   -1.000
 4257.00    0.82264   0.62957   12.156
 4258.00    0.65904   0.62936   15.174
 4259.00    0.58764   0.61985   17.017
 4260.00    0.56135   0.60757   17.814
 4261.00    0.46905   0.60378   21.320
 4262.00    0.32681   0.61482   -1.000
 4263.00    0.38349   0.63727   -1.000
 4264.00    0.70742   0.66148   14.136
 4265.00    0.93429   0.67841   -1.000
 4266.00    0.85996   0.68356   11.628
 4267.00    0.80365   0.67657   12.443
 4268.00    0.96036   0.65914   -1.000
 4269.00    1.02198   0.63359   -1.000
 4270.00    0.81193   0.60329   -1.000
 4271.00    0.63625   0.57379   15.717
 4272.00    0.71206   0.55241   14.044
 4273.00    0.85821   0.54431   -1.000
 4274.00    0.89805   0.54991   -1.000
 4275.00    0.87166   0.56644   -1.000
 4276.00    0.80352   0.58987   12.445
 4277.00    0.60417   0.61500   16.552
 4278.00    0.28817   0.63483   -1.000
 4279.00    0.05135   0.64350   -1.000
 4280.00    0.05119   0.64123   -1.000
 4281.00    0.29049   0.63375   -1.000
 4282.00    0.61792   0.62712   16.183
 4283.00    0.79124   0.62370   12.638
 4284.00    0.74366   0.62152   13.447
 4285.00    0.64024   0.61778   15.619
 4286.00    0.59239   0.61120   16.881
 4287.00    0.56407   0.60106   17.728
 4288.00    0.50794   0.58705   19.687
 4289.00    0.42997   0.57123   23.258
 4290.00    0.41009   0.55962   -1.000
 4291.00    0.54620   0.55860   18.308
 4292.00    0.73090   0.56859   13.682
 4293.00    0.71788   0.58257   13.930
 4294.00    0.62316   0.59209   16.047
 4295.00    0.84974   0.59330   -1.000
 4296.00    1.27916   0.58618   -1.000
 4297.00    1.33106   0.57154   -1.000
 4298.00    0.96802   0.55013   -1.000
 4299.00    0.68982   0.52540   14.497
 4300.00    0.59549   0.50425   -2.000
 4301.00    0.37697   0.49219   -2.000
 4302.00    0.07880   0.49008   -2.000
 4303.00    0.07788   0.49444   -2.000
 4304.00    0.46729   0.49980   -2.000
 4305.00    1.00028   0.50151   -2.000
 4306.00    1.37177   0.49707   -2.000
 4307.00    1.38557   0.48740   -2.000
 4308.00    1.16359   0.47799   -2.000
 4309.00    0.96932   0.47569   -2.000
 4310.00    0.72050   0.48407   -2.000
 4311.00    0.22004   0.50138   -2.000
 4312.00   -0.14645   0.52279   -2.000
 4313.00    0.16612   0.54500   -2.000
 4314.00    0.74990   0.56881   -2.000
 4315.00    0.77351   0.59679   -2.000
 4316.00    0.38518   0.62794   -1.000
 4317.00    0.29453   0.65599   -1.000
 4318.00    0.55518   0.67349   18.012
 4319.00    0.80492   0.67682   12.424
 4320.00    1.03522   0.66788   -1.000
 4321.00    1.34353   0.65048   -1.000
 4322.00    1.34950   0.62612   -1.000
 4323.00    0.72743   0.59488   13.747
 4324.00    0.11718   0.56011   -1.000
 4325.00    0.30151   0.53077   -1.000
 4326.00    0.86165   0.51885   -1.000
 4327.00    0.99272   0.52980   -1.000
 4328.00    0.85141   0.55681   -1.000
 4329.00    0.93495   0.58541   -1.000
 4330.00    1.06650   0.60391    0.000
 4331.00    0.89779   0.61055    0.000
 4332.00    0.66139   0.61032    0.000
 4333.00    0.72498   0.60783    0.000
 4334.00    0.98241   0.60286    0.000
 4335.00    1.14698   0.59075    0.000
 4336.00    1.14842   0.56630    0.000
 4337.00    1.02178   0.52859    0.000
 4338.00    0.75438   0.48356    0.000
 4339.00    0.39723   0.44191    0.000
 4340.00    0.17241   0.41510    0.000
 4341.00    0.25197   0.41008    0.000
 4342.00    0.55084   0.42578    0.000
 4343.00    0.87137   0.45478    0.000
 4344.00    1.05570   0.48785    0.000
 4345.00    1.02646   0.51841    0.000
 4346.00    0.81152   0.54435    0.000
 4347.00    0.54708   0.56606    0.000
 4348.00    0.44659   0.58275    0.000
 4349.00    0.54515   0.59130    0.000
 4350.00    0.56510   0.58820    0.000
 4351.00    0.40779   0.57491   24.522
 4352.00    0.43357   0.56053   23.065
 4353.00    0.79379   0.55589   -1.000
 4354.00    1.05529   0.56523   -1.000
 4355.00    0.93240   0.58407   -1.000
 4356.00    0.71135   0.60393   14.058
 4357.00    0.72371   0.61831   13.818
 4358.00    1.00336   0.62551   -1.000
 4359.00    1.33971   0.62846   -1.000
 4360.00    1.39346   0.63251   -1.000
 4361.00    1.10748   0.64109   -1.000
 4362.00    0.83954   0.65339   11.911
 4363.00    0.82683   0.66598   12.094
 4364.00    0.95175   0.67566   -1.000
 4365.00    1.05462   0.67980   -1.000
 4366.00    1.08069   0.67655   -1.000
 4367.00    0.98316   0.66662   -1.000
 4368.00    0.71471   0.65439   13.992
 4369.00    0.41347   0.64517   -1.000
 4370.00    0.38014   0.64106   -1.000
 4371.00    0.61622   0.63961   16.228
 4372.00    0.77917   0.63592   12.834
 4373.00    0.81769   0.62705   12.230
 4374.00    1.04073   0.61506   -1.000
 4375.00    1.37067   0.60667   -1.000
 4376.00    1.31560   0.60845   -1.000
 4377.00    0.93463   0.62072   -1.000
 4378.00    0.85495   0.63633   -1.000
 4379.00    1.10067   0.64546   -1.000
 4380.00    1.03748   0.64119   -1.000
 4381.00    0.54348   0.62150   18.400
 4382.00    0.15405   0.58913   -1.000
 4383.00    0.28545   0.55317   -1.000
 4384.00    0.94389   0.52733   -1.000
 4385.00    1.62417   0.52248   -1.000
 4386.00    1.62541   0.53867   -1.000
 4387.00    0.97873   0.56479   -1.000
 4388.00    0.34447   0.58773   -1.000
 4389.00    0.06334   0.60122   -1.000
 4390.00    0.04930   0.60731   -1.000
 4391.00    0.16846   0.61112   -1.000
 4392.00    0.34693   0.61518   -1.000
 4393.00    0.58764   0.61909   17.017
 4394.00    0.89944   0.62235   -1.000
 4395.00    1.13766   0.62696   -1.000
 4396.00    1.12613   0.63539   -1.000
 4397.00    0.98096   0.64593   -1.000
 4398.00    0.94743   0.65294   -1.000
 4399.00    0.94661   0.65164   -1.000
 4400.00    0.75271   0.64306   13.285
 4401.00    0.49307   0.63276   20.281
 4402.00    0.45635   0.62303   21.913
 4403.00    0.58646   0.61143   17.051
 4404.00    0.66698   0.59681   14.993
 4405.00    0.77865   0.58333   -1.000
 4406.00    1.08069   0.57753   -1.000
 4407.00    1.34790   0.58238   -1.000
 4408.00    1.26516   0.59596   -1.000
 4409.00    0.97644   0.61478   -1.000
 4410.00    0.81618   0.63591   12.252
 4411.00    0.80730   0.65535   12.387
 4412.00    0.82997   0.66699   12.049
 4413.00    0.94036   0.66545   -1.000
 4414.00    1.15890   0.65133   -1.000
 4415.00    1.16736   0.63265   -1.000
 4416.00    0.76498   0.62018   13.072
 4417.00    0.43339   0.62099   -1.000
 4418.00    0.66386   0.63441   15.063
 4419.00    1.12821   0.65208   -1.000
 4420.00    1.26065   0.66461   -1.000
 4421.00    1.00343   0.66705   -1.000
 4422.00    0.65128   0.66083   15.354
 4423.00    0.57040   0.65222   17.532
 4424.00    0.85472   0.64666   11.700
 4425.00    1.06441   0.64568   -1.000
 4426.00    0.84854   0.64748   11.785
 4427.00    0.51057   0.64967   19.586
 4428.00    0.44384   0.65108   -1.000
 4429.00    0.60270   0.65072   16.592
 4430.00    0.80057   0.64866   12.491
 4431.00    0.99148   0.64566   -1.000
 4432.00    1.13514   0.64110   -1.000
 4433.00    1.09782   0.63404   -1.000
 4434.00    0.89158   0.62481   -1.000
 4435.00    0.80979   0.61769   12.349
 4436.00    0.98353   0.61952   -1.000
 4437.00    1.11260   0.63258   -1.000
 4438.00    0.95587   0.65171   -1.000
 4439.00    0.65530   0.66694   15.260
 4440.00    0.49348   0.66995   20.264
 4441.00    0.68181   0.66023   14.667
 4442.00    1.13722   0.64462   -1.000
 4443.00    1.43336   0.63325   -1.000
 4444.00    1.31312   0.63334   -1.000
 4445.00    0.95208   0.64452   -1.000
 4446.00    0.67229   0.66004   14.875
 4447.00    0.72165   0.67281   13.857
 4448.00    1.02492   0.67929   -1.000
 4449.00    1.17270   0.67956   -1.000
 4450.00    1.02539   0.67613   -1.000
 4451.00    0.90489   0.67027   -1.000
 4452.00    1.01131   0.66115   -1.000
 4453.00    1.19782   0.64793   -1.000
 4454.00    1.26959   0.63100   -1.000
 4455.00    1.15363   0.61398   -1.000
 4456.00    1.00357   0.60185   -1.000
 4457.00    1.10666   0.59640   -1.000
 4458.00    1.34265   0.59556   -1.000
 4459.00    1.20456   0.59565   -1.000
 4460.00    0.73174   0.59504   13.666
 4461.00    0.56783   0.59547    0.000
 4462.00    0.83771   0.60039    0.000
 4463.00    1.01143   0.61044    0.000
 4464.00    0.88541   0.62271    0.000
 4465.00    0.75674   0.63316    0.000
 4466.00    0.84139   0.63824    0.000
 4467.00    1.10109   0.63791    0.000
 4468.00    1.32963   0.63485    0.000
 4469.00    1.29493   0.63254    0.000
 4470.00    1.05889   0.63435    0.000
 4471.00    0.91007   0.64190    0.000
 4472.00    0.91897   0.65451    0.000
 4473.00    0.94703   0.66880    0.000
 4474.00    0.99995   0.68099    0.000
 4475.00    1.20158   0.68962    0.000
 4476.00    1.49465   0.69505    0.000
 4477.00    1.66677   0.69668    0.000
 4478.00    1.59109   0.69209    0.000
 4479.00    1.28809   0.67893    0.000
 4480.00    0.92671   0.65888    0.000
 4481.00    0.72424   0.63957    0.000
 4482.00    0.73839   0.63066   13.543
 4483.00    0.85262   0.63680   -1.000
 4484.00    0.84438   0.65433   11.843
 4485.00    0.59842   0.67422   16.711
 4486.00    0.46219   0.68699   -1.000
 4487.00    0.83307   0.68771   12.004
 4488.00    1.32435   0.67793   -1.000
 4489.00    1.29116   0.66398   -1.000
 4490.00    0.95606   0.65330   -1.000
 4491.00    0.90312   0.64982   -1.000
 4492.00    0.97530   0.65151   -1.000
 4493.00    0.72945   0.65260   13.709
 4494.00    0.38275   0.64981   -1.000
 4495.00    0.40441   0.64533   -1.000
 4496.00    0.72527   0.64413   13.788
 4497.00    0.96494   0.64978   -1.000
 4498.00    0.90768   0.66040   -1.000
 4499.00    0.60352   0.67094   16.569
 4500.00    0.38888   0.67787   -1.000
 4501.00    0.50400   0.68217   19.841
 4502.00    0.65274   0.68839   15.320
 4503.00    0.52963   0.69869   18.881
 4504.00    0.45930   0.71092   -1.000
 4505.00    0.80806   0.71998   12.375
 4506.00    1.28511   0.72182   -1.000
 4507.00    1.46024   0.71773   -1.000
 4508.00    1.36773   0.71223   -1.000
 4509.00    1.19907   0.70871   -1.000
 4510.00    0.94969   0.70726   -1.000
 4511.00    0.62978   0.70510   15.878
 4512.00    0.46921   0.69970   -1.000
 4513.00    0.62638   0.69101   15.965
 4514.00    0.92974   0.68150   -1.000
 4515.00    1.10898   0.67455   -1.000
 4516.00    1.02918   0.67129   -1.000
 4517.00    0.81177   0.67094   12.319
 4518.00    0.84828   0.67302   11.789
 4519.00    1.21456   0.67663   -1.000
 4520.00    1.33163   0.68060   -1.000
 4521.00    0.89851   0.68279   -1.000
 4522.00    0.47255   0.68027   -1.000
 4523.00    0.51933   0.67285   19.256
 4524.00    0.80012   0.66135   12.498
 4525.00    0.96592   0.64707   -1.000
 4526.00    0.96012   0.63158   -1.000
 4527.00    0.87470   0.61583   -1.000
 4528.00    0.82759   0.60275   -1.000
 4529.00    0.86187   0.59580   -1.000
 4530.00    0.90989   0.59574   -1.000
 4531.00    0.91608   0.60060   -1.000
 4532.00    0.88957   0.60606   -1.000
 4533.00    0.80153   0.60838   -1.000
 4534.00    0.58044   0.60872   17.228
 4535.00    0.37507   0.61164   -1.000
 4536.00    0.55288   0.62193   18.087
 4537.00    1.04932   0.63887   -1.000
 4538.00    1.26147   0.65580   -1.000
 4539.00    1.01415   0.66604   -1.000
 4540.00    0.78778   0.66723   12.694
 4541.00    0.75670   0.66359   13.215
 4542.00    0.58497   0.66044   17.095
 4543.00    0.33253   0.65897   -1.000
 4544.00    0.54235   0.65767   18.438
 4545.00    1.11639   0.65506   -1.000
 4546.00    1.25071   0.65065   -1.000
 4547.00    0.81045   0.64511   12.339
 4548.00    0.49475   0.63901   20.212
 4549.00    0.61833   0.63326   16.173
 4550.00    0.87733   0.62997    0.000
 4551.00    1.01765   0.62946    0.000
 4552.00    1.01507   0.63047    0.000
 4553.00    0.92003   0.63081    0.000
 4554.00    0.80455   0.62956    0.000
 4555.00    0.75659   0.63028    0.000
 4556.00    0.83270   0.63676    0.000
 4557.00    0.93580   0.64882    0.000
 4558.00    0.88775   0.66323    0.000
 4559.00    0.70552   0.67566    0.000
 4560.00    0.57453   0.68289    0.000
 4561.00    0.59765   0.68423    0.000
 4562.00    0.74452   0.67964    0.000
 4563.00    0.88801   0.67027    0.000
 4564.00    0.89405   0.65974    0.000
 4565.00    0.79604   0.65292    0.000
 4566.00    0.74782   0.65400    0.000
 4567.00    0.84000   0.66239    0.000
 4568.00    1.03716   0.67243    0.000
 4569.00    1.14086   0.67814    0.000
 4570.00    0.96454   0.67629    0.000
 4571.00    0.66760   0.66980    0.000
 4572.00    0.57430   0.66529    0.000
 4573.00    0.73724   0.66571    0.000
 4574.00    0.96864   0.67029    0.000
 4575.00    1.03866   0.67581    0.000
 4576.00    0.84473   0.67756    0.000
 4577.00    0.61326   0.67392    0.000
 4578.00    0.60739   0.66580    0.000
 4579.00    0.64905   0.65453    0.000
 4580.00    0.47013   0.64287    0.000
 4581.00    0.30544   0.63410    0.000
 4582.00    0.50124   0.62978    0.000
 4583.00    0.87827   0.62920    0.000
 4584.00    1.07035   0.63067    0.000
 4585.00    1.06955   0.63298    0.000
 4586.00    1.02713   0.63724    0.000
 4587.00    0.92839   0.64468    0.000
 4588.00    0.71781   0.65370    0.000
 4589.00    0.48631   0.66119    0.000
 4590.00    0.37595   0.66369    0.000
 4591.00    0.44715   0.66011    0.000
 4592.00    0.65770   0.65278    0.000
 4593.00    0.86484   0.64508    0.000
 4594.00    0.93770   0.63932    0.000
 4595.00    0.87083   0.63650    0.000
 4596.00    0.77796   0.63604    0.000
 4597.00    0.85069   0.63698    0.000
 4598.00    1.10659   0.63898    0.000
 4599.00    1.21389   0.64059    0.000
 4600.00    0.97538   0.64099    0.000
 4601.00    0.70410   0.64110    0.000
 4602.00    0.71930   0.64105    0.000
 4603.00    0.93453   0.64152    0.000
 4604.00    1.09760   0.64299    0.000
 4605.00    1.02505   0.64563    0.000
 4606.00    0.76798   0.65122    0.000
 4607.00    0.65661   0.66072    0.000
 4608.00    0.80970   0.67272    0.000
 4609.00    0.88137   0.68315    0.000
 4610.00    0.72133   0.68807    0.000
 4611.00    0.71536   0.68670    0.000
 4612.00    1.05682   0.68117    0.000
 4613.00    1.37099   0.67568    0.000
 4614.00    1.33924   0.67348    0.000
 4615.00    1.05814   0.67398    0.000
 4616.00    0.85134   0.67570    0.000
 4617.00    1.05552   0.67695    0.000
 4618.00    1.51599   0.67607    0.000
 4619.00    1.52948   0.67473    0.000
 4620.00    0.91848   0.67478    0.000
 4621.00    0.35980   0.67596    0.000
 4622.00    0.28241   0.67805    0.000
 4623.00    0.45483   0.67982    0.000
 4624.00    0.61753   0.67930    0.000
 4625.00    0.74630   0.67696    0.000
 4626.00    0.87373   0.67433    0.000
 4627.00    1.00353   0.67174    0.000
 4628.00    1.10182   0.66947    0.000
 4629.00    1.11698   0.66835    0.000
 4630.00    1.06394   0.66853    0.000
 4631.00    1.02367   0.66876    0.000
 4632.00    1.02188   0.66764    0.000
 4633.00    1.01520   0.66448    0.000
 4634.00    1.00145   0.65909    0.000
 4635.00    1.03028   0.65275    0.000
 4636.00    1.10953   0.64686    0.000
 4637.00    1.18668   0.64141    0.000
 4638.00    1.19127   0.63641    0.000
 4639.00    1.07945   0.63276    0.000
 4640.00    0.91963   0.63228    0.000
 4641.00    0.83404   0.63511    0.000
 4642.00    0.77222   0.63835    0.000
 4643.00    0.60140   0.63898    0.000
 4644.00    0.50332   0.63451    0.000
 4645.00    0.79796   0.62444    0.000
 4646.00    1.25459   0.61236    0.000
 4647.00    1.30895   0.60328    0.000
 4648.00    0.97777   0.60063    0.000
 4649.00    0.74852   0.60577    0.000
 4650.00    0.84010   0.61649    0.000
 4651.00    1.12587   0.62820    0.000
 4652.00    1.33830   0.63687    0.000
 4653.00    1.24013   0.63978    0.000
 4654.00    0.87008   0.63736    0.000
 4655.00    0.49017   0.63317    0.000
 4656.00    0.38426   0.63140    0.000
 4657.00    0.65276   0.63596    0.000
 4658.00    0.93523   0.64695    0.000
 4659.00    0.80325   0.65986    0.000
 4660.00    0.49286   0.66891    0.000
 4661.00    0.51071   0.66993    0.000
 4662.00    0.80912   0.66262    0.000
 4663.00    1.04283   0.64993    0.000
 4664.00    1.16175   0.63495    0.000
 4665.00    1.25732   0.61854    0.000
 4666.00    1.21792   0.60142    0.000
 4667.00    0.93014   0.58677    0.000
 4668.00    0.60903   0.57906    0.000
 4669.00    0.53065   0.58144    0.000
 4670.00    0.63464   0.59312    0.000
 4671.00    0.71354   0.60849    0.000
 4672.00    0.70859   0.62127    0.000
 4673.00    0.66687   0.62924    0.000
 4674.00    0.64477   0.63369    0.000
 4675.00    0.66957   0.63700    0.000
 4676.00    0.71421   0.63967    0.000
 4677.00    0.76661   0.63984    0.000
 4678.00    0.89332   0.63616    0.000
 4679.00    1.08785   0.62906    0.000
 4680.00    1.13773   0.62110    0.000
 4681.00    0.91308   0.61597    0.000
 4682.00    0.62553   0.61577    0.000
 4683.00    0.50717   0.61967    0.000
 4684.00    0.51790   0.62522    0.000
 4685.00    0.56022   0.63002    0.000
 4686.00    0.66803   0.63216    0.000
 4687.00    0.83903   0.63146    0.000
 4688.00    0.91461   0.62949    0.000
 4689.00    0.83110   0.62719    0.000
 4690.00    0.78033   0.62498    0.000
 4691.00    0.87330   0.62379    0.000
 4692.00    0.92963   0.62421    0.000
 4693.00    0.83407   0.62654    0.000
 4694.00    0.75283   0.63082    0.000
 4695.00    0.81801   0.63535    0.000
 4696.00    0.93302   0.63702    0.000
 4697.00    0.94848   0.63375    0.000
 4698.00    0.80431   0.62604    0.000
 4699.00    0.65971   0.61649    0.000
 4700.00    0.85662   0.60764    0.000
 4701.00    1.29471   0.60108    0.000
 4702.00    1.28297   0.59722    0.000
 4703.00    0.67492   0.59608    0.000
 4704.00    0.24167   0.59758    0.000
 4705.00    0.39424   0.60045    0.000
 4706.00    0.69327   0.60272    0.000
 4707.00    0.73842   0.60301    0.000
 4708.00    0.56709   0.60192    0.000
 4709.00    0.41370   0.60216    0.000
 4710.00    0.51639   0.60591    0.000
 4711.00    0.81119   0.61185    0.000
 4712.00    0.93544   0.61679    0.000
 4713.00    0.77866   0.61868    0.000
 4714.00    0.59994   0.61823    0.000
 4715.00    0.58776   0.61911    0.000
 4716.00    0.71693   0.62399    0.000
 4717.00    0.87881   0.63281    0.000
 4718.00    0.96215   0.64354    0.000
 4719.00    0.95132   0.65278    0.000
 4720.00    0.92398   0.65834    0.000
 4721.00    0.93173   0.66031    0.000
 4722.00    0.96218   0.65991    0.000
 4723.00    0.94983   0.65875    0.000
 4724.00    0.83290   0.65722    0.000
 4725.00    0.70319   0.65364    0.000
 4726.00    0.73752   0.64544    0.000
 4727.00    0.88869   0.63210    0.000
 4728.00    0.93935   0.61672    0.000
 4729.00    0.87163   0.60385    0.000
 4730.00    0.84768   0.59721    0.000
 4731.00    0.91338   0.59788    0.000
 4732.00    0.98120   0.60352    0.000
 4733.00    0.97227   0.61077    0.000
 4734.00    0.87155   0.61731    0.000
 4735.00    0.76855   0.62123    0.000
 4736.00    0.76871   0.62267    0.000
 4737.00    0.79303   0.62426    0.000
 4738.00    0.69764   0.62688    0.000
 4739.00    0.59140   0.62988    0.000
 4740.00    0.67193   0.63274    0.000
 4741.00    0.80180   0.63461    0.000
 4742.00    0.71662   0.63564    0.000
 4743.00    0.53651   0.63689    0.000
 4744.00    0.56379   0.63870    0.000
 4745.00    0.78413   0.64110    0.000
 4746.00    0.95898   0.64371    0.000
 4747.00    0.92032   0.64590    0.000
 4748.00    0.66031   0.64764    0.000
 4749.00    0.38358   0.64836    0.000
 4750.00    0.32334   0.64705    0.000
 4751.00    0.46888   0.64346    0.000
 4752.00    0.67294   0.63806    0.000
 4753.00    0.85348   0.63157    0.000
 4754.00    0.95714   0.62530    0.000
 4755.00    0.88379   0.62087    0.000
 4756.00    0.62045   0.61903    0.000
 4757.00    0.40241   0.61970    0.000
 4758.00    0.46485   0.62191    0.000
 4759.00    0.73794   0.62398    0.000
 4760.00    1.01198   0.62355    0.000
 4761.00    1.16200   0.61906   -1.000
 4762.00    1.14894   0.61117   -1.000
 4763.00    0.99602   0.60157   -1.000
 4764.00    0.80005   0.59230   -1.000
 4765.00    0.72942   0.58588   13.710
 4766.00    0.85133   0.58412   -1.000
 4767.00    0.98743   0.58733   -1.000
 4768.00    0.93631   0.59475   -1.000
 4769.00    0.68574   0.60403   14.583
 4770.00    0.37426   0.61159   -1.000
 4771.00    0.22196   0.61590   -1.000
 4772.00    0.34661   0.61843   -1.000
 4773.00    0.63503   0.62142   15.747
 4774.00    0.90264   0.62596   -1.000
 4775.00    1.02978   0.63140   -1.000
 4776.00    0.98362   0.63635   -1.000
 4777.00    0.82247   0.63928   12.158
 4778.00    0.65524   0.63940   15.262
 4779.00    0.60049   0.63738   16.653
 4780.00    0.70967   0.63373   14.091
 4781.00    0.92080   0.62832   -1.000
 4782.00    1.08756   0.62174   -1.000
 4783.00    1.03665   0.61561   -1.000
 4784.00    0.78738   0.61079   12.700
 4785.00    0.61864   0.60685   16.164
 4786.00    0.70189   0.60428   14.247
 4787.00    0.92312   0.60326   -1.000
 4788.00    1.08350   0.60274   -1.000
 4789.00    1.03597   0.60340   -1.000
 4790.00    0.79108   0.60631   12.641
 4791.00    0.53245   0.61140   18.781
 4792.00    0.43811   0.61909   22.825
 4793.00    0.57671   0.62904   17.340
 4794.00    0.84482   0.63873   -1.000
 4795.00    1.00004   0.64511   -1.000
 4796.00    0.91694   0.64612   -1.000
 4797.00    0.67620   0.64141   14.788
 4798.00    0.46080   0.63301   21.701
 4799.00    0.45150   0.62497   22.148
 4800.00    0.60672   0.62089   16.482
 4801.00    0.68249   0.62185   14.652
 4802.00    0.61804   0.62590   16.180
 4803.00    0.58356   0.62933   17.136
 4804.00    0.64297   0.62913   15.553
 4805.00    0.70193   0.62508   14.247
 4806.00    0.73439   0.61885   13.617
 4807.00    0.80778   0.61293   -1.000
 4808.00    0.92132   0.60981   -1.000
 4809.00    0.99488   0.60989   -1.000
 4810.00    0.98908   0.61203   -1.000
 4811.00    0.92434   0.61509   -1.000
 4812.00    0.83127   0.61799   -1.000
 4813.00    0.74273   0.62030   13.464
 4814.00    0.71043   0.62256   14.076
 4815.00    0.77156   0.62556   12.961
 4816.00    0.85805   0.62951   -1.000
 4817.00    0.86110   0.63388   -1.000
 4818.00    0.83359   0.63779   -1.000
 4819.00    0.91363   0.63982   -1.000
 4820.00    1.04917   0.63860   -1.000
 4821.00    1.06485   0.63335   -1.000
 4822.00    0.93642   0.62417   -1.000
 4823.00    0.79146   0.61380   -1.000
 4824.00    0.78555   0.60635   -1.000
 4825.00    0.97183   0.60358   -1.000
 4826.00    1.11420   0.60472   -1.000
 4827.00    0.94133   0.60728   -1.000
 4828.00    0.65276   0.60845   15.320
 4829.00    0.61950   0.60724   16.142
 4830.00    0.72978   0.60411   13.703
 4831.00    0.65774   0.60037   15.204
 4832.00    0.47260   0.59805   21.160
 4833.00    0.44176   0.59808   22.636
 4834.00    0.58087   0.59987   17.216
 4835.00    0.75666   0.60237   13.216
 4836.00    0.93308   0.60400   -1.000
 4837.00    1.08681   0.60293   -1.000
 4838.00    1.05441   0.59859   -1.000
 4839.00    0.75365   0.59247   13.269
 4840.00    0.47900   0.58663   20.877
 4841.00    0.54731   0.58227   18.271
 4842.00    0.82716   0.57985   -1.000
 4843.00    1.01503   0.57992   -1.000
 4844.00    1.02480   0.58211   -1.000
 4845.00    0.90830   0.58460   -1.000
 4846.00    0.71723   0.58553   13.943
 4847.00    0.51591   0.58354   19.383
 4848.00    0.40215   0.57894    0.000
 4849.00    0.41324   0.57384    0.000
 4850.00    0.44645   0.56958    0.000
 4851.00    0.45674   0.56599    0.000
 4852.00    0.62231   0.56160    0.000
 4853.00    1.01354   0.55373    0.000
 4854.00    1.32232   0.54137    0.000
 4855.00    1.29703   0.52709    0.000
 4856.00    1.10497   0.51335    0.000
 4857.00    1.00297   0.49961    0.000
 4858.00    1.04812   0.48372    0.000
 4859.00    1.16646   0.46376    0.000
 4860.00    1.23340   0.44099    0.000
 4861.00    1.15278   0.42229    0.000
 4862.00    0.91475   0.41515    0.000
 4863.00    0.61352   0.42174    0.000
 4864.00    0.43033   0.43964    0.000
 4865.00    0.45306   0.46303    0.000
 4866.00    0.57876   0.48494    0.000
 4867.00    0.67093   0.50148    0.000
 4868.00    0.66814   0.51188    0.000
 4869.00    0.60511   0.51551    0.000
 4870.00    0.58944   0.51295    0.000
 4871.00    0.61537   0.50836    0.000
 4872.00    0.52180   0.50670    0.000
 4873.00    0.34137   0.51011    0.000
 4874.00    0.38505   0.51848    0.000
 4875.00    0.69595   0.53021   -1.000
 4876.00    0.89376   0.54240   -1.000
 4877.00    0.80645   0.55317   -1.000
 4878.00    0.67652   0.56297   14.782
 4879.00    0.66225   0.57117   15.100
 4880.00    0.66869   0.57563   14.955
 4881.00    0.64642   0.57630   15.470
 4882.00    0.68049   0.57430   14.695
 4883.00    0.79909   0.56990   -1.000
 4884.00    0.92067   0.56393   -1.000
 4885.00    0.96581   0.55785   -1.000
 4886.00    0.91181   0.55257   -1.000
 4887.00    0.82205   0.54840   -1.000
 4888.00    0.79802   0.54521   -1.000
 4889.00    0.78290   0.54211   -1.000
 4890.00    0.61750   0.53923   16.194
 4891.00    0.44481   0.54003   22.482
 4892.00    0.62396   0.54801   16.027
 4893.00    1.05105   0.56342   -1.000
 4894.00    1.21947   0.58365   -1.000
 4895.00    1.02582   0.60338   -1.000
 4896.00    0.80493   0.61729   -1.000
 4897.00    0.74269   0.62343   13.465
 4898.00    0.78438   0.62246   12.749
 4899.00    0.84463   0.61676   -1.000
 4900.00    0.86740   0.60981   -1.000
 4901.00    0.82909   0.60356   -1.000
 4902.00    0.75548   0.59875   13.237
 4903.00    0.75635   0.59673   13.221
 4904.00    0.92532   0.59820   -1.000
 4905.00    1.10554   0.60186   -1.000
 4906.00    1.04097   0.60516   -1.000
 4907.00    0.80271   0.60548   -1.000
 4908.00    0.67165   0.60099   14.889
 4909.00    0.71983   0.59234   13.892
 4910.00    0.81705   0.58343   -1.000
 4911.00    0.81385   0.57858   -1.000
 4912.00    0.66527   0.57950   15.032
 4913.00    0.57625   0.58525   17.353
 4914.00    0.76085   0.59304   13.143
 4915.00    1.00082   0.59836   -1.000
 4916.00    0.93892   0.59676   -1.000
 4917.00    0.66677   0.58605   14.998
 4918.00    0.51184   0.56763   19.537
 4919.00    0.56489   0.54662   17.703
 4920.00    0.71891   0.53019   -1.000
 4921.00    0.83925   0.52360   -1.000
 4922.00    0.85369   0.52681   -1.000
 4923.00    0.83408   0.53618   -1.000
 4924.00    0.85912   0.54837   -1.000
 4925.00    0.83078   0.56154   -1.000
 4926.00    0.64833   0.57464   15.424
 4927.00    0.44386   0.58770   22.530
 4928.00    0.42076   0.60034   23.767
 4929.00    0.62543   0.61010   15.989
 4930.00    0.91606   0.61483   -1.000
 4931.00    0.98520   0.61389   -1.000
 4932.00    0.70001   0.60726   14.285
 4933.00    0.41903   0.59739   23.864
 4934.00    0.47730   0.58815   20.951
 4935.00    0.67028   0.58061   14.919
 4936.00    0.69738   0.57366   14.339
 4937.00    0.61401   0.56678   16.286
 4938.00    0.57780   0.56091   17.307
 4939.00    0.59035   0.55888   16.939
 4940.00    0.60883   0.56326    0.000
 4941.00    0.65579   0.57360    0.000
 4942.00    0.76069   0.58708    0.000
 4943.00    0.90495   0.59950    0.000
 4944.00    1.02691   0.60717    0.000
 4945.00    1.03930   0.61007    0.000
 4946.00    0.90973   0.61099    0.000
 4947.00    0.71385   0.61192    0.000
 4948.00    0.59023   0.61359    0.000
 4949.00    0.67619   0.61621    0.000
 4950.00    0.90754   0.61883    0.000
 4951.00    0.96177   0.61951    0.000
 4952.00    0.74499   0.61707    0.000
 4953.00    0.60595   0.61139    0.000
 4954.00    0.72562   0.60209    0.000
 4955.00    0.83424   0.58837    0.000
 4956.00    0.76764   0.57118    0.000
 4957.00    0.72418   0.55601    0.000
 4958.00    0.86533   0.54921    0.000
 4959.00    1.11194   0.55250    0.000
 4960.00    1.26456   0.56347    0.000
 4961.00    1.12785   0.57750    0.000
 4962.00    0.77726   0.58879    0.000
 4963.00    0.57704   0.59306    0.000
 4964.00    0.67818   0.59025    0.000
 4965.00    0.87036   0.58351    0.000
 4966.00    0.96722   0.57620    0.000
 4967.00    0.95357   0.57035    0.000
 4968.00    0.87064   0.56764    0.000
 4969.00    0.76757   0.56868    0.000
 4970.00    0.70941   0.57279    0.000
 4971.00    0.74989   0.57885    0.000
 4972.00    0.82193   0.58559    0.000
 4973.00    0.77320   0.59177    0.000
 4974.00    0.62605   0.59605    0.000
 4975.00    0.57291   0.59721    0.000
 4976.00    0.65814   0.59465    0.000
 4977.00    0.73896   0.58841    0.000
 4978.00    0.70084   0.57939    0.000
 4979.00    0.53861   0.56880    0.000
 4980.00    0.38328   0.55676    0.000
 4981.00    0.41410   0.54328    0.000
 4982.00    0.59967   0.53049    0.000
 4983.00    0.74165   0.52157    0.000
 4984.00    0.78155   0.51876    0.000
 4985.00    0.79823   0.52321    0.000
 4986.00    0.79334   0.53405    0.000
 4987.00    0.71097   0.54720    0.000
 4988.00    0.61304   0.55810    0.000
 4989.00    0.62264   0.56455    0.000
 4990.00    0.70488   0.56676    0.000
 4991.00    0.72482   0.56663    0.000
 4992.00    0.67522   0.56597    0.000
 4993.00    0.64905   0.56587    0.000
 4994.00    0.68449   0.56714    0.000
 4995.00    0.75767   0.56907    0.000
 4996.00    0.83169   0.56992    0.000
 4997.00    0.88359   0.56857    0.000
 4998.00    0.93332   0.56408    0.000
 4999.00    1.00382   0.55648    0.000
 5000.00    1.04786   0.54762    0.000
 5001.00    1.03992   0.53959    0.000
 5002.00    1.13574   0.53350    0.000
 5003.00    1.48195   0.52904    0.000
 5004.00    1.89468   0.52478    0.000
 5005.00    2.07432   0.52049    0.000
 5006.00    1.98603   0.51846    0.000
 5007.00    1.74755   0.52069    0.000
 5008.00    1.40127   0.52646    0.000
 5009.00    0.97763   0.53308    0.000
 5010.00    0.61474   0.53700    0.000
 5011.00    0.47525   0.53505    0.000
 5012.00    0.61700   0.52737    0.000
 5013.00    0.91581   0.51752    0.000
 5014.00    1.02042   0.50982    0.000
 5015.00    0.73326   0.50635    0.000
 5016.00    0.40515   0.50632    0.000
 5017.00    0.43501   0.50816    0.000
 5018.00    0.71229   0.51113    0.000
 5019.00    0.90973   0.51450    0.000
 5020.00    0.84694   0.51753    0.000
 5021.00    0.55805   0.52039    0.000
 5022.00    0.29884   0.52400    0.000
 5023.00    0.29695   0.52838    0.000
 5024.00    0.53038   0.53270    0.000
 5025.00    0.81948   0.53627    0.000
 5026.00    0.94642   0.53840    0.000
 5027.00    0.84736   0.53952    0.000
 5028.00    0.72738   0.54134    0.000
 5029.00    0.74723   0.54499   -1.000
 5030.00    0.79840   0.55078   -1.000
 5031.00    0.73488   0.55837   -1.000
 5032.00    0.55606   0.56562   17.984
 5033.00    0.38445   0.56916   -1.000
 5034.00    0.40356   0.56692   24.779
 5035.00    0.59888   0.55958   16.698
 5036.00    0.65772   0.54959   15.204
 5037.00    0.43627   0.53828   22.922
 5038.00    0.19835   0.52600   -1.000
 5039.00    0.21093   0.51356   -1.000
 5040.00    0.49305   0.50289   20.282
 5041.00    0.84608   0.49764   -1.000
 5042.00    0.95104   0.50109   -1.000
 5043.00    0.75402   0.51320   -1.000
 5044.00    0.57848   0.53091   17.287
 5045.00    0.62366   0.54887   16.034
 5046.00    0.76273   0.56059   -1.000
 5047.00    0.85071   0.56255   -1.000
 5048.00    0.85975   0.55658   -1.000
 5049.00    0.77882   0.54699   -1.000
 5050.00    0.59599   0.53783   16.779
 5051.00    0.43314   0.53244   23.087
 5052.00    0.51346   0.53288   19.476
 5053.00    0.78963   0.53850   -1.000
 5054.00    0.92700   0.54670   -1.000
 5055.00    0.84109   0.55504   -1.000
 5056.00    0.77246   0.56230   -1.000
 5057.00    0.77461   0.56797   -1.000
 5058.00    0.65640   0.57203   15.235
 5059.00    0.45751   0.57511   21.857
 5060.00    0.45815   0.57762   21.827
 5061.00    0.65303   0.57853   15.313
 5062.00    0.74606   0.57588   -1.000
 5063.00    0.68499   0.56853   14.599
 5064.00    0.67477   0.55796   14.820
 5065.00    0.71114   0.54751   -1.000
 5066.00    0.61487   0.53944   16.264
 5067.00    0.51713   0.53472   19.337
 5068.00    0.73623   0.53400   -1.000
 5069.00    1.09427   0.53630   -1.000
 5070.00    1.08042   0.53851   -1.000
 5071.00    0.71266   0.53911   -1.000
 5072.00    0.45383   0.53925   22.035
 5073.00    0.49012   0.53949   20.403
 5074.00    0.68385   0.53916   14.623
 5075.00    0.87014   0.53844   -1.000
 5076.00    0.94292   0.53743   -1.000
 5077.00    0.88687   0.53392   -1.000
 5078.00    0.75432   0.52602   -1.000
 5079.00    0.60468   0.51590   16.538
 5080.00    0.49490   0.50740   20.206
 5081.00    0.48395   0.50264   20.663
 5082.00    0.59372   0.50235   16.843
 5083.00    0.74070   0.50700   -1.000
 5084.00    0.81934   0.51516   -1.000
 5085.00    0.86112   0.52385   -1.000
 5086.00    0.93158   0.53119   -1.000
 5087.00    0.92655   0.53714   -1.000
 5088.00    0.73439   0.54194   -1.000
 5089.00    0.52587   0.54561   19.016
 5090.00    0.54075   0.54873   18.493
 5091.00    0.71860   0.55220   -1.000
 5092.00    0.84931   0.55582   -1.000
 5093.00    0.85719   0.55806   -1.000
 5094.00    0.81018   0.55736   -1.000
 5095.00    0.86613   0.55287   -1.000
 5096.00    1.07084   0.54450   -1.000
 5097.00    1.14129   0.53338   -1.000
 5098.00    0.85838   0.52252   -1.000
 5099.00    0.53153   0.51584   18.814
 5100.00    0.53983   0.51519   18.524
 5101.00    0.77611   0.51928   -1.000
 5102.00    0.93676   0.52525   -1.000
 5103.00    0.89647   0.53029   -1.000
 5104.00    0.70194   0.53232   -1.000
 5105.00    0.51422   0.53068   19.447
 5106.00    0.48197   0.52626   20.748
 5107.00    0.62297   0.52117   16.052
 5108.00    0.82120   0.51703   -1.000
 5109.00    0.85926   0.51457   -1.000
 5110.00    0.65411   0.51493   15.288
 5111.00    0.42814   0.51859   23.357
 5112.00    0.41905   0.52441   23.863
 5113.00    0.63456   0.53123   15.759
 5114.00    0.91772   0.53818   -1.000
 5115.00    1.04143   0.54447   -1.000
 5116.00    0.92253   0.54978   -1.000
 5117.00    0.73835   0.55369   -1.000
 5118.00    0.63181   0.55522   15.827
 5119.00    0.53332   0.55343   18.750
 5120.00    0.42389   0.54798   23.591
 5121.00    0.46896   0.53916   21.324
 5122.00    0.68497   0.52790   -1.000
 5123.00    0.79272   0.51638   -1.000
 5124.00    0.66336   0.50708   -1.000
 5125.00    0.52470   0.50111   19.059
 5126.00    0.55171   0.49821   18.126
 5127.00    0.66482   0.49775   -1.000
 5128.00    0.76210   0.49897   -1.000
 5129.00    0.83867   0.50141   -1.000
 5130.00    0.91336   0.50517   -1.000
 5131.00    0.98079   0.51008   -1.000
 5132.00    0.97959   0.51550   -1.000
 5133.00    0.82862   0.52092   -1.000
 5134.00    0.65554   0.52555   15.254
 5135.00    0.76470   0.52762   -1.000
 5136.00    1.04658   0.52613   -1.000
 5137.00    0.95678   0.52166   -1.000
 5138.00    0.49829   0.51553   20.069
 5139.00    0.32969   0.51001   -1.000
 5140.00    0.58107   0.50639   17.210
 5141.00    0.68785   0.50407   -1.000
 5142.00    0.52100   0.50304   19.194
 5143.00    0.53864   0.50340   18.565
 5144.00    0.81544   0.50364   -1.000
 5145.00    0.92976   0.50284   -1.000
 5146.00    0.74387   0.50182   -1.000
 5147.00    0.52079   0.50122   19.201
 5148.00    0.45098   0.50103   22.174
 5149.00    0.52779   0.50091   18.947
 5150.00    0.64192   0.50053   -1.000
 5151.00    0.67349   0.49975   -1.000
 5152.00    0.65893   0.49874   -1.000
 5153.00    0.73471   0.49839   -1.000
 5154.00    0.86640   0.50035   -1.000
 5155.00    0.88610   0.50556   -1.000
 5156.00    0.76920   0.51338   -1.000
 5157.00    0.64414   0.52195   15.524
 5158.00    0.64190   0.52926   15.579
 5159.00    0.79886   0.53395   -1.000
 5160.00    0.93145   0.53495   -1.000
 5161.00    0.80735   0.53161   -1.000
 5162.00    0.55932   0.52429   17.879
 5163.00    0.50857   0.51289   19.663
 5164.00    0.63384   0.49631   -1.000
 5165.00    0.68630   0.47449   -1.000
 5166.00    0.61541   0.45009   -1.000
 5167.00    0.53427   0.42805   18.717
 5168.00    0.50445   0.41302   19.824
 5169.00    0.52265   0.40612   -1.000
 5170.00    0.56752   0.40400   -1.000
 5171.00    0.61278   0.40315   -1.000
 5172.00    0.63535   0.40418   -1.000
 5173.00    0.62525   0.41023   -1.000
 5174.00    0.59860   0.42287   -1.000
 5175.00    0.59896   0.44114   -1.000
 5176.00    0.69168   0.46212   -1.000
 5177.00    0.88021   0.48083   -1.000
 5178.00    1.00286   0.49223   -1.000
 5179.00    0.92459   0.49404   -1.000
 5180.00    0.79268   0.48650   -1.000
 5181.00    0.79294   0.47066   -1.000
 5182.00    0.81986   0.44973   -1.000
 5183.00    0.72397   0.43110   -1.000
 5184.00    0.63513   0.42276   -1.000
 5185.00    0.69660   0.42758   -1.000
 5186.00    0.74691   0.44304   -1.000
 5187.00    0.62676   0.46349   -1.000
 5188.00    0.51812   0.48269   19.301
 5189.00    0.62141   0.49543   16.092
 5190.00    0.81320   0.49893    0.000
 5191.00    0.89570   0.49510    0.000
 5192.00    0.85967   0.48904    0.000
 5193.00    0.77471   0.48435    0.000
 5194.00    0.67127   0.48237    0.000
 5195.00    0.59063   0.48427    0.000
 5196.00    0.61993   0.49006    0.000
 5197.00    0.74171   0.49787    0.000
 5198.00    0.74609   0.50588    0.000
 5199.00    0.56305   0.51282    0.000
 5200.00    0.47237   0.51724    0.000
 5201.00    0.65169   0.51784    0.000
 5202.00    0.87873   0.51390    0.000
 5203.00    0.92636   0.50507    0.000
 5204.00    0.83056   0.49229    0.000
 5205.00    0.69157   0.47846    0.000
 5206.00    0.54142   0.46641    0.000
 5207.00    0.43221   0.45778    0.000
 5208.00    0.46934   0.45457    0.000
 5209.00    0.64038   0.45815    0.000
 5210.00    0.75549   0.46779    0.000
 5211.00    0.71108   0.48133   -1.000
 5212.00    0.60559   0.49566   16.513
 5213.00    0.52374   0.50716   19.094
 5214.00    0.44669   0.51325   22.387
 5215.00    0.41916   0.51439   23.857
 5216.00    0.57506   0.51349   17.389
 5217.00    0.83324   0.51377   -1.000
 5218.00    0.86481   0.51689   -1.000
 5219.00    0.63471   0.52243   15.755
 5220.00    0.51107   0.52828   19.567
 5221.00    0.63621   0.53143   15.718
 5222.00    0.75975   0.52926   -1.000
 5223.00    0.71929   0.52080   -1.000
 5224.00    0.59630   0.50703   16.770
 5225.00    0.51580   0.49080   19.387
 5226.00    0.54945   0.47700   18.200
 5227.00    0.66737   0.47080   -1.000
 5228.00    0.76164   0.47379   -1.000
 5229.00    0.78650   0.48354   -1.000
 5230.00    0.78498   0.49562   -1.000
 5231.00    0.80930   0.50501   -1.000
 5232.00    0.87698   0.50902   -1.000
 5233.00    0.92310   0.50903   -1.000
 5234.00    0.85269   0.50859   -1.000
 5235.00    0.73460   0.51082   -1.000
 5236.00    0.74539   0.51659   -1.000
 5237.00    0.85404   0.52452   -1.000
 5238.00    0.86958   0.53223   -1.000
 5239.00    0.80422   0.53795   -1.000
 5240.00    0.83163   0.54119   -1.000
 5241.00    0.93715   0.54233   -1.000
 5242.00    0.94717   0.54235   -1.000
 5243.00    0.81392   0.54210   -1.000
 5244.00    0.63323   0.54092   15.792
 5245.00    0.52435   0.53716   19.071
 5246.00    0.56733   0.53053   17.626
 5247.00    0.73237   0.52266   -1.000
 5248.00    0.90228   0.51492   -1.000
 5249.00    0.95195   0.50826   -1.000
 5250.00    0.83428   0.50423   -1.000
 5251.00    0.70496   0.50361   -1.000
 5252.00    0.76332   0.50528   -1.000
 5253.00    0.92778   0.50772   -1.000
 5254.00    0.97859   0.51073   -1.000
 5255.00    0.90116   0.51542   -1.000
 5256.00    0.79889   0.52205   -1.000
 5257.00    0.65946   0.52947   15.164
 5258.00    0.46479   0.53554   21.515
 5259.00    0.40753   0.53749   24.538
 5260.00    0.65014   0.53289   15.381
 5261.00    0.94073   0.52102   -1.000
 5262.00    0.93844   0.50367   -1.000
 5263.00    0.73034   0.48420   -1.000
 5264.00    0.58787   0.46608   -1.000
 5265.00    0.55740   0.45227   17.940
 5266.00    0.57254   0.44415   -1.000
 5267.00    0.65492   0.43990   -1.000
 5268.00    0.81797   0.43671   -1.000
 5269.00    0.93427   0.43500   -1.000
 5270.00    0.88392   0.43738   -1.000
 5271.00    0.73166   0.44463   -1.000
 5272.00    0.61730   0.45549   -1.000
 5273.00    0.61352   0.46804   -1.000
 5274.00    0.68866   0.48015   -1.000
 5275.00    0.70126   0.49094   -1.000
 5276.00    0.58935   0.50106   16.968
 5277.00    0.52635   0.51082   18.999
 5278.00    0.62699   0.51914   15.949
 5279.00    0.69977   0.52404   -1.000
 5280.00    0.59699   0.52424   16.751
 5281.00    0.50233   0.52015   19.907
 5282.00    0.59020   0.51410   16.943
 5283.00    0.75242   0.50995   -1.000
 5284.00    0.85123   0.51116   -1.000
 5285.00    0.91451   0.51813   -1.000
 5286.00    0.96937   0.52847   -1.000
 5287.00    0.93181   0.53907   -1.000
 5288.00    0.79036   0.54783   -1.000
 5289.00    0.70729   0.55381   -1.000
 5290.00    0.77790   0.55673   -1.000
 5291.00    0.89463   0.55692   -1.000
 5292.00    0.95737   0.55488   -1.000
 5293.00    0.99318   0.55076   -1.000
 5294.00    1.02558   0.54402   -1.000
 5295.00    1.00866   0.53410   -1.000
 5296.00    0.93032   0.52182   -1.000
 5297.00    0.85340   0.50990   -1.000
 5298.00    0.80098   0.50164   -1.000
 5299.00    0.72086   0.49854   -1.000
 5300.00    0.63310   0.50029   15.795
 5301.00    0.66429   0.50609   -1.000
 5302.00    0.83603   0.51481   -1.000
 5303.00    1.00478   0.52485   -1.000
 5304.00    1.07248   0.53438   -1.000
 5305.00    1.06371   0.54203   -1.000
 5306.00    1.02292   0.54724   -1.000
 5307.00    0.97249   0.55036   -1.000
 5308.00    0.93502   0.55222   -1.000
 5309.00    0.92960   0.55349   -1.000
 5310.00    0.92003   0.55433   -1.000
 5311.00    0.83482   0.55441   -1.000
 5312.00    0.71458   0.55317   -1.000
 5313.00    0.70047   0.55041   -1.000
 5314.00    0.80228   0.54631   -1.000
 5315.00    0.88379   0.54148   -1.000
 5316.00    0.88807   0.53705   -1.000
 5317.00    0.86747   0.53400   -1.000
 5318.00    0.83515   0.53239   -1.000
 5319.00    0.75363   0.53172   -1.000
 5320.00    0.64290   0.53101   15.554
 5321.00    0.57591   0.52906   17.364
 5322.00    0.57323   0.52474   17.445
 5323.00    0.59650   0.51788   16.764
 5324.00    0.61253   0.50936   16.326
 5325.00    0.61216   0.49938   16.336
 5326.00    0.61211   0.48744   16.337
 5327.00    0.63987   0.47491   -1.000
 5328.00    0.69754   0.46593   -1.000
 5329.00    0.75818   0.46413   -1.000
 5330.00    0.77842   0.46999   -1.000
 5331.00    0.72736   0.48148   -1.000
 5332.00    0.64005   0.49561   -1.000
 5333.00    0.59083   0.50949   16.925
 5334.00    0.61574   0.52047   16.241
 5335.00    0.69127   0.52724   -1.000
 5336.00    0.72741   0.52996   -1.000
 5337.00    0.63388   0.52903   15.776
 5338.00    0.44048   0.52451   22.703
 5339.00    0.27028   0.51742   -1.000
 5340.00    0.25183   0.51060   -1.000
 5341.00    0.43226   0.50698   23.134
 5342.00    0.66893   0.50738   -1.000
 5343.00    0.77021   0.51063   -1.000
 5344.00    0.73616   0.51452   -1.000
 5345.00    0.67670   0.51727   -1.000
 5346.00    0.63813   0.51798   15.671
 5347.00    0.62707   0.51665   15.947
 5348.00    0.67642   0.51477   -1.000
 5349.00    0.79274   0.51458   -1.000
 5350.00    0.88177   0.51731   -1.000
 5351.00    0.85986   0.52280   -1.000
 5352.00    0.79778   0.53003   -1.000
 5353.00    0.79716   0.53812   -1.000
 5354.00    0.82732   0.54611   -1.000
 5355.00    0.79960   0.55290   -1.000
 5356.00    0.67630   0.55791   14.786
 5357.00    0.51248   0.56092   19.513
 5358.00    0.47068   0.56180   21.246
 5359.00    0.62399   0.56027   16.026
 5360.00    0.77867   0.55622   -1.000
 5361.00    0.76186   0.55019   -1.000
 5362.00    0.69385   0.54313   -1.000
 5363.00    0.73657   0.53586   -1.000
 5364.00    0.85104   0.52908   -1.000
 5365.00    0.91952   0.52332   -1.000
 5366.00    0.87201   0.51836   -1.000
 5367.00    0.69841   0.51330   -1.000
 5368.00    0.45217   0.50695   22.115
 5369.00    0.26666   0.49909   -1.000
 5370.00    0.33375   0.49164   -1.000
 5371.00    0.63904   0.48787   -1.000
 5372.00    0.82944   0.49017   -1.000
 5373.00    0.69762   0.49843   -1.000
 5374.00    0.47426   0.51024   21.085
 5375.00    0.40589   0.52210   24.637
 5376.00    0.48123   0.53118   20.780
 5377.00    0.60233   0.53640   16.602
 5378.00    0.70525   0.53805   -1.000
 5379.00    0.75672   0.53715   -1.000
 5380.00    0.74722   0.53479   -1.000
 5381.00    0.68389   0.53178   -1.000
 5382.00    0.59035   0.52891   16.939
 5383.00    0.52757   0.52710   18.955
 5384.00    0.58012   0.52681   17.238
 5385.00    0.72934   0.52759   -1.000
 5386.00    0.83091   0.52838   -1.000
 5387.00    0.82816   0.52793   -1.000
 5388.00    0.81387   0.52540   -1.000
 5389.00    0.82413   0.52089   -1.000
 5390.00    0.78084   0.51531   -2.000
 5391.00    0.67043   0.50979   -2.000
 5392.00    0.58711   0.50506   -2.000
 5393.00    0.57811   0.50117   -2.000
 5394.00    0.59934   0.49753   -2.000
 5395.00    0.60263   0.49339   -2.000
 5396.00    0.58212   0.48922   -2.000
 5397.00    0.61057   0.48678   -2.000
 5398.00    0.78655   0.48720   -2.000
 5399.00    1.01014   0.49022   -2.000
 5400.00    1.02598   0.49457   -2.000
 5401.00    0.82590   0.49801   -2.000
 5402.00    0.66057   0.49796   -2.000
 5403.00    0.64775   0.49309   -2.000
 5404.00    0.71251   0.48464   -2.000
 5405.00    0.78805   0.47594   -1.000
 5406.00    0.85008   0.47017   -1.000
 5407.00    0.83868   0.46848   -1.000
 5408.00    0.69351   0.47020   -1.000
 5409.00    0.50386   0.47438   19.847
 5410.00    0.44460   0.48042   22.492
 5411.00    0.51615   0.48774   19.374
 5412.00    0.58136   0.49555   17.201
 5413.00    0.61172   0.50310   16.347
 5414.00    0.66771   0.51000   -1.000
 5415.00    0.71997   0.51607   -1.000
 5416.00    0.69012   0.52096   -1.000
 5417.00    0.62353   0.52423   16.038
 5418.00    0.62931   0.52556   15.890
 5419.00    0.68513   0.52498   -1.000
 5420.00    0.68461   0.52300   -1.000
 5421.00    0.60584   0.52022   16.506
 5422.00    0.51329   0.51702   19.482
 5423.00    0.49763   0.51416   20.095
 5424.00    0.60417   0.51277   16.552
 5425.00    0.73463   0.51313   -1.000
 5426.00    0.75517   0.51410   -1.000
 5427.00    0.69619   0.51355   -1.000
 5428.00    0.66516   0.51013   -1.000
 5429.00    0.66371   0.50472   -1.000
 5430.00    0.64013   0.49896   -1.000
 5431.00    0.60717   0.49382   16.470
 5432.00    0.61100   0.48975   16.367
 5433.00    0.66280   0.48687   -1.000
 5434.00    0.72552   0.48547   -1.000
 5435.00    0.71527   0.48637   -1.000
 5436.00    0.60035   0.49053   16.657
 5437.00    0.51379   0.49831   19.463
 5438.00    0.58847   0.50875   16.993
 5439.00    0.75219   0.51974   -1.000
 5440.00    0.84820   0.52900   -1.000
 5441.00    0.80110   0.53485   -1.000
 5442.00    0.63447   0.53626   15.761
 5443.00    0.46350   0.53272   21.575
 5444.00    0.41460   0.52447   24.120
 5445.00    0.53897   0.51321   18.554
 5446.00    0.76333   0.50226   -1.000
 5447.00    0.87509   0.49521   -1.000
 5448.00    0.77081   0.49380   -1.000
 5449.00    0.65313   0.49730   -1.000
 5450.00    0.69800   0.50305   -1.000
 5451.00    0.77962   0.50769   -1.000
 5452.00    0.76496   0.50863   -1.000
 5453.00    0.75073   0.50502   -1.000
 5454.00    0.83377   0.49848   -1.000
 5455.00    0.93434   0.49251   -1.000
 5456.00    0.95145   0.49023   -1.000
 5457.00    0.88361   0.49250   -1.000
 5458.00    0.78554   0.49782   -1.000
 5459.00    0.72515   0.50331   -1.000
 5460.00    0.73972   0.50631   -1.000
 5461.00    0.80996   0.50571   -1.000
 5462.00    0.87554   0.50255   -1.000
 5463.00    0.85926   0.49928   -1.000
 5464.00    0.74596   0.49776   -1.000
 5465.00    0.61371   0.49852   16.294
 5466.00    0.53684   0.50101   18.628
 5467.00    0.53066   0.50396   18.845
 5468.00    0.56618   0.50597   17.662
 5469.00    0.58950   0.50638   16.963
 5470.00    0.57285   0.50519   17.456
 5471.00    0.53689   0.50260   18.626
 5472.00    0.52993   0.49881   18.870
 5473.00    0.60102   0.49405   16.639
 5474.00    0.72798   0.48830   -1.000
 5475.00    0.81207   0.48196   -1.000
 5476.00    0.80029   0.47663   -1.000
 5477.00    0.72618   0.47403   -1.000
 5478.00    0.65005   0.47445   -1.000
 5479.00    0.62114   0.47682   -1.000
 5480.00    0.63367   0.47979   -1.000
 5481.00    0.63297   0.48277   -1.000
 5482.00    0.60090   0.48603   16.642
 5483.00    0.57417   0.49007   17.416
 5484.00    0.59404   0.49465   16.834
 5485.00    0.67829   0.49854   -1.000
 5486.00    0.79140   0.50063   -1.000
 5487.00    0.85531   0.50078   -1.000
 5488.00    0.81358   0.49978   -1.000
 5489.00    0.67293   0.49884   -1.000
 5490.00    0.56003   0.49884   17.856
 5491.00    0.63117   0.49967   15.844
 5492.00    0.77973   0.50063   -1.000
 5493.00    0.73390   0.50128   -1.000
 5494.00    0.53192   0.50138   18.800
 5495.00    0.45896   0.50084   21.788
 5496.00    0.56304   0.50007   17.761
 5497.00    0.66397   0.49977   -1.000
 5498.00    0.67429   0.50000   -1.000
 5499.00    0.62081   0.50011   16.108
 5500.00    0.51286   0.49938   19.498
 5501.00    0.35055   0.49763   -2.000
 5502.00    0.20680   0.49515   -2.000
 5503.00    0.19538   0.49246   -2.000
 5504.00    0.36810   0.48989   -2.000
 5505.00    0.65366   0.48779   -2.000
 5506.00    0.79625   0.48674   -2.000
 5507.00    0.68444   0.48691   -2.000
 5508.00    0.93429   0.48778   -2.000
 5509.00    2.11875   0.48843   -2.000
 5510.00    3.30762   0.48780   -2.000
 5511.00    3.14371   0.48549   -2.000
 5512.00    1.97028   0.48225   -2.000
 5513.00    0.93279   0.47954   -2.000
 5514.00    0.08110   0.47876   -2.000
 5515.00   -0.92865   0.48075   -2.000
 5516.00   -1.41798   0.48544   -2.000
 5517.00   -0.66541   0.49187   -2.000
 5518.00    0.50197   0.49862   -2.000
 5519.00    0.86165   0.50433   -2.000
 5520.00    0.57180   0.50822   -2.000
 5521.00    0.39721   0.51008   -2.000
 5522.00    0.46001   0.51011   -2.000
 5523.00    0.53092   0.50850   -2.000
 5524.00    0.55493   0.50526   -2.000
 5525.00    0.56581   0.50033   17.674
 5526.00    0.52765   0.49410   18.952
 5527.00    0.43432   0.48790   23.024
 5528.00    0.42008   0.48365   23.805
 5529.00    0.57836   0.48258   17.290
 5530.00    0.78160   0.48455   -1.000
 5531.00    0.87369   0.48822   -1.000
 5532.00    0.86400   0.49178   -1.000
 5533.00    0.81510   0.49387   -1.000
 5534.00    0.72966   0.49439   -1.000
 5535.00    0.61421   0.49416   16.281
 5536.00    0.53519   0.49413   18.685
 5537.00    0.54234   0.49507   18.439
 5538.00    0.60549   0.49723   16.515
 5539.00    0.65470   0.50017   -1.000
 5540.00    0.62675   0.50297   15.955
 5541.00    0.54741   0.50472   18.268
 5542.00    0.56028   0.50497   17.848
 5543.00    0.70123   0.50400   -1.000
 5544.00    0.77798   0.50253   -1.000
 5545.00    0.66987   0.50156   -1.000
 5546.00    0.50312   0.50197   19.876
 5547.00    0.42564   0.50398   23.494
 5548.00    0.46174   0.50705   21.657
 5549.00    0.55841   0.51026   17.908
 5550.00    0.63025   0.51251   15.867
 5551.00    0.62593   0.51300   15.976
 5552.00    0.56183   0.51159   17.799
 5553.00    0.49912   0.50887   20.035
 5554.00    0.51237   0.50582   19.517
 5555.00    0.59928   0.50327   16.687
 5556.00    0.66305   0.50159   -1.000
 5557.00    0.65306   0.50075   -1.000
 5558.00    0.61344   0.50035   16.302
 5559.00    0.57968   0.49984   17.251
 5560.00    0.54336   0.49876   18.404
 5561.00    0.51620   0.49695   19.372
 5562.00    0.54084   0.49458   18.490
 5563.00    0.61481   0.49197   16.265
 5564.00    0.67810   0.48939   -1.000
 5565.00    0.69163   0.48709   -1.000
 5566.00    0.66130   0.48528   -1.000
 5567.00    0.60817   0.48393   16.443
 5568.00    0.55695   0.48312   17.955
 5569.00    0.53640   0.48294   18.643
 5570.00    0.56790   0.48310   17.609
 5571.00    0.62810   0.48328   -1.000
 5572.00    0.66094   0.48372   -1.000
 5573.00    0.65364   0.48467   -1.000
 5574.00    0.64085   0.48617   -1.000
 5575.00    0.64367   0.48827   -1.000
 5576.00    0.65270   0.49074   -1.000
 5577.00    0.63463   0.49307   -1.000
 5578.00    0.55994   0.49496   17.859
 5579.00    0.46871   0.49617   21.335
 5580.00    0.44258   0.49644   22.595
 5581.00    0.49028   0.49570   20.396
 5582.00    0.55285   0.49384   18.088
 5583.00    0.58677   0.49048   17.042
 5584.00    0.58289   0.48522   17.156
 5585.00    0.56101   0.47795   17.825
 5586.00    0.54839   0.46939   18.235
 5587.00    0.53828   0.46106   18.578
 5588.00    0.51132   0.45486   19.557
 5589.00    0.49558   0.45220   20.178
 5590.00    0.52378   0.45319   19.092
 5591.00    0.53084   0.45680   18.838
 5592.00    0.43540   0.46151   22.967
 5593.00    0.31976   0.46634   31.273
 5594.00    0.33525   0.47094   29.828
 5595.00    0.48346   0.47497   20.684
 5596.00    0.65562   0.47773   -1.000
 5597.00    0.76223   0.47863   -1.000
 5598.00    0.77153   0.47736   -1.000
 5599.00    0.73240   0.47412   -1.000
 5600.00    0.71623   0.46998   -1.000
 5601.00    0.72801   0.46661   -1.000
 5602.00    0.74668   0.46570   -1.000
 5603.00    0.79647   0.46830   -1.000
 5604.00    0.89178   0.47430   -1.000
 5605.00    0.95662   0.48248   -1.000
 5606.00    0.91526   0.49099   -1.000
 5607.00    0.81356   0.49808   -1.000
 5608.00    0.72878   0.50287   -1.000
 5609.00    0.64965   0.50538   -1.000
 5610.00    0.55563   0.50604   17.998
 5611.00    0.51470   0.50497   19.429
 5612.00    0.57916   0.50157   17.266
 5613.00    0.67054   0.49524   -1.000
 5614.00    0.68899   0.48669   -1.000
 5615.00    0.63386   0.47797   -1.000
 5616.00    0.55580   0.47133   17.992
 5617.00    0.49709   0.46822   20.117
 5618.00    0.47689   0.46878   20.969
 5619.00    0.48362   0.47182   20.677
 5620.00    0.48780   0.47550   20.500
 5621.00    0.45818   0.47810   21.826
 5622.00    0.39839   0.47851   25.101
 5623.00    0.36879   0.47673   27.116
 5624.00    0.41946   0.47390   23.840
 5625.00    0.53893   0.47164   18.555
 5626.00    0.68078   0.47137   -1.000
 5627.00    0.79076   0.47381   -1.000
 5628.00    0.83637   0.47849   -1.000
 5629.00    0.82259   0.48411   -1.000
 5630.00    0.76069   0.48920   -1.000
 5631.00    0.65334   0.49263   -1.000
 5632.00    0.54156   0.49382   18.465
 5633.00    0.51717   0.49279   19.336
 5634.00    0.60849   0.48998   16.434
 5635.00    0.73080   0.48609   -1.000
 5636.00    0.80945   0.48206   -1.000
 5637.00    0.84252   0.47867   -1.000
 5638.00    0.84022   0.47629   -1.000
 5639.00    0.79588   0.47480   -1.000
 5640.00    0.71883   0.47400   -1.000
 5641.00    0.64661   0.47371   -1.000
 5642.00    0.61783   0.47385   -1.000
 5643.00    0.65097   0.47457   -1.000
 5644.00    0.71238   0.47596   -1.000
 5645.00    0.72533   0.47788   -1.000
 5646.00    0.67266   0.47993   -1.000
 5647.00    0.62082   0.48166   -1.000
 5648.00    0.62914   0.48289   -1.000
 5649.00    0.70393   0.48377   -1.000
 5650.00    0.77493   0.48452   -1.000
 5651.00    0.73083   0.48513   -1.000
 5652.00    0.57917   0.48523   17.266
 5653.00    0.45472   0.48435   21.992
 5654.00    0.43584   0.48224   22.944
 5655.00    0.50254   0.47864   19.899
 5656.00    0.62083   0.47355   -1.000
 5657.00    0.75939   0.46786   -1.000
 5658.00    0.84978   0.46288   -1.000
 5659.00    0.81232   0.45948   -1.000
 5660.00    0.66897   0.45815   -1.000
 5661.00    0.53255   0.45897   18.778
 5662.00    0.48030   0.46157   20.820
 5663.00    0.51906   0.46516   19.265
 5664.00    0.59361   0.46898   16.846
 5665.00    0.62644   0.47231   -1.000
 5666.00    0.60919   0.47465   -1.000
 5667.00    0.58530   0.47584   17.085
 5668.00    0.55359   0.47627   18.064
 5669.00    0.48623   0.47676   20.566
 5670.00    0.42184   0.47818   23.705
 5671.00    0.43809   0.48086   22.826
 5672.00    0.54721   0.48442   18.274
 5673.00    0.69422   0.48807   -1.000
 5674.00    0.80208   0.49116   -1.000
 5675.00    0.81655   0.49326   -1.000
 5676.00    0.77116   0.49416   -1.000
 5677.00    0.74006   0.49396   -1.000
 5678.00    0.73092   0.49279   -1.000
 5679.00    0.71331   0.49066   -1.000
 5680.00    0.70089   0.48748   -1.000
 5681.00    0.71710   0.48364   -1.000
 5682.00    0.71848   0.47982   -1.000
 5683.00    0.65558   0.47657   -1.000
 5684.00    0.58358   0.47412   17.136
 5685.00    0.58821   0.47237   17.001
 5686.00    0.65340   0.47115   -1.000
 5687.00    0.70333   0.47050   -1.000
 5688.00    0.69006   0.47078   -1.000
 5689.00    0.61605   0.47243   -1.000
 5690.00    0.54381   0.47558   18.389
 5691.00    0.54025   0.47969   18.510
 5692.00    0.60623   0.48378   16.495
 5693.00    0.70032   0.48694   -1.000
 5694.00    0.77909   0.48866   -1.000
 5695.00    0.81321   0.48876   -1.000
 5696.00    0.80019   0.48728   -1.000
 5697.00    0.76122   0.48455   -1.000
 5698.00    0.73374   0.48089   -1.000
 5699.00    0.74116   0.47662   -1.000
 5700.00    0.76477   0.47237   -1.000
 5701.00    0.76841   0.46887   -1.000
 5702.00    0.72674   0.46656   -1.000
 5703.00    0.64135   0.46526   -1.000
 5704.00    0.54886   0.46429   18.220
 5705.00    0.47967   0.46273   20.848
 5706.00    0.42545   0.45991   23.505
 5707.00    0.38093   0.45584   26.252
 5708.00    0.37520   0.45143   26.653
 5709.00    0.42139   0.44784   23.731
 5710.00    0.48302   0.44618   20.703
 5711.00    0.53830   0.44725   18.577
 5712.00    0.61897   0.45103   -1.000
 5713.00    0.72405   0.45686   -1.000
 5714.00    0.77460   0.46373   -1.000
 5715.00    0.74385   0.47047   -1.000
 5716.00    0.72116   0.47620   -1.000
 5717.00    0.73716   0.48065   -1.000
 5718.00    0.68358   0.48401   -1.000
 5719.00    0.53417   0.48676   18.721
 5720.00    0.44202   0.48932   22.623
 5721.00    0.49916   0.49177   20.034
 5722.00    0.62202   0.49384   16.077
 5723.00    0.71438   0.49507   -1.000
 5724.00    0.75270   0.49498   -1.000
 5725.00    0.74084   0.49347   -1.000
 5726.00    0.68586   0.49106   -1.000
 5727.00    0.60638   0.48849   16.491
 5728.00    0.53271   0.48632   18.772
 5729.00    0.48629   0.48476   20.564
 5730.00    0.47146   0.48382   21.211
 5731.00    0.48297   0.48346   20.705
 5732.00    0.51005   0.48372   19.606
 5733.00    0.53868   0.48462   18.564
 5734.00    0.55371   0.48601   18.060
 5735.00    0.54270   0.48743   18.426
 5736.00    0.50285   0.48837   19.887
 5737.00    0.45957   0.48858   21.760
 5738.00    0.45829   0.48818   21.820
 5739.00    0.51149   0.48746   19.551
 5740.00    0.58454   0.48666    0.000
 5741.00    0.61339   0.48597    0.000
 5742.00    0.54246   0.48561    0.000
 5743.00    0.42054   0.48569    0.000
 5744.00    0.37199   0.48607    0.000
 5745.00    0.42140   0.48632    0.000
 5746.00    0.49036   0.48600    0.000
 5747.00    0.53918   0.48505    0.000
 5748.00    0.58183   0.48372    0.000
 5749.00    0.61446   0.48228    0.000
 5750.00    0.61953   0.48071    0.000
 5751.00    0.62506   0.47868    0.000
 5752.00    0.67808   0.47608    0.000
 5753.00    0.74594   0.47348    0.000
 5754.00    0.74790   0.47196    0.000
 5755.00    0.68013   0.47243    0.000
 5756.00    0.60484   0.47489    0.000
 5757.00    0.56401   0.47815    0.000
 5758.00    0.56005   0.48047    0.000
 5759.00    0.55767   0.48055    0.000
 5760.00    0.51698   0.47826    0.000
 5761.00    0.45523   0.47477    0.000
 5762.00    0.42640   0.47193    0.000
 5763.00    0.46150   0.47127    0.000
 5764.00    0.55802   0.47329    0.000
 5765.00    0.68217   0.47740    0.000
 5766.00    0.78518   0.48220    0.000
 5767.00    0.82984   0.48625    0.000
 5768.00    0.80179   0.48866    0.000
 5769.00    0.71971   0.48926    0.000
 5770.00    0.63004   0.48837    0.000
 5771.00    0.59438   0.48661    0.000
 5772.00    0.64224   0.48455    0.000
 5773.00    0.71205   0.48271    0.000
 5774.00    0.72509   0.48143    0.000
 5775.00    0.69173   0.48076    0.000
 5776.00    0.66223   0.48031    0.000
 5777.00    0.64764   0.47929    0.000
 5778.00    0.63019   0.47679    0.000
 5779.00    0.59008   0.47227    0.000
 5780.00    0.53687   0.46604    0.000
 5781.00    0.53482   0.45912    0.000
 5782.00    0.61229   0.45281    0.000
 5783.00    0.67255   0.44828    0.000
 5784.00    0.63264   0.44623    0.000
 5785.00    0.56397   0.44680    0.000
 5786.00    0.55858   0.44963    0.000
 5787.00    0.59341   0.45400    0.000
 5788.00    0.61579   0.45886    0.000
 5789.00    0.62938   0.46323    0.000
 5790.00    0.64361   0.46661    0.000
 5791.00    0.62792   0.46913    0.000
 5792.00    0.55918   0.47133    0.000
 5793.00    0.46307   0.47366    0.000
 5794.00    0.39949   0.47599    0.000
 5795.00    0.43709   0.47779    0.000
 5796.00    0.56559   0.47875    0.000
 5797.00    0.65304   0.47913    0.000
 5798.00    0.61454   0.47964    0.000
 5799.00    0.51862   0.48096    0.000
 5800.00    0.46632   0.48318    0.000
 5801.00    0.49925   0.48551    0.000
 5802.00    0.57137   0.48684    0.000
 5803.00    0.56214   0.48647    0.000
 5804.00    0.44865   0.48453    0.000
 5805.00    0.37232   0.48188    0.000
 5806.00    0.41154   0.47958    0.000
 5807.00    0.47744   0.47840    0.000
 5808.00    0.48647   0.47850    0.000
 5809.00    0.44934   0.47954    0.000
 5810.00    0.41737   0.48091    0.000
 5811.00    0.44206   0.48199    0.000
 5812.00    0.52736   0.48225    0.000
 5813.00    0.61642   0.48143    0.000
 5814.00    0.63769   0.47972    0.000
 5815.00    0.55247   0.47780   -2.000
 5816.00    0.46136   0.47659   -2.000
 5817.00    0.57839   0.47682   -2.000
 5818.00    0.93234   0.47864   -2.000
 5819.00    1.30444   0.48149   -2.000
 5820.00    1.48269   0.48440   -2.000
 5821.00    1.38052   0.48656   -2.000
 5822.00    1.08276   0.48763   -2.000
 5823.00    0.80107   0.48783   -2.000
 5824.00    0.66364   0.48760   -2.000
 5825.00    0.65683   0.48735   -2.000
 5826.00    0.68775   0.48730   -2.000
 5827.00    0.64491   0.48743   -2.000
 5828.00    0.51530   0.48766   -2.000
 5829.00    0.38640   0.48783   -2.000
 5830.00    0.33946   0.48780   -2.000
 5831.00    0.40231   0.48739   -2.000
 5832.00    0.51339   0.48655   -2.000
 5833.00    0.56824   0.48535   -2.000
 5834.00    0.56732   0.48404   -2.000
 5835.00    0.59086   0.48285    0.000
 5836.00    0.63475   0.48199    0.000
 5837.00    0.63335   0.48166    0.000
 5838.00    0.61498   0.48193    0.000
 5839.00    0.66370   0.48281    0.000
 5840.00    0.74793   0.48418    0.000
 5841.00    0.76424   0.48574    0.000
 5842.00    0.71583   0.48695    0.000
 5843.00    0.68212   0.48728    0.000
 5844.00    0.67755   0.48640    0.000
 5845.00    0.66809   0.48436    0.000
 5846.00    0.65930   0.48160    0.000
 5847.00    0.67495   0.47871    0.000
 5848.00    0.68782   0.47614    0.000
 5849.00    0.65372   0.47397    0.000
 5850.00    0.59145   0.47193    0.000
 5851.00    0.55735   0.46963    0.000
 5852.00    0.57958   0.46690    0.000
 5853.00    0.64613   0.46378    0.000
 5854.00    0.70583   0.46043    0.000
 5855.00    0.71125   0.45707    0.000
 5856.00    0.67976   0.45395    0.000
 5857.00    0.65877   0.45142    0.000
 5858.00    0.66413   0.45002    0.000
 5859.00    0.68452   0.45018    0.000
 5860.00    0.69915   0.45191    0.000
 5861.00    0.68462   0.45467    0.000
 5862.00    0.62257   0.45761    0.000
 5863.00    0.52558   0.46002    0.000
 5864.00    0.46145   0.46163    0.000
 5865.00    0.47710   0.46261    0.000
 5866.00    0.51572   0.46335    0.000
 5867.00    0.51046   0.46429    0.000
 5868.00    0.48973   0.46572    0.000
 5869.00    0.50060   0.46758    0.000
 5870.00    0.52278   0.46948    0.000
 5871.00    0.51380   0.47092    0.000
 5872.00    0.46275   0.47161    0.000
 5873.00    0.40209   0.47158    0.000
 5874.00    0.40589   0.47102    0.000
 5875.00    0.51282   0.47008    0.000
 5876.00    0.66584   0.46869    0.000
 5877.00    0.78476   0.46670    0.000
 5878.00    0.83160   0.46415    0.000
 5879.00    0.81051   0.46131    0.000
 5880.00    0.76052   0.45857    0.000
 5881.00    0.72714   0.45625    0.000
 5882.00    0.73778   0.45439    0.000
 5883.00    0.77829   0.45262    0.000
 5884.00    0.78778   0.45007    0.000
 5885.00    0.73147   0.44538    0.000
 5886.00    0.64193   0.43698    0.000
 5887.00    0.55844   0.42400    0.000
 5888.00    0.48881   0.40724    0.000
 5889.00    0.42762   0.38943    0.000
 5890.00    0.37384   0.37444    0.000
 5891.00    0.35972   0.36544    0.000
 5892.00    0.44778   0.36289    0.000
 5893.00    0.62466   0.36456    0.000
 5894.00    0.77144   0.36750    0.000
 5895.00    0.81426   0.37007    0.000
 5896.00    0.78425   0.37297    0.000
 5897.00    0.71564   0.37833    0.000
 5898.00    0.60618   0.38756    0.000
 5899.00    0.47811   0.40011    0.000
 5900.00    0.39151   0.41388    0.000
 5901.00    0.37325   0.42653   26.792
 5902.00    0.39741   0.43650   25.163
 5903.00    0.43874   0.44340   22.793
 5904.00    0.49087   0.44766   20.372
 5905.00    0.54633   0.45012   18.304
 5906.00    0.59124   0.45163   -1.000
 5907.00    0.61669   0.45285   -1.000
 5908.00    0.62432   0.45409   -1.000
 5909.00    0.63021   0.45531   -1.000
 5910.00    0.65405   0.45613   -1.000
 5911.00    0.67999   0.45611   -1.000
 5912.00    0.66483   0.45496   -1.000
 5913.00    0.60531   0.45276   -1.000
 5914.00    0.54300   0.45006   18.416
 5915.00    0.51351   0.44773   19.474
 5916.00    0.52531   0.44658   19.036
 5917.00    0.54631   0.44698   18.305
 5918.00    0.53263   0.44865   18.775
 5919.00    0.51315   0.45090   19.487
 5920.00    0.55894   0.45302   17.891
 5921.00    0.64903   0.45457   -1.000
 5922.00    0.69009   0.45553   -1.000
 5923.00    0.64723   0.45615   -1.000
 5924.00    0.55544   0.45666   18.004
 5925.00    0.47074   0.45705   21.243
 5926.00    0.44235   0.45708   22.607
 5927.00    0.47868   0.45646   20.891
 5928.00    0.54952   0.45521   18.198
 5929.00    0.60650   0.45371   -1.000
 5930.00    0.61280   0.45248   -1.000
 5931.00    0.59006   0.45188   -1.000
 5932.00    0.58147   0.45191   -1.000
 5933.00    0.56967   0.45226   17.554
 5934.00    0.51856   0.45267   19.284
 5935.00    0.46997   0.45314   21.278
 5936.00    0.49436   0.45387   20.228
 5937.00    0.58304   0.45488   -1.000
 5938.00    0.67414   0.45583   -1.000
 5939.00    0.72204   0.45627   -1.000
 5940.00    0.71514   0.45593   -1.000
 5941.00    0.68404   0.45505   -1.000
 5942.00    0.66947   0.45421   -1.000
 5943.00    0.67672   0.45399   -1.000
 5944.00    0.69549   0.45449   -1.000
 5945.00    0.73310   0.45530   -1.000
 5946.00    0.79065   0.45573   -1.000
 5947.00    0.82959   0.45531   -1.000
 5948.00    0.80694   0.45403   -1.000
 5949.00    0.72220   0.45231   -1.000
 5950.00    0.60909   0.45069   -1.000
 5951.00    0.51679   0.44952   19.350
 5952.00    0.47465   0.44880   21.068
 5953.00    0.46040   0.44840   21.720
 5954.00    0.45365   0.44817   22.043
 5955.00    0.48856   0.44804   20.468
 5956.00    0.59055   0.44806   -1.000
 5957.00    0.71378   0.44837   -1.000
 5958.00    0.78940   0.44927   -1.000
 5959.00    0.77768   0.45095   -1.000
 5960.00    0.68544   0.45329   -1.000
 5961.00    0.57278   0.45586   17.459
 5962.00    0.51015   0.45802   19.602
 5963.00    0.53780   0.45933   18.594
 5964.00    0.63510   0.45969   -1.000
 5965.00    0.71057   0.45942   -1.000
 5966.00    0.70089   0.45907   -1.000
 5967.00    0.63806   0.45914   -1.000
 5968.00    0.58380   0.45983   -1.000
 5969.00    0.57585   0.46100   17.366
 5970.00    0.60694   0.46227   -1.000
 5971.00    0.62237   0.46314   -1.000
 5972.00    0.58425   0.46316   -1.000
 5973.00    0.50759   0.46204   19.701
 5974.00    0.42314   0.45976   23.633
 5975.00    0.35381   0.45663   28.264
 5976.00    0.31851   0.45330   31.396
 5977.00    0.33354   0.45058   29.981
 5978.00    0.40418   0.44905   24.742
 5979.00    0.51503   0.44874   19.416
 5980.00    0.60606   0.44909   -1.000
 5981.00    0.58785   0.44919   -1.000
 5982.00    0.47540   0.44836   21.035
 5983.00    0.41234   0.44655   24.252
 5984.00    0.47436   0.44441   21.081
 5985.00    0.59846   0.44290   -1.000
 5986.00    0.68857   0.44274   -1.000
 5987.00    0.68188   0.44396   -1.000
 5988.00    0.61598   0.44607   -1.000
 5989.00    0.61230   0.44837   -1.000
 5990.00    0.70265   0.45036   -1.000
 5991.00    0.79642   0.45191   -1.000
 5992.00    0.82021   0.45313   -1.000
 5993.00    0.76499   0.45407   -1.000
 5994.00    0.65903   0.45458   -1.000
 5995.00    0.54992   0.45438   18.184
 5996.00    0.47990   0.45333   20.838
 5997.00    0.47032   0.45164   21.262
 5998.00    0.50111   0.44986   19.956
 5999.00    0.52485   0.44847   19.053
 6000.00    0.52801   0.44768   18.939
 6001.00    0.53256   0.44730   18.777
 6002.00    0.54712   0.44696   18.277
 6003.00    0.56623   0.44638   -1.000
 6004.00    0.60600   0.44539   -1.000
 6005.00    0.68630   0.44396   -1.000
 6006.00    0.76221   0.44221   -1.000
 6007.00    0.75626   0.44050   -1.000
 6008.00    0.67656   0.43939   -1.000
 6009.00    0.59657   0.43927   -1.000
 6010.00    0.54270   0.44009   18.427
 6011.00    0.49469   0.44125   20.215
 6012.00    0.44382   0.44203   22.532
 6013.00    0.40151   0.44206   24.906
 6014.00    0.38982   0.44146   25.653
 6015.00    0.42481   0.44061   23.540
 6016.00    0.48938   0.43980   20.434
 6017.00    0.54682   0.43909   18.288
 6018.00    0.57562   0.43839   -1.000
 6019.00    0.57548   0.43765   -1.000
 6020.00    0.56566   0.43697   -1.000
 6021.00    0.56825   0.43661   -1.000
 6022.00    0.58170   0.43687   -1.000
 6023.00    0.58846   0.43789   -1.000
 6024.00    0.57442   0.43964   -1.000
 6025.00    0.53761   0.44191   18.601
 6026.00    0.49593   0.44443   20.164
 6027.00    0.47630   0.44696   20.995
 6028.00    0.49682   0.44936   20.128
 6029.00    0.55099   0.45154   18.149
 6030.00    0.59295   0.45344   -1.000
 6031.00    0.58519   0.45506   -1.000
 6032.00    0.55822   0.45640   17.914
 6033.00    0.56142   0.45748   17.812
 6034.00    0.59637   0.45827   -1.000
 6035.00    0.63808   0.45874   -1.000
 6036.00    0.66889   0.45884   -1.000
 6037.00    0.68671   0.45855   -1.000
 6038.00    0.70742   0.45789   -1.000
 6039.00    0.73699   0.45699   -1.000
 6040.00    0.74573   0.45608   -1.000
 6041.00    0.70701   0.45546   -1.000
 6042.00    0.63542   0.45542   -1.000
 6043.00    0.56309   0.45602   17.759
 6044.00    0.51373   0.45712   19.465
 6045.00    0.49665   0.45841   20.135
 6046.00    0.50352   0.45956   19.860
 6047.00    0.51008   0.46035   19.605
 6048.00    0.48220   0.46073   20.738
 6049.00    0.41292   0.46071   24.218
 6050.00    0.34470   0.46026   29.011
 6051.00    0.31233   0.45934   32.017
 6052.00    0.30358   0.45786   -1.000
 6053.00    0.29918   0.45589   -1.000
 6054.00    0.30202   0.45364   -1.000
 6055.00    0.32551   0.45152   30.721
 6056.00    0.38248   0.44996   26.145
 6057.00    0.47227   0.44927   21.174
 6058.00    0.57364   0.44946   -1.000
 6059.00    0.64974   0.45018   -1.000
 6060.00    0.65872   0.45082   -1.000
 6061.00    0.59544   0.45074   -1.000
 6062.00    0.50659   0.44959   19.740
 6063.00    0.44112   0.44751   22.670
 6064.00    0.42115   0.44522   23.744
 6065.00    0.43782   0.44372   22.840
 6066.00    0.45952   0.44387   21.762
 6067.00    0.47883   0.44596   20.884
 6068.00    0.52187   0.44950   19.162
 6069.00    0.58284   0.45357   -1.000
 6070.00    0.61071   0.45725   -1.000
 6071.00    0.58832   0.45997   -1.000
 6072.00    0.55539   0.46156   18.005
 6073.00    0.55409   0.46209   18.047
 6074.00    0.59908   0.46160   -1.000
 6075.00    0.65501   0.46011   -1.000
 6076.00    0.65280   0.45768   -1.000
 6077.00    0.58090   0.45451   -1.000
 6078.00    0.50002   0.45098   19.999
 6079.00    0.47147   0.44757   21.210
 6080.00    0.52112   0.44466   19.189
 6081.00    0.60991   0.44244   -1.000
 6082.00    0.65554   0.44096   -1.000
 6083.00    0.63028   0.44017   -1.000
 6084.00    0.57389   0.43995   -1.000
 6085.00    0.53570   0.44018   18.667
 6086.00    0.54530   0.44062   18.338
 6087.00    0.58280   0.44100   -1.000
 6088.00    0.59801   0.44105   -1.000
 6089.00    0.58330   0.44063   -1.000
 6090.00    0.56815   0.43988   -1.000
 6091.00    0.55448   0.43918   18.035
 6092.00    0.52082   0.43900   19.201
 6093.00    0.47298   0.43964   21.143
 6094.00    0.44233   0.44105   22.608
 6095.00    0.45270   0.44286   22.090
 6096.00    0.50912   0.44455   19.642
 6097.00    0.59118   0.44564   -1.000
 6098.00    0.66157   0.44574   -1.000
 6099.00    0.68689   0.44455   -1.000
 6100.00    0.65788   0.44188   -1.000
 6101.00    0.61767   0.43799   -1.000
 6102.00    0.61825   0.43373   -1.000
 6103.00    0.63274   0.43045   -1.000
 6104.00    0.59764   0.42928   -1.000
 6105.00    0.51426   0.43052   19.445
 6106.00    0.43531   0.43349   22.972
 6107.00    0.41150   0.43702   24.301
 6108.00    0.46223   0.44016   21.634
 6109.00    0.54603   0.44249   18.314
 6110.00    0.60440   0.44406   -1.000
 6111.00    0.63266   0.44515   -1.000
 6112.00    0.66055   0.44598   -1.000
 6113.00    0.70884   0.44665   -1.000
 6114.00    0.77103   0.44706   -1.000
 6115.00    0.79995   0.44699   -1.000
 6116.00    0.75439   0.44621   -1.000
 6117.00    0.65876   0.44453   -1.000
 6118.00    0.57750   0.44185   -1.000
 6119.00    0.57139   0.43823   -1.000
 6120.00    0.64433   0.43400   -1.000
 6121.00    0.69740   0.42991   -1.000
 6122.00    0.64348   0.42694   -1.000
 6123.00    0.53038   0.42587   18.854
 6124.00    0.45356   0.42676   22.048
 6125.00    0.45199   0.42893   22.124
 6126.00    0.50670   0.43140   19.735
 6127.00    0.55513   0.43349   -1.000
 6128.00    0.54993   0.43510   18.184
 6129.00    0.50914   0.43648   19.641
 6130.00    0.47904   0.43783   20.875
 6131.00    0.49471   0.43888   20.214
 6132.00    0.55822   0.43889   -1.000
 6133.00    0.62868   0.43697   -1.000
 6134.00    0.67296   0.43266   -1.000
 6135.00    0.70172   0.42636   -1.000
 6136.00    0.72680   0.41953   -1.000
 6137.00    0.73094   0.41418   -1.000
 6138.00    0.69879   0.41196   -1.000
 6139.00    0.63937   0.41330   -1.000
 6140.00    0.57542   0.41734   -1.000
 6141.00    0.53174   0.42256   18.806
 6142.00    0.51353   0.42770   19.473
 6143.00    0.49965   0.43217   20.014
 6144.00    0.48609   0.43579   20.572
 6145.00    0.50323   0.43840   19.872
 6146.00    0.55675   0.43974   -1.000
 6147.00    0.60395   0.43965   -1.000
 6148.00    0.61660   0.43835   -1.000
 6149.00    0.60980   0.43642   -1.000
 6150.00    0.60400   0.43457   -1.000
 6151.00    0.60337   0.43329   -1.000
 6152.00    0.59226   0.43262   -1.000
 6153.00    0.54482   0.43226   -1.000
 6154.00    0.47447   0.43180   21.076
 6155.00    0.43960   0.43092   22.748
 6156.00    0.46543   0.42941   21.486
 6157.00    0.52344   0.42699   19.104
 6158.00    0.59332   0.42321   -1.000
 6159.00    0.68106   0.41767   -1.000
 6160.00    0.78356   0.41045   -1.000
 6161.00    0.87422   0.40252   -1.000
 6162.00    0.90424   0.39559   -1.000
 6163.00    0.82395   0.39140   -1.000
 6164.00    0.65317   0.39079   -1.000
 6165.00    0.47882   0.39325   20.885
 6166.00    0.36214   0.39715   27.614
 6167.00    0.31740   0.40069   31.506
 6168.00    0.34715   0.40279   28.806
 6169.00    0.44101   0.40356   22.675
 6170.00    0.53864   0.40397   -1.000
 6171.00    0.55696   0.40507   -1.000
 6172.00    0.49771   0.40734   20.092
 6173.00    0.44117   0.41045   22.667
 6174.00    0.44422   0.41365   22.511
 6175.00    0.51196   0.41635   19.533
 6176.00    0.60004   0.41837   -1.000
 6177.00    0.64498   0.41991   -1.000
 6178.00    0.63383   0.42127   -1.000
 6179.00    0.60305   0.42266   -1.000
 6180.00    0.59541   0.42409   -1.000
 6181.00    0.63223   0.42543   -1.000
 6182.00    0.67736   0.42646   -1.000
 6183.00    0.66931   0.42688   -1.000
 6184.00    0.60223   0.42642   -1.000
 6185.00    0.51571   0.42489   19.391
 6186.00    0.44156   0.42231   22.647
 6187.00    0.39590   0.41888   25.259
 6188.00    0.38413   0.41492   26.033
 6189.00    0.39943   0.41086   25.035
 6190.00    0.41925   0.40726   23.852
 6191.00    0.41895   0.40482   23.869
 6192.00    0.39542   0.40424   25.289
 6193.00    0.36859   0.40582   27.130
 6194.00    0.37585   0.40920   26.607
 6195.00    0.44255   0.41335   22.596
 6196.00    0.54140   0.41702   -1.000
 6197.00    0.62261   0.41929   -1.000
 6198.00    0.66467   0.41989   -1.000
 6199.00    0.66826   0.41929   -1.000
 6200.00    0.63833   0.41843   -1.000
 6201.00    0.58214   0.41821   -1.000
 6202.00    0.50997   0.41905   19.609
 6203.00    0.43609   0.42076   22.931
 6204.00    0.37891   0.42277   26.392
 6205.00    0.35028   0.42452   28.548
 6206.00    0.34433   0.42564   29.042
 6207.00    0.35416   0.42602   28.236
 6208.00    0.38965   0.42559   25.664
 6209.00    0.45726   0.42426   21.869
 6210.00    0.53786   0.42188   -1.000
 6211.00    0.59370   0.41835   -1.000
 6212.00    0.58170   0.41380   -1.000
 6213.00    0.49593   0.40871   20.164
 6214.00    0.39937   0.40385   25.039
 6215.00    0.35552   0.40002   28.128
 6216.00    0.36751   0.39774   27.210
 6217.00    0.40012   0.39696   24.993
 6218.00    0.40786   0.39721   24.518
 6219.00    0.38159   0.39791   26.206
 6220.00    0.37603   0.39877   26.593
 6221.00    0.44510   0.39976   -2.000
 6222.00    0.59308   0.40100   -2.000
 6223.00    0.79201   0.40246   -2.000
 6224.00    0.99386   0.40391   -2.000
 6225.00    1.11158   0.40499   -2.000
 6226.00    1.02877   0.40528   -2.000
 6227.00    0.74906   0.40443   -2.000
 6228.00    0.46017   0.40230   -2.000
 6229.00    0.32289   0.39913   -2.000
 6230.00    0.34931   0.39573   -2.000
 6231.00    0.47437   0.39327   -2.000
 6232.00    0.61017   0.39280   -2.000
 6233.00    0.69341   0.39470   -1.000
 6234.00    0.70719   0.39837   -1.000
 6235.00    0.66241   0.40252   -1.000
 6236.00    0.58588   0.40569   -1.000
 6237.00    0.51445   0.40691   -1.000
 6238.00    0.48522   0.40600   20.609
 6239.00    0.50399   0.40348   -1.000
 6240.00    0.53945   0.40018   -1.000
 6241.00    0.56309   0.39689   -1.000
 6242.00    0.56892   0.39409   -1.000
 6243.00    0.57846   0.39207   -1.000
 6244.00    0.62540   0.39104   -1.000
 6245.00    0.68895   0.39116   -1.000
 6246.00    0.69633   0.39249   -1.000
 6247.00    0.63082   0.39479   -1.000
 6248.00    0.54867   0.39740   -1.000
 6249.00    0.49069   0.39944   20.380
 6250.00    0.45989   0.40006   21.744
 6251.00    0.45696   0.39887   21.884
 6252.00    0.48586   0.39608   20.582
 6253.00    0.53247   0.39238   -1.000
 6254.00    0.56827   0.38856   -1.000
 6255.00    0.58208   0.38524   -1.000
 6256.00    0.58254   0.38274   -1.000
 6257.00    0.57713   0.38130   -1.000
 6258.00    0.56717   0.38121   -1.000
 6259.00    0.55130   0.38275   -1.000
 6260.00    0.52778   0.38595   -1.000
 6261.00    0.49760   0.39037   -1.000
 6262.00    0.47128   0.39515   21.219
 6263.00    0.48196   0.39937   20.748
 6264.00    0.55831   0.40238   -1.000
 6265.00    0.65719   0.40406   -1.000
 6266.00    0.69217   0.40472   -1.000
 6267.00    0.62860   0.40488   -1.000
 6268.00    0.49214   0.40493   20.319
 6269.00    0.34093   0.40511   29.331
 6270.00    0.23868   0.40551   -1.000
 6271.00    0.21446   0.40616   -1.000
 6272.00    0.25759   0.40705   -1.000
 6273.00    0.32462   0.40804   30.805
 6274.00    0.36686   0.40891   27.258
 6275.00    0.37530   0.40942   26.645
 6276.00    0.36684   0.40940   27.260
 6277.00    0.34881   0.40874   28.669
 6278.00    0.32302   0.40751   30.958
 6279.00    0.30124   0.40592   33.196
 6280.00    0.30278   0.40439    0.000
 6281.00    0.34640   0.40343    0.000
 6282.00    0.43780   0.40344    0.000
 6283.00    0.55466   0.40452    0.000
 6284.00    0.66136   0.40648    0.000
 6285.00    0.73251   0.40892    0.000
 6286.00    0.76253   0.41139    0.000
 6287.00    0.77234   0.41355    0.000
 6288.00    0.78309   0.41507    0.000
 6289.00    0.78486   0.41571    0.000
 6290.00    0.75978   0.41538    0.000
 6291.00    0.71211   0.41420    0.000
 6292.00    0.66140   0.41247    0.000
 6293.00    0.62984   0.41052    0.000
 6294.00    0.62664   0.40853    0.000
 6295.00    0.63548   0.40651    0.000
 6296.00    0.63953   0.40442    0.000
 6297.00    0.64517   0.40233    0.000
 6298.00    0.65836   0.40040    0.000
 6299.00    0.66282   0.39879    0.000
 6300.00    0.64236   0.39761    0.000
 6301.00    0.60132   0.39695    0.000
 6302.00    0.55397   0.39694    0.000
 6303.00    0.51408   0.39778    0.000
 6304.00    0.49464   0.39956    0.000
 6305.00    0.50675   0.40215    0.000
 6306.00    0.54810   0.40515    0.000
 6307.00    0.59697   0.40801    0.000
 6308.00    0.63363   0.41015    0.000
 6309.00    0.65368   0.41114    0.000
 6310.00    0.65023   0.41084    0.000
 6311.00    0.60618   0.40939    0.000
 6312.00    0.52807   0.40716    0.000
 6313.00    0.46033   0.40454    0.000
 6314.00    0.43431   0.40180    0.000
 6315.00    0.44075   0.39913    0.000
 6316.00    0.45800   0.39672    0.000
 6317.00    0.47078   0.39483    0.000
 6318.00    0.47649   0.39378    0.000
 6319.00    0.48587   0.39383    0.000
 6320.00    0.51050   0.39508    0.000
 6321.00    0.55299   0.39734   -1.000
 6322.00    0.59269   0.40024   -1.000
 6323.00    0.59252   0.40332   -1.000
 6324.00    0.56250   0.40620   -1.000
 6325.00    0.56633   0.40862   -1.000
 6326.00    0.61765   0.41042   -1.000
 6327.00    0.65689   0.41159   -1.000
 6328.00    0.65219   0.41222   -1.000
 6329.00    0.62888   0.41243   -1.000
 6330.00    0.61227   0.41234   -1.000
 6331.00    0.60662   0.41193   -1.000
 6332.00    0.60628   0.41103   -1.000
 6333.00    0.60366   0.40941   -1.000
 6334.00    0.60079   0.40700   -1.000
 6335.00    0.60573   0.40406   -1.000
 6336.00    0.60705   0.40128   -1.000
 6337.00    0.58104   0.39941   -1.000
 6338.00    0.54137   0.39892   -1.000
 6339.00    0.53145   0.39969   -1.000
 6340.00    0.55356   0.40110   -1.000
 6341.00    0.56698   0.40231   -1.000
 6342.00    0.54583   0.40279   -1.000
 6343.00    0.49225   0.40246   20.315
 6344.00    0.42514   0.40177   23.521
 6345.00    0.37204   0.40136   26.879
 6346.00    0.35689   0.40172   28.020
 6347.00    0.38938   0.40298   25.682
 6348.00    0.44788   0.40485   22.327
 6349.00    0.49570   0.40687   20.174
 6350.00    0.52678   0.40850   -1.000
 6351.00    0.55759   0.40933   -1.000
 6352.00    0.58641   0.40910   -1.000
 6353.00    0.59764   0.40778   -1.000
 6354.00    0.58935   0.40553   -1.000
 6355.00    0.57313   0.40266   -1.000
 6356.00    0.56226   0.39944   -1.000
 6357.00    0.56160   0.39608   -1.000
 6358.00    0.55459   0.39268   -1.000
 6359.00    0.52451   0.38939   -1.000
 6360.00    0.49432   0.38644   -1.000
 6361.00    0.49900   0.38420   -1.000
 6362.00    0.52906   0.38306   -1.000
 6363.00    0.55130   0.38331   -1.000
 6364.00    0.55600   0.38502   -1.000
 6365.00    0.55040   0.38800   -1.000
 6366.00    0.53806   0.39182   -1.000
 6367.00    0.51995   0.39587   -1.000
 6368.00    0.50033   0.39965   19.987
 6369.00    0.48386   0.40281   20.667
 6370.00    0.47061   0.40532   21.249
 6371.00    0.45497   0.40734   21.979
 6372.00    0.42634   0.40908   23.455
 6373.00    0.38680   0.41058   25.853
 6374.00    0.36929   0.41172   27.079
 6375.00    0.39604   0.41228   25.250
 6376.00    0.43256   0.41212   23.118
 6377.00    0.44254   0.41124   22.597
 6378.00    0.44875   0.40986   22.284
 6379.00    0.47709   0.40830   20.960
 6380.00    0.49668   0.40695   20.134
 6381.00    0.47516   0.40608   21.046
 6382.00    0.43520   0.40576   22.978
 6383.00    0.41370   0.40593   24.172
 6384.00    0.41976   0.40645   23.823
 6385.00    0.44583   0.40718   22.430
 6386.00    0.48172   0.40800   20.759
 6387.00    0.52125   0.40876   -1.000
 6388.00    0.56480   0.40921   -1.000
 6389.00    0.59994   0.40903   -1.000
 6390.00    0.59183   0.40796   -1.000
 6391.00    0.53260   0.40599   -1.000
 6392.00    0.47116   0.40348   21.224
 6393.00    0.44964   0.40109   22.240
 6394.00    0.45971   0.39956   21.753
 6395.00    0.47192   0.39923   21.190
 6396.00    0.46145   0.39982   21.671
 6397.00    0.43312   0.40052   23.088
 6398.00    0.42779   0.40063   23.376
 6399.00    0.46731   0.40001   21.399
 6400.00    0.52575   0.39925   -1.000
 6401.00    0.56412   0.39924   -1.000
 6402.00    0.55498   0.40047   -1.000
 6403.00    0.49889   0.40267   20.045
 6404.00    0.42706   0.40497   23.416
 6405.00    0.37102   0.40641   26.952
 6406.00    0.34582   0.40653   28.917
 6407.00    0.34813   0.40546   28.725
 6408.00    0.36207   0.40379   27.619
 6409.00    0.38790   0.40215   25.780
 6410.00    0.44357   0.40092   22.544
 6411.00    0.51146   0.40024   -1.000
 6412.00    0.53349   0.40008   -1.000
 6413.00    0.49098   0.40038   20.367
 6414.00    0.42403   0.40101   23.583
 6415.00    0.37109   0.40175   26.948
 6416.00    0.34840   0.40223   28.703
 6417.00    0.36666   0.40211   27.273
 6418.00    0.43250   0.40123   23.121
 6419.00    0.52964   0.39981   -1.000
 6420.00    0.61741   0.39845   -1.000
 6421.00    0.64926   0.39789   -1.000
 6422.00    0.59391   0.39866   -1.000
 6423.00    0.48028   0.40076   20.821
 6424.00    0.38680   0.40366   25.853
 6425.00    0.36667   0.40655   27.272
 6426.00    0.42319   0.40865   23.630
 6427.00    0.50807   0.40942   19.682
 6428.00    0.55034   0.40869   -1.000
 6429.00    0.53340   0.40669   -1.000
 6430.00    0.49267   0.40401   20.298
 6431.00    0.45548   0.40154   21.955
 6432.00    0.43051   0.40008   23.228
 6433.00    0.42148   0.39999   23.726
 6434.00    0.42987   0.40094   23.263
 6435.00    0.45321   0.40215   22.065
 6436.00    0.48927   0.40280   20.439
 6437.00    0.54556   0.40253   -1.000
 6438.00    0.62326   0.40166   -1.000
 6439.00    0.68165   0.40099   -1.000
 6440.00    0.67081   0.40136   -1.000
 6441.00    0.60803   0.40311   -1.000
 6442.00    0.55142   0.40594   -1.000
 6443.00    0.52327   0.40903   -1.000
 6444.00    0.51380   0.41146   19.463
 6445.00    0.51339   0.41244   19.478
 6446.00    0.51495   0.41153   -1.000
 6447.00    0.50851   0.40863   19.665
 6448.00    0.48650   0.40415   20.555
 6449.00    0.45327   0.39904   22.062
 6450.00    0.42497   0.39461   23.531
 6451.00    0.42623   0.39200   23.461
 6452.00    0.47214   0.39165   21.180
 6453.00    0.54464   0.39312   -1.000
 6454.00    0.60842   0.39547   -1.000
 6455.00    0.63742   0.39785   -1.000
 6456.00    0.62520   0.39988   -1.000
 6457.00    0.59171   0.40159   -1.000
 6458.00    0.55512   0.40298   -1.000
 6459.00    0.49954   0.40379   20.018
 6460.00    0.41437   0.40357   24.133
 6461.00    0.34051   0.40216   29.368
 6462.00    0.32341   0.39998   30.921
 6463.00    0.35794   0.39797   27.938
 6464.00    0.40998   0.39712   24.391
 6465.00    0.44656   0.39783   22.393
 6466.00    0.45554   0.39979   21.952
 6467.00    0.45842   0.40210   21.814
 6468.00    0.47106   0.40388   21.229
 6469.00    0.47043   0.40463   21.257
 6470.00    0.44066   0.40441   22.693
 6471.00    0.41265   0.40364   24.233
 6472.00    0.42646   0.40285   23.449
 6473.00    0.49599   0.40237   20.162
 6474.00    0.60420   0.40230   -1.000
 6475.00    0.70523   0.40252   -1.000
 6476.00    0.75657   0.40281   -1.000
 6477.00    0.74314   0.40296   -1.000
 6478.00    0.67354   0.40270   -1.000
 6479.00    0.57390   0.40180   -1.000
 6480.00    0.47244   0.40016   21.167
 6481.00    0.38896   0.39798   25.710
 6482.00    0.33357   0.39577   29.979
 6483.00    0.30818   0.39420   32.448
 6484.00    0.31810   0.39373   31.436
 6485.00    0.37345   0.39439   26.778
 6486.00    0.45589   0.39575   21.935
 6487.00    0.50953   0.39707   -1.000
 6488.00    0.49927   0.39759   -1.000
 6489.00    0.43932   0.39669   22.762
 6490.00    0.36895   0.39398   27.104
 6491.00    0.33129   0.38934   30.185
 6492.00    0.33708   0.38295   29.666
 6493.00    0.35804   0.37539   27.930
 6494.00    0.37983   0.36769   26.327
 6495.00    0.41969   0.36114   23.827
 6496.00    0.49103   0.35697   -1.000
 6497.00    0.58762   0.35587   -1.000
 6498.00    0.68674   0.35782   -1.000
 6499.00    0.75442   0.36218   -1.000
 6500.00    0.75944   0.36798   -1.000
 6501.00    0.68403   0.37427   -1.000
 6502.00    0.54174   0.38033   -1.000
 6503.00    0.37930   0.38564   26.364
 6504.00    0.25903   0.38996   -1.000
 6505.00    0.23339   0.39316   -1.000
 6506.00    0.28350   0.39528   35.273
 6507.00    0.33020   0.39647   30.285
 6508.00    0.33483   0.39699   29.865
 6509.00    0.31708   0.39712   31.538
 6510.00    0.30731   0.39713   32.541
 6511.00    0.32604   0.39710   30.671
 6512.00    0.36946   0.39692   27.066
 6513.00    0.41705   0.39639   23.978
 6514.00    0.46291   0.39535   21.602
 6515.00    0.51466   0.39379   -1.000
 6516.00    0.56826   0.39196   -1.000
 6517.00    0.60333   0.39028   -1.000
 6518.00    0.58898   0.38920   -1.000
 6519.00    0.50867   0.38906   -1.000
 6520.00    0.41186   0.38988   24.280
 6521.00    0.37843   0.39142   26.425
 6522.00    0.41641   0.39317   24.015
 6523.00    0.47233   0.39464   21.171
 6524.00    0.49979   0.39546   -1.000
 6525.00    0.47825   0.39551   20.910
 6526.00    0.42039   0.39494   23.787
 6527.00    0.36229   0.39406   27.602
 6528.00    0.34185   0.39318    0.000
 6529.00    0.37918   0.39249    0.000
 6530.00    0.45062   0.39200    0.000
 6531.00    0.51223   0.39160    0.000
 6532.00    0.54618   0.39127    0.000
 6533.00    0.55761   0.39107    0.000
 6534.00    0.55678   0.39118    0.000
 6535.00    0.54671   0.39167    0.000
 6536.00    0.51060   0.39249    0.000
 6537.00    0.44149   0.39344    0.000
 6538.00    0.38391   0.39426    0.000
 6539.00    0.38771   0.39473    0.000
 6540.00    0.43986   0.39462    0.000
 6541.00    0.49745   0.39377    0.000
 6542.00    0.54162   0.39205    0.000
 6543.00    0.57427   0.38953    0.000
 6544.00    0.60521   0.38646    0.000
 6545.00    0.64005   0.38328    0.000
 6546.00    0.66856   0.38047    0.000
 6547.00    0.67289   0.37841    0.000
 6548.00    0.63925   0.37719    0.000
 6549.00    0.57320   0.37654    0.000
 6550.00    0.51140   0.37595    0.000
 6551.00    0.48793   0.37488    0.000
 6552.00    0.50176   0.37301    0.000
 6553.00    0.53587   0.37032    0.000
 6554.00    0.58132   0.36707    0.000
 6555.00    0.66793   0.36354    0.000
 6556.00    0.88088   0.35988    0.000
 6557.00    1.27900   0.35581    0.000
 6558.00    1.82592   0.35070    0.000
 6559.00    2.40273   0.34378    0.000
 6560.00    2.83335   0.33473    0.000
 6561.00    2.97344   0.32426    0.000
 6562.00    2.77769   0.31430    0.000
 6563.00    2.30261   0.30750    0.000
 6564.00    1.69591   0.30609    0.000
 6565.00    1.12436   0.31070    0.000
 6566.00    0.71660   0.32000    0.000
 6567.00    0.51399   0.33136    0.000
 6568.00    0.45343   0.34201    0.000
 6569.00    0.44911   0.35018    0.000
 6570.00    0.44588   0.35540    0.000
 6571.00    0.42911   0.35817    0.000
 6572.00    0.42029   0.35942    0.000
 6573.00    0.42948   0.36011    0.000
 6574.00    0.43732   0.36104    0.000
 6575.00    0.44109   0.36270    0.000
 6576.00    0.47122   0.36523    0.000
 6577.00    0.54892   0.36836    0.000
 6578.00    0.66663   0.37154    0.000
 6579.00    0.79963   0.37418    0.000
 6580.00    0.91624   0.37599    0.000
 6581.00    0.99642   0.37703    0.000
 6582.00    1.03742   0.37763    0.000
 6583.00    1.04237   0.37817    0.000
 6584.00    1.01471   0.37885    0.000
 6585.00    0.95601   0.37971    0.000
 6586.00    0.86479   0.38065    0.000
 6587.00    0.73560   0.38148    0.000
 6588.00    0.56816   0.38195    0.000
 6589.00    0.40049   0.38171    0.000
 6590.00    0.29918   0.38047    0.000
 6591.00    0.28717   0.37816    0.000
 6592.00    0.33319   0.37512    0.000
 6593.00    0.39816   0.37212    0.000
 6594.00    0.45117   0.37001    0.000
 6595.00    0.47066   0.36937    0.000
 6596.00    0.44858   0.37023    0.000
 6597.00    0.40104   0.37217    0.000
 6598.00    0.36018   0.37462    0.000
 6599.00    0.34435   0.37711    0.000
 6600.00    0.35182   0.37936    0.000
 6601.00    0.36673   0.38115    0.000
 6602.00    0.37096   0.38228    0.000
 6603.00    0.36799   0.38253    0.000
 6604.00    0.37044   0.38184    0.000
 6605.00    0.35907   0.38032    0.000
 6606.00    0.30615   0.37833    0.000
 6607.00    0.24544   0.37631    0.000
 6608.00    0.23916   0.37476    0.000
 6609.00    0.27926   0.37406   35.808
 6610.00    0.31118   0.37440   32.136
 6611.00    0.32060   0.37569   31.192
 6612.00    0.32785   0.37759   30.502
 6613.00    0.34519   0.37968   28.970
 6614.00    0.37512   0.38160   26.658
 6615.00    0.42141   0.38315   23.730
 6616.00    0.47797   0.38433   20.922
 6617.00    0.50900   0.38517   -1.000
 6618.00    0.48275   0.38574   20.715
 6619.00    0.42835   0.38602   23.345
 6620.00    0.40124   0.38594   24.923
 6621.00    0.41818   0.38538   23.913
 6622.00    0.46320   0.38426   21.589
 6623.00    0.51063   0.38265   -1.000
 6624.00    0.53784   0.38080   -1.000
 6625.00    0.53786   0.37908   -1.000
 6626.00    0.51615   0.37779   -1.000
 6627.00    0.48401   0.37701   -1.000
 6628.00    0.45451   0.37655   22.002
 6629.00    0.43799   0.37605   22.832
 6630.00    0.43617   0.37517   22.927
 6631.00    0.43703   0.37382   22.882
 6632.00    0.42997   0.37216   23.257
 6633.00    0.42172   0.37060   23.712
 6634.00    0.42025   0.36964   23.796
 6635.00    0.41754   0.36959   23.950
 6636.00    0.40514   0.37046   24.683
 6637.00    0.38980   0.37192   25.654
 6638.00    0.37970   0.37348   26.337
 6639.00    0.37076   0.37466   26.972
 6640.00    0.35400   0.37522   28.248
 6641.00    0.32374   0.37513   30.889
 6642.00    0.28301   0.37458   35.335
 6643.00    0.24683   0.37385   -1.000
 6644.00    0.23483   0.37325   -1.000
 6645.00    0.26312   0.37301   38.006
 6646.00    0.32911   0.37320   30.385
 6647.00    0.40391   0.37374   24.758
 6648.00    0.45949   0.37441   21.763
 6649.00    0.48825   0.37502   -1.000
 6650.00    0.49810   0.37542   -1.000
 6651.00    0.50561   0.37555   -1.000
 6652.00    0.51953   0.37544   -1.000
 6653.00    0.53129   0.37522   -1.000
 6654.00    0.52261   0.37496   -1.000
 6655.00    0.47458   0.37471   -1.000
 6656.00    0.39099   0.37446   25.576
 6657.00    0.30586   0.37411   32.694
 6658.00    0.25066   0.37354   -1.000
 6659.00    0.23510   0.37262   -1.000
 6660.00    0.24578   0.37126   -1.000
 6661.00    0.25466   0.36951   39.269
 6662.00    0.26158   0.36756   38.229
 6663.00    0.30255   0.36573   33.053
 6664.00    0.38770   0.36437   25.793
 6665.00    0.47944   0.36376   -1.000
 6666.00    0.52869   0.36399   -1.000
 6667.00    0.50099   0.36498   -1.000
 6668.00    0.41270   0.36654   24.231
 6669.00    0.32976   0.36842   30.325
 6670.00    0.30163   0.37034   33.153
 6671.00    0.33540   0.37202   29.815
 6672.00    0.40180   0.37320   24.888
 6673.00    0.45054   0.37362   22.196
 6674.00    0.45471   0.37312   21.992
 6675.00    0.42156   0.37166   23.721
 6676.00    0.37360   0.36941   26.766
 6677.00    0.33760   0.36680   29.621
 6678.00    0.33183   0.36445   30.136
 6679.00    0.35786   0.36296   27.944
 6680.00    0.38929   0.36269   25.687
 6681.00    0.38933   0.36359   25.685
 6682.00    0.36884   0.36526   27.112
 6683.00    0.37802   0.36720   26.453
 6684.00    0.43735   0.36894   22.865
 6685.00    0.52431   0.37020   -1.000
 6686.00    0.59041   0.37096   -1.000
 6687.00    0.59218   0.37133   -1.000
 6688.00    0.55273   0.37145   -1.000
 6689.00    0.53307   0.37145   -1.000
 6690.00    0.53192   0.37136   -1.000
 6691.00    0.50340   0.37114   -1.000
 6692.00    0.44620   0.37067   22.411
 6693.00    0.39717   0.36982   25.178
 6694.00    0.37641   0.36855   26.567
 6695.00    0.38384   0.36700   26.053
 6696.00    0.41542   0.36544    0.000
 6697.00    0.46269   0.36426    0.000
 6698.00    0.50593   0.36373    0.000
 6699.00    0.52225   0.36391    0.000
 6700.00    0.50204   0.36458    0.000
 6701.00    0.45349   0.36536    0.000
 6702.00    0.40433   0.36587    0.000
 6703.00    0.38523   0.36595    0.000
 6704.00    0.40346   0.36567    0.000
 6705.00    0.44746   0.36527    0.000
 6706.00    0.50035   0.36500    0.000
 6707.00    0.54411   0.36492    0.000
 6708.00    0.56389   0.36493    0.000
 6709.00    0.57016   0.36485    0.000
 6710.00    0.62335   0.36445    0.000
 6711.00    0.76866   0.36361    0.000
 6712.00    0.95260   0.36228    0.000
 6713.00    1.09195   0.36049    0.000
 6714.00    1.16821   0.35834    0.000
 6715.00    1.19413   0.35605    0.000
 6716.00    1.16380   0.35396    0.000
 6717.00    1.07504   0.35249    0.000
 6718.00    0.95803   0.35197    0.000
 6719.00    0.84869   0.35253    0.000
 6720.00    0.75837   0.35398    0.000
 6721.00    0.68221   0.35592    0.000
 6722.00    0.61219   0.35789    0.000
 6723.00    0.55631   0.35953    0.000
 6724.00    0.55182   0.36065    0.000
 6725.00    0.62696   0.36128    0.000
 6726.00    0.76723   0.36163    0.000
 6727.00    0.92992   0.36190    0.000
 6728.00    1.06123   0.36222    0.000
 6729.00    1.11869   0.36265    0.000
 6730.00    1.08751   0.36312    0.000
 6731.00    0.97530   0.36352    0.000
 6732.00    0.80657   0.36370    0.000
 6733.00    0.61786   0.36358    0.000
 6734.00    0.45212   0.36319    0.000
 6735.00    0.34232   0.36260    0.000
 6736.00    0.29937   0.36184    0.000
 6737.00    0.30721   0.36095    0.000
 6738.00    0.32541   0.35998    0.000
 6739.00    0.32376   0.35900    0.000
 6740.00    0.30210   0.35813    0.000
 6741.00    0.27880   0.35744    0.000
 6742.00    0.27911   0.35696    0.000
 6743.00    0.31203   0.35666    0.000
 6744.00    0.36358   0.35646    0.000
 6745.00    0.42900   0.35624    0.000
 6746.00    0.51853   0.35591    0.000
 6747.00    0.60035   0.35546    0.000
 6748.00    0.59731   0.35490    0.000
 6749.00    0.50697   0.35428    0.000
 6750.00    0.42632   0.35373    0.000
 6751.00    0.40534   0.35342    0.000
 6752.00    0.40481   0.35347    0.000
 6753.00    0.40298   0.35397   24.815
 6754.00    0.42169   0.35492   23.714
 6755.00    0.44358   0.35627   22.544
 6756.00    0.40724   0.35791   24.556
 6757.00    0.31667   0.35967   31.579
 6758.00    0.25273   0.36139   39.567
 6759.00    0.26184   0.36284   38.191
 6760.00    0.32795   0.36386   30.492
 6761.00    0.41845   0.36437   23.898
 6762.00    0.50454   0.36434   -1.000
 6763.00    0.57319   0.36380   -1.000
 6764.00    0.62406   0.36282   -1.000
 6765.00    0.64903   0.36148   -1.000
 6766.00    0.63443   0.35993   -1.000
 6767.00    0.58557   0.35835   -1.000
 6768.00    0.52592   0.35697   -1.000
 6769.00    0.47505   0.35601   -1.000
 6770.00    0.43973   0.35564   22.741
 6771.00    0.40776   0.35593   24.524
 6772.00    0.36191   0.35685   27.631
 6773.00    0.31682   0.35826   31.563
 6774.00    0.30971   0.35994   32.288
 6775.00    0.35779   0.36169   27.950
 6776.00    0.44546   0.36328   22.449
 6777.00    0.51994   0.36444   -1.000
 6778.00    0.53085   0.36498   -1.000
 6779.00    0.51137   0.36479   -1.000
 6780.00    0.54340   0.36380   -1.000
 6781.00    0.65573   0.36207   -1.000
 6782.00    0.80877   0.35975   -1.000
 6783.00    0.90705   0.35717   -1.000
 6784.00    0.85260   0.35479   -1.000
 6785.00    0.63410   0.35308   -1.000
 6786.00    0.32935   0.35234   30.363
 6787.00    0.07942   0.35259   -1.000
 6788.00    0.00318   0.35356   -1.000
 6789.00    0.07336   0.35479   -1.000
 6790.00    0.18331   0.35585   -1.000
 6791.00    0.27645   0.35644   36.173
 6792.00    0.34711   0.35650   28.809
 6793.00    0.41191   0.35614   24.277
 6794.00    0.47895   0.35559   -1.000
 6795.00    0.51444   0.35510   -1.000
 6796.00    0.48408   0.35484   -1.000
 6797.00    0.41021   0.35492   24.378
 6798.00    0.34351   0.35535   29.111
 6799.00    0.31867   0.35598   31.380
 6800.00    0.34098   0.35668   29.327
 6801.00    0.37908   0.35727   26.379
 6802.00    0.39331   0.35765   25.425
 6803.00    0.36871   0.35777   27.121
 6804.00    0.32312   0.35764   30.949
 6805.00    0.30741   0.35732   32.530
 6806.00    0.35612   0.35690   28.081
 6807.00    0.44188   0.35646   22.630
 6808.00    0.51655   0.35607   -1.000
 6809.00    0.55367   0.35575   -1.000
 6810.00    0.54464   0.35548   -1.000
 6811.00    0.49360   0.35528   -1.000
 6812.00    0.43044   0.35514   23.232
 6813.00    0.41392   0.35504   24.159
 6814.00    0.46135   0.35503   -1.000
 6815.00    0.50509   0.35515   -1.000
 6816.00    0.50108   0.35538   -1.000
 6817.00    0.50053   0.35571   -1.000
 6818.00    0.54002   0.35612   -1.000
 6819.00    0.57142   0.35656   -1.000
 6820.00    0.55909   0.35698   -1.000
 6821.00    0.53818   0.35739   -1.000
 6822.00    0.53099   0.35785   -1.000
 6823.00    0.50075   0.35834   -1.000
 6824.00    0.42289   0.35876   23.647
 6825.00    0.32576   0.35888   30.697
 6826.00    0.25803   0.35856   38.755
 6827.00    0.26329   0.35787   37.981
 6828.00    0.35502   0.35704   28.168
 6829.00    0.50332   0.35636   -1.000
 6830.00    0.63631   0.35605   -1.000
 6831.00    0.66303   0.35616   -1.000
 6832.00    0.57980   0.35662   -1.000
 6833.00    0.49286   0.35716   -1.000
 6834.00    0.47232   0.35748   -1.000
 6835.00    0.49807   0.35733   -1.000
 6836.00    0.53562   0.35658   -1.000
 6837.00    0.56856   0.35519   -1.000
 6838.00    0.58427   0.35317   -1.000
 6839.00    0.56989   0.35072   -1.000
 6840.00    0.52325   0.34824   -1.000
 6841.00    0.45511   0.34621   -1.000
 6842.00    0.38080   0.34505   26.261
 6843.00    0.31656   0.34501   31.590
 6844.00    0.27798   0.34604   35.974
 6845.00    0.27675   0.34785   36.133
 6846.00    0.31166   0.34997   32.086
 6847.00    0.36627   0.35192   27.303
 6848.00    0.41207   0.35338   24.268
 6849.00    0.42288   0.35420   23.647
 6850.00    0.41361   0.35442   24.177
 6851.00    0.42435   0.35411   23.565
 6852.00    0.44190   0.35331   22.630
 6853.00    0.41566   0.35209   24.058
 6854.00    0.36229   0.35056   27.602
 6855.00    0.34687   0.34893   28.829
 6856.00    0.36112   0.34741   27.691
 6857.00    0.34281   0.34620   29.171
 6858.00    0.30033   0.34543   33.297
 6859.00    0.29163   0.34515   34.290
 6860.00    0.30498   0.34523   32.789
 6861.00    0.28475   0.34554   35.118
 6862.00    0.24818   0.34607   40.294
 6863.00    0.26835   0.34677   37.264
 6864.00    0.38388   0.34751   26.050
 6865.00    0.56830   0.34811   -1.000
 6866.00    0.71142   0.34836   -1.000
 6867.00    0.69696   0.34809   -1.000
 6868.00    0.54991   0.34743   -1.000
 6869.00    0.38274   0.34670   26.128
 6870.00    0.25254   0.34618   39.597
 6871.00    0.18337   0.34599   -1.000
 6872.00    0.24178   0.34610   41.360
 6873.00    0.44585   0.34637   -1.000
 6874.00    0.61147   0.34671   -1.000
 6875.00    0.54621   0.34718   -1.000
 6876.00    0.36607   0.34785   27.317
 6877.00    0.29868   0.34858   33.481
 6878.00    0.34077   0.34914   29.345
 6879.00    0.37474   0.34938   26.685
 6880.00    0.38850   0.34922   25.740
 6881.00    0.41457   0.34870   24.122
 6882.00    0.41835   0.34801   23.903
 6883.00    0.36389   0.34748   27.481
 6884.00    0.30584   0.34740   32.697
 6885.00    0.31396   0.34791   31.851
 6886.00    0.37682   0.34900   26.538
 6887.00    0.45110   0.35048   -1.000
 6888.00    0.52579   0.35205   -1.000
 6889.00    0.59529   0.35348   -1.000
 6890.00    0.62692   0.35470   -1.000
 6891.00    0.59103   0.35557   -1.000
 6892.00    0.49486   0.35597   -1.000
 6893.00    0.38954   0.35594   25.671
 6894.00    0.36322   0.35562   27.532
 6895.00    0.44247   0.35513   22.601
 6896.00    0.51987   0.35465   -1.000
 6897.00    0.50097   0.35433   -1.000
 6898.00    0.42345   0.35418   23.616
 6899.00    0.35767   0.35420   27.958
 6900.00    0.32202   0.35435   31.053
 6901.00    0.31204   0.35458   32.047
 6902.00    0.32492   0.35482   30.776
 6903.00    0.34118   0.35509   29.310
 6904.00    0.31855   0.35545   31.392
 6905.00    0.25170   0.35585   39.731
 6906.00    0.20108   0.35620   -1.000
 6907.00    0.20641   0.35649   -1.000
 6908.00    0.23878   0.35668   -1.000
 6909.00    0.26744   0.35665   37.391
 6910.00    0.29716   0.35626   33.652
 6911.00    0.33029   0.35541   30.276
 6912.00    0.34726   0.35417   28.797
 6913.00    0.33002   0.35274   30.301
 6914.00    0.27870   0.35136   35.881
 6915.00    0.22625   0.35029   -1.000
 6916.00    0.23047   0.34975   -1.000
 6917.00    0.29798   0.34982   33.559
 6918.00    0.36655   0.35043   27.282
 6919.00    0.40355   0.35132   24.780
 6920.00    0.43797   0.35216   22.833
 6921.00    0.48902   0.35268   -1.000
 6922.00    0.53987   0.35267   -1.000
 6923.00    0.56807   0.35205   -1.000
 6924.00    0.56333   0.35097   -1.000
 6925.00    0.54326   0.34975   -1.000
 6926.00    0.54321   0.34878   -1.000
 6927.00    0.55536   0.34835   -1.000
 6928.00    0.53207   0.34853   -1.000
 6929.00    0.48067   0.34913   -1.000
 6930.00    0.45966   0.34978   -1.000
 6931.00    0.44952   0.35018   -1.000
 6932.00    0.35994   0.35029   27.783
 6933.00    0.19606   0.35024   -1.000
 6934.00    0.06574   0.35021   -1.000
 6935.00    0.03512   0.35035   -1.000
 6936.00    0.09790   0.35074   -1.000
 6937.00    0.21980   0.35135   -1.000
 6938.00    0.35527   0.35197   28.148
 6939.00    0.45585   0.35239   -1.000
 6940.00    0.48667   0.35252   -1.000
 6941.00    0.46156   0.35226   -1.000
 6942.00    0.42609   0.35157   23.469
 6943.00    0.39411   0.35049   25.373
 6944.00    0.35585   0.34922   28.102
 6945.00    0.33253   0.34811   30.072
 6946.00    0.36005   0.34747   27.774
 6947.00    0.42552   0.34744   23.501
 6948.00    0.47668   0.34790   -1.000
 6949.00    0.47158   0.34853   -1.000
 6950.00    0.40483   0.34892   24.702
 6951.00    0.33565   0.34886   29.793
 6952.00    0.33426   0.34844   29.916
 6953.00    0.37431   0.34794   26.716
 6954.00    0.37767   0.34768   26.478
 6955.00    0.32835   0.34786   30.455
 6956.00    0.26034   0.34846   38.412
 6957.00    0.20245   0.34936   -1.000
 6958.00    0.17139   0.35040   -1.000
 6959.00    0.17562   0.35138   -1.000
 6960.00    0.21210   0.35218   -1.000
 6961.00    0.26160   0.35277   38.226
 6962.00    0.30873   0.35322   32.391
 6963.00    0.36931   0.35354   27.078
 6964.00    0.45447   0.35377   -1.000
 6965.00    0.51976   0.35395   -1.000
 6966.00    0.51600   0.35412   -1.000
 6967.00    0.46089   0.35432   -1.000
 6968.00    0.39968   0.35454   25.020
 6969.00    0.34684   0.35476   28.831
 6970.00    0.29887   0.35486   33.459
 6971.00    0.25715   0.35463   38.888
 6972.00    0.22815   0.35393   -1.000
 6973.00    0.22022   0.35272   -1.000
 6974.00    0.23668   0.35100   -1.000
 6975.00    0.26993   0.34874   37.047
 6976.00    0.31300   0.34597   31.949
 6977.00    0.37006   0.34302   27.022
 6978.00    0.43940   0.34052   -1.000
 6979.00    0.49841   0.33911   -1.000
 6980.00    0.52349   0.33919   -1.000
 6981.00    0.50866   0.34083   -1.000
 6982.00    0.46139   0.34373   -1.000
 6983.00    0.39778   0.34712   25.139
 6984.00    0.34382   0.35015   29.085
 6985.00    0.33219   0.35231   30.103
 6986.00    0.36661   0.35350   27.277
 6987.00    0.40299   0.35383   24.815
 6988.00    0.41366   0.35361   24.174
 6989.00    0.42560   0.35315   23.496
 6990.00    0.45068   0.35271   -1.000
 6991.00    0.44925   0.35247   -1.000
 6992.00    0.42227   0.35252   23.681
 6993.00    0.45136   0.35277   -1.000
 6994.00    0.55881   0.35300   -1.000
 6995.00    0.64396   0.35294   -1.000
 6996.00    0.63717   0.35249   -1.000
 6997.00    0.57668   0.35170   -1.000
 6998.00    0.51179   0.35066   -1.000
 6999.00    0.45354   0.34945   -1.000
 7000.00    0.41618   0.34818   24.028
 7001.00    0.43017   0.34702   -2.000
 7002.00    0.49130   0.34613   -2.000
 7003.00    0.54703   0.34563   -2.000
 7004.00    0.55575   0.34539   -2.000
 7005.00    0.51267   0.34524   -2.000
 7006.00    0.43553   0.34514   -2.000
 7007.00    0.35328   0.34527   -2.000
 7008.00    0.28920   0.34571   -2.000
 7009.00    0.25758   0.34632   -2.000
 7010.00    0.27970   0.34685   -2.000
 7011.00    0.37568   0.34705   -2.000
 7012.00    0.51046   0.34672   -2.000
 7013.00    0.59615   0.34581   -2.000
 7014.00    0.57457   0.34452   -2.000
 7015.00    0.45220   0.34314   -2.000
 7016.00    0.31168   0.34199   -2.000
 7017.00    0.26976   0.34139   -2.000
 7018.00    0.33452   0.34161   -2.000
 7019.00    0.40650   0.34274   -2.000
 7020.00    0.42426   0.34437   -2.000
 7021.00    0.39662   0.34573   -2.000
 7022.00    0.36107   0.34626   -2.000
 7023.00    0.35591   0.34594   -2.000
 7024.00    0.38061   0.34515   -2.000
 7025.00    0.40474   0.34436   -2.000
 7026.00    0.41901   0.34406   -2.000
 7027.00    0.43356   0.34448   -2.000
 7028.00    0.44057   0.34546   -2.000
 7029.00    0.42237   0.34662   -2.000
 7030.00    0.39090   0.34767   -2.000
 7031.00    0.37542   0.34848   -2.000
 7032.00    0.37543   0.34898   -2.000
 7033.00    0.37452   0.34915   -2.000
 7034.00    0.38968   0.34901   -2.000
 7035.00    0.44699   0.34867   -2.000
 7036.00    0.51466   0.34829   -2.000
 7037.00    0.53408   0.34808   -2.000
 7038.00    0.50167   0.34823   -2.000
 7039.00    0.45496   0.34890   -2.000
 7040.00    0.42038   0.35018   -2.000
 7041.00    0.40546   0.35215   -2.000
 7042.00    0.40237   0.35457   -2.000
 7043.00    0.39690   0.35678   -2.000
 7044.00    0.38209   0.35830   -2.000
 7045.00    0.36442   0.35912   -2.000
 7046.00    0.36803   0.35945   -2.000
 7047.00    0.40135   0.35955   -2.000
 7048.00    0.41269   0.35950   -2.000
 7049.00    0.35730   0.35907   -2.000
 7050.00    0.29177   0.35786   -2.000
 7051.00    0.28851   0.35559   -2.000
 7052.00    0.31425   0.35236   -2.000
 7053.00    0.30573   0.34855   -2.000
 7054.00    0.27742   0.34468   -2.000
 7055.00    0.27134   0.34129   -2.000
 7056.00    0.28584   0.33876   -2.000
 7057.00    0.30531   0.33706   -2.000
 7058.00    0.33875   0.33591   -2.000
 7059.00    0.38370   0.33499   -2.000
 7060.00    0.39116   0.33408   -2.000
 7061.00    0.34534   0.33322   -2.000
 7062.00    0.33307   0.33257   -2.000
 7063.00    0.40313   0.33226   -2.000
 7064.00    0.44510   0.33213   -2.000
 7065.00    0.37199   0.33189   -2.000
 7066.00    0.27517   0.33142   -2.000
 7067.00    0.24678   0.33077   -2.000
 7068.00    0.23651   0.33017   -2.000
 7069.00    0.22175   0.33000   -2.000
 7070.00    0.32322   0.33058   -2.000
 7071.00    0.55230   0.33197   -2.000
 7072.00    0.65990   0.33387   -2.000
 7073.00    0.51776   0.33578   -2.000
 7074.00    0.35273   0.33729   -2.000
 7075.00    0.36241   0.33833   -2.000
 7076.00    0.46909   0.33903   -2.000
 7077.00    0.54128   0.33944   -2.000
 7078.00    0.54352   0.33961   -2.000
 7079.00    0.49226   0.33949   -2.000
 7080.00    0.42086   0.33893   -2.000
 7081.00    0.36483   0.33768   -2.000
 7082.00    0.35060   0.33565   -2.000
 7083.00    0.37646   0.33289   -2.000
 7084.00    0.40885   0.32957   -2.000
 7085.00    0.41880   0.32609   -2.000
 7086.00    0.40054   0.32292   -2.000
 7087.00    0.36551   0.32044   -2.000
 7088.00    0.33526   0.31871   -2.000
 7089.00    0.32511   0.31744   -2.000
 7090.00    0.33680   0.31643   -2.000
 7091.00    0.36116   0.31570   -2.000
 7092.00    0.38396   0.31526   -2.000
 7093.00    0.40435   0.31516   -2.000
 7094.00    0.43691   0.31539   -2.000
 7095.00    0.48829   0.31586   -2.000
 7096.00    0.54413   0.31657   -2.000
 7097.00    0.55730   0.31748   -2.000
 7098.00    0.47232   0.31853   -2.000
 7099.00    0.32561   0.31963   -2.000
 7100.00    0.23564   0.32066   -2.000
 7101.00    0.24552   0.32153   -2.000
 7102.00    0.29821   0.32211   -2.000
 7103.00    0.33505   0.32240   -2.000
 7104.00    0.33232   0.32251   -2.000
 7105.00    0.30945   0.32252   -2.000
 7106.00    0.30936   0.32244   -2.000
 7107.00    0.33643   0.32215   -2.000
 7108.00    0.35957   0.32151   -2.000
 7109.00    0.36988   0.32066   -2.000
 7110.00    0.38068   0.31985   -2.000
 7111.00    0.38563   0.31925   -2.000
 7112.00    0.36658   0.31891   -2.000
 7113.00    0.33956   0.31892   -2.000
 7114.00    0.34684   0.31938   -2.000
 7115.00    0.41149   0.32017   -2.000
 7116.00    0.51492   0.32098   -2.000
 7117.00    0.57462   0.32156   -2.000
 7118.00    0.51046   0.32182   -2.000
 7119.00    0.38783   0.32176   -2.000
 7120.00    0.34292   0.32141   -2.000
 7121.00    0.37817   0.32086   -2.000
 7122.00    0.40844   0.32020   -2.000
 7123.00    0.42206   0.31945   -2.000
 7124.00    0.45172   0.31859   -2.000
 7125.00    0.47042   0.31767   -2.000
 7126.00    0.43270   0.31658   -2.000
 7127.00    0.37307   0.31522   -2.000
 7128.00    0.36348   0.31372   -2.000
 7129.00    0.41949   0.31238   -2.000
 7130.00    0.50357   0.31141   -2.000
 7131.00    0.55579   0.31085   -2.000
 7132.00    0.54032   0.31082   -2.000
 7133.00    0.50171   0.31152   -2.000
 7134.00    0.50087   0.31292   -2.000
 7135.00    0.52004   0.31463   -2.000
 7136.00    0.51176   0.31625   -2.000
 7137.00    0.47770   0.31749   -2.000
 7138.00    0.45680   0.31830   -2.000
 7139.00    0.49406   0.31877   -2.000
 7140.00    0.58009   0.31894   -2.000
 7141.00    0.59695   0.31890   -2.000
 7142.00    0.46947   0.31884   -2.000
 7143.00    0.32390   0.31875   -2.000
 7144.00    0.29842   0.31837   -2.000
 7145.00    0.33873   0.31760   -2.000
 7146.00    0.34231   0.31657   -2.000
 7147.00    0.31604   0.31546   -2.000
 7148.00    0.30602   0.31450   -2.000
 7149.00    0.32087   0.31391   -2.000
 7150.00    0.36759   0.31395   -2.000
 7151.00    0.48007   0.31489   -2.000
 7152.00    0.62979   0.31650   -2.000
 7153.00    0.67098   0.31830   -2.000
 7154.00    0.54675   0.31998   -2.000
 7155.00    0.42724   0.32133   -2.000
 7156.00    0.44092   0.32215   -2.000
 7157.00    0.48912   0.32249   -2.000
 7158.00    0.47620   0.32252   -2.000
 7159.00    0.46134   0.32225   -2.000
 7160.00    0.46910   0.32147   -2.000
 7161.00    0.38316   0.32020   -2.000
 7162.00    0.16541   0.31873   -2.000
 7163.00   -0.02819   0.31729   -2.000
 7164.00   -0.06295   0.31604   -2.000
 7165.00    0.04644   0.31506   -2.000
 7166.00    0.20817   0.31463   -2.000
 7167.00    0.31717   0.31513   -2.000
 7168.00    0.34520   0.31665   -2.000
 7169.00    0.36538   0.31870   -2.000
 7170.00    0.41869   0.32064   -2.000
 7171.00    0.46199   0.32213   -2.000
 7172.00    0.47211   0.32313   -2.000
 7173.00    0.48235   0.32372   -2.000
 7174.00    0.49834   0.32385   -2.000
 7175.00    0.47873   0.32346   -2.000
 7176.00    0.43467   0.32259   -2.000
 7177.00    0.44224   0.32144   -2.000
 7178.00    0.50188   0.32021   -2.000
 7179.00    0.52106   0.31917   -2.000
 7180.00    0.49034   0.31832   -2.000
 7181.00    0.50462   0.31751   -2.000
 7182.00    0.56908   0.31680   -2.000
 7183.00    0.57827   0.31648   -2.000
 7184.00    0.51460   0.31653   -2.000
 7185.00    0.47962   0.31658   -2.000
 7186.00    0.54817   0.31611   -2.000
 7187.00    0.72486   0.31503   -2.000
 7188.00    0.97177   0.31371   -2.000
 7189.00    1.20661   0.31254   -2.000
 7190.00    1.27048   0.31197   -2.000
 7191.00    1.00517   0.31215   -2.000
 7192.00    0.49858   0.31283   -2.000
 7193.00    0.04392   0.31371   -2.000
 7194.00   -0.16946   0.31448   -2.000
 7195.00   -0.11777   0.31514   -2.000
 7196.00    0.12763   0.31580   -2.000
 7197.00    0.42753   0.31643   -2.000
 7198.00    0.59534   0.31684   -2.000
 7199.00    0.49134   0.31708   -2.000
 7200.00    0.22166   0.31739   -2.000
 7201.00    0.03655   0.31773   -2.000
 7202.00    0.00795   0.31786   -2.000
 7203.00    0.05233   0.31769   -2.000
 7204.00    0.13035   0.31726   -2.000
 7205.00    0.23890   0.31663   -2.000
 7206.00    0.31401   0.31574   -2.000
 7207.00    0.31077   0.31456   -2.000
 7208.00    0.38035   0.31336   -2.000
 7209.00    0.67575   0.31266   -2.000
 7210.00    0.96285   0.31299   -2.000
 7211.00    0.89637   0.31418   -2.000
 7212.00    0.58806   0.31566   -2.000
 7213.00    0.38687   0.31698   -2.000
 7214.00    0.37786   0.31784   -2.000
 7215.00    0.45150   0.31834   -2.000
 7216.00    0.53038   0.31880   -2.000
 7217.00    0.56186   0.31935   -2.000
 7218.00    0.46365   0.31999   -2.000
