###################################################################
## OUTPUT of StarlightChains_v04.for    [Cid@UFSC - 01/Apr/2007] ##
###################################################################

## Some input info
2013ce.txt                               [arq_obs]
Base.CB07.vall.4m                        [arq_base]
Masks.EmLines.NEW.gm                     [arq_masks]
StCv04.C11.config                        [arq_config]
   66                                    [N_base]
    0                                    [N_YAV_components = # of components with extra extinction!]
    0                                    [i_FitPowerLaw (1/0 = Yes/No)]
-9.99                                    [alpha_PowerLaw]
CCM                                      [red_law_option]
 1.458241                                [q_norm = A(l_norm)/A(V)]

## (Re)Sampling Parameters
 3741.00                                 [l_ini (A)]
 7218.00                                 [l_fin (A)]
    1.00                                 [dl    (A)]     (OBS: dl_cushion =    50.00 A)

## Normalization info
 4020.00                                 [l_norm (A) - for base]
 4010.00                                 [llow_norm (A) - window for f_obs]
 4060.00                                 [lupp_norm (A) - window for f_obs]
2.477672E-17                             [fobs_norm (in input units)]

## S/N
 3691.00                                 [llow_SN (A) - window for S/N]
 7268.00                                 [lupp_SN (A) - window for S/N]
   2.291                                 [S/N in S/N window]
   3.930                                 [S/N in norm. window]
   3.629                                 [S/N_err in S/N window]
   6.226                                 [S/N_err in norm. window]
  1.0000                                 [fscale_chi2]

## etc...
    -2007404                             [idum_orig]
  2386                                   [NOl_eff]
  2384                                   [Nl_eff]
     2    NSIGMA                         [Ntot_cliped & clip_method]
   949760                                [Nglobal_steps]
   7                                     [N_chains]
  23                                     [NEX0s_base = N_base in EX0s-fits]
 0   0   1       16   2.0   1.236E+01    [Clip-Bug, RC-Crash & Burn-In warning-flags, n_censored_weights, wei_nsig_threshold & wei_limit]
    11     10.671     10.166      0.505  [idt_all, wdt_TotTime, wdt_UsrTime & wdt_SysTime (sec)]

## Synthesis Results - Best model ##

 3.49561E-01                             [chi2/Nl_eff]
    14.45655                             [adev (%)]

   101.17033                             [sum-of-x (%)]
 3.43531E-17                             [Flux_tot (units of input spectrum!)]
 6.39090E-14                             [Mini_tot (???)]
 3.39501E-14                             [Mcor_tot (???)]

   0.00                                  [v0_min  (km/s)]
 150.00                                  [vd_min  (km/s)]
 0.2346                                  [AV_min  (mag)]
 0.0000                                  [YAV_min (mag)]

# j     x_j(%)      Mini_j(%)     Mcor_j(%)     age_j(yr)     Z_j      (L/M)_j    YAV?  Mstars   component_j        a/Fe...       SSP_chi2r SSP_adev(%)   SSP_AV   SSP_x(%)
  1      8.8651     4.3054E-01    8.1047E-01    1.000000E+06  0.00400  1.094E-02    0   1.0000   age020_m42            0.0000     3.8476E-01    14.6672   1.2520    93.1379
  2      0.0000     0.0000E+00    0.0000E+00    3.160000E+06  0.00400  4.007E-02    0   0.9999   age045_m42            0.0000     3.8529E-01    14.6499   0.5609    98.1958
  3      0.0008     1.6044E-05    2.8656E-05    5.010000E+06  0.00400  2.539E-02    0   0.9488   age055_m42            0.0000     3.8275E-01    14.6223   0.8683    96.2862
  4      0.0000     0.0000E+00    0.0000E+00    6.610000E+06  0.00400  2.620E-02    0   0.9220   age061_m42            0.0000     3.8523E-01    14.6742   0.4914    98.3133
  5      0.0000     0.0000E+00    0.0000E+00    1.000000E+07  0.00400  1.322E-02    0   0.8862   age070_m42            0.0000     3.6558E-01    14.4763   0.2117   100.8594
  6      0.0000     0.0000E+00    0.0000E+00    1.445000E+07  0.00400  7.883E-03    0   0.8571   age078_m42            0.0000     3.6567E-01    14.4780   0.5293    98.6071
  7      0.0000     0.0000E+00    0.0000E+00    2.512000E+07  0.00400  5.251E-03    0   0.8174   age090_m42            0.0000     3.6341E-01    14.4651   0.0835   101.4647
  8      0.0000     0.0000E+00    0.0000E+00    4.000000E+07  0.00400  3.649E-03    0   0.7851   age104_m42            0.0000     3.6699E-01    14.5108  -0.1385   102.0375
  9      0.0000     0.0000E+00    0.0000E+00    5.500000E+07  0.00400  3.098E-03    0   0.7629   age110_m42            0.0000     3.7909E-01    14.6662   0.0205   101.5742
 10      0.0000     0.0000E+00    0.0000E+00    1.015200E+08  0.00400  2.228E-03    0   0.7207   age116_m42            0.0000     3.8927E-01    14.7947   0.0461   101.4014
 11      0.0000     0.0000E+00    0.0000E+00    2.861200E+08  0.00400  1.093E-03    0   0.6648   age125_m42            0.0000     3.9280E-01    14.9087  -0.5109   104.1218
 12      0.0000     0.0000E+00    0.0000E+00    5.088000E+08  0.00400  6.597E-04    0   0.6365   age130_m42            0.0000     4.0797E-01    15.0555  -0.5132   104.4194
 13      0.0000     0.0000E+00    0.0000E+00    1.434000E+09  0.00400  2.132E-04    0   0.5798   age139_m42            0.0000     5.3421E-01    17.6396  -1.0000    89.0380
 14      0.0000     0.0000E+00    0.0000E+00    4.250000E+09  0.00400  5.895E-05    0   0.5377   age158_m42            0.0000     8.2478E-01    21.8612  -1.0000    71.2014
 15      0.0000     0.0000E+00    0.0000E+00    7.500000E+09  0.00400  3.510E-05    0   0.5212   age171_m42            0.0000     9.9061E-01    23.8572  -1.0000    65.0864
 16      2.7125     7.1880E+01    6.8115E+01    1.300000E+10  0.00400  2.005E-05    0   0.5034   age193_m42            0.0000     1.1506E+00    25.6136  -1.0000    60.0589
 17      0.0000     0.0000E+00    0.0000E+00    1.800000E+10  0.00400  1.525E-05    0   0.4967   age213_m42            0.0000     1.1714E+00    25.8674  -1.0000    59.1731
 18      3.8489     1.6518E-01    3.1095E-01    1.000000E+06  0.00800  1.238E-02    0   1.0000   age020_m52            0.0000     3.8502E-01    14.6697   1.2483    93.3138
 19      0.0000     0.0000E+00    0.0000E+00    3.160000E+06  0.00800  3.074E-02    0   0.9966   age045_m52            0.0000     3.8524E-01    14.6701   1.1743    94.0268
 20      0.0000     0.0000E+00    0.0000E+00    5.010000E+06  0.00800  2.668E-02    0   0.9443   age055_m52            0.0000     3.8210E-01    14.6239   0.9446    95.6732
 21     10.0392     2.4972E-01    4.3139E-01    6.610000E+06  0.00800  2.136E-02    0   0.9177   age061_m52            0.0000     3.6460E-01    14.4294  -0.2956   102.2236
 22      0.0031     1.3726E-04    2.2808E-04    1.000000E+07  0.00800  1.215E-02    0   0.8827   age070_m52            0.0000     3.6136E-01    14.4735   0.3850   101.0256
 23      0.0000     0.0000E+00    0.0000E+00    1.445000E+07  0.00800  8.717E-03    0   0.8552   age078_m52            0.0000     3.6503E-01    14.4686   0.4968    99.9182
 24      0.0004     3.5885E-05    5.5135E-05    2.512000E+07  0.00800  5.592E-03    0   0.8162   age090_m52            0.0000     3.6506E-01    14.5195   0.1487   102.6488
 25      0.0000     0.0000E+00    0.0000E+00    4.000000E+07  0.00800  3.896E-03    0   0.7841   age104_m52            0.0000     3.7173E-01    14.6200   0.0680   103.0503
 26      0.0000     0.0000E+00    0.0000E+00    1.015200E+08  0.00800  2.148E-03    0   0.7226   age116_m52            0.0000     3.8285E-01    14.7331   0.0123   102.3984
 27      0.0000     0.0000E+00    0.0000E+00    2.861200E+08  0.00800  9.925E-04    0   0.6683   age125_m52            0.0000     4.1043E-01    15.1154  -0.4508   105.5207
 28      0.0000     0.0000E+00    0.0000E+00    9.047900E+08  0.00800  3.141E-04    0   0.6138   age135_m52            0.0000     4.7330E-01    16.4022  -1.0000   100.2399
 29      0.0000     0.0000E+00    0.0000E+00    1.434000E+09  0.00800  1.719E-04    0   0.5853   age139_m52            0.0000     7.5796E-01    21.0359  -1.0000    78.0447
 30      0.4809     3.2459E+00    3.4217E+00    2.500000E+09  0.00800  7.872E-05    0   0.5600   age150_m52            0.0000     9.8300E-01    23.7174  -1.0000    67.4709
 31      0.0000     0.0000E+00    0.0000E+00    4.250000E+09  0.00800  4.336E-05    0   0.5426   age158_m52            0.0000     9.9795E-01    23.8487  -1.0000    66.3792
 32      0.0000     0.0000E+00    0.0000E+00    6.250000E+09  0.00800  3.159E-05    0   0.5319   age166_m52            0.0000     1.1925E+00    25.9436  -1.0000    60.5474
 33      0.0000     0.0000E+00    0.0000E+00    1.300000E+10  0.00800  1.361E-05    0   0.5073   age193_m52            0.0000     1.6848E+00    30.7489  -1.0000    48.2269
 34      0.0000     0.0000E+00    0.0000E+00    1.800000E+10  0.00800  9.886E-06    0   0.4990   age213_m52            0.0000     1.8036E+00    31.6662  -1.0000    45.5444
 35      5.3314     1.8346E-01    3.4535E-01    1.000000E+06  0.02000  1.544E-02    0   1.0000   age020_m62            0.0000     3.8527E-01    14.6774   1.2438    93.5482
 36      0.0000     0.0000E+00    0.0000E+00    3.160000E+06  0.02000  3.762E-02    0   0.9858   age045_m62            0.0000     3.8686E-01    14.7109   1.1839    94.3037
 37      0.0000     0.0000E+00    0.0000E+00    5.010000E+06  0.02000  3.296E-02    0   0.9342   age055_m62            0.0000     3.8815E-01    14.6979   0.8317    97.2736
 38     26.9897     1.2426E+00    2.0728E+00    8.710000E+06  0.02000  1.154E-02    0   0.8861   age067_m62            0.0000     3.6459E-01    14.9408  -0.1737   105.4069
 39      0.0000     0.0000E+00    0.0000E+00    1.445000E+07  0.02000  7.663E-03    0   0.8472   age078_m62            0.0000     3.5794E-01    14.5342   0.0317   103.6519
 40      0.0000     0.0000E+00    0.0000E+00    2.512000E+07  0.02000  4.532E-03    0   0.8099   age090_m62            0.0000     3.6202E-01    14.6319   0.0275   103.2911
 41      0.0000     0.0000E+00    0.0000E+00    5.500000E+07  0.02000  2.733E-03    0   0.7595   age110_m62            0.0000     3.7105E-01    14.5934   0.0457   102.5003
 42      0.0000     0.0000E+00    0.0000E+00    1.609000E+08  0.02000  1.369E-03    0   0.6985   age120_m62            0.0000     3.9682E-01    14.9413  -0.0976   104.2950
 43      0.0000     0.0000E+00    0.0000E+00    2.861200E+08  0.02000  9.013E-04    0   0.6714   age125_m62            0.0000     4.1769E-01    15.2076  -0.3353   106.6050
 44      0.0000     0.0000E+00    0.0000E+00    5.088000E+08  0.02000  5.028E-04    0   0.6449   age130_m62            0.0000     4.4760E-01    15.6378  -0.7046   108.7030
 45      0.5832     1.2763E+00    1.4845E+00    9.047900E+08  0.02000  2.428E-04    0   0.6179   age135_m62            0.0000     4.9926E-01    16.8121  -1.0000    97.2543
 46      0.0000     0.0000E+00    0.0000E+00    1.434000E+09  0.02000  1.263E-04    0   0.5908   age139_m62            0.0000     7.1667E-01    20.2450  -1.0000    80.3896
 47      1.0116     8.9807E+00    9.5906E+00    2.500000E+09  0.02000  5.985E-05    0   0.5673   age150_m62            0.0000     1.0137E+00    23.8832  -1.0000    67.6504
 48      0.7088     1.1513E+01    1.1851E+01    4.250000E+09  0.02000  3.271E-05    0   0.5468   age158_m62            0.0000     1.3086E+00    26.9236  -1.0000    58.3664
 49      0.0000     0.0000E+00    0.0000E+00    1.000000E+10  0.02000  1.360E-05    0   0.5167   age181_m62            0.0000     1.6789E+00    30.3292  -1.0000    49.3156
 50      0.0000     0.0000E+00    0.0000E+00    1.800000E+10  0.02000  7.124E-06    0   0.5013   age213_m62            0.0000     1.9106E+00    32.2196  -1.0000    44.2025
 51     40.5947     8.3212E-01    1.5661E+00    1.000000E+06  0.05000  2.592E-02    0   0.9998   age020_m72            0.0000     3.8393E-01    14.6739   1.2328    93.6897
 52      0.0000     0.0000E+00    0.0000E+00    3.160000E+06  0.05000  4.845E-02    0   0.9577   age045_m72            0.0000     3.8950E-01    14.7333   1.0761    95.1669
 53      0.0000     0.0000E+00    0.0000E+00    5.010000E+06  0.05000  3.072E-02    0   0.9147   age055_m72            0.0000     3.6787E-01    14.6194   0.6108    99.5922
 54      0.0000     0.0000E+00    0.0000E+00    6.610000E+06  0.05000  1.455E-02    0   0.8877   age061_m72            0.0000     4.0974E-01    15.9988  -0.1208   106.6197
 55      0.0000     0.0000E+00    0.0000E+00    1.000000E+07  0.05000  9.074E-03    0   0.8524   age070_m72            0.0000     3.8220E-01    14.9318   0.8025    99.0436
 56      0.0000     0.0000E+00    0.0000E+00    2.512000E+07  0.05000  4.250E-03    0   0.7902   age090_m72            0.0000     3.7688E-01    14.8002   0.5098   100.6161
 57      0.0000     0.0000E+00    0.0000E+00    4.000000E+07  0.05000  3.087E-03    0   0.7618   age104_m72            0.0000     3.7912E-01    14.8670   0.2862   102.2159
 58      0.0000     0.0000E+00    0.0000E+00    1.015200E+08  0.05000  1.700E-03    0   0.7096   age116_m72            0.0000     3.8934E-01    14.8993   0.0429   104.1168
 59      0.0000     0.0000E+00    0.0000E+00    2.861200E+08  0.05000  7.384E-04    0   0.6633   age125_m72            0.0000     4.3445E-01    15.4376  -0.4631   107.6902
 60      0.0000     0.0000E+00    0.0000E+00    5.088000E+08  0.05000  3.819E-04    0   0.6372   age130_m72            0.0000     4.5582E-01    15.7592  -0.9579   109.2144
 61      0.0000     0.0000E+00    0.0000E+00    9.047900E+08  0.05000  1.676E-04    0   0.6110   age135_m72            0.0000     6.9089E-01    19.6443  -1.0000    83.6828
 62      0.0000     0.0000E+00    0.0000E+00    1.434000E+09  0.05000  8.837E-05    0   0.5874   age139_m72            0.0000     1.0256E+00    23.9900  -1.0000    68.6047
 63      0.0000     0.0000E+00    0.0000E+00    2.500000E+09  0.05000  4.233E-05    0   0.5598   age150_m72            0.0000     1.3212E+00    26.9390  -1.0000    58.8263
 64      0.0000     0.0000E+00    0.0000E+00    6.250000E+09  0.05000  1.435E-05    0   0.5249   age166_m72            0.0000     1.7864E+00    31.2466  -1.0000    46.8628
 65      0.0000     0.0000E+00    0.0000E+00    1.300000E+10  0.05000  6.513E-06    0   0.5036   age193_m72            0.0000     2.0985E+00    33.7059  -1.0000    41.2572
 66      0.0000     0.0000E+00    0.0000E+00    1.800000E+10  0.05000  4.527E-06    0   0.4945   age213_m72            0.0000     2.2791E+00    35.0614  -1.0000    38.0160


## Synthesis Results - Average & Chains ##

# j      x_j: min, <> & last-chain-values for 1 ...  7 chains
  1      8.8651      1.8889      4.7330      9.5954     10.3848     10.8890      5.5470      5.4376      5.7380
  2      0.0000      2.5032      0.0000      0.0000      0.0000      0.9476      0.0000      0.0000      0.0000
  3      0.0008      1.0767      0.7385      0.0000      4.3404      0.0000      0.0000      0.0000      0.0000
  4      0.0000      2.2192      0.0000      0.0000      0.3547      0.0000      0.3327     12.7708     11.1332
  5      0.0000      4.1524      4.7160      0.0000      0.0000      0.0000      0.0000      0.0000      0.0000
  6      0.0000      2.7621      8.4222      0.0000      6.1064      0.0000      0.0000      4.2729      0.1123
  7      0.0000      7.1099      4.1031      4.9451      0.0000      4.9159      8.7436      4.4426      0.0000
  8      0.0000      2.4018      1.2316      0.0000      0.0000      0.0000      7.0444      0.0000      0.4875
  9      0.0000      2.5707      0.0000      5.9325      0.0112      0.0000      7.2591      0.0000      0.0000
 10      0.0000      1.5003      1.9695      0.0000      0.0000      0.3945      0.0000      0.0000      0.0000
 11      0.0000      0.2203      0.8392      0.0000      0.0000      0.0000      0.3559      1.1294      0.0000
 12      0.0000      0.5551      0.0000      0.0000      0.0000      0.1668      0.0000      0.0000      0.0000
 13      0.0000      0.0509      0.0000      0.0000      0.0000      0.0000      0.0000      0.0000      1.7560
 14      0.0000      0.1072      1.1059      0.0000      0.2856      0.0000      0.0000      0.8788      0.0000
 15      0.0000      0.0356      0.0000      0.0000      0.0000      0.0000      0.8071      0.0000      0.0000
 16      2.7125      0.0354      0.7478      0.0000      0.7354      0.0000      0.0000      0.0000      0.0000
 17      0.0000      0.0614      0.0000      0.0000      0.0000      0.0000      0.0000      0.0000      0.2813
 18      3.8489      1.7590     10.5593      0.0000      3.5367      4.4618      2.4056      6.4214      2.7640
 19      0.0000      2.9506      4.2399      7.8267      0.0000      4.0083      5.5431      5.1286      0.0000
 20      0.0000      1.2555     17.5462      4.9447      0.0000      2.4917      1.3074      0.0000      0.0000
 21     10.0392      2.9656      7.2399     13.9263      3.2067     11.0261      5.2272      2.2049      0.0000
 22      0.0031      3.7702      0.0000      0.0000      2.3458      0.0000      0.0000      0.0000      0.0000
 23      0.0000      2.1744      6.3627      0.0000      0.5466      0.0000      0.0570      3.9285      0.0000
 24      0.0004      3.8244      0.0000      0.0000      1.3184      0.0000      0.0000      0.8146      4.8808
 25      0.0000      2.9093      0.0000      0.0000      1.8395      1.9050      0.0000      0.8155      0.0000
 26      0.0000      1.9495      1.2035      0.0000      0.0000      0.0000      0.0000      0.0000      0.0000
 27      0.0000      0.4044      0.0000      0.0000      0.4437      0.0000      0.0000      0.0000      0.0000
 28      0.0000      0.1518      0.0000      1.0738      0.0000      0.8228      0.0000      0.0000      5.9704
 29      0.0000      0.0806      0.0000      0.0000      0.0000      0.0000      1.2225      0.0000      0.0000
 30      0.4809      0.0360      0.0000      0.0000      1.1831      0.0000      1.0016      0.0000      0.0000
 31      0.0000      0.0840      0.0000      0.0000      0.0000      0.1838      0.8343      0.4141      0.4871
 32      0.0000      0.0360      0.0000      0.0000      0.0000      0.0000      0.0000      0.0000      0.0000
 33      0.0000      0.0033      0.0000      0.2056      0.0000      0.0000      0.3307      0.0000      0.0000
 34      0.0000      0.0171      0.0000      0.0157      0.0000      0.0000      0.0000      0.0000      0.0000
 35      5.3314      0.8053      3.1536      1.2932      7.7376      1.2154      0.0000      0.0000      0.0000
 36      0.0000      1.1407      0.0000      0.0000      0.0000      3.3772      0.0000      7.5832      0.9066
 37      0.0000      0.7623      0.0000      0.0000      0.0000      0.0000      0.0000      0.0000      6.2272
 38     26.9897     14.0367     12.7768     23.9991     28.6956     15.7836     21.3324     25.8756     26.7008
 39      0.0000      9.9430      0.0000     21.6649      3.3311     16.9670     15.8280      7.9745      0.0000
 40      0.0000      4.3163      0.0000      0.0000      3.7604     10.3077      0.0000      0.0000      6.5143
 41      0.0000      3.2614      0.0000      0.0000      0.6150      0.0000      0.0000      0.0000      5.7928
 42      0.0000      1.0307      0.0000      0.0000      0.4852      0.0000      0.0000      0.0000      0.0000
 43      0.0000      0.2869      0.0000      0.0000      0.0000      0.2316      0.0000      0.0000      0.0000
 44      0.0000      0.1641      0.0000      0.0000      0.0000      0.0000      0.0000      0.0000      0.0000
 45      0.5832      0.2146      0.0000      0.5193      0.8255      0.0000      0.0000      1.4943      0.0000
 46      0.0000      0.1317      3.9929      0.2086      0.0000      0.0000      0.0000      0.0000      0.0000
 47      1.0116      0.0698      0.0000      0.0000      0.8130      0.0000      0.0000      0.0000      0.6780
 48      0.7088      0.0569      0.0000      0.0000      1.4913      0.0000      0.7270      0.0000      0.0000
 49      0.0000      0.0168      1.2694      0.0000      0.0000      0.0000      0.0000      0.0000      0.0000
 50      0.0000      0.0021      0.0000      0.0000      0.0000      0.2559      0.0000      0.0000      0.0000
 51     40.5947      1.4867      1.5158      4.3842     11.2399      0.0000      7.0150      2.5560     11.2509
 52      0.0000      0.8590      0.5043      1.4294      1.3365      4.8065      0.0000      0.0000      4.1565
 53      0.0000      1.7205      0.0000      0.0000      0.0000      3.5167      6.8385      5.1366      2.0775
 54      0.0000      4.1179      0.0000      0.0000      0.0000      0.0000      0.0000      0.0000      0.0000
 55      0.0000      1.0398      1.7372      0.0000      0.0000      0.0000      0.0000      0.0373      4.3500
 56      0.0000      0.7788      0.0000      0.0000      0.0000      0.0000      0.0000      0.0000      0.0000
 57      0.0000      1.4841      0.0000      0.0000      0.0000      0.0000      1.2901      0.0000      0.0000
 58      0.0000      0.5916      0.0000      0.0000      3.9739      1.7020      0.0000      2.3014      0.0000
 59      0.0000      0.2784      0.0000      0.0000      0.0000      0.0000      0.0000      0.0000      0.0000
 60      0.0000      0.1296      0.1049      0.0000      0.0000      0.0000      1.4199      0.0000      0.0000
 61      0.0000      0.0620      0.0000      0.0000      0.0000      0.6306      0.0000      0.0000      0.0000
 62      0.0000      0.0481      0.0000      0.0000      0.0000      1.2206      0.0000      0.0000      0.0000
 63      0.0000      0.0373      1.0766      0.0000      0.0000      0.0000      0.0000      0.0000      0.0000
 64      0.0000      0.0231      0.0000      0.0000      0.0000      0.0000      0.3347      0.0000      0.0000
 65      0.0000      0.0183      0.0000      0.0000      0.5937      0.0000      0.0000      0.0000      0.0000
 66      0.0000      0.0137      0.0000      0.0000      0.0000      0.0000      0.0000      0.0000      0.0000

# j      m_j: min, <> & last-chain-values for 1 ...  7 chains
  1  8.1047E-01  5.7026E-01  3.6573E-01  4.0782E+00  7.9295E-01  2.3688E+00  6.1062E-01  1.9476E+00  1.1375E+00
  2  0.0000E+00  2.0631E-01  0.0000E+00  0.0000E+00  0.0000E+00  5.6274E-02  0.0000E+00  0.0000E+00  0.0000E+00
  3  2.8656E-05  1.3289E-01  2.3329E-02  0.0000E+00  1.3549E-01  0.0000E+00  0.0000E+00  0.0000E+00  0.0000E+00
  4  0.0000E+00  2.5794E-01  0.0000E+00  0.0000E+00  1.0426E-02  0.0000E+00  1.4099E-02  1.7610E+00  8.4971E-01
  5  0.0000E+00  9.1933E-01  2.6725E-01  0.0000E+00  0.0000E+00  0.0000E+00  0.0000E+00  0.0000E+00  0.0000E+00
  6  0.0000E+00  9.9188E-01  7.7412E-01  0.0000E+00  5.5462E-01  0.0000E+00  0.0000E+00  1.8204E+00  2.6487E-02
  7  0.0000E+00  3.6554E+00  5.3994E-01  3.5792E+00  0.0000E+00  1.8212E+00  1.6391E+00  2.7098E+00  0.0000E+00
  8  0.0000E+00  1.7068E+00  2.2400E-01  0.0000E+00  0.0000E+00  0.0000E+00  1.8252E+00  0.0000E+00  2.2746E-01
  9  0.0000E+00  2.0908E+00  0.0000E+00  6.7927E+00  2.3029E-03  0.0000E+00  2.1528E+00  0.0000E+00  0.0000E+00
 10  0.0000E+00  1.6028E+00  5.3857E-01  0.0000E+00  0.0000E+00  3.0367E-01  0.0000E+00  0.0000E+00  0.0000E+00
 11  0.0000E+00  4.4252E-01  4.3148E-01  0.0000E+00  0.0000E+00  0.0000E+00  2.6068E-01  2.6918E+00  0.0000E+00
 12  0.0000E+00  1.7688E+00  0.0000E+00  0.0000E+00  0.0000E+00  3.8305E-01  0.0000E+00  0.0000E+00  0.0000E+00
 13  0.0000E+00  4.5753E-01  0.0000E+00  0.0000E+00  0.0000E+00  0.0000E+00  0.0000E+00  0.0000E+00  1.0357E+01
 14  0.0000E+00  3.2304E+00  8.5274E+00  0.0000E+00  2.1764E+00  0.0000E+00  0.0000E+00  3.1408E+01  0.0000E+00
 15  0.0000E+00  1.7454E+00  0.0000E+00  0.0000E+00  0.0000E+00  0.0000E+00  1.4432E+01  0.0000E+00  0.0000E+00
 16  6.8115E+01  2.9370E+00  1.5873E+01  0.0000E+00  1.5424E+01  0.0000E+00  0.0000E+00  0.0000E+00  0.0000E+00
 17  0.0000E+00  6.6012E+00  0.0000E+00  0.0000E+00  0.0000E+00  0.0000E+00  0.0000E+00  0.0000E+00  1.9873E+01
 18  3.1095E-01  4.6927E-01  7.2103E-01  0.0000E+00  2.3864E-01  8.5773E-01  2.3401E-01  2.0324E+00  4.8421E-01
 19  0.0000E+00  3.1595E-01  1.1620E-01  1.1798E+00  0.0000E+00  3.0927E-01  2.1642E-01  6.5151E-01  0.0000E+00
 20  0.0000E+00  1.4676E-01  5.2499E-01  8.1374E-01  0.0000E+00  2.0988E-01  5.5726E-02  0.0000E+00  0.0000E+00
 21  4.3139E-01  4.2082E-01  2.6295E-01  2.7820E+00  1.1509E-01  1.1274E+00  2.7045E-01  3.7119E-01  0.0000E+00
 22  2.2808E-04  9.0464E-01  0.0000E+00  0.0000E+00  1.4236E-01  0.0000E+00  0.0000E+00  0.0000E+00  0.0000E+00
 23  0.0000E+00  7.0457E-01  5.2770E-01  0.0000E+00  4.4795E-02  0.0000E+00  6.7402E-03  1.5102E+00  0.0000E+00
 24  5.5135E-05  1.8436E+00  0.0000E+00  0.0000E+00  1.6075E-01  0.0000E+00  0.0000E+00  4.6590E-01  1.5451E+00
 25  0.0000E+00  1.9338E+00  0.0000E+00  0.0000E+00  3.0926E-01  9.1246E-01  0.0000E+00  6.4313E-01  0.0000E+00
 26  0.0000E+00  2.1660E+00  3.4225E-01  0.0000E+00  0.0000E+00  0.0000E+00  0.0000E+00  0.0000E+00  0.0000E+00
 27  0.0000E+00  8.9940E-01  0.0000E+00  0.0000E+00  2.4957E-01  0.0000E+00  0.0000E+00  0.0000E+00  0.0000E+00
 28  0.0000E+00  9.7960E-01  0.0000E+00  9.7566E+00  0.0000E+00  3.8265E+00  0.0000E+00  0.0000E+00  2.5304E+01
 29  0.0000E+00  9.0625E-01  0.0000E+00  0.0000E+00  0.0000E+00  0.0000E+00  5.0127E+00  0.0000E+00  0.0000E+00
 30  3.4217E+00  8.4481E-01  0.0000E+00  0.0000E+00  7.0304E+00  0.0000E+00  8.5807E+00  0.0000E+00  0.0000E+00
 31  0.0000E+00  3.4721E+00  0.0000E+00  0.0000E+00  0.0000E+00  5.4731E+00  1.2574E+01  2.0305E+01  1.3220E+01
 32  0.0000E+00  2.0015E+00  0.0000E+00  0.0000E+00  0.0000E+00  0.0000E+00  0.0000E+00  0.0000E+00  0.0000E+00
 33  0.0000E+00  4.0628E-01  0.0000E+00  3.5632E+01  0.0000E+00  0.0000E+00  1.4847E+01  0.0000E+00  0.0000E+00
 34  0.0000E+00  2.8536E+00  0.0000E+00  3.6929E+00  0.0000E+00  0.0000E+00  0.0000E+00  0.0000E+00  0.0000E+00
 35  3.4535E-01  1.7227E-01  1.7266E-01  3.8945E-01  4.1863E-01  1.8735E-01  0.0000E+00  0.0000E+00  0.0000E+00
 36  0.0000E+00  9.8724E-02  0.0000E+00  0.0000E+00  0.0000E+00  2.1062E-01  0.0000E+00  7.7862E-01  5.1524E-02
 37  0.0000E+00  7.1359E-02  0.0000E+00  0.0000E+00  0.0000E+00  0.0000E+00  0.0000E+00  0.0000E+00  3.8279E-01
 38  2.0728E+00  3.5598E+00  8.2936E-01  8.5683E+00  1.8406E+00  2.8843E+00  1.9726E+00  7.7852E+00  4.4465E+00
 39  0.0000E+00  3.6307E+00  0.0000E+00  1.1137E+01  3.0764E-01  4.4643E+00  2.1074E+00  3.4546E+00  0.0000E+00
 40  0.0000E+00  2.5476E+00  0.0000E+00  0.0000E+00  5.6137E-01  4.3839E+00  0.0000E+00  0.0000E+00  2.5248E+00
 41  0.0000E+00  2.9934E+00  0.0000E+00  0.0000E+00  1.4277E-01  0.0000E+00  0.0000E+00  0.0000E+00  3.4914E+00
 42  0.0000E+00  1.7369E+00  0.0000E+00  0.0000E+00  2.0679E-01  0.0000E+00  0.0000E+00  0.0000E+00  0.0000E+00
 43  0.0000E+00  7.0591E-01  0.0000E+00  0.0000E+00  0.0000E+00  4.1062E-01  0.0000E+00  0.0000E+00  0.0000E+00
 44  0.0000E+00  6.9495E-01  0.0000E+00  0.0000E+00  0.0000E+00  0.0000E+00  0.0000E+00  0.0000E+00  0.0000E+00
 45  1.4845E+00  1.8038E+00  0.0000E+00  6.1445E+00  1.7549E+00  0.0000E+00  0.0000E+00  1.4901E+01  0.0000E+00
 46  0.0000E+00  2.0347E+00  1.5790E+01  4.5361E+00  0.0000E+00  0.0000E+00  0.0000E+00  0.0000E+00  0.0000E+00
 47  9.5906E+00  2.1860E+00  0.0000E+00  0.0000E+00  6.4371E+00  0.0000E+00  0.0000E+00  0.0000E+00  1.3938E+01
 48  1.1851E+01  3.1428E+00  0.0000E+00  0.0000E+00  2.0824E+01  0.0000E+00  1.4635E+01  0.0000E+00  0.0000E+00
 49  0.0000E+00  2.1045E+00  4.0769E+01  0.0000E+00  0.0000E+00  0.0000E+00  0.0000E+00  0.0000E+00  0.0000E+00
 50  0.0000E+00  4.9105E-01  0.0000E+00  0.0000E+00  0.0000E+00  4.2863E+01  0.0000E+00  0.0000E+00  0.0000E+00
 51  1.5661E+00  1.8940E-01  4.9426E-02  7.8631E-01  3.6217E-01  0.0000E+00  3.2586E-01  3.8632E-01  9.4121E-01
 52  0.0000E+00  5.6081E-02  8.4263E-03  1.3138E-01  2.2068E-02  2.2611E-01  0.0000E+00  0.0000E+00  1.7819E-01
 53  0.0000E+00  1.6919E-01  0.0000E+00  0.0000E+00  0.0000E+00  2.4920E-01  2.4521E-01  5.9929E-01  1.3416E-01
 54  0.0000E+00  8.2976E-01  0.0000E+00  0.0000E+00  0.0000E+00  0.0000E+00  0.0000E+00  0.0000E+00  0.0000E+00
 55  0.0000E+00  3.2260E-01  1.3795E-01  0.0000E+00  0.0000E+00  0.0000E+00  0.0000E+00  1.3748E-02  8.8625E-01
 56  0.0000E+00  4.7826E-01  0.0000E+00  0.0000E+00  0.0000E+00  0.0000E+00  0.0000E+00  0.0000E+00  0.0000E+00
 57  0.0000E+00  1.2096E+00  0.0000E+00  0.0000E+00  0.0000E+00  0.0000E+00  3.8340E-01  0.0000E+00  0.0000E+00
 58  0.0000E+00  8.1563E-01  0.0000E+00  0.0000E+00  1.3856E+00  1.6908E+00  0.0000E+00  3.7640E+00  0.0000E+00
 59  0.0000E+00  8.2585E-01  0.0000E+00  0.0000E+00  0.0000E+00  0.0000E+00  0.0000E+00  0.0000E+00  0.0000E+00
 60  0.0000E+00  7.1405E-01  1.4795E-01  0.0000E+00  0.0000E+00  0.0000E+00  2.8531E+00  0.0000E+00  0.0000E+00
 61  0.0000E+00  7.4705E-01  0.0000E+00  0.0000E+00  0.0000E+00  5.4708E+00  0.0000E+00  0.0000E+00  0.0000E+00
 62  0.0000E+00  1.0560E+00  0.0000E+00  0.0000E+00  0.0000E+00  1.9309E+01  0.0000E+00  0.0000E+00  0.0000E+00
 63  0.0000E+00  1.6289E+00  1.2036E+01  0.0000E+00  0.0000E+00  0.0000E+00  0.0000E+00  0.0000E+00  0.0000E+00
 64  0.0000E+00  2.7948E+00  0.0000E+00  0.0000E+00  0.0000E+00  0.0000E+00  1.4745E+01  0.0000E+00  0.0000E+00
 65  0.0000E+00  4.6630E+00  0.0000E+00  0.0000E+00  3.8349E+01  0.0000E+00  0.0000E+00  0.0000E+00  0.0000E+00
 66  0.0000E+00  4.9391E+00  0.0000E+00  0.0000E+00  0.0000E+00  0.0000E+00  0.0000E+00  0.0000E+00  0.0000E+00

# AV, chi2 & Mass for <> & i_chain = 1 ...  7 solutions
AV       0.2346      0.1220      0.0741      0.1396      0.0877      0.1435     -0.0512      0.2478      0.1213
chi2 3.4956E-01  3.5836E-01  3.5379E-01  3.5332E-01  3.5287E-01  3.5438E-01  3.5429E-01  3.5420E-01  3.5499E-01
Mass 3.3950E-14  8.8379E-15  3.2375E-14  6.4275E-15  3.3366E-14  1.2623E-14  1.9206E-14  8.8203E-15  1.3446E-14
   0.00                                  [v0_min (km/s) before EX0s...]
 150.00                                  [vd_min (km/s) before EX0s...]


## Synthetic spectrum (Best Model) ##l_obs f_obs f_syn wei
 3478    [Nl_obs]
 3741.00    1.30602   1.08405    0.000
 3742.00    1.34367   1.08703    0.000
 3743.00    1.28918   1.08119    0.000
 3744.00    1.16480   1.06732    0.000
 3745.00    1.03355   1.04572    2.092
 3746.00    0.95888   1.01718    2.100
 3747.00    0.96390   0.98411    2.124
 3748.00    0.99797   0.95104    2.106
 3749.00    1.01438   0.92525    1.988
 3750.00    1.04599   0.91495    1.821
 3751.00    1.13317   0.92360    1.691
 3752.00    1.25213   0.94687    1.666
 3753.00    1.33304   0.97616    1.755
 3754.00    1.29262   1.00382    1.876
 3755.00    1.12924   1.02653    1.938
 3756.00    0.97272   1.04273    1.992
 3757.00    0.92365   1.05213    2.100
 3758.00    0.95247   1.05801    2.212
 3759.00    0.99953   1.06216    2.252
 3760.00    1.04217   1.06661    2.224
 3761.00    1.08510   1.07275    2.170
 3762.00    1.14166   1.07692    2.123
 3763.00    1.17741   1.07626    2.095
 3764.00    1.10853   1.06911    2.080
 3765.00    0.93506   1.05303    2.077
 3766.00    0.77194   1.02716    2.097
 3767.00    0.70213   0.99309    2.141
 3768.00    0.72017   0.95508    2.192
 3769.00    0.77185   0.91982    2.233
 3770.00    0.78889   0.89605    2.255
 3771.00    0.74990   0.89215    2.266
 3772.00    0.69269   0.90971    2.282
 3773.00    0.68124   0.94155    2.300
 3774.00    0.77010   0.97932    2.295
 3775.00    0.93540   1.01669    2.264
 3776.00    1.07925   1.04860    2.236
 3777.00    1.09753   1.07356    2.271
 3778.00    0.94790   1.09273    2.427
 3779.00    0.76204   1.10747    2.634
 3780.00    0.74132   1.11868    2.689
 3781.00    0.87383   1.12646    2.609
 3782.00    0.99817   1.13084    2.588
 3783.00    1.05557   1.13215    2.655
 3784.00    1.08215   1.13061    2.714
 3785.00    1.10051   1.12663    2.675
 3786.00    1.10192   1.12077    2.556
 3787.00    1.05222   1.11310    2.501
 3788.00    0.92831   1.10315    2.637
 3789.00    0.76882   1.09050    2.925
 3790.00    0.63800   1.07460    3.186
 3791.00    0.56689   1.05526    3.310
 3792.00    0.56648   1.03246    3.310
 3793.00    0.65088   1.00392    3.202
 3794.00    0.79389   0.96750    3.032
 3795.00    0.88754   0.92541    2.903
 3796.00    0.86976   0.88411    2.848
 3797.00    0.84602   0.85345    2.768
 3798.00    0.92386   0.84410    2.615
 3799.00    1.05624   0.86058    2.503
 3800.00    1.15022   0.89678    2.514
 3801.00    1.17296   0.94149    2.619
 3802.00    1.15163   0.98466    2.735
 3803.00    1.15453   1.02004    2.775
 3804.00    1.20073   1.04574    2.738
 3805.00    1.21863   1.06317    2.744
 3806.00    1.19828   1.07551    2.820
 3807.00    1.25595   1.08633    2.805
 3808.00    1.41034   1.09686    2.660
 3809.00    1.49337   1.10582    2.585
 3810.00    1.40535   1.11199    2.668
 3811.00    1.22474   1.11479    2.819
 3812.00    1.04746   1.11423    2.934
 3813.00    0.91310   1.11094    2.990
 3814.00    0.84542   1.10568    2.990
 3815.00    0.86223   1.09788    2.923
 3816.00    0.93668   1.08627    2.818
 3817.00    1.00103   1.07105    2.740
 3818.00    1.01747   1.05401    2.740
 3819.00    0.99565   1.03959    2.845
 3820.00    0.96173   1.03524    2.991
 3821.00    0.94460   1.04274    3.018
 3822.00    0.96700   1.05542    2.879
 3823.00    1.03374   1.06648    2.679
 3824.00    1.10771   1.07191    2.485
 3825.00    1.12072   1.07073    2.324
 3826.00    1.01689   1.06416    2.260
 3827.00    0.78796   1.05331    2.358
 3828.00    0.52474   1.03803    2.596
 3829.00    0.37027   1.01704    2.842
 3830.00    0.40127   0.98865    2.965
 3831.00    0.60012   0.95156    2.947
 3832.00    0.85338   0.90703    2.860
 3833.00    1.03186   0.86056    2.767
 3834.00    1.12219   0.82082    2.641
 3835.00    1.18108   0.79825    2.465
 3836.00    1.23120   0.80088    2.335
 3837.00    1.26114   0.82700    2.336
 3838.00    1.25008   0.86742    2.471
 3839.00    1.20247   0.91279    2.682
 3840.00    1.18252   0.95562    2.849
 3841.00    1.24331   0.99166    2.864
 3842.00    1.34504   1.02016    2.805
 3843.00    1.42171   1.04181    2.784
 3844.00    1.45714   1.05778    2.790
 3845.00    1.44032   1.06930    2.796
 3846.00    1.32542   1.07735    2.856
 3847.00    1.13109   1.08275    0.000
 3848.00    1.00859   1.08606    0.000
 3849.00    1.04770   1.08790    0.000
 3850.00    1.14125   1.08900    0.000
 3851.00    1.17970   1.09011    0.000
 3852.00    1.18531   1.09103    0.000
 3853.00    1.19950   1.09066    0.000
 3854.00    1.21060   1.08874    0.000
 3855.00    1.20954   1.08571    0.000
 3856.00    1.21683   1.08238    0.000
 3857.00    1.22960   1.07997    0.000
 3858.00    1.20863   1.07860    0.000
 3859.00    1.16421   1.07794    0.000
 3860.00    1.17324   1.07813    0.000
 3861.00    1.25894   1.07914    0.000
 3862.00    1.36552   1.08020    0.000
 3863.00    1.48323   1.08033    0.000
 3864.00    1.66882   1.07918    0.000
 3865.00    1.92474   1.07723    0.000
 3866.00    2.17352   1.07489    0.000
 3867.00    2.32924   1.07233    0.000
 3868.00    2.32965   1.07037    0.000
 3869.00    2.15554   1.06856    0.000
 3870.00    1.84177   1.06524    0.000
 3871.00    1.48974   1.06056    0.000
 3872.00    1.22134   1.05636    0.000
 3873.00    1.05800   1.05409    0.000
 3874.00    0.94101   1.05292    0.000
 3875.00    0.84929   1.05097    0.000
 3876.00    0.81152   1.04787    0.000
 3877.00    0.87154   1.04401    0.000
 3878.00    1.04340   1.03895    0.000
 3879.00    1.24449   1.03221    0.000
 3880.00    1.36061   1.02300    0.000
 3881.00    1.37760   1.00979    3.294
 3882.00    1.35677   0.99155    3.301
 3883.00    1.35892   0.96774    3.333
 3884.00    1.41183   0.93689    3.325
 3885.00    1.48461   0.89764    3.305
 3886.00    1.53999   0.85235    3.307
 3887.00    1.60204   0.80801    3.257
 3888.00    1.69015   0.77417   -1.000
 3889.00    1.73706   0.76179   -1.000
 3890.00    1.66906   0.77675    2.838
 3891.00    1.49944   0.81317    2.845
 3892.00    1.29054   0.85919    2.927
 3893.00    1.10464   0.90480    3.082
 3894.00    0.98063   0.94363    3.272
 3895.00    0.91843   0.97335    3.368
 3896.00    0.89157   0.99503    3.315
 3897.00    0.86269   1.01058    3.269
 3898.00    0.81493   1.02158    3.335
 3899.00    0.77048   1.02991    3.428
 3900.00    0.76078   1.03720    3.439
 3901.00    0.80404   1.04368    3.386
 3902.00    0.89837   1.04867    3.350
 3903.00    1.02010   1.05210    3.404
 3904.00    1.13376   1.05459    3.516
 3905.00    1.20453   1.05645    3.519
 3906.00    1.23115   1.05836    3.397
 3907.00    1.24875   1.06095    3.355
 3908.00    1.26556   1.06368    3.459
 3909.00    1.24973   1.06569    3.568
 3910.00    1.19940   1.06648    3.585
 3911.00    1.15637   1.06615    3.574
 3912.00    1.14255   1.06550    3.580
 3913.00    1.14613   1.06512    3.577
 3914.00    1.16040   1.06444    3.562
 3915.00    1.18784   1.06247    3.571
 3916.00    1.20972   1.05831    3.614
 3917.00    1.19295   1.05156    3.666
 3918.00    1.13672   1.04266    3.706
 3919.00    1.07097   1.03315    3.725
 3920.00    1.01734   1.02525    3.702
 3921.00    0.98093   1.02011    3.632
 3922.00    0.95595   1.01705    3.582
 3923.00    0.93625   1.01453    3.623
 3924.00    0.93369   1.01218    3.690
 3925.00    0.96040   1.01009    3.644
 3926.00    0.98855   1.00817    3.515
 3927.00    0.97465   1.00719    3.421
 3928.00    0.91522   1.00695    3.386
 3929.00    0.83548   1.00611    3.383
 3930.00    0.75548   1.00365    3.405
 3931.00    0.69205   0.99919    3.444
 3932.00    0.66879   0.99353    3.454
 3933.00    0.70332   0.98850    3.396
 3934.00    0.78862   0.98659    3.300
 3935.00    0.89542   0.98946    3.225
 3936.00    0.98041   0.99634    3.204
 3937.00    1.01844   1.00509    3.243
 3938.00    1.03264   1.01361    3.307
 3939.00    1.04830   1.02062    3.361
 3940.00    1.04684   1.02534    3.401
 3941.00    1.00428   1.02744    3.441
 3942.00    0.92986   1.02756    3.485
 3943.00    0.85932   1.02655    3.517
 3944.00    0.84158   1.02528    3.498
 3945.00    0.89866   1.02504    3.423
 3946.00    1.00019   1.02619    3.351
 3947.00    1.09589   1.02762    3.324
 3948.00    1.14497   1.02881    3.333
 3949.00    1.15030   1.02989    3.341
 3950.00    1.16193   1.03030    3.316
 3951.00    1.17815   1.02926    3.264
 3952.00    1.11793   1.02658    3.234
 3953.00    0.97677   1.02291    3.246
 3954.00    0.87117   1.01906    3.268
 3955.00    0.85556   1.01544    3.275
 3956.00    0.86492   1.01176    3.264
 3957.00    0.85139   1.00712    3.199
 3958.00    0.84078   1.00033    3.022
 3959.00    0.91175   0.99014    2.781
 3960.00    1.13851   0.97558    0.000
 3961.00    1.42718   0.95686    0.000
 3962.00    1.55573   0.93581    0.000
 3963.00    1.48316   0.91262    0.000
 3964.00    1.36754   0.88525    0.000
 3965.00    1.32347   0.85275    0.000
 3966.00    1.36972   0.81497    0.000
 3967.00    1.48590   0.77281    0.000
 3968.00    1.62511   0.73154    0.000
 3969.00    1.70753   0.70045    0.000
 3970.00    1.65584   0.68984    0.000
 3971.00    1.47333   0.70487    0.000
 3972.00    1.22865   0.74060    0.000
 3973.00    0.99128   0.78654    0.000
 3974.00    0.81226   0.83367    0.000
 3975.00    0.71342   0.87577    0.000
 3976.00    0.68498   0.90981    0.000
 3977.00    0.68657   0.93589    0.000
 3978.00    0.67957   0.95546    0.000
 3979.00    0.67335   0.96973    0.000
 3980.00    0.70478   0.97970    0.000
 3981.00    0.79965   0.98633    3.301
 3982.00    0.94832   0.99078    3.228
 3983.00    1.08697   0.99473    3.212
 3984.00    1.15907   0.99931    3.266
 3985.00    1.18252   1.00427    3.330
 3986.00    1.19776   1.00889    3.352
 3987.00    1.21024   1.01284    3.386
 3988.00    1.22442   1.01591    3.454
 3989.00    1.27315   1.01782    3.407
 3990.00    1.34776   1.01878    3.189
 3991.00    1.35087   1.01915    2.985
 3992.00    1.21644   1.01883    2.920
 3993.00    0.99772   1.01750    2.970
 3994.00    0.80099   1.01516    3.081
 3995.00    0.72303   1.01281    3.205
 3996.00    0.78060   1.01148    3.279
 3997.00    0.88602   1.01120    3.241
 3998.00    0.96006   1.01182    3.164
 3999.00    0.99387   1.01334    3.237
 4000.00    1.01555   1.01486    3.480
 4001.00    1.05737   1.01507    3.596
 4002.00    1.09519   1.01348    3.479
 4003.00    1.05522   1.01025    3.450
 4004.00    0.96852   1.00579    3.584
 4005.00    0.97946   1.00078    3.592
 4006.00    1.10828   0.99629    3.417
 4007.00    1.21109   0.99269    3.336
 4008.00    1.18471   0.98998    3.419
 4009.00    1.03633   0.98913    3.508
 4010.00    0.85696   0.99147    3.529
 4011.00    0.76852   0.99637    3.563
 4012.00    0.79965   1.00188    3.616
 4013.00    0.88333   1.00675    3.603
 4014.00    0.95213   1.01024    3.549
 4015.00    0.97394   1.01219    3.549
 4016.00    0.97171   1.01272    3.591
 4017.00    0.99002   1.01206    3.584
 4018.00    1.01293   1.01051    3.539
 4019.00    1.00000   1.00762    3.526
 4020.00    0.99303   1.00189    3.520
 4021.00    1.06380   0.99165    3.457
 4022.00    1.18127   0.97603    3.392
 4023.00    1.25331   0.95578    3.416
 4024.00    1.23754   0.93372    3.511
 4025.00    1.15374   0.91538    3.599
 4026.00    1.07084   0.90790    3.649
 4027.00    1.04733   0.91502    3.682
 4028.00    1.05640   0.93196    3.735
 4029.00    1.05086   0.95032    3.821
 4030.00    1.05280   0.96496    3.891
 4031.00    1.08905   0.97447    3.899
 4032.00    1.11022   0.97990    3.892
 4033.00    1.05869   0.98322    3.933
 4034.00    0.94665   0.98651    4.001
 4035.00    0.83057   0.99072    4.050
 4036.00    0.77506   0.99569    4.075
 4037.00    0.81361   1.00009    4.049
 4038.00    0.91929   1.00258    3.888
 4039.00    1.02654   1.00269    3.647
 4040.00    1.05953   1.00066    3.543
 4041.00    1.00071   0.99725    3.650
 4042.00    0.92546   0.99330    3.803
 4043.00    0.90913   0.98902    3.817
 4044.00    0.96431   0.98481    3.715
 4045.00    1.04589   0.98196    3.619
 4046.00    1.07390   0.98176    3.630
 4047.00    1.02806   0.98422    3.716
 4048.00    0.97574   0.98787    3.708
 4049.00    0.95484   0.99121    3.588
 4050.00    0.93290   0.99329    3.555
 4051.00    0.89064   0.99345    3.660
 4052.00    0.85163   0.99157    3.742
 4053.00    0.84394   0.98835    3.707
 4054.00    0.88080   0.98473    3.644
 4055.00    0.95112   0.98158    3.624
 4056.00    1.02255   0.97943    3.647
 4057.00    1.06279   0.97817    3.669
 4058.00    1.05673   0.97730    3.645
 4059.00    1.03412   0.97639    3.608
 4060.00    1.04616   0.97500    3.640
 4061.00    1.08039   0.97309    3.722
 4062.00    1.07812   0.97068    3.752
 4063.00    1.03611   0.96794    3.729
 4064.00    1.00230   0.96519    3.732
 4065.00    1.00677   0.96177    3.736
 4066.00    1.04684   0.95618    3.654
 4067.00    1.09109   0.94799    3.512
 4068.00    1.10560   0.93895    3.393
 4069.00    1.09936   0.93186    3.327
 4070.00    1.09473   0.92872    3.311
 4071.00    1.06480   0.92974    3.337
 4072.00    0.97310   0.93337    3.403
 4073.00    0.84965   0.93751    3.500
 4074.00    0.76662   0.93987    3.587
 4075.00    0.78463   0.93972    3.556
 4076.00    0.90859   0.93914    3.381
 4077.00    1.04832   0.94024    3.239
 4078.00    1.11936   0.94321    3.244
 4079.00    1.15751   0.94735    3.274
 4080.00    1.20564   0.95146    3.205
 4081.00    1.19190   0.95402    3.156
 4082.00    1.06859   0.95415    3.239
 4083.00    0.94402   0.95191    3.337
 4084.00    0.93188   0.94792    3.319
 4085.00    1.01479   0.94312    3.280
 4086.00    1.11598   0.93793    3.315
 4087.00    1.16829   0.93223    3.349
 4088.00    1.12735   0.92632    3.346
 4089.00    0.98099   0.92205    3.449
 4090.00    0.77025   0.92036    3.723
 4091.00    0.59024   0.91862    3.950
 4092.00    0.51018   0.91367    0.000
 4093.00    0.53009   0.90399    0.000
 4094.00    0.61644   0.88849    0.000
 4095.00    0.73211   0.86617    0.000
 4096.00    0.87810   0.83720    0.000
 4097.00    1.09416   0.80300    0.000
 4098.00    1.36813   0.76571    0.000
 4099.00    1.61577   0.72746    0.000
 4100.00    1.77288   0.69239    0.000
 4101.00    1.82521   0.66860    0.000
 4102.00    1.77187   0.66496    0.000
 4103.00    1.61666   0.68405    0.000
 4104.00    1.38810   0.71962    0.000
 4105.00    1.13697   0.76188    0.000
 4106.00    0.90747   0.80242    0.000
 4107.00    0.73668   0.83596    0.000
 4108.00    0.67809   0.86092    0.000
 4109.00    0.76861   0.87838    0.000
 4110.00    0.93096   0.89042    0.000
 4111.00    1.02310   0.89899    0.000
 4112.00    1.00806   0.90530    0.000
 4113.00    0.94322   0.90959    4.348
 4114.00    0.87332   0.91161    4.295
 4115.00    0.82053   0.91133    4.286
 4116.00    0.80969   0.90993    4.338
 4117.00    0.85857   0.90861    4.200
 4118.00    0.95261   0.90674    3.987
 4119.00    1.04763   0.90440    3.926
 4120.00    1.08336   0.90349    3.964
 4121.00    1.02336   0.90591    3.964
 4122.00    0.90654   0.91211    3.980
 4123.00    0.80399   0.92017    4.081
 4124.00    0.75336   0.92741    4.047
 4125.00    0.76563   0.93208    3.851
 4126.00    0.84139   0.93340    4.121
 4127.00    0.94898   0.93179    5.822
 4128.00    1.00721   0.92861   10.038
 4129.00    0.97821   0.92530   12.355
 4130.00    0.94727   0.92237   10.443
 4131.00    0.97938   0.92026    9.570
 4132.00    0.99973   0.91965   10.083
 4133.00    0.94858   0.92105   11.036
 4134.00    0.89860   0.92416   10.987
 4135.00    0.90296   0.92802   10.285
 4136.00    0.89648   0.93138   11.581
 4137.00    0.85640   0.93317   12.355
 4138.00    0.88693   0.93280    9.838
 4139.00    1.02429   0.92969    5.053
 4140.00    1.14327   0.92336    3.688
 4141.00    1.14471   0.91411    3.650
 4142.00    1.05119   0.90345    3.936
 4143.00    0.92799   0.89460    3.968
 4144.00    0.83461   0.89158    3.902
 4145.00    0.80431   0.89546    3.945
 4146.00    0.83499   0.90306    4.016
 4147.00    0.88890   0.91067    4.035
 4148.00    0.91247   0.91605    4.027
 4149.00    0.90926   0.91837    4.009
 4150.00    0.93511   0.91831    3.963
 4151.00    0.98375   0.91703    3.886
 4152.00    0.98543   0.91520    3.815
 4153.00    0.93092   0.91360    3.821
 4154.00    0.88332   0.91308    3.959
 4155.00    0.89587   0.91366    4.088
 4156.00    0.97763   0.91506    3.954
 4157.00    1.07094   0.91726    3.724
 4158.00    1.09586   0.91988    3.713
 4159.00    1.06544   0.92200    3.825
 4160.00    1.05212   0.92294    3.732
 4161.00    1.05796   0.92270    3.537
 4162.00    1.03476   0.92165    3.547
 4163.00    0.97809   0.92026    3.761
 4164.00    0.92224   0.91875    3.962
 4165.00    0.89738   0.91706    3.996
 4166.00    0.91113   0.91503    3.900
 4167.00    0.93374   0.91260    3.839
 4168.00    0.93742   0.91002    3.922
 4169.00    0.95382   0.90775    4.035
 4170.00    1.01601   0.90579    4.002
 4171.00    1.07426   0.90369    3.923
 4172.00    1.05823   0.90149    3.962
 4173.00    0.96470   0.90004    4.091
 4174.00    0.83866   0.89975    4.216
 4175.00    0.73723   0.90032    4.361
 4176.00    0.68877   0.90130    4.558
 4177.00    0.66251   0.90241    4.680
 4178.00    0.64207   0.90359    4.603
 4179.00    0.68412   0.90478    4.425
 4180.00    0.80833   0.90567    4.292
 4181.00    0.91789   0.90573    4.257
 4182.00    0.94282   0.90483    4.286
 4183.00    0.93918   0.90316    4.266
 4184.00    0.97232   0.90074    4.156
 4185.00    1.03613   0.89778    4.058
 4186.00    1.09496   0.89475    4.043
 4187.00    1.11751   0.89252    4.074
 4188.00    1.09781   0.89191    4.107
 4189.00    1.06020   0.89269    4.140
 4190.00    1.02598   0.89441    4.182
 4191.00    1.00039   0.89659    4.234
 4192.00    0.99658   0.89823    4.264
 4193.00    1.03725   0.89821    4.217
 4194.00    1.11139   0.89542    4.117
 4195.00    1.16605   0.88943    4.063
 4196.00    1.14966   0.88096    4.111
 4197.00    1.04315   0.87122    4.252
 4198.00    0.90526   0.86175    4.429
 4199.00    0.84086   0.85477    4.551
 4200.00    0.85034   0.85257    4.585
 4201.00    0.84033   0.85564    4.582
 4202.00    0.79830   0.86243    4.560
 4203.00    0.79408   0.87075    4.500
 4204.00    0.84465   0.87876    4.398
 4205.00    0.90458   0.88538    4.289
 4206.00    0.93336   0.89037    4.237
 4207.00    0.92558   0.89367    4.285
 4208.00    0.93695   0.89530    4.344
 4209.00    1.02860   0.89535    4.276
 4210.00    1.14909   0.89414    4.140
 4211.00    1.19495   0.89223    4.084
 4212.00    1.16042   0.89013    4.109
 4213.00    1.09779   0.88836    4.147
 4214.00    1.00962   0.88711    4.213
 4215.00    0.89092   0.88639    4.346
 4216.00    0.81431   0.88681    4.462
 4217.00    0.85488   0.88851    4.429
 4218.00    0.97491   0.89056    4.254
 4219.00    1.08915   0.89187    4.056
 4220.00    1.16287   0.89164    3.959
 4221.00    1.18325   0.88934    4.000
 4222.00    1.11795   0.88484    4.068
 4223.00    0.96845   0.87873    4.059
 4224.00    0.82065   0.87194    4.062
 4225.00    0.74955   0.86570    4.148
 4226.00    0.73150   0.86151    4.169
 4227.00    0.71055   0.86073    4.028
 4228.00    0.66495   0.86355    3.891
 4229.00    0.62907   0.86831    3.876
 4230.00    0.68814   0.87283    3.893
 4231.00    0.84261   0.87574    3.869
 4232.00    0.94286   0.87649    3.886
 4233.00    0.90117   0.87552    4.006
 4234.00    0.80605   0.87389    4.176
 4235.00    0.75598   0.87217    4.299
 4236.00    0.76430   0.87069    4.308
 4237.00    0.80461   0.87004    4.226
 4238.00    0.84285   0.87036    4.160
 4239.00    0.85914   0.87124    4.163
 4240.00    0.85832   0.87245    4.211
 4241.00    0.87061   0.87390    4.219
 4242.00    0.93241   0.87548    4.109
 4243.00    1.01192   0.87705    3.957
 4244.00    1.01617   0.87809    3.942
 4245.00    0.92440   0.87777    4.103
 4246.00    0.80921   0.87586    4.312
 4247.00    0.74189   0.87294    4.408
 4248.00    0.75513   0.86985    4.317
 4249.00    0.83102   0.86698    4.146
 4250.00    0.91235   0.86441    4.068
 4251.00    0.94234   0.86232    4.108
 4252.00    0.89330   0.86065    4.183
 4253.00    0.80715   0.85918    4.235
 4254.00    0.75956   0.85846    4.257
 4255.00    0.75963   0.85897    4.238
 4256.00    0.77045   0.86018    4.176
 4257.00    0.79622   0.86108    4.093
 4258.00    0.85911   0.86094    4.025
 4259.00    0.92535   0.86006    3.976
 4260.00    0.94414   0.85940    3.939
 4261.00    0.93310   0.85978   -2.000
 4262.00    0.92725   0.86122   -2.000
 4263.00    0.88487   0.86254   -2.000
 4264.00    0.78452   0.86230   -2.000
 4265.00    0.76726   0.85984   -2.000
 4266.00    0.95074   0.85550   -2.000
 4267.00    1.18615   0.85083   -2.000
 4268.00    1.29294   0.84765   -2.000
 4269.00    1.34544   0.84578   -2.000
 4270.00    1.43651   0.84388   -2.000
 4271.00    1.41974   0.84157   -2.000
 4272.00    1.17879   0.83935   -2.000
 4273.00    0.88503   0.83778   -2.000
 4274.00    0.74158   0.83701   -2.000
 4275.00    0.75086   0.83742   -2.000
 4276.00    0.82664   0.83946    4.100
 4277.00    0.89897   0.84275    4.076
 4278.00    0.91432   0.84617    4.055
 4279.00    0.83829   0.84839    4.162
 4280.00    0.70750   0.84874    4.434
 4281.00    0.63965   0.84761    4.680
 4282.00    0.68450   0.84564    4.689
 4283.00    0.75954   0.84349    4.500
 4284.00    0.79878   0.84157    4.292
 4285.00    0.82004   0.83989    4.209
 4286.00    0.83690   0.83835    4.281
 4287.00    0.82849   0.83657    4.424
 4288.00    0.81124   0.83421    4.529
 4289.00    0.84513   0.83185    4.527
 4290.00    0.92368   0.83058    4.456
 4291.00    0.96175   0.83103    4.428
 4292.00    0.92091   0.83269    4.480
 4293.00    0.83907   0.83427    4.560
 4294.00    0.76736   0.83467    4.641
 4295.00    0.73943   0.83392    4.732
 4296.00    0.74788   0.83217    4.785
 4297.00    0.75529   0.82925    4.723
 4298.00    0.74415   0.82531    4.623
 4299.00    0.72351   0.82087    4.637
 4300.00    0.70950   0.81680    4.752
 4301.00    0.71986   0.81372    4.820
 4302.00    0.77263   0.81146    4.783
 4303.00    0.86933   0.80982    4.699
 4304.00    0.96249   0.80889    4.618
 4305.00    0.98814   0.80824    4.559
 4306.00    0.93856   0.80731    4.535
 4307.00    0.85299   0.80612    4.561
 4308.00    0.77692   0.80536    4.650
 4309.00    0.74426   0.80588    4.783
 4310.00    0.76094   0.80787    4.831
 4311.00    0.80674   0.81083    4.695
 4312.00    0.84356   0.81416    4.518
 4313.00    0.84608   0.81761    4.451
 4314.00    0.83651   0.82135    4.423
 4315.00    0.83619   0.82547    4.347
 4316.00    0.80975   0.82942    4.327
 4317.00    0.74145   0.83227    4.453
 4318.00    0.71296   0.83353    4.587
 4319.00    0.77894   0.83314    4.560
 4320.00    0.85027   0.83129    4.454
 4321.00    0.82545   0.82805    4.414
 4322.00    0.71272   0.82322    4.462
 4323.00    0.58243   0.81686    4.546
 4324.00    0.51361   0.80990    4.569
 4325.00    0.54667   0.80407    4.490
 4326.00    0.65452   0.80099    4.385
 4327.00    0.76975   0.80091    4.310
 4328.00    0.81438   0.80226    4.245
 4329.00    0.76036   0.80291    4.237
 4330.00    0.65804   0.80128    0.000
 4331.00    0.58906   0.79673    0.000
 4332.00    0.62502   0.78906    0.000
 4333.00    0.75982   0.77769    0.000
 4334.00    0.90608   0.76142    0.000
 4335.00    1.03337   0.73868    0.000
 4336.00    1.20963   0.70855    0.000
 4337.00    1.50102   0.67256    0.000
 4338.00    1.91387   0.63572    0.000
 4339.00    2.34474   0.60530    0.000
 4340.00    2.60218   0.58882    0.000
 4341.00    2.54402   0.59153    0.000
 4342.00    2.14982   0.61208    0.000
 4343.00    1.58847   0.64297    0.000
 4344.00    1.13543   0.67616    0.000
 4345.00    0.88604   0.70641    0.000
 4346.00    0.75355   0.73110    0.000
 4347.00    0.67799   0.74969    0.000
 4348.00    0.66036   0.76287    0.000
 4349.00    0.71088   0.77162    0.000
 4350.00    0.82218   0.77701    0.000
 4351.00    0.94128   0.78063    4.353
 4352.00    1.00086   0.78451    4.356
 4353.00    0.98950   0.78984    4.435
 4354.00    0.93366   0.79618    4.443
 4355.00    0.84361   0.80249    4.452
 4356.00    0.73716   0.80786    4.611
 4357.00    0.68849   0.81174    4.800
 4358.00    0.75321   0.81407    4.796
 4359.00    0.85555   0.81548    4.720
 4360.00    0.89651   0.81687    4.765
 4361.00    0.91013   0.81858    4.781
 4362.00    0.95247   0.82036    4.612
 4363.00    0.95430   0.82165    4.525
 4364.00    0.85602   0.82192    4.731
 4365.00    0.76052   0.82090    4.948
 4366.00    0.77482   0.81863    4.819
 4367.00    0.84632   0.81591    4.599
 4368.00    0.87514   0.81377    4.595
 4369.00    0.83157   0.81249    4.783
 4370.00    0.75986   0.81157    4.970
 4371.00    0.75616   0.81045    4.923
 4372.00    0.83363   0.80888    4.684
 4373.00    0.85317   0.80699    4.619
 4374.00    0.75417   0.80536    4.847
 4375.00    0.67959   0.80476    5.009
 4376.00    0.72553   0.80548    4.858
 4377.00    0.80653   0.80689    4.711
 4378.00    0.82617   0.80767    4.770
 4379.00    0.77590   0.80680    4.887
 4380.00    0.71095   0.80388    4.902
 4381.00    0.71253   0.79883    4.832
 4382.00    0.78413   0.79187    4.763
 4383.00    0.83494   0.78412    4.770
 4384.00    0.81790   0.77727    4.862
 4385.00    0.77151   0.77239    4.968
 4386.00    0.74532   0.76946    4.983
 4387.00    0.76444   0.76827    4.843
 4388.00    0.81338   0.76974    4.677
 4389.00    0.84909   0.77461    4.687
 4390.00    0.85876   0.78164    4.831
 4391.00    0.86309   0.78894    4.858
 4392.00    0.87140   0.79512    4.731
 4393.00    0.87674   0.79926    4.645
 4394.00    0.87852   0.80151    4.653
 4395.00    0.87791   0.80293    4.681
 4396.00    0.85358   0.80448    4.702
 4397.00    0.78738   0.80608    4.746
 4398.00    0.73009   0.80680    4.796
 4399.00    0.75612   0.80618    4.803
 4400.00    0.84881   0.80443    4.754
 4401.00    0.93294   0.80211    4.682
 4402.00    0.97322   0.79945    4.629
 4403.00    0.96706   0.79621    4.630
 4404.00    0.90524   0.79278    4.670
 4405.00    0.79474   0.79041    4.717
 4406.00    0.69893   0.78993    4.754
 4407.00    0.68565   0.79110    4.767
 4408.00    0.75083   0.79336    4.715
 4409.00    0.84095   0.79624    4.593
 4410.00    0.89619   0.79888    4.487
 4411.00    0.89196   0.80011    4.458
 4412.00    0.87290   0.79927    4.451
 4413.00    0.87481   0.79614    4.410
 4414.00    0.85047   0.79139    4.384
 4415.00    0.76752   0.78711    4.423
 4416.00    0.69456   0.78543    4.484
 4417.00    0.69339   0.78685    4.500
 4418.00    0.72866   0.79054    4.453
 4419.00    0.73361   0.79485    4.386
 4420.00    0.67261   0.79812    4.370
 4421.00    0.58252   0.79962    4.398
 4422.00    0.57596   0.79958    4.340
 4423.00    0.69058   0.79881    4.171
 4424.00    0.82092   0.79792    4.042
 4425.00    0.89365   0.79699    4.025
 4426.00    0.94861   0.79598    4.044
 4427.00    1.00523   0.79501    4.053
 4428.00    1.01135   0.79414    4.104
 4429.00    0.95364   0.79314    4.215
 4430.00    0.89149   0.79174    4.317
 4431.00    0.86409   0.79011    4.353
 4432.00    0.85400   0.78826    4.340
 4433.00    0.81093   0.78600    4.352
 4434.00    0.68911   0.78373    4.474
 4435.00    0.54033   0.78226    4.680
 4436.00    0.49300   0.78228    4.800
 4437.00    0.57677   0.78376    4.703
 4438.00    0.70277   0.78590    4.442
 4439.00    0.77977   0.78737    4.220
 4440.00    0.76422   0.78718    4.214
 4441.00    0.69531   0.78561    4.387
 4442.00    0.65866   0.78395    4.532
 4443.00    0.67742   0.78344    4.558
 4444.00    0.71778   0.78448    4.542
 4445.00    0.76074   0.78648    4.549
 4446.00    0.80317   0.78831    4.587
 4447.00    0.82760   0.78935    4.598
 4448.00    0.81804   0.78973    4.527
 4449.00    0.79830   0.78952    4.421
 4450.00    0.80341   0.78856    4.376
 4451.00    0.82188   0.78686    4.432
 4452.00    0.81996   0.78447    4.567
 4453.00    0.79173   0.78155    4.693
 4454.00    0.74618   0.77847    4.735
 4455.00    0.68068   0.77576    4.763
 4456.00    0.60781   0.77395    4.863
 4457.00    0.58754   0.77297    4.928
 4458.00    0.65036   0.77233    4.852
 4459.00    0.71455   0.77180    4.782
 4460.00    0.70038   0.77145    4.864
 4461.00    0.64978   0.77140    0.000
 4462.00    0.63120   0.77183    0.000
 4463.00    0.64207   0.77265    0.000
 4464.00    0.65077   0.77293    0.000
 4465.00    0.64209   0.77155    0.000
 4466.00    0.62988   0.76777    0.000
 4467.00    0.65649   0.76117    0.000
 4468.00    0.73473   0.75191    0.000
 4469.00    0.81582   0.74134    0.000
 4470.00    0.85749   0.73200    0.000
 4471.00    0.86217   0.72730    0.000
 4472.00    0.82773   0.73033    0.000
 4473.00    0.73143   0.74053    0.000
 4474.00    0.61070   0.75361    0.000
 4475.00    0.57587   0.76545    0.000
 4476.00    0.65401   0.77368    0.000
 4477.00    0.74408   0.77727    0.000
 4478.00    0.76676   0.77638    0.000
 4479.00    0.72373   0.77233    0.000
 4480.00    0.65508   0.76746    0.000
 4481.00    0.61032   0.76454    0.000
 4482.00    0.61201   0.76534    5.373
 4483.00    0.64846   0.76942    5.262
 4484.00    0.69483   0.77469    5.190
 4485.00    0.72872   0.77912    5.157
 4486.00    0.75413   0.78137    5.141
 4487.00    0.79003   0.78112    5.125
 4488.00    0.82056   0.77912    5.112
 4489.00    0.80712   0.77671    5.130
 4490.00    0.75221   0.77503    5.223
 4491.00    0.69531   0.77432    5.410
 4492.00    0.66691   0.77407    5.560
 4493.00    0.67873   0.77359    5.497
 4494.00    0.72637   0.77271    5.349
 4495.00    0.79333   0.77198    5.344
 4496.00    0.85751   0.77201    5.403
 4497.00    0.89410   0.77295    5.337
 4498.00    0.87978   0.77450    5.291
 4499.00    0.82144   0.77613    5.473
 4500.00    0.79385   0.77754    5.680
 4501.00    0.84580   0.77891    5.587
 4502.00    0.87088   0.78065    5.449
 4503.00    0.76458   0.78268    5.595
 4504.00    0.63538   0.78426    5.791
 4505.00    0.63653   0.78475    5.663
 4506.00    0.74617   0.78403    5.422
 4507.00    0.85638   0.78241    5.383
 4508.00    0.89705   0.78030    5.522
 4509.00    0.86633   0.77793    5.668
 4510.00    0.83687   0.77520    5.688
 4511.00    0.84645   0.77209    5.597
 4512.00    0.81775   0.76882    5.597
 4513.00    0.70763   0.76578    5.764
 4514.00    0.61397   0.76339    5.855
 4515.00    0.62756   0.76219    5.705
 4516.00    0.72577   0.76239    5.540
 4517.00    0.83517   0.76350    5.512
 4518.00    0.88594   0.76501    5.511
 4519.00    0.85606   0.76654    5.487
 4520.00    0.78710   0.76747    5.585
 4521.00    0.73001   0.76720    5.812
 4522.00    0.71162   0.76545    5.881
 4523.00    0.72299   0.76253    5.719
 4524.00    0.72759   0.75904    5.636
 4525.00    0.72066   0.75520    5.726
 4526.00    0.73832   0.75115    5.759
 4527.00    0.78235   0.74726    5.630
 4528.00    0.80792   0.74405    5.500
 4529.00    0.79729   0.74211    5.472
 4530.00    0.77659   0.74163    5.528
 4531.00    0.77558   0.74209    5.616
 4532.00    0.80368   0.74270    5.690
 4533.00    0.82217   0.74288    5.756
 4534.00    0.77342   0.74276    5.860
 4535.00    0.68328   0.74287    5.981
 4536.00    0.64198   0.74322    6.031
 4537.00    0.68237   0.74288    5.951
 4538.00    0.76659   0.74057    5.778
 4539.00    0.83038   0.73607    5.663
 4540.00    0.81994   0.73061    5.749
 4541.00    0.74495   0.72645    5.983
 4542.00    0.66413   0.72569    6.159
 4543.00    0.63507   0.72850    6.167
 4544.00    0.67885   0.73322    6.050
 4545.00    0.73940   0.73811    5.905
 4546.00    0.74796   0.74203    5.811
 4547.00    0.73088   0.74434    5.780
 4548.00    0.73962   0.74495    5.806
 4549.00    0.73214   0.74431    5.933
 4550.00    0.66096   0.74316    0.000
 4551.00    0.60169   0.74187    0.000
 4552.00    0.63746   0.74063    0.000
 4553.00    0.71063   0.74011    0.000
 4554.00    0.73169   0.74092    0.000
 4555.00    0.70982   0.74313    0.000
 4556.00    0.68214   0.74648    0.000
 4557.00    0.63625   0.75032    0.000
 4558.00    0.56808   0.75374    0.000
 4559.00    0.53262   0.75611    0.000
 4560.00    0.57320   0.75710    0.000
 4561.00    0.66553   0.75674    0.000
 4562.00    0.76454   0.75522    0.000
 4563.00    0.84248   0.75295    0.000
 4564.00    0.88621   0.75061    0.000
 4565.00    0.89370   0.74884    0.000
 4566.00    0.87399   0.74786    0.000
 4567.00    0.84448   0.74744    0.000
 4568.00    0.81533   0.74723    0.000
 4569.00    0.78291   0.74705    0.000
 4570.00    0.74199   0.74682    0.000
 4571.00    0.69312   0.74655    0.000
 4572.00    0.64613   0.74661    0.000
 4573.00    0.61685   0.74712    0.000
 4574.00    0.60703   0.74767    0.000
 4575.00    0.60209   0.74794    0.000
 4576.00    0.59549   0.74780    0.000
 4577.00    0.59355   0.74696    0.000
 4578.00    0.59922   0.74531    0.000
 4579.00    0.60843   0.74315    0.000
 4580.00    0.61716   0.74105    0.000
 4581.00    0.62690   0.73954    0.000
 4582.00    0.65244   0.73876    0.000
 4583.00    0.70597   0.73853    0.000
 4584.00    0.75163   0.73866    0.000
 4585.00    0.73400   0.73906    0.000
 4586.00    0.67094   0.73959    0.000
 4587.00    0.62479   0.74011    0.000
 4588.00    0.59555   0.74033    0.000
 4589.00    0.54954   0.73987    0.000
 4590.00    0.51812   0.73854    0.000
 4591.00    0.55617   0.73672    0.000
 4592.00    0.63693   0.73501    0.000
 4593.00    0.69062   0.73371    0.000
 4594.00    0.69587   0.73279    0.000
 4595.00    0.67115   0.73221    0.000
 4596.00    0.63954   0.73211    0.000
 4597.00    0.61127   0.73246    0.000
 4598.00    0.57051   0.73290    0.000
 4599.00    0.51935   0.73298    0.000
 4600.00    0.52550   0.73254    0.000
 4601.00    0.62337   0.73185    0.000
 4602.00    0.71102   0.73142    0.000
 4603.00    0.69468   0.73150    0.000
 4604.00    0.63323   0.73203    0.000
 4605.00    0.60903   0.73287    0.000
 4606.00    0.60452   0.73395    0.000
 4607.00    0.57856   0.73516    0.000
 4608.00    0.53702   0.73626    0.000
 4609.00    0.51213   0.73691    0.000
 4610.00    0.53794   0.73702    0.000
 4611.00    0.61754   0.73687    0.000
 4612.00    0.70872   0.73673    0.000
 4613.00    0.77301   0.73668    0.000
 4614.00    0.80443   0.73675    0.000
 4615.00    0.80931   0.73676    0.000
 4616.00    0.79515   0.73632    0.000
 4617.00    0.77871   0.73543    0.000
 4618.00    0.78133   0.73431    0.000
 4619.00    0.78656   0.73347    0.000
 4620.00    0.74118   0.73341    0.000
 4621.00    0.64594   0.73409    0.000
 4622.00    0.56968   0.73498    0.000
 4623.00    0.54851   0.73565    0.000
 4624.00    0.56125   0.73576    0.000
 4625.00    0.58704   0.73516    0.000
 4626.00    0.62242   0.73394    0.000
 4627.00    0.66695   0.73226    0.000
 4628.00    0.71762   0.73020    0.000
 4629.00    0.76709   0.72795    0.000
 4630.00    0.80575   0.72592    0.000
 4631.00    0.82814   0.72453    0.000
 4632.00    0.83366   0.72379    0.000
 4633.00    0.82395   0.72335    0.000
 4634.00    0.80306   0.72286    0.000
 4635.00    0.77906   0.72203    0.000
 4636.00    0.75761   0.72056    0.000
 4637.00    0.72936   0.71835    0.000
 4638.00    0.68461   0.71576    0.000
 4639.00    0.64307   0.71346    0.000
 4640.00    0.63350   0.71197    0.000
 4641.00    0.65261   0.71129    0.000
 4642.00    0.68291   0.71088    0.000
 4643.00    0.72803   0.70972    0.000
 4644.00    0.78892   0.70683    0.000
 4645.00    0.82750   0.70183    0.000
 4646.00    0.81186   0.69538    0.000
 4647.00    0.77411   0.68917    0.000
 4648.00    0.75813   0.68500    0.000
 4649.00    0.75539   0.68363    0.000
 4650.00    0.73693   0.68491    0.000
 4651.00    0.69401   0.68837    0.000
 4652.00    0.64307   0.69302    0.000
 4653.00    0.62187   0.69769    0.000
 4654.00    0.64571   0.70178    0.000
 4655.00    0.67778   0.70565    0.000
 4656.00    0.69256   0.70964    0.000
 4657.00    0.71771   0.71363    0.000
 4658.00    0.76162   0.71714    0.000
 4659.00    0.77283   0.71939    0.000
 4660.00    0.72810   0.71974    0.000
 4661.00    0.67816   0.71806    0.000
 4662.00    0.66718   0.71485    0.000
 4663.00    0.68825   0.71083    0.000
 4664.00    0.71116   0.70653    0.000
 4665.00    0.70740   0.70246    0.000
 4666.00    0.69060   0.69917    0.000
 4667.00    0.71298   0.69735    0.000
 4668.00    0.76564   0.69748    0.000
 4669.00    0.76929   0.69940    0.000
 4670.00    0.71410   0.70224    0.000
 4671.00    0.67932   0.70481    0.000
 4672.00    0.69665   0.70628    0.000
 4673.00    0.72232   0.70662    0.000
 4674.00    0.71397   0.70644    0.000
 4675.00    0.66305   0.70625    0.000
 4676.00    0.61022   0.70614    0.000
 4677.00    0.61302   0.70582    0.000
 4678.00    0.64935   0.70489    0.000
 4679.00    0.64476   0.70299    0.000
 4680.00    0.60255   0.69990    0.000
 4681.00    0.58571   0.69545    0.000
 4682.00    0.60499   0.68960    0.000
 4683.00    0.62487   0.68278    0.000
 4684.00    0.62788   0.67602    0.000
 4685.00    0.62471   0.67110    0.000
 4686.00    0.64676   0.67005    0.000
 4687.00    0.71577   0.67338    0.000
 4688.00    0.79790   0.67955    0.000
 4689.00    0.83967   0.68642    0.000
 4690.00    0.83373   0.69245    0.000
 4691.00    0.80621   0.69698    0.000
 4692.00    0.78434   0.70015    0.000
 4693.00    0.77854   0.70229    0.000
 4694.00    0.76791   0.70348    0.000
 4695.00    0.73125   0.70361    0.000
 4696.00    0.68321   0.70248    0.000
 4697.00    0.65203   0.70015    0.000
 4698.00    0.65191   0.69706    0.000
 4699.00    0.68295   0.69405    0.000
 4700.00    0.73307   0.69178    0.000
 4701.00    0.77250   0.69030    0.000
 4702.00    0.75553   0.68935    0.000
 4703.00    0.67709   0.68880    0.000
 4704.00    0.60610   0.68855    0.000
 4705.00    0.59616   0.68848    0.000
 4706.00    0.62633   0.68844    0.000
 4707.00    0.65475   0.68826    0.000
 4708.00    0.65892   0.68776    0.000
 4709.00    0.64606   0.68683    0.000
 4710.00    0.64974   0.68542    0.000
 4711.00    0.68367   0.68362    0.000
 4712.00    0.72510   0.68173    0.000
 4713.00    0.75869   0.68074    0.000
 4714.00    0.79158   0.68169    0.000
 4715.00    0.81959   0.68471    0.000
 4716.00    0.82106   0.68898    0.000
 4717.00    0.79599   0.69356    0.000
 4718.00    0.77366   0.69756    0.000
 4719.00    0.78038   0.70045    0.000
 4720.00    0.82122   0.70211    0.000
 4721.00    0.86246   0.70271    0.000
 4722.00    0.85374   0.70253    0.000
 4723.00    0.81073   0.70181    0.000
 4724.00    0.79783   0.70054    0.000
 4725.00    0.81149   0.69849    0.000
 4726.00    0.79330   0.69560    0.000
 4727.00    0.74462   0.69218    0.000
 4728.00    0.71661   0.68898    0.000
 4729.00    0.72108   0.68673    0.000
 4730.00    0.73138   0.68573    0.000
 4731.00    0.72764   0.68587    0.000
 4732.00    0.70369   0.68677    0.000
 4733.00    0.66166   0.68791    0.000
 4734.00    0.61128   0.68886    0.000
 4735.00    0.57000   0.68948    0.000
 4736.00    0.55068   0.68973    0.000
 4737.00    0.54384   0.68980    0.000
 4738.00    0.53824   0.68985    0.000
 4739.00    0.55158   0.68981    0.000
 4740.00    0.59591   0.68964    0.000
 4741.00    0.63150   0.68948    0.000
 4742.00    0.62201   0.68950    0.000
 4743.00    0.60093   0.68976    0.000
 4744.00    0.60833   0.69017    0.000
 4745.00    0.62019   0.69062    0.000
 4746.00    0.60644   0.69104    0.000
 4747.00    0.58974   0.69126    0.000
 4748.00    0.59531   0.69114    0.000
 4749.00    0.60608   0.69063    0.000
 4750.00    0.60312   0.68971    0.000
 4751.00    0.59787   0.68840    0.000
 4752.00    0.60240   0.68686    0.000
 4753.00    0.60909   0.68530    0.000
 4754.00    0.61529   0.68393    0.000
 4755.00    0.63629   0.68290    0.000
 4756.00    0.67528   0.68221    0.000
 4757.00    0.70989   0.68177    0.000
 4758.00    0.72353   0.68135    0.000
 4759.00    0.72026   0.68068    0.000
 4760.00    0.70830   0.67953    0.000
 4761.00    0.69188   0.67776    7.245
 4762.00    0.67454   0.67557    7.085
 4763.00    0.65948   0.67337    7.012
 4764.00    0.64403   0.67161    7.125
 4765.00    0.62058   0.67058    7.309
 4766.00    0.58893   0.67046    7.428
 4767.00    0.56004   0.67117    7.418
 4768.00    0.55212   0.67237    7.328
 4769.00    0.58273   0.67362    7.269
 4770.00    0.64921   0.67457    7.263
 4771.00    0.72520   0.67515    7.254
 4772.00    0.76914   0.67556    7.253
 4773.00    0.74679   0.67607    7.308
 4774.00    0.68060   0.67668    7.329
 4775.00    0.63075   0.67717    7.168
 4776.00    0.62224   0.67728    6.943
 4777.00    0.64038   0.67690    6.875
 4778.00    0.65894   0.67600    6.941
 4779.00    0.65591   0.67464    6.968
 4780.00    0.63132   0.67300    6.904
 4781.00    0.60343   0.67124    6.814
 4782.00    0.59543   0.66949    6.776
 4783.00    0.61963   0.66786    6.812
 4784.00    0.65738   0.66649    6.817
 4785.00    0.67543   0.66545    6.720
 4786.00    0.65485   0.66472    6.697
 4787.00    0.60288   0.66442    6.905
 4788.00    0.56049   0.66461    7.114
 4789.00    0.56728   0.66529    7.017
 4790.00    0.61917   0.66649    6.802
 4791.00    0.68202   0.66817    6.743
 4792.00    0.71457   0.67013    6.780
 4793.00    0.70009   0.67207    6.780
 4794.00    0.67066   0.67356    6.773
 4795.00    0.65826   0.67416    6.825
 4796.00    0.65193   0.67372    6.898
 4797.00    0.63147   0.67243    6.925
 4798.00    0.59722   0.67079    6.885
 4799.00    0.55917   0.66935    6.828
 4800.00    0.52579   0.66850    6.859
 4801.00    0.49564   0.66824    7.012
 4802.00    0.45781   0.66823    7.175
 4803.00    0.42824   0.66805    7.208
 4804.00    0.45860   0.66745    7.065
 4805.00    0.55630   0.66647    6.852
 4806.00    0.65529   0.66537    6.752
 4807.00    0.70636   0.66441    6.786
 4808.00    0.71615   0.66374    6.782
 4809.00    0.70288   0.66338    6.697
 4810.00    0.67507   0.66322    6.698
 4811.00    0.63564   0.66310    6.832
 4812.00    0.58635   0.66299    6.957
 4813.00    0.53648   0.66297    7.011
 4814.00    0.50331   0.66319    7.080
 4815.00    0.50189   0.66368    7.155
 4816.00    0.53781   0.66429    7.114
 4817.00    0.59683   0.66479    6.983
 4818.00    0.64892   0.66490    6.922
 4819.00    0.66939   0.66444    6.942
 4820.00    0.65175   0.66339    6.935
 4821.00    0.62367   0.66185    6.916
 4822.00    0.62495   0.66003    6.969
 4823.00    0.64722   0.65824    7.005
 4824.00    0.65286   0.65686    6.858
 4825.00    0.64624   0.65601    6.657
 4826.00    0.66279   0.65544    6.629
 4827.00    0.71656   0.65483    6.727
 4828.00    0.78849   0.65403    6.754
 4829.00    0.82633   0.65316    6.719
 4830.00    0.78693   0.65244    6.753
 4831.00    0.70183   0.65197    6.853
 4832.00    0.63459   0.65181    6.938
 4833.00    0.60324   0.65195    6.988
 4834.00    0.59276   0.65217    7.018
 4835.00    0.58779   0.65215    7.010
 4836.00    0.58043   0.65164    6.956
 4837.00    0.57354   0.65059    6.922
 4838.00    0.56592   0.64906    6.971
 4839.00    0.53835   0.64731    7.080
 4840.00    0.48591   0.64563    7.199
 4841.00    0.44804   0.64424    7.318
 4842.00    0.46339   0.64317    7.397
 4843.00    0.52649   0.64233    7.322
 4844.00    0.60159   0.64157    7.116
 4845.00    0.64201   0.64061    7.038
 4846.00    0.62555   0.63914    7.206
 4847.00    0.57650   0.63700    7.393
 4848.00    0.53226   0.63424    0.000
 4849.00    0.51614   0.63097    0.000
 4850.00    0.52112   0.62708    0.000
 4851.00    0.51192   0.62216    0.000
 4852.00    0.49175   0.61563    0.000
 4853.00    0.52812   0.60696    0.000
 4854.00    0.68085   0.59561    0.000
 4855.00    0.97349   0.58117    0.000
 4856.00    1.44441   0.56341    0.000
 4857.00    2.14286   0.54243    0.000
 4858.00    3.00349   0.51932    0.000
 4859.00    3.81970   0.49681    0.000
 4860.00    4.35906   0.47905    0.000
 4861.00    4.43758   0.47029    0.000
 4862.00    4.01067   0.47299    0.000
 4863.00    3.19808   0.48632    0.000
 4864.00    2.25551   0.50656    0.000
 4865.00    1.48335   0.52910    0.000
 4866.00    0.99533   0.55020    0.000
 4867.00    0.71806   0.56769    0.000
 4868.00    0.57584   0.58096    0.000
 4869.00    0.52977   0.59044    0.000
 4870.00    0.54714   0.59700    0.000
 4871.00    0.59148   0.60178    0.000
 4872.00    0.61886   0.60590    0.000
 4873.00    0.59975   0.61003    0.000
 4874.00    0.56213   0.61432    0.000
 4875.00    0.55881   0.61861    7.195
 4876.00    0.59344   0.62266    7.021
 4877.00    0.63385   0.62619    7.010
 4878.00    0.65715   0.62899    7.107
 4879.00    0.65825   0.63088    7.117
 4880.00    0.65060   0.63180    7.071
 4881.00    0.65316   0.63179    7.093
 4882.00    0.67247   0.63114    7.117
 4883.00    0.70008   0.63013    7.054
 4884.00    0.71387   0.62894    7.018
 4885.00    0.69629   0.62774    7.121
 4886.00    0.65370   0.62664    7.241
 4887.00    0.60070   0.62570    7.261
 4888.00    0.54267   0.62492    7.357
 4889.00    0.48642   0.62445    7.668
 4890.00    0.44999   0.62467    7.955
 4891.00    0.44475   0.62607    7.945
 4892.00    0.46133   0.62896    7.797
 4893.00    0.48776   0.63301    7.745
 4894.00    0.52327   0.63740    7.800
 4895.00    0.56768   0.64118    7.841
 4896.00    0.61383   0.64359    7.703
 4897.00    0.65234   0.64435    7.431
 4898.00    0.67626   0.64366    7.301
 4899.00    0.68783   0.64203    7.382
 4900.00    0.69827   0.64012    7.423
 4901.00    0.70583   0.63846    7.293
 4902.00    0.68986   0.63731    7.186
 4903.00    0.64059   0.63672    7.272
 4904.00    0.57176   0.63656    7.571
 4905.00    0.50968   0.63656    7.927
 4906.00    0.48276   0.63635    8.016
 4907.00    0.50124   0.63565    7.801
 4908.00    0.55167   0.63448    7.606
 4909.00    0.60734   0.63316    7.578
 4910.00    0.64053   0.63216    7.621
 4911.00    0.64904   0.63183    7.585
 4912.00    0.65277   0.63215    7.388
 4913.00    0.65742   0.63272    7.180
 4914.00    0.65418   0.63279    7.191
 4915.00    0.64943   0.63156    7.391
 4916.00    0.66140   0.62836    7.523
 4917.00    0.69159   0.62294    7.461
 4918.00    0.72432   0.61578    7.295
 4919.00    0.74204   0.60805    7.186
 4920.00    0.73281   0.60134    7.244
 4921.00    0.69763   0.59716    7.419
 4922.00    0.64900   0.59643    7.556
 4923.00    0.60509   0.59916    7.585
 4924.00    0.58416   0.60454    7.533
 4925.00    0.59695   0.61138    7.441
 4926.00    0.64074   0.61852    7.345
 4927.00    0.69327   0.62491    7.283
 4928.00    0.72654   0.62982    7.276
 4929.00    0.72756   0.63286    7.305
 4930.00    0.69926   0.63394    7.333
 4931.00    0.65773   0.63327    7.338
 4932.00    0.62868   0.63136    7.313
 4933.00    0.64126   0.62883    7.254
 4934.00    0.69949   0.62626    7.164
 4935.00    0.75708   0.62394    7.063
 4936.00    0.76370   0.62188    6.999
 4937.00    0.71120   0.62011    7.054
 4938.00    0.62118   0.61884    7.249
 4939.00    0.52824   0.61843    7.459
 4940.00    0.46126   0.61907    0.000
 4941.00    0.43029   0.62063    0.000
 4942.00    0.43362   0.62272    0.000
 4943.00    0.46377   0.62489    0.000
 4944.00    0.50769   0.62681    0.000
 4945.00    0.54910   0.62835    0.000
 4946.00    0.58259   0.62955    0.000
 4947.00    0.61781   0.63053    0.000
 4948.00    0.65492   0.63132    0.000
 4949.00    0.67731   0.63183    0.000
 4950.00    0.68430   0.63187    0.000
 4951.00    0.71161   0.63121    0.000
 4952.00    0.84688   0.62962    0.000
 4953.00    1.21439   0.62700    0.000
 4954.00    1.88633   0.62346    0.000
 4955.00    2.82960   0.61941    0.000
 4956.00    3.85147   0.61557    0.000
 4957.00    4.63846   0.61284    0.000
 4958.00    4.95257   0.61188    0.000
 4959.00    4.71084   0.61271    0.000
 4960.00    4.01416   0.61466    0.000
 4961.00    3.10162   0.61670    0.000
 4962.00    2.20243   0.61799    0.000
 4963.00    1.48076   0.61813    0.000
 4964.00    1.00704   0.61722    0.000
 4965.00    0.76103   0.61575    0.000
 4966.00    0.65708   0.61429    0.000
 4967.00    0.59431   0.61330    0.000
 4968.00    0.54563   0.61303    0.000
 4969.00    0.53589   0.61349    0.000
 4970.00    0.56473   0.61455    0.000
 4971.00    0.60294   0.61592    0.000
 4972.00    0.61320   0.61730    0.000
 4973.00    0.57598   0.61833    0.000
 4974.00    0.52231   0.61871    0.000
 4975.00    0.50137   0.61826    0.000
 4976.00    0.52717   0.61691    0.000
 4977.00    0.57930   0.61468    0.000
 4978.00    0.61640   0.61173    0.000
 4979.00    0.61058   0.60823    0.000
 4980.00    0.58381   0.60445    0.000
 4981.00    0.57721   0.60084    0.000
 4982.00    0.61237   0.59795    0.000
 4983.00    0.68045   0.59636    0.000
 4984.00    0.73978   0.59634    0.000
 4985.00    0.75853   0.59773    0.000
 4986.00    0.74961   0.59993    0.000
 4987.00    0.73631   0.60219    0.000
 4988.00    0.72274   0.60391    0.000
 4989.00    0.70170   0.60483    0.000
 4990.00    0.66450   0.60507    0.000
 4991.00    0.61576   0.60497    0.000
 4992.00    0.57731   0.60483    0.000
 4993.00    0.55200   0.60482    0.000
 4994.00    0.51154   0.60486    0.000
 4995.00    0.45668   0.60473    0.000
 4996.00    0.43617   0.60410    0.000
 4997.00    0.46631   0.60271    0.000
 4998.00    0.51945   0.60051    0.000
 4999.00    0.66412   0.59773    0.000
 5000.00    1.12022   0.59485    0.000
 5001.00    2.20712   0.59231    0.000
 5002.00    4.21098   0.59038    0.000
 5003.00    6.98291   0.58906    0.000
 5004.00    9.88599   0.58824    0.000
 5005.00   12.15244   0.58788    0.000
 5006.00   13.11051   0.58802    0.000
 5007.00   12.47789   0.58861    0.000
 5008.00   10.44134   0.58929    0.000
 5009.00    7.60822   0.58949    0.000
 5010.00    4.81266   0.58857    0.000
 5011.00    2.66370   0.58620    0.000
 5012.00    1.40484   0.58254    0.000
 5013.00    0.87857   0.57828    0.000
 5014.00    0.70096   0.57445    0.000
 5015.00    0.64340   0.57205    0.000
 5016.00    0.64359   0.57173    0.000
 5017.00    0.66426   0.57340    0.000
 5018.00    0.67377   0.57642    0.000
 5019.00    0.66155   0.57986    0.000
 5020.00    0.63386   0.58298    0.000
 5021.00    0.60235   0.58537    0.000
 5022.00    0.57986   0.58701    0.000
 5023.00    0.57662   0.58809    0.000
 5024.00    0.59279   0.58880    0.000
 5025.00    0.61060   0.58927    0.000
 5026.00    0.61136   0.58965    0.000
 5027.00    0.59654   0.59015    0.000
 5028.00    0.57824   0.59096    0.000
 5029.00    0.56553   0.59215    7.174
 5030.00    0.56038   0.59355    7.105
 5031.00    0.55626   0.59479    7.153
 5032.00    0.55083   0.59541    7.243
 5033.00    0.55591   0.59504    7.370
 5034.00    0.58082   0.59353    7.472
 5035.00    0.61792   0.59097    7.361
 5036.00    0.64544   0.58766    7.106
 5037.00    0.63534   0.58395    7.153
 5038.00    0.58806   0.58019    7.648
 5039.00    0.54699   0.57687    8.037
 5040.00    0.53824   0.57465    7.884
 5041.00    0.53975   0.57414    7.691
 5042.00    0.53009   0.57556    7.800
 5043.00    0.51426   0.57839    7.968
 5044.00    0.50453   0.58158    7.970
 5045.00    0.50827   0.58406    7.911
 5046.00    0.52205   0.58516    7.904
 5047.00    0.53356   0.58488    7.932
 5048.00    0.54111   0.58378    7.989
 5049.00    0.55553   0.58265    8.114
 5050.00    0.57480   0.58210    8.245
 5051.00    0.58126   0.58234    8.242
 5052.00    0.56775   0.58325    8.199
 5053.00    0.54094   0.58453    8.390
 5054.00    0.50164   0.58585    8.780
 5055.00    0.44877   0.58706    8.990
 5056.00    0.40897   0.58821    8.970
 5057.00    0.42201   0.58936    9.036
 5058.00    0.48058   0.59048    9.169
 5059.00    0.53946   0.59134    9.073
 5060.00    0.57586   0.59160    8.861
 5061.00    0.59248   0.59098    8.877
 5062.00    0.59166   0.58935    9.068
 5063.00    0.57435   0.58690    9.134
 5064.00    0.54959   0.58414    9.093
 5065.00    0.53171   0.58165    9.157
 5066.00    0.53180   0.57989    9.267
 5067.00    0.55076   0.57894    9.219
 5068.00    0.57158   0.57861    9.037
 5069.00    0.57694   0.57861    8.872
 5070.00    0.57584   0.57867    8.767
 5071.00    0.58280   0.57861    8.710
 5072.00    0.58593   0.57843    8.718
 5073.00    0.56679   0.57817    8.814
 5074.00    0.52978   0.57777    8.968
 5075.00    0.49586   0.57708    9.069
 5076.00    0.48950   0.57589    8.934
 5077.00    0.51509   0.57414    8.542
 5078.00    0.53843   0.57197    8.173
 5079.00    0.53256   0.56976    8.028
 5080.00    0.51834   0.56806    8.053
 5081.00    0.52710   0.56728    8.118
 5082.00    0.56606   0.56750    8.152
 5083.00    0.62190   0.56854    8.125
 5084.00    0.66780   0.57009    8.042
 5085.00    0.67925   0.57181    7.944
 5086.00    0.64722   0.57345    7.899
 5087.00    0.59179   0.57484    7.904
 5088.00    0.56049   0.57598    7.857
 5089.00    0.56946   0.57692    7.712
 5090.00    0.58040   0.57767    7.550
 5091.00    0.56473   0.57822    7.449
 5092.00    0.53399   0.57845    7.424
 5093.00    0.51522   0.57814    7.418
 5094.00    0.53073   0.57709    7.340
 5095.00    0.56678   0.57525    7.265
 5096.00    0.57679   0.57287    7.405
 5097.00    0.54709   0.57040    7.720
 5098.00    0.50993   0.56834    7.857
 5099.00    0.49334   0.56708    7.780
 5100.00    0.50276   0.56672    7.855
 5101.00    0.52360   0.56699    8.111
 5102.00    0.53408   0.56741    8.178
 5103.00    0.53910   0.56754    7.995
 5104.00    0.56135   0.56718    7.864
 5105.00    0.59101   0.56636    7.896
 5106.00    0.59628   0.56528    7.991
 5107.00    0.58206   0.56422    8.054
 5108.00    0.58022   0.56348    8.051
 5109.00    0.59562   0.56325    8.037
 5110.00    0.60826   0.56360    8.090
 5111.00    0.60244   0.56447    8.179
 5112.00    0.57437   0.56576    8.201
 5113.00    0.53434   0.56726    8.101
 5114.00    0.49994   0.56883    7.925
 5115.00    0.48407   0.57030    7.819
 5116.00    0.49249   0.57141    7.903
 5117.00    0.52308   0.57188    8.105
 5118.00    0.56352   0.57145    8.269
 5119.00    0.58952   0.57000    8.376
 5120.00    0.58316   0.56762    8.493
 5121.00    0.55517   0.56461    8.646
 5122.00    0.52868   0.56138    8.815
 5123.00    0.51726   0.55838    8.955
 5124.00    0.52295   0.55594    9.000
 5125.00    0.53756   0.55425    8.888
 5126.00    0.55024   0.55327    8.644
 5127.00    0.55447   0.55292    8.421
 5128.00    0.54591   0.55313    8.347
 5129.00    0.52171   0.55383    8.447
 5130.00    0.49544   0.55492    8.632
 5131.00    0.50258   0.55628    8.696
 5132.00    0.55262   0.55768    8.557
 5133.00    0.60295   0.55890    8.415
 5134.00    0.62050   0.55973    8.426
 5135.00    0.61851   0.55996    8.554
 5136.00    0.62371   0.55947    8.697
 5137.00    0.65197   0.55837    8.772
 5138.00    0.69136   0.55694    8.773
 5139.00    0.70308   0.55547    8.780
 5140.00    0.66860   0.55418    8.814
 5141.00    0.60765   0.55310    8.789
 5142.00    0.55235   0.55214    8.668
 5143.00    0.53066   0.55135    8.505
 5144.00    0.54971   0.55075    8.337
 5145.00    0.59115   0.55029    8.166
 5146.00    0.61906   0.54993    8.033
 5147.00    0.59839   0.54966    8.007
 5148.00    0.54441   0.54939    8.115
 5149.00    0.51369   0.54901    8.316
 5150.00    0.52691   0.54847    8.489
 5151.00    0.55802   0.54791    8.507
 5152.00    0.57179   0.54760    8.488
 5153.00    0.54592   0.54785    8.673
 5154.00    0.49796   0.54885    8.958
 5155.00    0.47025   0.55062    8.972
 5156.00    0.48096   0.55291    8.729
 5157.00    0.52195   0.55528    8.516
 5158.00    0.57794   0.55722    8.321
 5159.00    0.62827   0.55827    8.034
 5160.00    0.64361   0.55819    7.879
 5161.00    0.61059   0.55679    8.094
 5162.00    0.57200   0.55394    8.389
 5163.00    0.58083   0.54966    8.256
 5164.00    0.62086   0.54413    7.873
 5165.00    0.64173   0.53776    7.668
 5166.00    0.62560   0.53132    7.646
 5167.00    0.58733   0.52572    7.653
 5168.00    0.56038   0.52164    7.667
 5169.00    0.56387   0.51924    7.746
 5170.00    0.57011   0.51819    7.919
 5171.00    0.55309   0.51812    8.163
 5172.00    0.53937   0.51907    8.382
 5173.00    0.55442   0.52140    8.488
 5174.00    0.57046   0.52511    8.507
 5175.00    0.55850   0.52955    8.526
 5176.00    0.53487   0.53372    8.614
 5177.00    0.52647   0.53673    8.735
 5178.00    0.53989   0.53790    8.713
 5179.00    0.56588   0.53696    8.526
 5180.00    0.58613   0.53417    8.438
 5181.00    0.58616   0.53027    8.572
 5182.00    0.56376   0.52641    8.726
 5183.00    0.52798   0.52391    8.732
 5184.00    0.49497   0.52384    8.700
 5185.00    0.47027   0.52633    8.748
 5186.00    0.44342   0.53047    8.872
 5187.00    0.41045   0.53487    8.990
 5188.00    0.38392   0.53835    9.001
 5189.00    0.38460   0.54029    8.908
 5190.00    0.43120   0.54065    0.000
 5191.00    0.51540   0.53983    0.000
 5192.00    0.59978   0.53864    0.000
 5193.00    0.64933   0.53794    0.000
 5194.00    0.64718   0.53814    0.000
 5195.00    0.60555   0.53922    0.000
 5196.00    0.55809   0.54090    0.000
 5197.00    0.52545   0.54277    0.000
 5198.00    0.50815   0.54429    0.000
 5199.00    0.49766   0.54505    0.000
 5200.00    0.48468   0.54471    0.000
 5201.00    0.47141   0.54313    0.000
 5202.00    0.46785   0.54037    0.000
 5203.00    0.47599   0.53668    0.000
 5204.00    0.48720   0.53248    0.000
 5205.00    0.48525   0.52845    0.000
 5206.00    0.45948   0.52532    0.000
 5207.00    0.42760   0.52361    0.000
 5208.00    0.41846   0.52354    0.000
 5209.00    0.43533   0.52516    0.000
 5210.00    0.46645   0.52820    0.000
 5211.00    0.51093   0.53207    8.592
 5212.00    0.56441   0.53605    8.374
 5213.00    0.59473   0.53951    8.204
 5214.00    0.57826   0.54203    8.305
 5215.00    0.54886   0.54367    8.401
 5216.00    0.55354   0.54482    8.155
 5217.00    0.59297   0.54593    7.811
 5218.00    0.63411   0.54714    7.691
 5219.00    0.63476   0.54821    7.766
 5220.00    0.58011   0.54867    7.878
 5221.00    0.51134   0.54807    7.932
 5222.00    0.47454   0.54611    7.910
 5223.00    0.47396   0.54287    7.863
 5224.00    0.49129   0.53894    7.829
 5225.00    0.50606   0.53524    7.782
 5226.00    0.50449   0.53271    7.741
 5227.00    0.48545   0.53202    7.818
 5228.00    0.46292   0.53321    7.996
 5229.00    0.46253   0.53554    8.003
 5230.00    0.49081   0.53798    7.753
 5231.00    0.52254   0.53982    7.538
 5232.00    0.53881   0.54083    7.532
 5233.00    0.54515   0.54131    7.635
 5234.00    0.54918   0.54189    7.658
 5235.00    0.55184   0.54299    7.471
 5236.00    0.56253   0.54459    7.178
 5237.00    0.59948   0.54638    7.032
 5238.00    0.66037   0.54793    7.021
 5239.00    0.71588   0.54900    6.894
 5240.00    0.73434   0.54956    6.700
 5241.00    0.69993   0.54966    6.753
 5242.00    0.64017   0.54931    7.003
 5243.00    0.61156   0.54848    7.014
 5244.00    0.62530   0.54712    6.784
 5245.00    0.64313   0.54515    6.743
 5246.00    0.63441   0.54261    6.967
 5247.00    0.59376   0.53990    7.202
 5248.00    0.54136   0.53755    7.370
 5249.00    0.50695   0.53583    7.612
 5250.00    0.49326   0.53480    7.907
 5251.00    0.48409   0.53453    8.068
 5252.00    0.48021   0.53497    8.116
 5253.00    0.49447   0.53592    8.222
 5254.00    0.52689   0.53724    8.359
 5255.00    0.56780   0.53885    8.364
 5256.00    0.61192   0.54060    8.220
 5257.00    0.65579   0.54203    8.055
 5258.00    0.68976   0.54246    8.012
 5259.00    0.70131   0.54139    8.148
 5260.00    0.68220   0.53862    8.312
 5261.00    0.63517   0.53440    8.306
 5262.00    0.58054   0.52930    8.200
 5263.00    0.54267   0.52407    8.148
 5264.00    0.53211   0.51944    8.139
 5265.00    0.54220   0.51583    8.103
 5266.00    0.54979   0.51335    8.052
 5267.00    0.53928   0.51188    8.014
 5268.00    0.52434   0.51109    7.960
 5269.00    0.52127   0.51091    7.870
 5270.00    0.52445   0.51178    7.786
 5271.00    0.52487   0.51399    7.752
 5272.00    0.52655   0.51717    7.760
 5273.00    0.53688   0.52080    7.771
 5274.00    0.55796   0.52452    7.740
 5275.00    0.58496   0.52808    7.666
 5276.00    0.60647   0.53136    7.626
 5277.00    0.61197   0.53421    7.664
 5278.00    0.59661   0.53621    7.753
 5279.00    0.56108   0.53703    7.861
 5280.00    0.51361   0.53677    7.979
 5281.00    0.48127   0.53587    8.035
 5282.00    0.50293   0.53500    7.904
 5283.00    0.56849   0.53481    7.673
 5284.00    0.61093   0.53567    7.622
 5285.00    0.59843   0.53755    7.794
 5286.00    0.56098   0.53995    7.946
 5287.00    0.53286   0.54217    7.962
 5288.00    0.52799   0.54381    7.990
 5289.00    0.53754   0.54474    8.120
 5290.00    0.53825   0.54494    8.287
 5291.00    0.52068   0.54439    8.358
 5292.00    0.49330   0.54306    8.252
 5293.00    0.46710   0.54097    8.166
 5294.00    0.45059   0.53820    8.403
 5295.00    0.44908   0.53490    8.828
 5296.00    0.46202   0.53141    8.921
 5297.00    0.47713   0.52834    8.689
 5298.00    0.47735   0.52639    8.582
 5299.00    0.45903   0.52596    8.661
 5300.00    0.43391   0.52687    8.705
 5301.00    0.42423   0.52873    8.658
 5302.00    0.44631   0.53120    8.615
 5303.00    0.48401   0.53392    8.610
 5304.00    0.50645   0.53648    8.630
 5305.00    0.50493   0.53852    8.699
 5306.00    0.48899   0.53989    8.824
 5307.00    0.47122   0.54069    8.894
 5308.00    0.46361   0.54114    8.840
 5309.00    0.47552   0.54135    8.849
 5310.00    0.50949   0.54128    9.049
 5311.00    0.55675   0.54086    9.084
 5312.00    0.60393   0.54009    8.707
 5313.00    0.64108   0.53901    8.428
 5314.00    0.66014   0.53775    8.640
 5315.00    0.65317   0.53644    9.009
 5316.00    0.61865   0.53520    9.041
 5317.00    0.56712   0.53415    8.851
 5318.00    0.51601   0.53330    8.729
 5319.00    0.48315   0.53244    8.687
 5320.00    0.47360   0.53136    8.667
 5321.00    0.47256   0.52994    8.708
 5322.00    0.46642   0.52802    8.815
 5323.00    0.45709   0.52548    8.885
 5324.00    0.45404   0.52235    8.818
 5325.00    0.46637   0.51889    8.620
 5326.00    0.49124   0.51537    8.392
 5327.00    0.51139   0.51225    8.271
 5328.00    0.51786   0.51032    8.289
 5329.00    0.51858   0.51039    8.343
 5330.00    0.51879   0.51245    8.305
 5331.00    0.51270   0.51575    8.124
 5332.00    0.49075   0.51940    7.939
 5333.00    0.44796   0.52276    7.990
 5334.00    0.40285   0.52540    8.228
 5335.00    0.39202   0.52699    8.289
 5336.00    0.42352   0.52739    8.117
 5337.00    0.47087   0.52674    8.037
 5338.00    0.51055   0.52538    8.104
 5339.00    0.53446   0.52365    8.087
 5340.00    0.54792   0.52205    7.977
 5341.00    0.56074   0.52108   -2.000
 5342.00    0.56590   0.52086   -2.000
 5343.00    0.54826   0.52108   -2.000
 5344.00    0.51975   0.52135   -2.000
 5345.00    0.50683   0.52142   -2.000
 5346.00    0.50344   0.52136   -2.000
 5347.00    0.48433   0.52140   -2.000
 5348.00    0.45315   0.52168   -2.000
 5349.00    0.43148   0.52243   -2.000
 5350.00    0.42073   0.52390   -2.000
 5351.00    0.41220   0.52598   -2.000
 5352.00    0.41505   0.52837   -2.000
 5353.00    0.44151   0.53074   -2.000
 5354.00    0.47765   0.53290   -2.000
 5355.00    0.49733   0.53466   -2.000
 5356.00    0.48790   0.53581    8.604
 5357.00    0.45326   0.53628    8.579
 5358.00    0.41249   0.53602    8.543
 5359.00    0.38915   0.53505    8.787
 5360.00    0.39836   0.53345    9.094
 5361.00    0.43875   0.53138    9.122
 5362.00    0.48711   0.52913    9.006
 5363.00    0.51669   0.52696    8.993
 5364.00    0.51552   0.52491    9.038
 5365.00    0.48758   0.52295    9.045
 5366.00    0.45092   0.52099    9.075
 5367.00    0.42506   0.51892    9.158
 5368.00    0.42074   0.51674    9.143
 5369.00    0.43888   0.51463    8.939
 5370.00    0.47136   0.51302    8.683
 5371.00    0.50801   0.51254    8.559
 5372.00    0.54141   0.51354    8.683
 5373.00    0.56731   0.51582    8.938
 5374.00    0.58442   0.51867    8.905
 5375.00    0.59222   0.52138    8.516
 5376.00    0.58960   0.52350    8.232
 5377.00    0.57386   0.52483    8.283
 5378.00    0.54270   0.52543    8.528
 5379.00    0.50497   0.52538    8.733
 5380.00    0.48060   0.52481    8.715
 5381.00    0.48038   0.52397    8.505
 5382.00    0.49901   0.52311    8.311
 5383.00    0.52100   0.52235    8.234
 5384.00    0.52842   0.52179    8.231
 5385.00    0.51827   0.52135    8.210
 5386.00    0.50260   0.52080    8.102
 5387.00    0.49086   0.51997    7.952
 5388.00    0.48629   0.51877    7.880
 5389.00    0.49149   0.51723    7.915
 5390.00    0.50601   0.51548    7.999
 5391.00    0.51658   0.51373    8.077
 5392.00    0.50779   0.51205    8.121
 5393.00    0.49117   0.51041    8.146
 5394.00    0.49309   0.50882    8.179
 5395.00    0.51628   0.50737    8.186
 5396.00    0.54307   0.50618    8.135
 5397.00    0.55744   0.50550    8.126
 5398.00    0.55292   0.50558    8.284
 5399.00    0.53814   0.50609    8.546
 5400.00    0.52622   0.50639    8.732
 5401.00    0.51714   0.50608    8.781
 5402.00    0.50458   0.50492    8.770
 5403.00    0.48962   0.50276    8.829
 5404.00    0.48184   0.49979    8.917
 5405.00    0.49713   0.49649    8.594
 5406.00    0.53977   0.49337    7.750
 5407.00    0.58371   0.49061    7.044
 5408.00    0.59632   0.48817    6.854
 5409.00    0.56659   0.48615    7.046
 5410.00    0.50578   0.48508    7.410
 5411.00    0.44325   0.48575    7.913
 5412.00    0.40705   0.48848    8.546
 5413.00    0.40670   0.49285    9.088
 5414.00    0.43329   0.49799    9.299
 5415.00    0.46324   0.50303    9.256
 5416.00    0.47806   0.50740    9.192
 5417.00    0.47730   0.51066    9.256
 5418.00    0.46685   0.51266    9.384
 5419.00    0.45085   0.51357    9.284
 5420.00    0.43443   0.51372    8.959
 5421.00    0.42497   0.51349    8.838
 5422.00    0.42729   0.51309    9.019
 5423.00    0.44117   0.51254    9.068
 5424.00    0.46267   0.51189    8.763
 5425.00    0.48513   0.51125    8.403
 5426.00    0.50060   0.51043    8.117
 5427.00    0.50264   0.50913    7.777
 5428.00    0.49478   0.50717    7.469
 5429.00    0.49019   0.50476    7.453
 5430.00    0.49659   0.50257    7.678
 5431.00    0.51135   0.50094    7.760
 5432.00    0.52479   0.49976    7.631
 5433.00    0.52668   0.49911    7.622
 5434.00    0.52190   0.49920    7.813
 5435.00    0.52815   0.50020    7.983
 5436.00    0.55580   0.50212    8.021
 5437.00    0.59935   0.50478    8.012
 5438.00    0.63193   0.50776    8.042
 5439.00    0.62278   0.51050    8.128
 5440.00    0.58009   0.51250    8.192
 5441.00    0.53746   0.51340    8.153
 5442.00    0.50428   0.51305    8.158
 5443.00    0.47442   0.51146    8.403
 5444.00    0.46304   0.50887    8.694
 5445.00    0.49110   0.50577    8.619
 5446.00    0.54676   0.50288    8.239
 5447.00    0.59959   0.50096    7.904
 5448.00    0.63404   0.50032    7.758
 5449.00    0.64697   0.50053    7.778
 5450.00    0.63658   0.50090    7.834
 5451.00    0.60630   0.50091   -2.000
 5452.00    0.57097   0.50032   -2.000
 5453.00    0.54108   0.49921   -2.000
 5454.00    0.50430   0.49795   -2.000
 5455.00    0.44561   0.49703   -2.000
 5456.00    0.36950   0.49699   -2.000
 5457.00    0.27546   0.49784   -2.000
 5458.00    0.13667   0.49906   -2.000
 5459.00   -0.04318   0.50005   -2.000
 5460.00   -0.18833   0.50047   -2.000
 5461.00   -0.26071   0.50038   -2.000
 5462.00   -0.33306   0.49999   -2.000
 5463.00   -0.41657   0.49960   -2.000
 5464.00   -0.35897   0.49955   -2.000
 5465.00   -0.08713   0.49982   -2.000
 5466.00    0.25232   0.50015   -2.000
 5467.00    0.50886   0.50045   -2.000
 5468.00    0.65614   0.50052   -2.000
 5469.00    0.70514   0.50014   -2.000
 5470.00    0.65865   0.49925   -2.000
 5471.00    0.55701   0.49799   -2.000
 5472.00    0.48293   0.49644   -2.000
 5473.00    0.46647   0.49467   -2.000
 5474.00    0.46313   0.49297    7.864
 5475.00    0.45568   0.49154    7.836
 5476.00    0.47813   0.49043    7.952
 5477.00    0.53418   0.48996    8.132
 5478.00    0.58247   0.49028    8.082
 5479.00    0.59995   0.49102    7.830
 5480.00    0.59723   0.49177    7.704
 5481.00    0.59273   0.49250    7.751
 5482.00    0.59888   0.49342    7.760
 5483.00    0.60809   0.49451    7.694
 5484.00    0.60008   0.49557    7.705
 5485.00    0.57143   0.49635    7.824
 5486.00    0.53605   0.49669    7.934
 5487.00    0.50711   0.49664    7.921
 5488.00    0.49203   0.49651    7.767
 5489.00    0.49134   0.49648    7.618
 5490.00    0.49937   0.49652    7.653
 5491.00    0.50616   0.49662    7.879
 5492.00    0.50403   0.49668    8.175
 5493.00    0.49813   0.49655    8.432
 5494.00    0.49938   0.49630    8.598
 5495.00    0.50991   0.49600    8.722
 5496.00    0.52354   0.49561    8.874
 5497.00    0.53032   0.49516    9.002
 5498.00    0.52501   0.49480    9.010
 5499.00    0.51644   0.49448    8.916
 5500.00    0.51511   0.49390    8.817
 5501.00    0.51704   0.49299    8.810
 5502.00    0.51327   0.49199    8.907
 5503.00    0.50220   0.49105    8.953
 5504.00    0.48488   0.49018    8.839
 5505.00    0.45972   0.48933    8.708
 5506.00    0.43196   0.48859    8.685
 5507.00    0.42046   0.48810    8.664
 5508.00    0.43391   0.48790    8.556
 5509.00    0.45339   0.48763    8.482
 5510.00    0.45894   0.48715    8.586
 5511.00    0.45049   0.48644    8.884
 5512.00    0.44069   0.48569    9.096
 5513.00    0.44653   0.48530    8.689
 5514.00    0.47409   0.48554    8.183
 5515.00    0.51096   0.48649    9.125
 5516.00    0.53813   0.48805   12.355
 5517.00    0.54013   0.48997   12.355
 5518.00    0.51986   0.49194   12.355
 5519.00    0.49977   0.49357   12.355
 5520.00    0.49115   0.49460   12.355
 5521.00    0.48501   0.49498   12.355
 5522.00    0.47852   0.49476   12.355
 5523.00    0.48156   0.49399   12.355
 5524.00    0.49487   0.49274   12.355
 5525.00    0.50694   0.49115   12.355
 5526.00    0.51474   0.48947   12.355
 5527.00    0.52648   0.48799   12.355
 5528.00    0.54565   0.48703   12.355
 5529.00    0.56611   0.48683   12.355
 5530.00    0.57418   0.48722    8.565
 5531.00    0.55852   0.48778    7.455
 5532.00    0.53416   0.48823    8.135
 5533.00    0.53214   0.48850    8.870
 5534.00    0.55916   0.48863    8.672
 5535.00    0.59642   0.48876    8.222
 5536.00    0.61995   0.48908    8.076
 5537.00    0.61349   0.48959    8.317
 5538.00    0.58413   0.49018    8.691
 5539.00    0.55439   0.49079    8.793
 5540.00    0.54160   0.49127    8.698
 5541.00    0.54878   0.49143    8.756
 5542.00    0.55704   0.49123    8.958
 5543.00    0.54566   0.49082    9.078
 5544.00    0.52345   0.49049    9.043
 5545.00    0.51336   0.49041    8.930
 5546.00    0.52466   0.49059    8.808
 5547.00    0.54789   0.49108    8.716
 5548.00    0.55549   0.49172    8.654
 5549.00    0.52993   0.49223    8.598
 5550.00    0.49350   0.49240    8.510
 5551.00    0.47915   0.49219    8.394
 5552.00    0.49658   0.49159    8.332
 5553.00    0.53212   0.49073    8.359
 5554.00    0.55502   0.48981    8.366
 5555.00    0.54796   0.48900    8.244
 5556.00    0.52937   0.48832    8.016
 5557.00    0.52166   0.48772    7.776
 5558.00    0.52587   0.48719    7.619
 5559.00    0.53309   0.48668    7.585
 5560.00    0.53483   0.48605    7.634
 5561.00    0.52874   0.48523    7.674
 5562.00    0.52065   0.48424    7.584
 5563.00    0.51584   0.48318    7.349
 5564.00    0.51419   0.48220    7.091
 5565.00    0.51224   0.48131    6.897
 5566.00    0.50533   0.48059    6.777
 5567.00    0.49104   0.48015    6.744
 5568.00    0.47098   0.47992    6.825
 5569.00    0.45041   0.47983    6.935
 5570.00    0.43609   0.47992    6.877
 5571.00    0.42809   0.48014    6.678
 5572.00    0.41902   0.48031    6.585
 5573.00    0.40365   0.48053    6.687
 5574.00    0.38328   0.48099    6.882
 5575.00    0.36823   0.48147    7.092
 5576.00    0.37217   0.48183    7.314
 5577.00    0.39326   0.48213    7.537
 5578.00    0.41471   0.48228    7.723
 5579.00    0.42243   0.48221    7.875
 5580.00    0.41400   0.48193    8.021
 5581.00    0.40800   0.48124    8.103
 5582.00    0.42919   0.48007    8.049
 5583.00    0.47100   0.47847    7.990
 5584.00    0.50377   0.47636    8.134
 5585.00    0.50948   0.47379    8.444
 5586.00    0.48705   0.47094    8.686
 5587.00    0.44820   0.46811    8.741
 5588.00    0.41003   0.46573    8.670
 5589.00    0.38402   0.46407    8.617
 5590.00    0.37498   0.46322    8.694
 5591.00    0.38250   0.46306    8.874
 5592.00    0.40247   0.46366    8.995
 5593.00    0.42884   0.46504    8.837
 5594.00    0.45406   0.46696    8.411
 5595.00    0.46963   0.46883    8.149
 5596.00    0.47287   0.47025    8.306
 5597.00    0.47349   0.47083    8.523
 5598.00    0.48032   0.47059    8.366
 5599.00    0.48734   0.47002    8.079
 5600.00    0.48413   0.46948    8.000
 5601.00    0.46752   0.46925    8.068
 5602.00    0.44165   0.46965    8.105
 5603.00    0.41662   0.47086    8.059
 5604.00    0.40342   0.47284    7.949
 5605.00    0.40911   0.47518    7.802
 5606.00    0.43021   0.47746    7.652
 5607.00    0.45121   0.47932    7.544
 5608.00    0.46556   0.48056    7.524
 5609.00    0.48576   0.48110    7.633
 5610.00    0.51706   0.48095    7.827
 5611.00    0.54435   0.48013    7.938
 5612.00    0.55106   0.47868    7.915
 5613.00    0.53031   0.47665    7.922
 5614.00    0.48477   0.47420    8.042
 5615.00    0.42648   0.47182    8.174
 5616.00    0.37728   0.47019    8.235
 5617.00    0.36216   0.46953    8.262
 5618.00    0.38214   0.46944    8.310
 5619.00    0.41127   0.46963    8.398
 5620.00    0.42832   0.46992    8.498
 5621.00    0.42772   0.47015    8.552
 5622.00    0.41460   0.47012    8.567
 5623.00    0.40016   0.46972    8.614
 5624.00    0.39374   0.46919    8.695
 5625.00    0.39886   0.46900    8.752
 5626.00    0.40999   0.46945    8.795
 5627.00    0.41702   0.47036    8.883
 5628.00    0.41875   0.47148    8.963
 5629.00    0.42168   0.47263    8.915
 5630.00    0.42897   0.47358    8.773
 5631.00    0.44082   0.47410    8.675
 5632.00    0.46058   0.47414    8.653
 5633.00    0.49112   0.47369    8.648
 5634.00    0.52566   0.47284    8.603
 5635.00    0.55149   0.47171    8.481
 5636.00    0.55946   0.47045    8.293
 5637.00    0.54565   0.46925    8.100
 5638.00    0.51161   0.46827    8.015
 5639.00    0.46803   0.46752    8.097
 5640.00    0.43878   0.46697    8.212
 5641.00    0.44207   0.46667    8.178
 5642.00    0.46659   0.46671    8.011
 5643.00    0.49146   0.46697    7.825
 5644.00    0.51282   0.46728    7.668
 5645.00    0.53264   0.46764    7.517
 5646.00    0.54383   0.46802    7.312
 5647.00    0.53649   0.46842    7.048
 5648.00    0.50642   0.46882    6.831
 5649.00    0.46246   0.46922    6.745
 5650.00    0.42960   0.46960    6.780
 5651.00    0.42481   0.46987    6.891
 5652.00    0.43918   0.46987    7.032
 5653.00    0.45700   0.46935    7.201
 5654.00    0.47121   0.46825    7.461
 5655.00    0.48306   0.46672    7.794
 5656.00    0.49912   0.46497    7.994
 5657.00    0.51850   0.46305    7.999
 5658.00    0.52835   0.46119    8.089
 5659.00    0.52381   0.46001    8.399
 5660.00    0.51592   0.45967    8.684
 5661.00    0.51301   0.45974    8.718
 5662.00    0.51255   0.46003    8.582
 5663.00    0.51019   0.46063    8.469
 5664.00    0.50476   0.46146    8.508
 5665.00    0.50057   0.46223    8.601
 5666.00    0.50447   0.46277    8.465
 5667.00    0.51188   0.46316    8.128
 5668.00    0.50781   0.46360    7.905
 5669.00    0.48913   0.46421    7.858
 5670.00    0.46756   0.46493    7.816
 5671.00    0.45379   0.46573    7.724
 5672.00    0.45201   0.46659    7.672
 5673.00    0.45937   0.46739    7.665
 5674.00    0.46986   0.46788    7.640
 5675.00    0.48435   0.46799    7.664
 5676.00    0.50739   0.46785    7.856
 5677.00    0.53382   0.46746    8.074
 5678.00    0.55264   0.46674    8.020
 5679.00    0.56195   0.46577    7.784
 5680.00    0.56539   0.46477    7.664
 5681.00    0.55909   0.46379    7.645
 5682.00    0.53757   0.46279    7.565
 5683.00    0.50820   0.46193    7.469
 5684.00    0.48402   0.46135    7.498
 5685.00    0.46826   0.46095    7.635
 5686.00    0.45524   0.46065    7.751
 5687.00    0.43612   0.46056    7.734
 5688.00    0.41066   0.46085    7.597
 5689.00    0.39992   0.46154    7.540
 5690.00    0.42328   0.46251    7.712
 5691.00    0.46961   0.46353    7.956
 5692.00    0.51450   0.46435    8.047
 5693.00    0.54336   0.46477    8.065
 5694.00    0.55448   0.46467    8.154
 5695.00    0.55854   0.46406    8.222
 5696.00    0.56594   0.46310    8.156
 5697.00    0.57578   0.46187    8.056
 5698.00    0.58102   0.46048    8.059
 5699.00    0.57393   0.45913    8.198
 5700.00    0.54814   0.45789    8.410
 5701.00    0.50083   0.45677    8.541
 5702.00    0.43955   0.45587    8.543
 5703.00    0.38371   0.45518    8.587
 5704.00    0.34407   0.45451    8.744
 5705.00    0.31438   0.45360    8.815
 5706.00    0.29949   0.45240    8.695
 5707.00    0.32373   0.45113    8.541
 5708.00    0.38663   0.45000    8.426
 5709.00    0.44862   0.44931    8.249
 5710.00    0.47607   0.44933    8.048
 5711.00    0.46357   0.45002    8.020
 5712.00    0.43302   0.45130    8.098
 5713.00    0.42150   0.45315    7.937
 5714.00    0.43811   0.45519    7.563
 5715.00    0.45920   0.45707    7.366
 5716.00    0.47232   0.45871    7.478
 5717.00    0.48566   0.46007    7.739
 5718.00    0.50586   0.46116    7.876
 5719.00    0.53123   0.46207    7.674
 5720.00    0.55412   0.46276    7.352
 5721.00    0.56706   0.46321    7.277
 5722.00    0.57650   0.46339    7.369
 5723.00    0.59548   0.46326    7.284
 5724.00    0.61767   0.46283    7.149
 5725.00    0.62646   0.46215    7.333
 5726.00    0.62775   0.46125    7.683
 5727.00    0.63933   0.46035    7.690
 5728.00    0.65580   0.45974    7.484
 5729.00    0.65613   0.45945    7.547
 5730.00    0.63021   0.45926    7.841
 5731.00    0.58330   0.45912    8.018
 5732.00    0.53441   0.45922    8.045
 5733.00    0.50245   0.45953    8.123
 5734.00    0.48659   0.45981    8.266
 5735.00    0.47536   0.45993    8.366
 5736.00    0.46296   0.45980    8.390
 5737.00    0.45062   0.45948    8.367
 5738.00    0.44521   0.45905    8.332
 5739.00    0.45453   0.45861    8.272
 5740.00    0.48189   0.45833    0.000
 5741.00    0.52209   0.45825    0.000
 5742.00    0.55855   0.45831    0.000
 5743.00    0.57158   0.45840    0.000
 5744.00    0.54803   0.45858    0.000
 5745.00    0.49725   0.45872    0.000
 5746.00    0.45908   0.45860    0.000
 5747.00    0.46300   0.45814    0.000
 5748.00    0.49856   0.45752    0.000
 5749.00    0.53879   0.45700    0.000
 5750.00    0.56111   0.45653    0.000
 5751.00    0.56511   0.45593    0.000
 5752.00    0.57644   0.45524    0.000
 5753.00    0.60625   0.45467    0.000
 5754.00    0.63185   0.45452    0.000
 5755.00    0.62489   0.45487    0.000
 5756.00    0.57092   0.45544    0.000
 5757.00    0.48687   0.45584    0.000
 5758.00    0.41838   0.45586    0.000
 5759.00    0.39246   0.45542    0.000
 5760.00    0.40138   0.45466    0.000
 5761.00    0.42418   0.45387    0.000
 5762.00    0.43706   0.45340   -2.000
 5763.00    0.41767   0.45351   -2.000
 5764.00    0.35807   0.45423   -2.000
 5765.00    0.30073   0.45522   -2.000
 5766.00    0.30930   0.45614   -2.000
 5767.00    0.34945   0.45685   -2.000
 5768.00    0.32672   0.45724   -2.000
 5769.00    0.28302   0.45727   -2.000
 5770.00    0.35480   0.45698   -2.000
 5771.00    0.53977   0.45647   -2.000
 5772.00    0.71235   0.45581   -2.000
 5773.00    0.78992   0.45512   -2.000
 5774.00    0.76388   0.45438   -2.000
 5775.00    0.68267   0.45358   -2.000
 5776.00    0.61434   0.45267   -2.000
 5777.00    0.58557   0.45151   -2.000
 5778.00    0.58605   0.45001   -2.000
 5779.00    0.59566   0.44815   -2.000
 5780.00    0.59712   0.44599   -2.000
 5781.00    0.58785   0.44389   -2.000
 5782.00    0.57545   0.44232    0.000
 5783.00    0.56857   0.44145    0.000
 5784.00    0.57102   0.44113    0.000
 5785.00    0.57652   0.44132    0.000
 5786.00    0.57524   0.44213    0.000
 5787.00    0.56225   0.44337    0.000
 5788.00    0.53933   0.44468    0.000
 5789.00    0.51469   0.44591    0.000
 5790.00    0.49049   0.44692    0.000
 5791.00    0.45322   0.44777    0.000
 5792.00    0.39716   0.44867    0.000
 5793.00    0.34269   0.44951    0.000
 5794.00    0.31206   0.45009    0.000
 5795.00    0.30970   0.45033    0.000
 5796.00    0.32974   0.45015    0.000
 5797.00    0.36222   0.44960    0.000
 5798.00    0.39070   0.44907    0.000
 5799.00    0.39467   0.44882    0.000
 5800.00    0.37482   0.44862    0.000
 5801.00    0.36125   0.44854    0.000
 5802.00    0.37493   0.44876    0.000
 5803.00    0.40994   0.44918    0.000
 5804.00    0.45353   0.44943    0.000
 5805.00    0.49566   0.44956    0.000
 5806.00    0.52421   0.44966    0.000
 5807.00    0.52669   0.44966    0.000
 5808.00    0.50695   0.44949    0.000
 5809.00    0.48692   0.44914    0.000
 5810.00    0.48764   0.44861    0.000
 5811.00    0.51791   0.44794    0.000
 5812.00    0.56168   0.44741    0.000
 5813.00    0.58676   0.44719    0.000
 5814.00    0.58337   0.44728    0.000
 5815.00    0.56690   0.44742    0.000
 5816.00    0.55183   0.44778    0.000
 5817.00    0.54493   0.44849    0.000
 5818.00    0.54695   0.44942    0.000
 5819.00    0.55432   0.45030    0.000
 5820.00    0.56156   0.45100    0.000
 5821.00    0.56111   0.45149    0.000
 5822.00    0.54189   0.45177    0.000
 5823.00    0.49847   0.45190    0.000
 5824.00    0.44778   0.45200    0.000
 5825.00    0.41755   0.45215    0.000
 5826.00    0.42072   0.45221    0.000
 5827.00    0.44712   0.45213    0.000
 5828.00    0.45944   0.45191    0.000
 5829.00    0.42580   0.45159    0.000
 5830.00    0.36521   0.45116    0.000
 5831.00    0.32281   0.45062    0.000
 5832.00    0.32859   0.45006    0.000
 5833.00    0.38143   0.44950    0.000
 5834.00    0.43996   0.44892    0.000
 5835.00    0.46427   0.44847    0.000
 5836.00    0.45956   0.44826    0.000
 5837.00    0.45003   0.44818    0.000
 5838.00    0.44934   0.44813    0.000
 5839.00    0.46460   0.44824    0.000
 5840.00    0.50154   0.44850    0.000
 5841.00    0.55688   0.44870    0.000
 5842.00    0.61342   0.44866    0.000
 5843.00    0.65199   0.44834    0.000
 5844.00    0.66130   0.44772    0.000
 5845.00    0.64195   0.44687    0.000
 5846.00    0.60703   0.44586    0.000
 5847.00    0.57219   0.44475    0.000
 5848.00    0.54831   0.44368    0.000
 5849.00    0.53608   0.44267    0.000
 5850.00    0.52519   0.44159    0.000
 5851.00    0.50483   0.44037    0.000
 5852.00    0.47046   0.43900    0.000
 5853.00    0.42924   0.43762    0.000
 5854.00    0.39692   0.43648    0.000
 5855.00    0.37549   0.43557    0.000
 5856.00    0.35125   0.43473    0.000
 5857.00    0.32344   0.43399    0.000
 5858.00    0.30863   0.43368    0.000
 5859.00    0.31766   0.43393    0.000
 5860.00    0.34905   0.43453    0.000
 5861.00    0.39425   0.43518    0.000
 5862.00    0.44178   0.43568    0.000
 5863.00    0.48348   0.43608    0.000
 5864.00    0.51354   0.43647    0.000
 5865.00    0.52153   0.43672    0.000
 5866.00    0.49873   0.43677    0.000
 5867.00    0.45665   0.43676    0.000
 5868.00    0.42342   0.43669    0.000
 5869.00    0.42657   0.43621    0.000
 5870.00    0.48242   0.43500    0.000
 5871.00    0.58340   0.43292    0.000
 5872.00    0.70414   0.42999    0.000
 5873.00    0.81661   0.42656    0.000
 5874.00    0.89812   0.42270    0.000
 5875.00    0.93942   0.41938    0.000
 5876.00    0.94031   0.41791    0.000
 5877.00    0.90198   0.41857    0.000
 5878.00    0.83209   0.42067    0.000
 5879.00    0.75189   0.42269    0.000
 5880.00    0.68123   0.42458    0.000
 5881.00    0.62074   0.42612    0.000
 5882.00    0.56842   0.42689    0.000
 5883.00    0.53836   0.42638    0.000
 5884.00    0.54039   0.42445    0.000
 5885.00    0.55934   0.42121    0.000
 5886.00    0.57054   0.41681    0.000
 5887.00    0.55669   0.41145    0.000
 5888.00    0.51627   0.40540    0.000
 5889.00    0.46691   0.39933    0.000
 5890.00    0.42645   0.39458    0.000
 5891.00    0.39973   0.39218    0.000
 5892.00    0.38918   0.39162    0.000
 5893.00    0.40061   0.39193    0.000
 5894.00    0.42919   0.39270    0.000
 5895.00    0.45389   0.39366    0.000
 5896.00    0.45745   0.39544    0.000
 5897.00    0.43766   0.39873    0.000
 5898.00    0.40381   0.40294    0.000
 5899.00    0.37154   0.40731    0.000
 5900.00    0.34820   0.41167    0.000
 5901.00    0.33017   0.41581    8.302
 5902.00    0.32033   0.41939    8.447
 5903.00    0.33143   0.42229    8.690
 5904.00    0.36945   0.42449    8.904
 5905.00    0.42759   0.42603    8.925
 5906.00    0.48897   0.42712    8.752
 5907.00    0.53168   0.42796    8.548
 5908.00    0.54096   0.42853    8.436
 5909.00    0.51456   0.42876    8.454
 5910.00    0.46581   0.42870    8.581
 5911.00    0.41853   0.42842    8.748
 5912.00    0.39143   0.42785    8.861
 5913.00    0.39379   0.42705    8.842
 5914.00    0.42538   0.42624    8.691
 5915.00    0.47517   0.42573    8.489
 5916.00    0.51900   0.42558    8.354
 5917.00    0.53232   0.42576    8.361
 5918.00    0.51552   0.42612    8.438
 5919.00    0.48759   0.42653    8.458
 5920.00    0.46568   0.42698    8.454
 5921.00    0.45623   0.42733    8.510
 5922.00    0.44753   0.42752    8.518
 5923.00    0.42364   0.42766    8.354
 5924.00    0.38621   0.42774    8.180
 5925.00    0.34960   0.42771    8.196
 5926.00    0.32948   0.42761    8.351
 5927.00    0.33614   0.42736    8.483
 5928.00    0.36808   0.42698    8.545
 5929.00    0.41258   0.42652    8.576
 5930.00    0.44828   0.42614    8.623
 5931.00    0.45965   0.42599    8.700
 5932.00    0.45063   0.42597    8.774
 5933.00    0.43762   0.42588    8.817
 5934.00    0.43969   0.42571    8.868
 5935.00    0.46185   0.42564    8.950
 5936.00    0.48433   0.42575    9.009
 5937.00    0.48609   0.42584    8.978
 5938.00    0.46338   0.42579    8.858
 5939.00    0.42693   0.42561    8.766
 5940.00    0.39683   0.42525    8.916
 5941.00    0.38804   0.42485    9.299
 5942.00    0.40130   0.42470    9.494
 5943.00    0.42434   0.42479    9.278
 5944.00    0.43615   0.42496    9.009
 5945.00    0.42431   0.42511    8.950
 5946.00    0.39334   0.42513    9.046
 5947.00    0.35985   0.42487    9.124
 5948.00    0.34569   0.42434    9.023
 5949.00    0.35940   0.42376    8.804
 5950.00    0.39139   0.42329    8.703
 5951.00    0.42695   0.42284    8.724
 5952.00    0.45374   0.42226    8.638
 5953.00    0.46901   0.42175    8.421
 5954.00    0.47841   0.42153    8.288
 5955.00    0.48388   0.42146    8.329
 5956.00    0.48236   0.42142    8.476
 5957.00    0.47380   0.42156    8.613
 5958.00    0.46146   0.42204    8.643
 5959.00    0.44610   0.42278    8.610
 5960.00    0.42740   0.42359    8.636
 5961.00    0.41121   0.42428    8.695
 5962.00    0.40729   0.42477    8.684
 5963.00    0.42055   0.42507    8.686
 5964.00    0.44779   0.42521    8.865
 5965.00    0.47567   0.42522    9.136
 5966.00    0.48798   0.42523    9.259
 5967.00    0.47945   0.42540    9.257
 5968.00    0.45630   0.42563    9.307
 5969.00    0.43246   0.42582    9.383
 5970.00    0.42104   0.42590    9.369
 5971.00    0.42264   0.42577    9.328
 5972.00    0.42926   0.42533    9.356
 5973.00    0.43221   0.42461    9.331
 5974.00    0.42655   0.42360    9.132
 5975.00    0.41507   0.42239    8.906
 5976.00    0.40579   0.42117    8.789
 5977.00    0.40795   0.42012    8.650
 5978.00    0.42277   0.41930    8.388
 5979.00    0.43611   0.41879    8.189
 5980.00    0.43511   0.41852    8.203
 5981.00    0.42397   0.41829    8.318
 5982.00    0.41541   0.41797    8.359
 5983.00    0.42071   0.41756    8.276
 5984.00    0.43814   0.41724    8.114
 5985.00    0.44804   0.41730    7.956
 5986.00    0.43983   0.41770    7.840
 5987.00    0.42766   0.41819    7.739
 5988.00    0.42230   0.41871    7.693
 5989.00    0.41595   0.41932    7.844
 5990.00    0.40631   0.41992    8.238
 5991.00    0.40765   0.42038    8.690
 5992.00    0.42903   0.42074    8.961
 5993.00    0.46311   0.42108    8.982
 5994.00    0.49202   0.42122    8.902
 5995.00    0.49517   0.42103    8.977
 5996.00    0.46971   0.42053    9.247
 5997.00    0.43417   0.41988    9.469
 5998.00    0.40654   0.41925    9.504
 5999.00    0.39475   0.41873    9.470
 6000.00    0.39565   0.41827    9.427
 6001.00    0.39991   0.41777    9.323
 6002.00    0.40824   0.41714    9.228
 6003.00    0.42903   0.41652    9.286
 6004.00    0.45508   0.41610    9.390
 6005.00    0.46674   0.41572    9.257
 6006.00    0.45966   0.41526    8.967
 6007.00    0.44642   0.41480    8.813
 6008.00    0.44063   0.41450    8.723
 6009.00    0.44881   0.41460    8.444
 6010.00    0.46185   0.41491    8.113
 6011.00    0.46287   0.41503    8.006
 6012.00    0.44705   0.41485    8.045
 6013.00    0.42017   0.41453    7.980
 6014.00    0.38851   0.41428    7.852
 6015.00    0.35921   0.41400    7.844
 6016.00    0.34398   0.41354    7.935
 6017.00    0.35231   0.41307    7.997
 6018.00    0.38045   0.41278    8.032
 6019.00    0.41773   0.41257    8.124
 6020.00    0.45740   0.41247    8.308
 6021.00    0.49313   0.41256    8.559
 6022.00    0.51331   0.41288    8.801
 6023.00    0.51050   0.41337    8.953
 6024.00    0.49254   0.41399    9.022
 6025.00    0.47290   0.41477    9.071
 6026.00    0.45926   0.41558    9.169
 6027.00    0.45502   0.41631    9.322
 6028.00    0.46151   0.41706    9.418
 6029.00    0.47512   0.41775    9.391
 6030.00    0.48576   0.41825    9.360
 6031.00    0.48668   0.41858    9.397
 6032.00    0.48121   0.41888    9.367
 6033.00    0.47198   0.41914    9.203
 6034.00    0.45431   0.41926    9.066
 6035.00    0.42725   0.41923    9.063
 6036.00    0.39958   0.41908    9.113
 6037.00    0.37910   0.41886    9.143
 6038.00    0.36665   0.41862    9.170
 6039.00    0.36045   0.41835    9.097
 6040.00    0.35824   0.41814    8.708
 6041.00    0.35432   0.41812    8.132
 6042.00    0.34144   0.41825    7.767
 6043.00    0.32541   0.41853    7.748
 6044.00    0.32529   0.41888    7.948
 6045.00    0.34673   0.41919    8.184
 6046.00    0.37515   0.41942    8.301
 6047.00    0.39324   0.41953    8.333
 6048.00    0.39189   0.41944    8.484
 6049.00    0.38347   0.41920    8.812
 6050.00    0.39380   0.41885    9.156
 6051.00    0.42413   0.41833    9.318
 6052.00    0.45072   0.41761    9.223
 6053.00    0.45697   0.41680    9.067
 6054.00    0.44211   0.41602    9.135
 6055.00    0.41904   0.41534    9.412
 6056.00    0.40501   0.41476    9.640
 6057.00    0.40199   0.41436    9.728
 6058.00    0.39902   0.41415    9.775
 6059.00    0.38673   0.41403    9.809
 6060.00    0.36402   0.41385    9.770
 6061.00    0.34407   0.41353    9.627
 6062.00    0.34342   0.41308    9.416
 6063.00    0.36158   0.41259    9.236
 6064.00    0.38588   0.41218    9.156
 6065.00    0.40495   0.41200    9.097
 6066.00    0.41408   0.41242    8.982
 6067.00    0.41898   0.41338    8.944
 6068.00    0.42542   0.41449    9.100
 6069.00    0.42592   0.41552    9.255
 6070.00    0.41287   0.41640    9.138
 6071.00    0.39495   0.41708    8.803
 6072.00    0.38368   0.41745    8.440
 6073.00    0.37735   0.41741    8.134
 6074.00    0.36763   0.41698    7.960
 6075.00    0.34860   0.41626    8.059
 6076.00    0.32558   0.41527    8.472
 6077.00    0.31925   0.41409    8.929
 6078.00    0.33812   0.41281    9.099
 6079.00    0.35982   0.41167    9.008
 6080.00    0.36396   0.41074    8.913
 6081.00    0.35592   0.40986    9.054
 6082.00    0.35216   0.40915    9.415
 6083.00    0.36702   0.40881    9.577
 6084.00    0.40015   0.40868    9.364
 6085.00    0.43309   0.40848    9.220
 6086.00    0.45169   0.40829    9.402
 6087.00    0.45643   0.40817    9.704
 6088.00    0.44831   0.40801    9.868
 6089.00    0.42448   0.40770    9.827
 6090.00    0.39242   0.40733    9.593
 6091.00    0.37176   0.40719    9.200
 6092.00    0.37304   0.40730    8.797
 6093.00    0.39038   0.40754    8.570
 6094.00    0.40882   0.40800    8.542
 6095.00    0.41169   0.40849    8.603
 6096.00    0.39522   0.40867    8.716
 6097.00    0.37047   0.40841    8.932
 6098.00    0.35317   0.40788    9.185
 6099.00    0.35695   0.40716    9.280
 6100.00    0.38411   0.40617    9.163
 6101.00    0.42607   0.40486    8.903
 6102.00    0.47173   0.40334    8.388
 6103.00    0.50915   0.40237    7.542
 6104.00    0.52462   0.40242    6.676
 6105.00    0.50998   0.40301    6.081
 6106.00    0.47813   0.40366    5.787
 6107.00    0.45595   0.40432    5.735
 6108.00    0.46391   0.40511    5.875
 6109.00    0.50467   0.40604    6.162
 6110.00    0.55126   0.40673    6.539
 6111.00    0.56577   0.40700    6.935
 6112.00    0.53251   0.40716    7.320
 6113.00    0.46070   0.40733    7.717
 6114.00    0.37964   0.40729    8.199
 6115.00    0.32528   0.40682    8.780
 6116.00    0.32253   0.40589    9.188
 6117.00    0.37623   0.40474    9.143
 6118.00    0.46388   0.40350    8.900
 6119.00    0.54952   0.40202    8.803
 6120.00    0.60124   0.40042    8.826
 6121.00    0.60526   0.39897    8.851
 6122.00    0.57647   0.39791    8.928
 6123.00    0.53947   0.39769    8.953
 6124.00    0.50955   0.39812    8.451
 6125.00    0.48671   0.39871    7.470
 6126.00    0.45554   0.39942    6.685
 6127.00    0.41327   0.40027    6.315
 6128.00    0.38605   0.40116    6.132
 6129.00    0.39119   0.40198    6.015
 6130.00    0.41372   0.40251    6.111
 6131.00    0.43140   0.40243    6.517
 6132.00    0.43175   0.40166    7.075
 6133.00    0.41231   0.40037    7.528
 6134.00    0.38022   0.39868    7.743
 6135.00    0.35194   0.39670    7.767
 6136.00    0.34886   0.39472    7.763
 6137.00    0.37775   0.39333    7.876
 6138.00    0.42437   0.39323    8.175
 6139.00    0.46686   0.39424    8.628
 6140.00    0.48553   0.39548    9.069
 6141.00    0.47657   0.39661    9.324
 6142.00    0.45352   0.39790    9.341
 6143.00    0.43307   0.39946    9.225
 6144.00    0.42588   0.40077    9.147
 6145.00    0.42448   0.40143    9.115
 6146.00    0.40839   0.40154    9.015
 6147.00    0.37038   0.40138    8.910
 6148.00    0.32056   0.40099    8.980
 6149.00    0.27658   0.40039    9.195
 6150.00    0.25466   0.39973    9.359
 6151.00    0.25546   0.39926    9.454
 6152.00    0.26834   0.39895    9.520
 6153.00    0.28800   0.39859    9.166
 6154.00    0.31499   0.39791    8.152
 6155.00    0.34916   0.39690    7.176
 6156.00    0.38748   0.39557    6.732
 6157.00    0.42272   0.39374    6.604
 6158.00    0.44669   0.39145    6.480
 6159.00    0.45603   0.38887    6.520
 6160.00    0.45431   0.38602    7.042
 6161.00    0.45292   0.38311    7.972
 6162.00    0.46074   0.38078    8.799
 6163.00    0.47098   0.37953    9.141
 6164.00    0.47629   0.37918    8.977
 6165.00    0.48780   0.37934   -2.000
 6166.00    0.51189   0.37984   -2.000
 6167.00    0.52420   0.38062   -2.000
 6168.00    0.50058   0.38132   -2.000
 6169.00    0.44995   0.38172   -2.000
 6170.00    0.39463   0.38233   -2.000
 6171.00    0.34888   0.38349   -2.000
 6172.00    0.32043   0.38481   -2.000
 6173.00    0.31336   0.38594   -2.000
 6174.00    0.32771   0.38707   -2.000
 6175.00    0.35892   0.38828   -2.000
 6176.00    0.39680   0.38940    6.366
 6177.00    0.42631   0.39033    6.259
 6178.00    0.43712   0.39117    6.476
 6179.00    0.42912   0.39184    7.167
 6180.00    0.40805   0.39223    8.265
 6181.00    0.38212   0.39244    9.018
 6182.00    0.35933   0.39243    8.930
 6183.00    0.34657   0.39206    8.819
 6184.00    0.35190   0.39136    9.114
 6185.00    0.38159   0.39026    9.310
 6186.00    0.42219   0.38873    9.051
 6187.00    0.44174   0.38705    8.642
 6188.00    0.42570   0.38556    8.361
 6189.00    0.38730   0.38430    8.250
 6190.00    0.35137   0.38324    8.240
 6191.00    0.34189   0.38249    8.234
 6192.00    0.36239   0.38257    8.320
 6193.00    0.39599   0.38347    8.689
 6194.00    0.42484   0.38450    9.137
 6195.00    0.43898   0.38535    9.030
 6196.00    0.44334   0.38610    8.308
 6197.00    0.45216   0.38673    7.509
 6198.00    0.47095   0.38702    6.970
 6199.00    0.49453   0.38692    6.796
 6200.00    0.51294   0.38689    6.983
 6201.00    0.51651   0.38729    7.493
 6202.00    0.50310   0.38791    8.224
 6203.00    0.47683   0.38847    8.946
 6204.00    0.44319   0.38892    9.385
 6205.00    0.41140   0.38928    9.414
 6206.00    0.39912   0.38949    9.215
 6207.00    0.41880   0.38935    9.036
 6208.00    0.45645   0.38870    8.879
 6209.00    0.48643   0.38757    8.684
 6210.00    0.49632   0.38603    8.563
 6211.00    0.48865   0.38426    8.633
 6212.00    0.47777   0.38241    8.813
 6213.00    0.47660   0.38046    8.892
 6214.00    0.48219   0.37868    8.672
 6215.00    0.48148   0.37735    8.233
 6216.00    0.46022   0.37654    7.977
 6217.00    0.41660   0.37623    8.135
 6218.00    0.37099   0.37610    8.533
 6219.00    0.34344   0.37594    8.880
 6220.00    0.33468   0.37596    9.091
 6221.00    0.33885   0.37622    9.164
 6222.00    0.35437   0.37658    9.010
 6223.00    0.38071   0.37681    8.607
 6224.00    0.41458   0.37678    8.096
 6225.00    0.44433   0.37657    7.721
 6226.00    0.45078   0.37617    7.726
 6227.00    0.43364   0.37553    8.035
 6228.00    0.42125   0.37468    8.074
 6229.00    0.43662   0.37369    7.541
 6230.00    0.47858   0.37278    6.843
 6231.00    0.52399   0.37239    6.313
 6232.00    0.53618   0.37266    6.036
 6233.00    0.49476   0.37331    6.094
 6234.00    0.40959   0.37416    6.640
 6235.00    0.32143   0.37491    7.688
 6236.00    0.28542   0.37534    8.725
 6237.00    0.31228   0.37532    9.170
 6238.00    0.36215   0.37474    9.216
 6239.00    0.39819   0.37378    9.237
 6240.00    0.40479   0.37277    9.371
 6241.00    0.38540   0.37198    9.614
 6242.00    0.35739   0.37132    9.866
 6243.00    0.34023   0.37080    9.962
 6244.00    0.34723   0.37084    9.792
 6245.00    0.37411   0.37132    9.512
 6246.00    0.40355   0.37191    9.380
 6247.00    0.42224   0.37254    9.402
 6248.00    0.42750   0.37305    9.415
 6249.00    0.43185   0.37325    9.347
 6250.00    0.44956   0.37299    9.217
 6251.00    0.47047   0.37217    9.051
 6252.00    0.46942   0.37087    8.839
 6253.00    0.43115   0.36946    8.519
 6254.00    0.35905   0.36819    8.141
 6255.00    0.28101   0.36713    8.014
 6256.00    0.23209   0.36623    8.389
 6257.00    0.22896   0.36564    9.086
 6258.00    0.26838   0.36568    9.599
 6259.00    0.33084   0.36645    9.672
 6260.00    0.39130   0.36770    9.456
 6261.00    0.43149   0.36899    9.236
 6262.00    0.44123   0.37040    9.193
 6263.00    0.41871   0.37184    9.306
 6264.00    0.37427   0.37284    9.483
 6265.00    0.33221   0.37336    9.667
 6266.00    0.31307   0.37381    9.843
 6267.00    0.31880   0.37429   10.031
 6268.00    0.34259   0.37456   10.234
 6269.00    0.37746   0.37466   10.396
 6270.00    0.41258   0.37487   10.494
 6271.00    0.43156   0.37520   10.602
 6272.00    0.42279   0.37549   10.767
 6273.00    0.38655   0.37565   10.925
 6274.00    0.33480   0.37563   11.023
 6275.00    0.28844   0.37551   11.082
 6276.00    0.26398   0.37526   11.090
 6277.00    0.26641   0.37491   10.946
 6278.00    0.29153   0.37456   10.556
 6279.00    0.32873   0.37419    9.948
 6280.00    0.36726   0.37382    0.000
 6281.00    0.39941   0.37375    0.000
 6282.00    0.42134   0.37410    0.000
 6283.00    0.43236   0.37474    0.000
 6284.00    0.43104   0.37550    0.000
 6285.00    0.41496   0.37619    0.000
 6286.00    0.38475   0.37691    0.000
 6287.00    0.34628   0.37761    0.000
 6288.00    0.31290   0.37803    0.000
 6289.00    0.30095   0.37810    0.000
 6290.00    0.31585   0.37774    0.000
 6291.00    0.34994   0.37704    0.000
 6292.00    0.38772   0.37617    0.000
 6293.00    0.41449   0.37523    0.000
 6294.00    0.43260   0.37437    0.000
 6295.00    0.45785   0.37347    0.000
 6296.00    0.50375   0.37248    0.000
 6297.00    0.57120   0.37168    0.000
 6298.00    0.63624   0.37133    0.000
 6299.00    0.66602   0.37129    0.000
 6300.00    0.65024   0.37124    0.000
 6301.00    0.59749   0.37115    0.000
 6302.00    0.52066   0.37136    0.000
 6303.00    0.43517   0.37198    0.000
 6304.00    0.35942   0.37271    0.000
 6305.00    0.30855   0.37327    0.000
 6306.00    0.28651   0.37380    0.000
 6307.00    0.29162   0.37445    0.000
 6308.00    0.32383   0.37493    0.000
 6309.00    0.37884   0.37495    0.000
 6310.00    0.44148   0.37456    0.000
 6311.00    0.49306   0.37398    0.000
 6312.00    0.52010   0.37339    0.000
 6313.00    0.51945   0.37274    0.000
 6314.00    0.50067   0.37192    0.000
 6315.00    0.47216   0.37118    0.000
 6316.00    0.43091   0.37087    0.000
 6317.00    0.37416   0.37076    0.000
 6318.00    0.30868   0.37066    0.000
 6319.00    0.24889   0.37102    0.000
 6320.00    0.21337   0.37188    0.000
 6321.00    0.21314   0.37282   10.499
 6322.00    0.24440   0.37366   10.631
 6323.00    0.28838   0.37454   10.567
 6324.00    0.31674   0.37550   10.477
 6325.00    0.31825   0.37623   10.409
 6326.00    0.30799   0.37671   10.171
 6327.00    0.30507   0.37704    9.660
 6328.00    0.31989   0.37737    8.974
 6329.00    0.34638   0.37756    8.253
 6330.00    0.36387   0.37733    7.622
 6331.00    0.35565   0.37691    7.227
 6332.00    0.31757   0.37648    7.184
 6333.00    0.26145   0.37594    7.355
 6334.00    0.20990   0.37507    7.396
 6335.00    0.17646   0.37397    7.331
 6336.00    0.16420   0.37319    7.508
 6337.00    0.17978   0.37297    7.871
 6338.00    0.22882   0.37289    7.978
 6339.00    0.29331   0.37272    7.941
 6340.00    0.33962   0.37269    8.321
 6341.00    0.35151   0.37275    9.123
 6342.00    0.33450   0.37258    9.707
 6343.00    0.30760   0.37215    9.854
 6344.00    0.29383   0.37180    9.979
 6345.00    0.30544   0.37181   10.170
 6346.00    0.33891   0.37201   10.241
 6347.00    0.37244   0.37236   10.307
 6348.00    0.38307   0.37289   10.620
 6349.00    0.37422   0.37351   11.111
 6350.00    0.36377   0.37389   11.462
 6351.00    0.35996   0.37396   11.479
 6352.00    0.36100   0.37374   11.211
 6353.00    0.36003   0.37306   10.872
 6354.00    0.35531   0.37190   10.630
 6355.00    0.36053   0.37056   10.455
 6356.00    0.38741   0.36929   10.278
 6357.00    0.42610   0.36791   10.133
 6358.00    0.45899   0.36633   10.049
 6359.00    0.47767   0.36501    9.937
 6360.00    0.49215   0.36422    9.471
 6361.00    0.53242   0.36377    8.287
 6362.00    0.59981   0.36360    6.897
 6363.00    0.63511   0.36398    6.099
 6364.00    0.59532   0.36493    6.005
 6365.00    0.50868   0.36613    6.359
 6366.00    0.42796   0.36740    6.930
 6367.00    0.39166   0.36878    7.641
 6368.00    0.40512   0.37020    8.396
 6369.00    0.43625   0.37135    8.920
 6370.00    0.45375   0.37214    9.067
 6371.00    0.44866   0.37283    9.106
 6372.00    0.42809   0.37352    9.374
 6373.00    0.40765   0.37398   10.057
 6374.00    0.39443   0.37403   10.949
 6375.00    0.38196   0.37380   11.232
 6376.00    0.36409   0.37350   10.796
 6377.00    0.34186   0.37303   10.552
 6378.00    0.32593   0.37232   10.658
 6379.00    0.33022   0.37161   10.455
 6380.00    0.34698   0.37110    9.960
 6381.00    0.34929   0.37078    9.845
 6382.00    0.32808   0.37068   10.217
 6383.00    0.29838   0.37070   10.547
 6384.00    0.28126   0.37073   10.286
 6385.00    0.29127   0.37081    9.437
 6386.00    0.31912   0.37095    8.656
 6387.00    0.33977   0.37090    8.473
 6388.00    0.34333   0.37050    8.742
 6389.00    0.33686   0.36987    8.974
 6390.00    0.33138   0.36924    9.138
 6391.00    0.33656   0.36857    9.581
 6392.00    0.35623   0.36778   10.221
 6393.00    0.38850   0.36699   10.480
 6394.00    0.42776   0.36661    9.986
 6395.00    0.46403   0.36657    8.997
 6396.00    0.48197   0.36656    8.083
 6397.00    0.47040   0.36661    7.573
 6398.00    0.43659   0.36667    7.494
 6399.00    0.39875   0.36651    7.798
 6400.00    0.37256   0.36634    8.420
 6401.00    0.36409   0.36672    9.231
 6402.00    0.36419   0.36733    9.981
 6403.00    0.36074   0.36763   10.326
 6404.00    0.35274   0.36781   10.062
 6405.00    0.34392   0.36804    9.357
 6406.00    0.33494   0.36807    8.627
 6407.00    0.32771   0.36771    8.145
 6408.00    0.32923   0.36726    7.974
 6409.00    0.34317   0.36712    8.058
 6410.00    0.36300   0.36698    8.249
 6411.00    0.37885   0.36663    8.514
 6412.00    0.38455   0.36648    9.107
 6413.00    0.38572   0.36667    9.947
 6414.00    0.40119   0.36686    9.905
 6415.00    0.43495   0.36691    8.666
 6416.00    0.46255   0.36686    7.525
 6417.00    0.46066   0.36672    7.001
 6418.00    0.42600   0.36658    6.965
 6419.00    0.37885   0.36644    7.286
 6420.00    0.35579   0.36629    7.904
 6421.00    0.36799   0.36639    8.750
 6422.00    0.38949   0.36699    9.657
 6423.00    0.39661   0.36787   10.267
 6424.00    0.38350   0.36851   10.190
 6425.00    0.35113   0.36885    9.625
 6426.00    0.30405   0.36903    9.170
 6427.00    0.25581   0.36900    9.037
 6428.00    0.22620   0.36863    9.098
 6429.00    0.22567   0.36791    9.158
 6430.00    0.25085   0.36698    9.044
 6431.00    0.28759   0.36631    8.714
 6432.00    0.31671   0.36621    8.302
 6433.00    0.32663   0.36628    8.098
 6434.00    0.31748   0.36619    8.364
 6435.00    0.30178   0.36615    8.993
 6436.00    0.29750   0.36636    9.475
 6437.00    0.31227   0.36655    9.476
 6438.00    0.34370   0.36642    9.085
 6439.00    0.38729   0.36641    8.438
 6440.00    0.43391   0.36698    7.717
 6441.00    0.46272   0.36779    7.254
 6442.00    0.45541   0.36842    7.287
 6443.00    0.42145   0.36886    7.827
 6444.00    0.38640   0.36901    8.755
 6445.00    0.36733   0.36865    9.828
 6446.00    0.36713   0.36779   10.662
 6447.00    0.37302   0.36663   11.107
 6448.00    0.37019   0.36518   11.305
 6449.00    0.35912   0.36351   11.350
 6450.00    0.35007   0.36223   11.234
 6451.00    0.35340   0.36188   10.933
 6452.00    0.37041   0.36213   10.519
 6453.00    0.38634   0.36267   10.207
 6454.00    0.38872   0.36342   10.146
 6455.00    0.38436   0.36423   10.294
 6456.00    0.38650   0.36505   10.397
 6457.00    0.40117   0.36574   10.029
 6458.00    0.41956   0.36600    9.259
 6459.00    0.41679   0.36587    8.737
 6460.00    0.38229   0.36553    8.750
 6461.00    0.33826   0.36487    9.078
 6462.00    0.31176   0.36389    9.446
 6463.00    0.31465   0.36328    9.774
 6464.00    0.34038   0.36337    9.901
 6465.00    0.36588   0.36362    9.508
 6466.00    0.36875   0.36383    8.815
 6467.00    0.33902   0.36420    8.456
 6468.00    0.28943   0.36467    8.643
 6469.00    0.25336   0.36491    9.177
 6470.00    0.25333   0.36486    9.815
 6471.00    0.28767   0.36460   10.421
 6472.00    0.33619   0.36441   10.863
 6473.00    0.36908   0.36436   11.023
 6474.00    0.36967   0.36417   10.946
 6475.00    0.34255   0.36388   10.824
 6476.00    0.31099   0.36374   10.749
 6477.00    0.30477   0.36360   10.671
 6478.00    0.32688   0.36314   10.517
 6479.00    0.35337   0.36257   10.274
 6480.00    0.36181   0.36204   10.085
 6481.00    0.34336   0.36137   10.145
 6482.00    0.31132   0.36068   10.454
 6483.00    0.29058   0.36041   10.824
 6484.00    0.28898   0.36053   11.048
 6485.00    0.29709   0.36063   11.017
 6486.00    0.30231   0.36054   10.840
 6487.00    0.29894   0.36034   10.703
 6488.00    0.30059   0.35984   10.588
 6489.00    0.32571   0.35862   10.399
 6490.00    0.36935   0.35663   10.187
 6491.00    0.41411   0.35427   10.056
 6492.00    0.45442   0.35176    9.979
 6493.00    0.48981   0.34901    9.888
 6494.00    0.51036   0.34628    9.805
 6495.00    0.50618   0.34434    9.725
 6496.00    0.48189   0.34351    9.481
 6497.00    0.44996   0.34357    9.064
 6498.00    0.42055   0.34443    8.864
 6499.00    0.39943   0.34592    9.160
 6500.00    0.38729   0.34799    9.742
 6501.00    0.38356   0.35028   10.149
 6502.00    0.38947   0.35245   10.156
 6503.00    0.40126   0.35431    9.914
 6504.00    0.40522   0.35581    9.786
 6505.00    0.39118   0.35701    9.981
 6506.00    0.36308   0.35788   10.393
 6507.00    0.33302   0.35839   10.828
 6508.00    0.31526   0.35862   11.202
 6509.00    0.31927   0.35880   11.429
 6510.00    0.34543   0.35896   11.368
 6511.00    0.38544   0.35892   11.107
 6512.00    0.42431   0.35869   10.999
 6513.00    0.44855   0.35838   11.139
 6514.00    0.45219   0.35795   11.217
 6515.00    0.44354   0.35740   11.075
 6516.00    0.44270   0.35692   10.926
 6517.00    0.45478   0.35661   10.863
 6518.00    0.46342   0.35637   10.743
 6519.00    0.45638   0.35633   10.545
 6520.00    0.43512   0.35659   10.409
 6521.00    0.40840   0.35689   10.317
 6522.00    0.38799   0.35698   10.101
 6523.00    0.38320   0.35693    9.818
 6524.00    0.39673   0.35691    9.690
 6525.00    0.41815   0.35681    9.700
 6526.00    0.42898   0.35643    9.631
 6527.00    0.42245   0.35599    9.451
 6528.00    0.40565   0.35579    0.000
 6529.00    0.39006   0.35574    0.000
 6530.00    0.38663   0.35570    0.000
 6531.00    0.40058   0.35565    0.000
 6532.00    0.42908   0.35567    0.000
 6533.00    0.45920   0.35582    0.000
 6534.00    0.47687   0.35609    0.000
 6535.00    0.48409   0.35643    0.000
 6536.00    0.49002   0.35665    0.000
 6537.00    0.48957   0.35667    0.000
 6538.00    0.47103   0.35659    0.000
 6539.00    0.43403   0.35641    0.000
 6540.00    0.38914   0.35593    0.000
 6541.00    0.35258   0.35500    0.000
 6542.00    0.33803   0.35374    0.000
 6543.00    0.34706   0.35242    0.000
 6544.00    0.37241   0.35115    0.000
 6545.00    0.40378   0.34973    0.000
 6546.00    0.43283   0.34823    0.000
 6547.00    0.45731   0.34698    0.000
 6548.00    0.47447   0.34598    0.000
 6549.00    0.47510   0.34481    0.000
 6550.00    0.45437   0.34322    0.000
 6551.00    0.42099   0.34128    0.000
 6552.00    0.38615   0.33903    0.000
 6553.00    0.35724   0.33619    0.000
 6554.00    0.36786   0.33242    0.000
 6555.00    0.50678   0.32778    0.000
 6556.00    0.95737   0.32244    0.000
 6557.00    1.98745   0.31612    0.000
 6558.00    3.71908   0.30854    0.000
 6559.00    5.98126   0.30067    0.000
 6560.00    8.31160   0.29387    0.000
 6561.00   10.03051   0.28818    0.000
 6562.00   10.59238   0.28370    0.000
 6563.00    9.79497   0.28240    0.000
 6564.00    7.88293   0.28559    0.000
 6565.00    5.50135   0.29136    0.000
 6566.00    3.30720   0.29800    0.000
 6567.00    1.75340   0.30546    0.000
 6568.00    0.92824   0.31315    0.000
 6569.00    0.58655   0.31971    0.000
 6570.00    0.47146   0.32485    0.000
 6571.00    0.42953   0.32886    0.000
 6572.00    0.39822   0.33177    0.000
 6573.00    0.38059   0.33383    0.000
 6574.00    0.38783   0.33556    0.000
 6575.00    0.42040   0.33720    0.000
 6576.00    0.46489   0.33874    0.000
 6577.00    0.50180   0.34007    0.000
 6578.00    0.52556   0.34128    0.000
 6579.00    0.54466   0.34243    0.000
 6580.00    0.57092   0.34344    0.000
 6581.00    0.60990   0.34422    0.000
 6582.00    0.64750   0.34492    0.000
 6583.00    0.65980   0.34576    0.000
 6584.00    0.63546   0.34652    0.000
 6585.00    0.57798   0.34711    0.000
 6586.00    0.50227   0.34751    0.000
 6587.00    0.42866   0.34786    0.000
 6588.00    0.37444   0.34786    0.000
 6589.00    0.34800   0.34736    0.000
 6590.00    0.34318   0.34669    0.000
 6591.00    0.34770   0.34598    0.000
 6592.00    0.35430   0.34505    0.000
 6593.00    0.35823   0.34411    0.000
 6594.00    0.35357   0.34377    0.000
 6595.00    0.33985   0.34399    0.000
 6596.00    0.32805   0.34439    0.000
 6597.00    0.32853   0.34489    0.000
 6598.00    0.33996   0.34557    0.000
 6599.00    0.35655   0.34637    0.000
 6600.00    0.37434   0.34710    0.000
 6601.00    0.38609   0.34753    0.000
 6602.00    0.37904   0.34762    0.000
 6603.00    0.35161   0.34746    0.000
 6604.00    0.32189   0.34703    0.000
 6605.00    0.30509   0.34637    0.000
 6606.00    0.29970   0.34579    0.000
 6607.00    0.29469   0.34540    0.000
 6608.00    0.27760   0.34506    0.000
 6609.00    0.25215   0.34486   10.957
 6610.00    0.24113   0.34519   10.771
 6611.00    0.25586   0.34594   10.740
 6612.00    0.28527   0.34659   10.630
 6613.00    0.31511   0.34708   10.375
 6614.00    0.33754   0.34768   10.177
 6615.00    0.35441   0.34841   10.170
 6616.00    0.37294   0.34887   10.341
 6617.00    0.38680   0.34899   10.572
 6618.00    0.37864   0.34901   10.693
 6619.00    0.35067   0.34894   10.717
 6620.00    0.32496   0.34860   10.834
 6621.00    0.31396   0.34804   11.073
 6622.00    0.31507   0.34743   11.283
 6623.00    0.32033   0.34673   11.370
 6624.00    0.32286   0.34592   11.359
 6625.00    0.32536   0.34526   11.284
 6626.00    0.33557   0.34486   11.196
 6627.00    0.35202   0.34449   11.202
 6628.00    0.36599   0.34401   11.363
 6629.00    0.37215   0.34355   11.445
 6630.00    0.37170   0.34317   11.167
 6631.00    0.37359   0.34284   10.774
 6632.00    0.38616   0.34251   10.632
 6633.00    0.40325   0.34223   10.636
 6634.00    0.41219   0.34217   10.501
 6635.00    0.40946   0.34238   10.246
 6636.00    0.40056   0.34270   10.059
 6637.00    0.39614   0.34304   10.025
 6638.00    0.40351   0.34330   10.146
 6639.00    0.41746   0.34332   10.375
 6640.00    0.43017   0.34325   10.608
 6641.00    0.44303   0.34331   10.675
 6642.00    0.45554   0.34320   10.536
 6643.00    0.45418   0.34276   10.443
 6644.00    0.43145   0.34253   10.573
 6645.00    0.40302   0.34272   10.761
 6646.00    0.38850   0.34285   10.813
 6647.00    0.39317   0.34275   10.832
 6648.00    0.40696   0.34278   10.963
 6649.00    0.40835   0.34298   11.169
 6650.00    0.39130   0.34301   11.282
 6651.00    0.37899   0.34287   11.103
 6652.00    0.38616   0.34272   10.713
 6653.00    0.39840   0.34259   10.488
 6654.00    0.40110   0.34242   10.519
 6655.00    0.39514   0.34218   10.474
 6656.00    0.38192   0.34184   10.245
 6657.00    0.35728   0.34147   10.157
 6658.00    0.32414   0.34103   10.332
 6659.00    0.29652   0.34037   10.520
 6660.00    0.28806   0.33963   10.570
 6661.00    0.30422   0.33899   10.608
 6662.00    0.33245   0.33832   10.714
 6663.00    0.34759   0.33759   10.820
 6664.00    0.34519   0.33724   10.883
 6665.00    0.34375   0.33731   10.944
 6666.00    0.35060   0.33745   11.050
 6667.00    0.35701   0.33770   11.225
 6668.00    0.35887   0.33822   11.465
 6669.00    0.35972   0.33884   11.695
 6670.00    0.36086   0.33922   11.669
 6671.00    0.36015   0.33931   11.211
 6672.00    0.35615   0.33904   10.756
 6673.00    0.35100   0.33817   10.801
 6674.00    0.35403   0.33680   10.991
 6675.00    0.37179   0.33538   10.593
 6676.00    0.38684   0.33393   10.001
 6677.00    0.37478   0.33218    9.947
 6678.00    0.34327   0.33079   10.240
 6679.00    0.31854   0.33047   10.266
 6680.00    0.31029   0.33089   10.125
 6681.00    0.31509   0.33135   10.203
 6682.00    0.33121   0.33207   10.169
 6683.00    0.36176   0.33328    9.378
 6684.00    0.41446   0.33450    7.906
 6685.00    0.47851   0.33543    6.466
 6686.00    0.49909   0.33615    5.598
 6687.00    0.43132   0.33673    5.323
 6688.00    0.30454   0.33712    5.365
 6689.00    0.18982   0.33741    5.462
 6690.00    0.15364   0.33758    5.558
 6691.00    0.21638   0.33753    5.650
 6692.00    0.32195   0.33731    5.630
 6693.00    0.39386   0.33706    5.550
 6694.00    0.38988   0.33680    5.802
 6695.00    0.32276   0.33643    6.676
 6696.00    0.26310   0.33605    0.000
 6697.00    0.26130   0.33589    0.000
 6698.00    0.29659   0.33589    0.000
 6699.00    0.32847   0.33590    0.000
 6700.00    0.33449   0.33595    0.000
 6701.00    0.31429   0.33607    0.000
 6702.00    0.28711   0.33615    0.000
 6703.00    0.27094   0.33611    0.000
 6704.00    0.27081   0.33604    0.000
 6705.00    0.27895   0.33602    0.000
 6706.00    0.28026   0.33596    0.000
 6707.00    0.27490   0.33581    0.000
 6708.00    0.28320   0.33561    0.000
 6709.00    0.32273   0.33531    0.000
 6710.00    0.40311   0.33480    0.000
 6711.00    0.54319   0.33419    0.000
 6712.00    0.76156   0.33347    0.000
 6713.00    1.02292   0.33252    0.000
 6714.00    1.24153   0.33154    0.000
 6715.00    1.34918   0.33076    0.000
 6716.00    1.32728   0.33010    0.000
 6717.00    1.23283   0.32950    0.000
 6718.00    1.15693   0.32929    0.000
 6719.00    1.10364   0.32959    0.000
 6720.00    1.00385   0.33000    0.000
 6721.00    0.81999   0.33033    0.000
 6722.00    0.56730   0.33077    0.000
 6723.00    0.30466   0.33135    0.000
 6724.00    0.11804   0.33182    0.000
 6725.00    0.09173   0.33202    0.000
 6726.00    0.26836   0.33216    0.000
 6727.00    0.59185   0.33239    0.000
 6728.00    0.94106   0.33260    0.000
 6729.00    1.20021   0.33267    0.000
 6730.00    1.29514   0.33274    0.000
 6731.00    1.22744   0.33281    0.000
 6732.00    1.05156   0.33283    0.000
 6733.00    0.83678   0.33273    0.000
 6734.00    0.64445   0.33255    0.000
 6735.00    0.50635   0.33228    0.000
 6736.00    0.42386   0.33197    0.000
 6737.00    0.37234   0.33159    0.000
 6738.00    0.33048   0.33106    0.000
 6739.00    0.30573   0.33046    0.000
 6740.00    0.30156   0.33002    0.000
 6741.00    0.29065   0.32968    0.000
 6742.00    0.25982   0.32918    0.000
 6743.00    0.24174   0.32866    0.000
 6744.00    0.25776   0.32845    0.000
 6745.00    0.27988   0.32827    0.000
 6746.00    0.28062   0.32795    0.000
 6747.00    0.26541   0.32773    0.000
 6748.00    0.24782   0.32762    0.000
 6749.00    0.23389   0.32743    0.000
 6750.00    0.22919   0.32732    0.000
 6751.00    0.24109   0.32750    0.000
 6752.00    0.26768   0.32770    0.000
 6753.00    0.29683   0.32794    9.353
 6754.00    0.32918   0.32855    9.203
 6755.00    0.37952   0.32930    8.327
 6756.00    0.43741   0.32996    7.272
 6757.00    0.46317   0.33058    6.785
 6758.00    0.43771   0.33115    6.858
 6759.00    0.37562   0.33152    7.077
 6760.00    0.30175   0.33169    7.322
 6761.00    0.23992   0.33161    7.886
 6762.00    0.20532   0.33126    8.783
 6763.00    0.20225   0.33080    9.418
 6764.00    0.22505   0.33031    9.473
 6765.00    0.26359   0.32975    9.267
 6766.00    0.31625   0.32910    8.661
 6767.00    0.38326   0.32853    7.501
 6768.00    0.44369   0.32828    6.497
 6769.00    0.46495   0.32829    6.140
 6770.00    0.43492   0.32836    6.296
 6771.00    0.36600   0.32858    6.688
 6772.00    0.28843   0.32912    7.368
 6773.00    0.23606   0.32978    8.643
 6774.00    0.22423   0.33034   10.152
 6775.00    0.25455   0.33083   10.253
 6776.00    0.32848   0.33121    8.597
 6777.00    0.43307   0.33132    6.768
 6778.00    0.51914   0.33114    5.653
 6779.00    0.53599   0.33068    5.232
 6780.00    0.48082   0.32993    5.193
 6781.00    0.38199   0.32901    5.336
 6782.00    0.27087   0.32800    5.824
 6783.00    0.18218   0.32700    6.957
 6784.00    0.15532   0.32620    8.501
 6785.00    0.20362   0.32569    9.363
 6786.00    0.28733   0.32540    9.380
 6787.00    0.35776   0.32538    9.344
 6788.00    0.39923   0.32556    9.476
 6789.00    0.41688   0.32570    9.688
 6790.00    0.42242   0.32581    9.911
 6791.00    0.42628   0.32601    9.924
 6792.00    0.43312   0.32614    9.334
 6793.00    0.44752   0.32610    8.280
 6794.00    0.47465   0.32613    7.362
 6795.00    0.49816   0.32627    6.821
 6796.00    0.47481   0.32639    6.611
 6797.00    0.38620   0.32654    6.760
 6798.00    0.26436   0.32675    7.471
 6799.00    0.16512   0.32694    8.751
 6800.00    0.14608   0.32711    9.600
 6801.00    0.23414   0.32725    8.697
 6802.00    0.40666   0.32732    6.789
 6803.00    0.57878   0.32724    5.328
 6804.00    0.63288   0.32713    4.677
 6805.00    0.55093   0.32705    4.588
 6806.00    0.42438   0.32685    4.760
 6807.00    0.30269   0.32659    5.135
 6808.00    0.17187   0.32646    5.950
 6809.00    0.06394   0.32632    7.389
 6810.00    0.05266   0.32607    9.014
 6811.00    0.13583   0.32588    9.951
 6812.00    0.23636   0.32579   10.114
 6813.00    0.29926   0.32574   10.053
 6814.00    0.31269   0.32563   10.191
 6815.00    0.29327   0.32553   10.421
 6816.00    0.27040   0.32561   10.346
 6817.00    0.26097   0.32578   10.100
 6818.00    0.26819   0.32589   10.104
 6819.00    0.29076   0.32598   10.303
 6820.00    0.32857   0.32612   10.224
 6821.00    0.38893   0.32631    9.434
 6822.00    0.47325   0.32648    8.147
 6823.00    0.55441   0.32652    7.108
 6824.00    0.59185   0.32641    6.632
 6825.00    0.56044   0.32624    6.532
 6826.00    0.46388   0.32606    6.597
 6827.00    0.34535   0.32576    6.896
 6828.00    0.26276   0.32535    7.561
 6829.00    0.25570   0.32505    8.340
 6830.00    0.33877   0.32496    8.473
 6831.00    0.49709   0.32492    7.488
 6832.00    0.67037   0.32477    6.163
 6833.00    0.74616   0.32463    5.456
 6834.00    0.65542   0.32458    5.533
 6835.00    0.45569   0.32438    6.141
 6836.00    0.25819   0.32389    6.970
 6837.00    0.15344   0.32327    7.959
 6838.00    0.16892   0.32263    9.070
 6839.00    0.24954   0.32194    9.757
 6840.00    0.32711   0.32133    9.637
 6841.00    0.37007   0.32088    9.337
 6842.00    0.37360   0.32068    9.332
 6843.00    0.34920   0.32077    9.447
 6844.00    0.31292   0.32109    9.468
 6845.00    0.27886   0.32150    9.467
 6846.00    0.26084   0.32186    9.522
 6847.00    0.26887   0.32220    9.586
 6848.00    0.28795   0.32249    9.654
 6849.00    0.28186   0.32259    9.805
 6850.00    0.25544   0.32246    9.994
 6851.00    0.26050   0.32217   10.022
 6852.00    0.30864   0.32184    9.860
 6853.00    0.35631   0.32146    9.701
 6854.00    0.38068   0.32088    9.585
 6855.00    0.39548   0.32028    9.392
 6856.00    0.40856   0.31993    9.113
 6857.00    0.41413   0.31962    8.846
 6858.00    0.41302   0.31929    8.568
 6859.00    0.40858   0.31922    8.250
 6860.00    0.37954   0.31931    8.183
 6861.00    0.30441   0.31931    8.696
 6862.00    0.23739   0.31942    9.232
 6863.00    0.26380   0.31974    8.577
 6864.00    0.36087   0.31990    7.389
 6865.00    0.42672   0.31987    6.765
 6866.00    0.40355   0.31986    6.682
 6867.00    0.29766   0.31974    6.839
 6868.00    0.16660   0.31942    7.231
 6869.00    0.08159   0.31926    8.040
 6870.00    0.06942   0.31928    9.200
 6871.00    0.11483   0.31914   10.246
 6872.00    0.18076   0.31904   10.842
 6873.00    0.23072   0.31928   11.099
 6874.00    0.25476   0.31963   11.230
 6875.00    0.25883   0.31982   11.345
 6876.00    0.24688   0.32004   11.356
 6877.00    0.22130   0.32032   11.210
 6878.00    0.18658   0.32041   11.129
 6879.00    0.15580   0.32024   11.222
 6880.00    0.15449   0.32001   11.123
 6881.00    0.19342   0.31975   10.594
 6882.00    0.24570   0.31933   10.025
 6883.00    0.28297   0.31900    9.717
 6884.00    0.30579   0.31899    9.548
 6885.00    0.31770   0.31905    9.384
 6886.00    0.30587   0.31905    9.294
 6887.00    0.26757   0.31930    9.392
 6888.00    0.22699   0.31967    9.726
 6889.00    0.21080   0.31986   10.207
 6890.00    0.23075   0.32006   10.533
 6891.00    0.28143   0.32034   10.469
 6892.00    0.34246   0.32044   10.117
 6893.00    0.39406   0.32049    9.687
 6894.00    0.42388   0.32067    9.317
 6895.00    0.41737   0.32075    9.043
 6896.00    0.36279   0.32071    8.832
 6897.00    0.29469   0.32081    8.673
 6898.00    0.29045   0.32102    8.531
 6899.00    0.37626   0.32111    8.099
 6900.00    0.50073   0.32113    7.135
 6901.00    0.58439   0.32134    6.234
 6902.00    0.56055   0.32166    5.990
 6903.00    0.44377   0.32183    6.322
 6904.00    0.31826   0.32197    6.735
 6905.00    0.23224   0.32217    7.055
 6906.00    0.18478   0.32235    7.652
 6907.00    0.18125   0.32236    8.467
 6908.00    0.22947   0.32224    8.730
 6909.00    0.29123   0.32204    8.495
 6910.00    0.30883   0.32168    8.623
 6911.00    0.29209   0.32119    9.218
 6912.00    0.29674   0.32073    9.683
 6913.00    0.33823   0.32025    9.676
 6914.00    0.39066   0.31979    9.412
 6915.00    0.42027   0.31963    9.197
 6916.00    0.40866   0.31960    9.186
 6917.00    0.37975   0.31953    9.281
 6918.00    0.37320   0.31966    9.277
 6919.00    0.39639   0.31985    9.131
 6920.00    0.43178   0.31987    8.900
 6921.00    0.45864   0.31978    8.590
 6922.00    0.46197   0.31966    8.265
 6923.00    0.43998   0.31947    8.152
 6924.00    0.40086   0.31916    8.347
 6925.00    0.35704   0.31892    8.513
 6926.00    0.31386   0.31884    8.385
 6927.00    0.26100   0.31890    8.412
 6928.00    0.20477   0.31900    8.906
 6929.00    0.19392   0.31909    9.196
 6930.00    0.25492   0.31922    8.723
 6931.00    0.33936   0.31938    8.317
 6932.00    0.39060   0.31945    8.438
 6933.00    0.39914   0.31941    8.423
 6934.00    0.38052   0.31950    7.927
 6935.00    0.35485   0.31967    7.741
 6936.00    0.34075   0.31972    8.237
 6937.00    0.34991   0.31976    8.782
 6938.00    0.37399   0.31979    8.709
 6939.00    0.38262   0.31979    8.406
 6940.00    0.35659   0.31965    8.267
 6941.00    0.30413   0.31938    8.181
 6942.00    0.24702   0.31905    8.070
 6943.00    0.20943   0.31874    8.057
 6944.00    0.20188   0.31840    8.167
 6945.00    0.21584   0.31807    8.267
 6946.00    0.23247   0.31800    8.361
 6947.00    0.23312   0.31799    8.649
 6948.00    0.22358   0.31791    9.147
 6949.00    0.22914   0.31792    9.573
 6950.00    0.24689   0.31790    9.781
 6951.00    0.24795   0.31773    9.939
 6952.00    0.23604   0.31767   10.110
 6953.00    0.24225   0.31773   10.181
 6954.00    0.25818   0.31773   10.170
 6955.00    0.24499   0.31787   10.217
 6956.00    0.20557   0.31822   10.328
 6957.00    0.17991   0.31856   10.359
 6958.00    0.19027   0.31880   10.170
 6959.00    0.23229   0.31908    9.760
 6960.00    0.28506   0.31934    9.358
 6961.00    0.32390   0.31951    9.190
 6962.00    0.34010   0.31958    9.202
 6963.00    0.33595   0.31963    9.192
 6964.00    0.30984   0.31971    9.061
 6965.00    0.26715   0.31970    8.848
 6966.00    0.24012   0.31964    8.689
 6967.00    0.25839   0.31963    8.688
 6968.00    0.30394   0.31957    8.773
 6969.00    0.33971   0.31941    8.826
 6970.00    0.35528   0.31909    8.872
 6971.00    0.35673   0.31855    9.000
 6972.00    0.34751   0.31792    9.225
 6973.00    0.33169   0.31719    9.492
 6974.00    0.31918   0.31612    9.711
 6975.00    0.31853   0.31491    9.766
 6976.00    0.32944   0.31395    9.576
 6977.00    0.34706   0.31317    9.190
 6978.00    0.36580   0.31246    8.795
 6979.00    0.37279   0.31224    8.516
 6980.00    0.34613   0.31276    8.333
 6981.00    0.28600   0.31347    8.212
 6982.00    0.23149   0.31425    8.171
 6983.00    0.21101   0.31523    8.211
 6984.00    0.21289   0.31615    8.280
 6985.00    0.22365   0.31674    8.324
 6986.00    0.24815   0.31713    8.330
 6987.00    0.27904   0.31736    8.360
 6988.00    0.28682   0.31739    8.540
 6989.00    0.26225   0.31730    8.902
 6990.00    0.23172   0.31720    9.294
 6991.00    0.22247   0.31716    9.508
 6992.00    0.24256   0.31714    9.428
 6993.00    0.26977   0.31705    9.144
 6994.00    0.26349   0.31690    8.851
 6995.00    0.22673   0.31675    8.512
 6996.00    0.20969   0.31651    7.965
 6997.00    0.23702   0.31619    7.383
 6998.00    0.29061   0.31590    7.093
 6999.00    0.33960   0.31556    7.193
 7000.00    0.35867   0.31516    7.601
 7001.00    0.35053   0.31493   -2.000
 7002.00    0.33884   0.31484   -2.000
 7003.00    0.33298   0.31471   -2.000
 7004.00    0.33051   0.31452   -2.000
 7005.00    0.34493   0.31452   -2.000
 7006.00    0.38650   0.31463   -2.000
 7007.00    0.40868   0.31462   -2.000
 7008.00    0.35533   0.31461   -2.000
 7009.00    0.27286   0.31466   -2.000
 7010.00    0.25072   0.31459   -2.000
 7011.00    0.27844   0.31431   -2.000
 7012.00    0.29032   0.31392   -2.000
 7013.00    0.27855   0.31352   -2.000
 7014.00    0.27138   0.31317   -2.000
 7015.00    0.27431   0.31278   -2.000
 7016.00    0.28341   0.31238   -2.000
 7017.00    0.31317   0.31237   -2.000
 7018.00    0.36994   0.31269   -2.000
 7019.00    0.41815   0.31286   -2.000
 7020.00    0.42402   0.31294   -2.000
 7021.00    0.40587   0.31315   -2.000
 7022.00    0.39734   0.31325   -2.000
 7023.00    0.40515   0.31310   -2.000
 7024.00    0.41830   0.31295   -2.000
 7025.00    0.42165   0.31302   -2.000
 7026.00    0.40742   0.31319   -2.000
 7027.00    0.38278   0.31334   -2.000
 7028.00    0.35880   0.31362   -2.000
 7029.00    0.34177   0.31402   -2.000
 7030.00    0.33543   0.31436   -2.000
 7031.00    0.34161   0.31460   -2.000
 7032.00    0.35121   0.31478   -2.000
 7033.00    0.34407   0.31492   -2.000
 7034.00    0.32187   0.31491   -2.000
 7035.00    0.31706   0.31487   -2.000
 7036.00    0.33713   0.31505   -2.000
 7037.00    0.34919   0.31530   -2.000
 7038.00    0.35075   0.31546   -2.000
 7039.00    0.38265   0.31598   -2.000
 7040.00    0.43422   0.31686   -2.000
 7041.00    0.43175   0.31760   -2.000
 7042.00    0.35986   0.31823   -2.000
 7043.00    0.28312   0.31894   -2.000
 7044.00    0.24608   0.31945   -2.000
 7045.00    0.24740   0.31961   -2.000
 7046.00    0.27735   0.31968   -2.000
 7047.00    0.32550   0.31956   -2.000
 7048.00    0.36548   0.31908   -2.000
 7049.00    0.36646   0.31828   -2.000
 7050.00    0.33504   0.31727   -2.000
 7051.00    0.30673   0.31608   -2.000
 7052.00    0.29775   0.31471   -2.000
 7053.00    0.30535   0.31337   -2.000
 7054.00    0.33475   0.31225   -2.000
 7055.00    0.38751   0.31126   -2.000
 7056.00    0.42767   0.31047   -2.000
 7057.00    0.41162   0.30988   -2.000
 7058.00    0.35359   0.30942   -2.000
 7059.00    0.29996   0.30894   -2.000
 7060.00    0.26752   0.30848   -2.000
 7061.00    0.25505   0.30817   -2.000
 7062.00    0.27500   0.30781   -2.000
 7063.00    0.33192   0.30736   -2.000
 7064.00    0.38876   0.30709   -2.000
 7065.00    0.40454   0.30683   -2.000
 7066.00    0.38512   0.30658   -2.000
 7067.00    0.35612   0.30661   -2.000
 7068.00    0.32601   0.30679   -2.000
 7069.00    0.30088   0.30712   -2.000
 7070.00    0.30082   0.30780   -2.000
 7071.00    0.32668   0.30856   -2.000
 7072.00    0.33438   0.30919   -2.000
 7073.00    0.30418   0.30989   -2.000
 7074.00    0.29120   0.31052   -2.000
 7075.00    0.32778   0.31085   -2.000
 7076.00    0.35641   0.31101   -2.000
 7077.00    0.33125   0.31102   -2.000
 7078.00    0.28458   0.31076   -2.000
 7079.00    0.25530   0.31021   -2.000
 7080.00    0.24485   0.30941   -2.000
 7081.00    0.25326   0.30833   -2.000
 7082.00    0.28926   0.30704   -2.000
 7083.00    0.30001   0.30562   -2.000
 7084.00    0.17412   0.30398   -2.000
 7085.00   -0.05623   0.30245   -2.000
 7086.00   -0.16854   0.30124   -2.000
 7087.00    0.00876   0.30002   -2.000
 7088.00    0.46953   0.29897   -2.000
 7089.00    0.97483   0.29836   -2.000
 7090.00    1.15551   0.29786   -2.000
 7091.00    0.95186   0.29753   -2.000
 7092.00    0.64591   0.29748   -2.000
 7093.00    0.42425   0.29750   -2.000
 7094.00    0.28867   0.29763   -2.000
 7095.00    0.24219   0.29792   -2.000
 7096.00    0.29150   0.29829   -2.000
 7097.00    0.29800   0.29866   -2.000
 7098.00    0.08919   0.29904   -2.000
 7099.00   -0.17261   0.29954   -2.000
 7100.00   -0.14376   0.29987   -2.000
 7101.00    0.15415   0.30014   -2.000
 7102.00    0.42628   0.30039   -2.000
 7103.00    0.54799   0.30048   -2.000
 7104.00    0.55806   0.30056   -2.000
 7105.00    0.47334   0.30067   -2.000
 7106.00    0.30842   0.30061   -2.000
 7107.00    0.16409   0.30041   -2.000
 7108.00    0.14544   0.30028   -2.000
 7109.00    0.21707   0.30021   -2.000
 7110.00    0.27453   0.30005   -2.000
 7111.00    0.27546   0.29992   -2.000
 7112.00    0.23971   0.30001   -2.000
 7113.00    0.22197   0.30029   -2.000
 7114.00    0.25711   0.30054   -2.000
 7115.00    0.30559   0.30078   -2.000
 7116.00    0.31688   0.30112   -2.000
 7117.00    0.30098   0.30137   -2.000
 7118.00    0.30229   0.30141   -2.000
 7119.00    0.35416   0.30130   -2.000
 7120.00    0.35567   0.30114   -2.000
 7121.00    0.03418   0.30080   -2.000
 7122.00   -0.47694   0.30014   -2.000
 7123.00   -0.33593   0.29947   -2.000
 7124.00    0.72931   0.29884   -2.000
 7125.00    1.68579   0.29792   -2.000
 7126.00    1.74592   0.29695   -2.000
 7127.00    1.27117   0.29619   -2.000
 7128.00    0.68483   0.29557   -2.000
 7129.00   -0.08479   0.29503   -2.000
 7130.00   -0.80326   0.29466   -2.000
 7131.00   -0.71391   0.29461   -2.000
 7132.00    0.22742   0.29484   -2.000
 7133.00    1.03915   0.29518   -2.000
 7134.00    1.17309   0.29567   -2.000
 7135.00    0.97303   0.29616   -2.000
 7136.00    0.73249   0.29658   -2.000
 7137.00    0.41067   0.29706   -2.000
 7138.00    0.09351   0.29739   -2.000
 7139.00    0.03567   0.29752   -2.000
 7140.00    0.19694   0.29774   -2.000
 7141.00    0.27061   0.29792   -2.000
 7142.00    0.26052   0.29787   -2.000
 7143.00    0.43317   0.29780   -2.000
 7144.00    0.68353   0.29767   -2.000
 7145.00    0.63290   0.29736   -2.000
 7146.00    0.32769   0.29719   -2.000
 7147.00    0.14289   0.29704   -2.000
 7148.00    0.14783   0.29679   -2.000
 7149.00    0.15621   0.29699   -2.000
 7150.00    0.14150   0.29749   -2.000
 7151.00    0.20961   0.29789   -2.000
 7152.00    0.37692   0.29852   -2.000
 7153.00    0.54133   0.29939   -2.000
 7154.00    0.51668   0.30006   -2.000
 7155.00    0.22147   0.30047   -2.000
 7156.00   -0.05439   0.30088   -2.000
 7157.00    0.02530   0.30112   -2.000
 7158.00    0.33217   0.30098   -2.000
 7159.00    0.47410   0.30061   -2.000
 7160.00    0.17373   0.30003   -2.000
 7161.00   -0.42355   0.29933   -2.000
 7162.00   -0.52256   0.29866   -2.000
 7163.00    0.31578   0.29783   -2.000
 7164.00    1.18009   0.29715   -2.000
 7165.00    1.20006   0.29677   -2.000
 7166.00    0.89413   0.29665   -2.000
 7167.00    0.85817   0.29679   -2.000
 7168.00    0.61228   0.29713   -2.000
 7169.00   -0.12361   0.29757   -2.000
 7170.00   -0.49459   0.29803   -2.000
 7171.00   -0.04862   0.29850   -2.000
 7172.00    0.29614   0.29881   -2.000
 7173.00   -0.03288   0.29890   -2.000
 7174.00   -0.28199   0.29886   -2.000
 7175.00    0.08357   0.29869   -2.000
 7176.00    0.57305   0.29826   -2.000
 7177.00    0.81139   0.29781   -2.000
 7178.00    1.04606   0.29745   -2.000
 7179.00    1.27028   0.29702   -2.000
 7180.00    0.97930   0.29659   -2.000
 7181.00    0.20844   0.29625   -2.000
 7182.00   -0.27340   0.29604   -2.000
 7183.00   -0.23234   0.29589   -2.000
 7184.00   -0.22078   0.29552   -2.000
 7185.00   -0.43575   0.29511   -2.000
 7186.00   -0.47781   0.29479   -2.000
 7187.00   -0.08594   0.29427   -2.000
 7188.00    0.62949   0.29389   -2.000
 7189.00    1.30207   0.29375   -2.000
 7190.00    1.49883   0.29369   -2.000
 7191.00    1.13423   0.29391   -2.000
 7192.00    0.48990   0.29425   -2.000
 7193.00   -0.05222   0.29454   -2.000
 7194.00   -0.19970   0.29489   -2.000
 7195.00   -0.01364   0.29529   -2.000
 7196.00    0.20478   0.29552   -2.000
 7197.00    0.28857   0.29555   -2.000
 7198.00    0.25057   0.29565   -2.000
 7199.00    0.20609   0.29572   -2.000
 7200.00    0.24699   0.29565   -2.000
 7201.00    0.25843   0.29549   -2.000
 7202.00    0.10254   0.29528   -2.000
 7203.00   -0.04867   0.29504   -2.000
 7204.00    0.06003   0.29467   -2.000
 7205.00    0.36716   0.29432   -2.000
 7206.00    0.62652   0.29395   -2.000
 7207.00    0.66794   0.29355   -2.000
 7208.00    0.50754   0.29351   -2.000
 7209.00    0.40769   0.29361   -2.000
 7210.00    0.46693   0.29375   -2.000
 7211.00    0.23210   0.29422   -2.000
 7212.00   -0.46651   0.29469   -2.000
 7213.00   -0.76026   0.29505   -2.000
 7214.00   -0.05863   0.29557   -2.000
 7215.00    0.82477   0.29609   -2.000
 7216.00    1.06747   0.29642   -2.000
 7217.00    0.96961   0.29680   -2.000
 7218.00    0.94726   0.29724   -2.000
