###################################################################
## OUTPUT of StarlightChains_v04.for    [Cid@UFSC - 01/Apr/2007] ##
###################################################################

## Some input info
2014az.txt                               [arq_obs]
Base.CB07.vall.4m                        [arq_base]
Masks.EmLines.NEW.gm                     [arq_masks]
StCv04.C11.config                        [arq_config]
   66                                    [N_base]
    0                                    [N_YAV_components = # of components with extra extinction!]
    0                                    [i_FitPowerLaw (1/0 = Yes/No)]
-9.99                                    [alpha_PowerLaw]
CCM                                      [red_law_option]
 1.458241                                [q_norm = A(l_norm)/A(V)]

## (Re)Sampling Parameters
 3741.00                                 [l_ini (A)]
 7218.00                                 [l_fin (A)]
    1.00                                 [dl    (A)]     (OBS: dl_cushion =    50.00 A)

## Normalization info
 4020.00                                 [l_norm (A) - for base]
 4010.00                                 [llow_norm (A) - window for f_obs]
 4060.00                                 [lupp_norm (A) - window for f_obs]
6.356383E-17                             [fobs_norm (in input units)]

## S/N
 3691.00                                 [llow_SN (A) - window for S/N]
 7268.00                                 [lupp_SN (A) - window for S/N]
   4.035                                 [S/N in S/N window]
   5.842                                 [S/N in norm. window]
   3.913                                 [S/N_err in S/N window]
   5.666                                 [S/N_err in norm. window]
  1.0000                                 [fscale_chi2]

## etc...
    -2007418                             [idum_orig]
  2384                                   [NOl_eff]
  2384                                   [Nl_eff]
     0    NSIGMA                         [Ntot_cliped & clip_method]
  1009610                                [Nglobal_steps]
   7                                     [N_chains]
  22                                     [NEX0s_base = N_base in EX0s-fits]
 0   0   1      137   2.0   1.071E+01    [Clip-Bug, RC-Crash & Burn-In warning-flags, n_censored_weights, wei_nsig_threshold & wei_limit]
    10     10.581     10.088      0.493  [idt_all, wdt_TotTime, wdt_UsrTime & wdt_SysTime (sec)]

## Synthesis Results - Best model ##

 3.41803E-01                             [chi2/Nl_eff]
    13.26601                             [adev (%)]

    98.63171                             [sum-of-x (%)]
 5.36659E-17                             [Flux_tot (units of input spectrum!)]
 5.77714E-13                             [Mini_tot (???)]
 3.03666E-13                             [Mcor_tot (???)]

  51.40                                  [v0_min  (km/s)]
 173.50                                  [vd_min  (km/s)]
-0.1158                                  [AV_min  (mag)]
 0.0000                                  [YAV_min (mag)]

# j     x_j(%)      Mini_j(%)     Mcor_j(%)     age_j(yr)     Z_j      (L/M)_j    YAV?  Mstars   component_j        a/Fe...       SSP_chi2r SSP_adev(%)   SSP_AV   SSP_x(%)
  1      9.1889     7.9107E-02    1.5050E-01    1.000000E+06  0.00400  1.094E-02    0   1.0000   age020_m42            0.0000     4.0337E-01    14.2207   2.0961    88.6775
  2      0.0000     0.0000E+00    0.0000E+00    3.160000E+06  0.00400  4.007E-02    0   0.9999   age045_m42            0.0000     3.8261E-01    13.7085   1.4155    92.6200
  3      0.0000     0.0000E+00    0.0000E+00    5.010000E+06  0.00400  2.539E-02    0   0.9488   age055_m42            0.0000     3.8712E-01    13.8820   1.7161    91.2806
  4      0.0000     0.0000E+00    0.0000E+00    6.610000E+06  0.00400  2.620E-02    0   0.9220   age061_m42            0.0000     3.8123E-01    13.6901   1.3466    92.6739
  5      0.0000     0.0000E+00    0.0000E+00    1.000000E+07  0.00400  1.322E-02    0   0.8862   age070_m42            0.0000     3.6579E-01    13.5404   1.0792    94.3027
  6      0.0000     0.0000E+00    0.0000E+00    1.445000E+07  0.00400  7.883E-03    0   0.8571   age078_m42            0.0000     3.7308E-01    13.6876   1.3931    92.5024
  7      0.0000     0.0000E+00    0.0000E+00    2.512000E+07  0.00400  5.251E-03    0   0.8174   age090_m42            0.0000     3.6535E-01    13.5289   0.9559    94.5618
  8      0.0000     0.0000E+00    0.0000E+00    4.000000E+07  0.00400  3.649E-03    0   0.7851   age104_m42            0.0000     3.6269E-01    13.4616   0.7326    95.0943
  9      0.0000     0.0000E+00    0.0000E+00    5.500000E+07  0.00400  3.098E-03    0   0.7629   age110_m42            0.0000     3.7313E-01    13.5129   0.8878    94.8595
 10      0.0000     0.0000E+00    0.0000E+00    1.015200E+08  0.00400  2.228E-03    0   0.7207   age116_m42            0.0000     3.8384E-01    13.5725   0.9112    94.8074
 11      0.0000     0.0000E+00    0.0000E+00    2.861200E+08  0.00400  1.093E-03    0   0.6648   age125_m42            0.0000     3.8219E-01    13.5244   0.3615    96.9227
 12      0.0000     0.0000E+00    0.0000E+00    5.088000E+08  0.00400  6.597E-04    0   0.6365   age130_m42            0.0000     3.9700E-01    13.6027   0.3517    97.5168
 13      1.9213     8.4874E-01    9.3620E-01    1.434000E+09  0.00400  2.132E-04    0   0.5798   age139_m42            0.0000     3.9869E-01    13.5967  -0.6204    99.0903
 14      0.0000     0.0000E+00    0.0000E+00    4.250000E+09  0.00400  5.895E-05    0   0.5377   age158_m42            0.0000     4.2617E-01    14.2219  -1.0000    94.4305
 15      0.0000     0.0000E+00    0.0000E+00    7.500000E+09  0.00400  3.510E-05    0   0.5212   age171_m42            0.0000     5.1969E-01    15.6597  -1.0000    89.3915
 16      8.4723     3.9798E+01    3.8114E+01    1.300000E+10  0.00400  2.005E-05    0   0.5034   age193_m42            0.0000     6.6076E-01    17.5311  -1.0000    84.9225
 17      3.4515     2.1316E+01    2.0143E+01    1.800000E+10  0.00400  1.525E-05    0   0.4967   age213_m42            0.0000     6.7678E-01    17.7506  -1.0000    83.9856
 18      0.0000     0.0000E+00    0.0000E+00    1.000000E+06  0.00800  1.238E-02    0   1.0000   age020_m52            0.0000     4.0355E-01    14.2207   2.0916    88.8791
 19      0.0000     0.0000E+00    0.0000E+00    3.160000E+06  0.00800  3.074E-02    0   0.9966   age045_m52            0.0000     4.0208E-01    14.1780   2.0171    89.5652
 20      7.1030     2.5074E-02    4.5045E-02    5.010000E+06  0.00800  2.668E-02    0   0.9443   age055_m52            0.0000     3.8893E-01    13.9340   1.7929    90.7496
 21      0.0000     0.0000E+00    0.0000E+00    6.610000E+06  0.00800  2.136E-02    0   0.9177   age061_m52            0.0000     3.5000E-01    13.3757   0.5645    95.9413
 22      0.0000     0.0000E+00    0.0000E+00    1.000000E+07  0.00800  1.215E-02    0   0.8827   age070_m52            0.0000     3.6645E-01    13.6038   1.2570    94.2682
 23      7.5162     8.1208E-02    1.3213E-01    1.445000E+07  0.00800  8.717E-03    0   0.8552   age078_m52            0.0000     3.6885E-01    13.6080   1.3621    93.6075
 24      0.9351     1.5749E-02    2.4455E-02    2.512000E+07  0.00800  5.592E-03    0   0.8162   age090_m52            0.0000     3.6387E-01    13.4868   1.0236    95.4687
 25      0.0000     0.0000E+00    0.0000E+00    4.000000E+07  0.00800  3.896E-03    0   0.7841   age104_m52            0.0000     3.6530E-01    13.4556   0.9423    95.8313
 26      0.1456     6.3825E-03    8.7742E-03    1.015200E+08  0.00800  2.148E-03    0   0.7226   age116_m52            0.0000     3.7232E-01    13.4761   0.8816    95.5210
 27      0.0000     0.0000E+00    0.0000E+00    2.861200E+08  0.00800  9.925E-04    0   0.6683   age125_m52            0.0000     3.9523E-01    13.5822   0.4183    98.2984
 28      0.0000     0.0000E+00    0.0000E+00    9.047900E+08  0.00800  3.141E-04    0   0.6138   age135_m52            0.0000     4.3209E-01    14.0057  -0.3743   101.5591
 29      3.0263     1.6581E+00    1.8463E+00    1.434000E+09  0.00800  1.719E-04    0   0.5853   age139_m52            0.0000     4.1818E-01    13.8844  -0.9718   100.2898
 30      0.0000     0.0000E+00    0.0000E+00    2.500000E+09  0.00800  7.872E-05    0   0.5600   age150_m52            0.0000     5.2155E-01    15.5849  -1.0000    92.1372
 31      0.0000     0.0000E+00    0.0000E+00    4.250000E+09  0.00800  4.336E-05    0   0.5426   age158_m52            0.0000     5.3874E-01    15.7745  -1.0000    90.9616
 32      2.6027     7.7598E+00    7.8523E+00    6.250000E+09  0.00800  3.159E-05    0   0.5319   age166_m52            0.0000     7.2292E-01    18.1134  -1.0000    85.8685
 33      0.0000     0.0000E+00    0.0000E+00    1.300000E+10  0.00800  1.361E-05    0   0.5073   age193_m52            0.0000     1.3887E+00    24.6953  -1.0000    73.1341
 34      0.0000     0.0000E+00    0.0000E+00    1.800000E+10  0.00800  9.886E-06    0   0.4990   age213_m52            0.0000     1.6241E+00    26.3653  -1.0000    69.9357
 35      7.9277     4.8358E-02    9.2000E-02    1.000000E+06  0.02000  1.544E-02    0   1.0000   age020_m62            0.0000     4.0454E-01    14.2399   2.0865    89.1540
 36      0.0000     0.0000E+00    0.0000E+00    3.160000E+06  0.02000  3.762E-02    0   0.9858   age045_m62            0.0000     4.0405E-01    14.2272   2.0244    89.9990
 37      0.0000     0.0000E+00    0.0000E+00    5.010000E+06  0.02000  3.296E-02    0   0.9342   age055_m62            0.0000     3.8588E-01    13.8163   1.6808    92.1653
 38      0.5389     4.3983E-03    7.4145E-03    8.710000E+06  0.02000  1.154E-02    0   0.8861   age067_m62            0.0000     3.9244E-01    14.2357   0.7212    96.8814
 39      8.8796     1.0913E-01    1.7590E-01    1.445000E+07  0.02000  7.663E-03    0   0.8472   age078_m62            0.0000     3.6066E-01    13.6050   0.9118    96.1987
 40      0.0444     9.2285E-04    1.4219E-03    2.512000E+07  0.02000  4.532E-03    0   0.8099   age090_m62            0.0000     3.6590E-01    13.6651   0.9116    95.6438
 41      0.0000     0.0000E+00    0.0000E+00    5.500000E+07  0.02000  2.733E-03    0   0.7595   age110_m62            0.0000     3.6287E-01    13.4363   0.9200    95.4220
 42      2.7730     1.9077E-01    2.5351E-01    1.609000E+08  0.02000  1.369E-03    0   0.6985   age120_m62            0.0000     3.8467E-01    13.5141   0.7729    97.1781
 43      0.0000     0.0000E+00    0.0000E+00    2.861200E+08  0.02000  9.013E-04    0   0.6714   age125_m62            0.0000     4.0718E-01    13.7147   0.5324    99.3179
 44      0.0000     0.0000E+00    0.0000E+00    5.088000E+08  0.02000  5.028E-04    0   0.6449   age130_m62            0.0000     4.3959E-01    14.0705   0.1589   101.4091
 45     10.4178     4.0411E+00    4.7504E+00    9.047900E+08  0.02000  2.428E-04    0   0.6179   age135_m62            0.0000     4.4298E-01    14.1333  -0.4435   101.2766
 46      0.0000     0.0000E+00    0.0000E+00    1.434000E+09  0.02000  1.263E-04    0   0.5908   age139_m62            0.0000     4.5922E-01    14.2934  -0.9010   100.3171
 47      0.0000     0.0000E+00    0.0000E+00    2.500000E+09  0.02000  5.985E-05    0   0.5673   age150_m62            0.0000     5.7924E-01    16.0983  -1.0000    92.6635
 48      0.0000     0.0000E+00    0.0000E+00    4.250000E+09  0.02000  3.271E-05    0   0.5468   age158_m62            0.0000     8.9481E-01    19.7752  -1.0000    84.0206
 49      0.0000     0.0000E+00    0.0000E+00    1.000000E+10  0.02000  1.360E-05    0   0.5167   age181_m62            0.0000     1.4589E+00    24.6689  -1.0000    74.3873
 50      0.0000     0.0000E+00    0.0000E+00    1.800000E+10  0.02000  7.124E-06    0   0.5013   age213_m62            0.0000     1.8991E+00    27.6754  -1.0000    68.2718
 51      0.0000     0.0000E+00    0.0000E+00    1.000000E+06  0.05000  2.592E-02    0   0.9998   age020_m72            0.0000     4.0893E-01    14.3097   2.0755    89.3263
 52      0.0000     0.0000E+00    0.0000E+00    3.160000E+06  0.05000  4.845E-02    0   0.9577   age045_m72            0.0000     3.9707E-01    14.0822   1.9180    90.6703
 53      2.4700     7.5726E-03    1.3178E-02    5.010000E+06  0.05000  3.072E-02    0   0.9147   age055_m72            0.0000     3.7374E-01    13.8001   1.4776    93.4345
 54      6.1187     3.9606E-02    6.6888E-02    6.610000E+06  0.05000  1.455E-02    0   0.8877   age061_m72            0.0000     4.4379E-01    15.2940   0.7865    97.5159
 55      3.3276     3.4538E-02    5.6009E-02    1.000000E+07  0.05000  9.074E-03    0   0.8524   age070_m72            0.0000     3.8689E-01    14.1091   1.6704    92.9874
 56      0.0000     0.0000E+00    0.0000E+00    2.512000E+07  0.05000  4.250E-03    0   0.7902   age090_m72            0.0000     3.7565E-01    13.7730   1.3849    93.8288
 57      0.0000     0.0000E+00    0.0000E+00    4.000000E+07  0.05000  3.087E-03    0   0.7618   age104_m72            0.0000     3.7569E-01    13.7254   1.1679    94.8749
 58      0.0000     0.0000E+00    0.0000E+00    1.015200E+08  0.05000  1.700E-03    0   0.7096   age116_m72            0.0000     3.8186E-01    13.5352   0.9175    96.7889
 59      0.0000     0.0000E+00    0.0000E+00    2.861200E+08  0.05000  7.384E-04    0   0.6633   age125_m72            0.0000     4.2582E-01    13.8809   0.4035   100.2955
 60      0.0000     0.0000E+00    0.0000E+00    5.088000E+08  0.05000  3.819E-04    0   0.6372   age130_m72            0.0000     4.4149E-01    14.0999  -0.1003   102.0341
 61      0.0000     0.0000E+00    0.0000E+00    9.047900E+08  0.05000  1.676E-04    0   0.6110   age135_m72            0.0000     4.9254E-01    14.6552  -0.8240   101.2439
 62      6.4078     6.8292E+00    7.6317E+00    1.434000E+09  0.05000  8.837E-05    0   0.5874   age139_m72            0.0000     6.0027E-01    16.2248  -1.0000    93.8614
 63      4.1707     9.2795E+00    9.8827E+00    2.500000E+09  0.05000  4.233E-05    0   0.5598   age150_m72            0.0000     9.2542E-01    19.9493  -1.0000    84.6699
 64      1.1925     7.8269E+00    7.8160E+00    6.250000E+09  0.05000  1.435E-05    0   0.5249   age166_m72            0.0000     1.6452E+00    26.0285  -1.0000    71.5357
 65      0.0000     0.0000E+00    0.0000E+00    1.300000E+10  0.05000  6.513E-06    0   0.5036   age193_m72            0.0000     2.2759E+00    29.9027  -1.0000    64.8103
 66      0.0000     0.0000E+00    0.0000E+00    1.800000E+10  0.05000  4.527E-06    0   0.4945   age213_m72            0.0000     2.6784E+00    31.9370  -1.0000    60.5375


## Synthesis Results - Average & Chains ##

# j      x_j: min, <> & last-chain-values for 1 ...  7 chains
  1      9.1889      0.7046      3.9445      1.8497      0.0000      2.0779      2.6904      1.5648      0.0000
  2      0.0000      0.7968      0.0000      0.0000      3.0207      0.0000      0.0000      0.0000      0.0000
  3      0.0000      0.5353      0.5288      0.0000      0.0000      0.0000      0.0000      0.0000      0.0000
  4      0.0000      1.3455      0.0000      1.2912      5.9241      0.0000      0.0000      0.0000      0.0820
  5      0.0000      0.8019      0.0000      0.0000      0.0000      0.0000      0.0000      0.0000      1.3789
  6      0.0000      0.6056      0.0000      0.0000      1.7483      0.0000      0.0000      0.0000      0.0000
  7      0.0000      1.0297      0.0000      0.0000      1.3312      0.0000      4.6920      0.0000      0.0000
  8      0.0000      2.1747      0.0000      0.6936      0.0000      0.0000      0.0000      5.3606      0.0000
  9      0.0000      1.2219      0.0000      0.0000      0.6212      0.0000      0.0000      0.0000      0.0000
 10      0.0000      0.8897      0.0000      0.0000      0.3986      0.0000      0.0000      0.0000      0.0000
 11      0.0000      1.3403      0.0000      0.0000      0.0000      0.0000      0.0000      0.0000      0.0000
 12      0.0000      1.5602      0.0000      0.0000      0.0000      1.3144      0.0000      0.1478      0.0000
 13      1.9213      3.1227      8.8591      0.4240      3.6619      6.3008      1.5359      0.3812     15.0385
 14      0.0000      1.1656      0.0000      0.5835      0.0000      0.8165      2.3659      0.3253      0.0000
 15      0.0000      0.3125      0.0000      1.8117      0.0000      0.7287      0.0000      0.0000      0.0768
 16      8.4723      0.5379      1.0142      0.0000      0.5614      0.0000      0.0000      0.0000      0.0000
 17      3.4515      0.2952      2.5306      0.0000      0.0000      0.3333      0.0000      0.8812      0.0000
 18      0.0000      0.7635      0.0000      0.0000      0.0000      0.0000      0.0000      0.0000      4.0721
 19      0.0000      0.6639      0.0000      0.0000      0.0000      5.0345      0.0000      1.2228      0.9137
 20      7.1030      1.6921     13.9943      0.0000      0.0000      0.0000      0.0000      4.1611      0.0000
 21      0.0000     16.4276      0.0000     37.6295     20.4439     18.4426     18.5761     20.9676     29.5853
 22      0.0000      0.7447      0.0000      0.0000      0.0000      0.0506      0.5778      0.0000      0.0083
 23      7.5162      1.0558      0.7736      0.0000      0.0000      7.3793      0.0000      4.3767      0.0000
 24      0.9351      1.1887      1.7161      0.0000      0.0000      3.0501      0.0000      0.0000      0.0000
 25      0.0000      1.1414      0.2662      0.0000      0.0000      0.0000      0.0000      0.0000      5.1656
 26      0.1456      1.3647      2.9719      0.4805      0.0000      2.4590      2.0925      0.0000      0.0000
 27      0.0000      1.5214      0.2719      0.6482      0.0000      0.0000      0.0000      0.0000      0.0000
 28      0.0000      2.5454      0.0000      3.0746      6.8646      3.6850      3.7055      1.8314      7.3457
 29      3.0263      0.8039      3.3987      1.5477      0.0000      0.3043      0.0000      1.0840      0.0000
 30      0.0000      0.3908      0.0000      1.0163      0.0000      0.0000      1.3287      0.0000      0.0000
 31      0.0000      0.2177      0.3162      2.3286      0.0000      0.0000      1.5506      0.0000      0.0000
 32      2.6027      0.2540      2.6616      0.0000      1.7014      1.8394      0.0000      1.9021      0.0000
 33      0.0000      0.1428      0.0000      0.0000      0.0000      0.0000      0.0000      0.0000      0.0000
 34      0.0000      0.0793      0.0000      0.0000      0.0000      0.0000      0.0000      0.0000      0.0000
 35      7.9277      1.2469      0.9104      0.0000      0.0360      0.0000      3.1782      1.0285      5.4070
 36      0.0000      1.0846      0.0000      5.0876      0.0000      2.0437      0.0000      3.2219      0.1158
 37      0.0000      0.4583      0.0000      0.0000      2.9820      0.0000      0.0000      1.4520      3.5703
 38      0.5389      6.8440      3.2969      1.9133     16.2334      2.3290     13.2549      2.4483      0.0000
 39      8.8796      3.0237      2.7506      3.9879      3.5587     11.6371      1.9636      0.0000      0.0000
 40      0.0444      2.5701     10.3450      1.8163      5.0726      0.0000      0.0000      0.0000      0.0000
 41      0.0000      1.8210      0.0000      0.0000      0.1294      0.0000      0.0000      1.2300      3.4828
 42      2.7730      0.7373      4.6244      0.0000      0.0000      0.0000      0.0000      0.0000      0.0000
 43      0.0000      1.0024      0.0000      0.0000      0.0000      0.0000      0.0000      0.4018      0.0000
 44      0.0000      2.9409      0.0000      0.0000      1.7834      0.0000      0.0000      7.2044      1.6275
 45     10.4178      3.7703      9.7139      6.9515      1.4207     12.3161      8.3019      0.0000      0.0000
 46      0.0000      1.0516      0.0000      3.5251      0.2134      2.9583      1.5293      0.0000      0.4935
 47      0.0000      0.4704      0.0000      0.0000      1.0888      0.3460      0.4583      1.2967      0.0000
 48      0.0000      0.4236      0.0000      1.0968      2.0939      0.0000      0.9154      0.0000      0.0000
 49      0.0000      0.1190      0.0000      0.0000      0.0000      0.0000      0.0000      0.0000      0.0000
 50      0.0000      0.1219      0.0000      0.0000      0.0000      0.9480      0.0000      0.3235      0.0000
 51      0.0000      0.7524      0.0000      0.0000      0.0000      0.0000      3.0816      2.6467      0.0000
 52      0.0000      0.6234      0.0000      0.0000      0.0000      5.0604      1.4793      0.0000      0.0000
 53      2.4700      1.2351      0.9194      7.9339      0.0000      0.0000      4.3645      0.0000      0.0000
 54      6.1187      6.0334      8.0630      7.0546      2.7883      5.8166     10.0025     14.7667      8.6489
 55      3.3276      0.7377      4.0514      0.0000      3.4019      0.0000      0.0000      0.0000      0.5354
 56      0.0000      0.7787      0.0000      0.0000      0.0000      0.0000      0.0000      0.0000      0.0000
 57      0.0000      1.3450      0.0000      1.0736      0.3444      0.0000      0.0000      3.6775      4.0836
 58      0.0000      0.6346      0.0000      0.0000      0.0000      0.0000      0.0000      0.0000      0.0000
 59      0.0000      1.0320      0.5526      0.0000      0.2207      0.0000      0.0000      0.0000      0.0000
 60      0.0000      4.6399      0.0000      3.5560      8.0753      0.6233     10.1560      6.8733      0.0509
 61      0.0000      1.3320      0.0000      0.0000      2.2995      0.6664      0.0000      6.9348      2.9313
 62      6.4078      0.5447      1.6315      0.0000      0.0000      0.0000      0.0000      0.0000      0.0000
 63      4.1707      0.6225      4.1698      0.0000      0.0000      0.0000      0.0000      0.0000      2.3208
 64      1.1925      0.5103      4.8745      0.5831      0.0000      0.0000      0.0000      0.0000      0.0000
 65      0.0000      0.0657      0.0000      0.0000      0.0000      0.0000      0.2176      0.3697      0.0000
 66      0.0000      0.0460      0.0000      0.0000      0.0000      0.0000      0.0000      0.0000      0.5942

# j      m_j: min, <> & last-chain-values for 1 ...  7 chains
  1  1.5050E-01  3.5427E-02  7.6715E-02  1.0225E-01  0.0000E+00  9.0234E-02  1.6572E-01  7.6279E-02  0.0000E+00
  2  0.0000E+00  1.0937E-02  0.0000E+00  0.0000E+00  5.1814E-02  0.0000E+00  0.0000E+00  0.0000E+00  0.0000E+00
  3  0.0000E+00  1.1002E-02  4.2045E-03  0.0000E+00  0.0000E+00  0.0000E+00  0.0000E+00  0.0000E+00  0.0000E+00
  4  0.0000E+00  2.6043E-02  0.0000E+00  2.7480E-02  1.4330E-01  0.0000E+00  0.0000E+00  0.0000E+00  1.6693E-03
  5  0.0000E+00  2.9567E-02  0.0000E+00  0.0000E+00  0.0000E+00  0.0000E+00  0.0000E+00  0.0000E+00  5.3449E-02
  6  0.0000E+00  3.6217E-02  0.0000E+00  0.0000E+00  1.3066E-01  0.0000E+00  0.0000E+00  0.0000E+00  0.0000E+00
  7  0.0000E+00  8.8161E-02  0.0000E+00  0.0000E+00  1.4244E-01  0.0000E+00  4.9217E-01  0.0000E+00  0.0000E+00
  8  0.0000E+00  2.5735E-01  0.0000E+00  9.0252E-02  0.0000E+00  0.0000E+00  0.0000E+00  6.1507E-01  0.0000E+00
  9  0.0000E+00  1.6550E-01  0.0000E+00  0.0000E+00  1.0515E-01  0.0000E+00  0.0000E+00  0.0000E+00  0.0000E+00
 10  0.0000E+00  1.5829E-01  0.0000E+00  0.0000E+00  8.8622E-02  0.0000E+00  0.0000E+00  0.0000E+00  0.0000E+00
 11  0.0000E+00  4.4841E-01  0.0000E+00  0.0000E+00  0.0000E+00  0.0000E+00  0.0000E+00  0.0000E+00  0.0000E+00
 12  0.0000E+00  8.2799E-01  0.0000E+00  0.0000E+00  0.0000E+00  6.0246E-01  0.0000E+00  7.6037E-02  0.0000E+00
 13  9.3620E-01  4.6710E+00  5.1261E+00  6.9724E-01  6.8454E+00  8.1404E+00  2.8146E+00  5.5286E-01  2.3649E+01
 14  0.0000E+00  5.8478E+00  0.0000E+00  3.2187E+00  0.0000E+00  3.5383E+00  1.4542E+01  1.5824E+00  0.0000E+00
 15  0.0000E+00  2.5524E+00  0.0000E+00  1.6269E+01  0.0000E+00  5.1403E+00  0.0000E+00  0.0000E+00  6.5947E-01
 16  3.8114E+01  7.4285E+00  5.4181E+00  0.0000E+00  9.6881E+00  0.0000E+00  0.0000E+00  0.0000E+00  0.0000E+00
 17  2.0143E+01  5.2877E+00  1.7537E+01  0.0000E+00  0.0000E+00  5.1572E+00  0.0000E+00  1.5305E+01  0.0000E+00
 18  0.0000E+00  3.3920E-02  0.0000E+00  0.0000E+00  0.0000E+00  0.0000E+00  0.0000E+00  0.0000E+00  1.9020E-01
 19  0.0000E+00  1.1839E-02  0.0000E+00  0.0000E+00  0.0000E+00  7.7542E-02  0.0000E+00  2.1141E-02  1.7130E-02
 20  4.5045E-02  3.2941E-02  1.0539E-01  0.0000E+00  0.0000E+00  0.0000E+00  0.0000E+00  7.8540E-02  0.0000E+00
 21  0.0000E+00  3.8821E-01  0.0000E+00  9.7769E-01  6.0376E-01  3.7643E-01  5.3779E-01  4.8041E-01  7.3501E-01
 22  0.0000E+00  2.9758E-02  0.0000E+00  0.0000E+00  0.0000E+00  1.7480E-03  2.8288E-02  0.0000E+00  3.4745E-04
 23  1.3213E-01  5.6971E-02  1.6148E-02  0.0000E+00  0.0000E+00  3.4393E-01  0.0000E+00  2.2899E-01  0.0000E+00
 24  2.4455E-02  9.5433E-02  5.3293E-02  0.0000E+00  0.0000E+00  2.1150E-01  0.0000E+00  0.0000E+00  0.0000E+00
 25  0.0000E+00  1.2635E-01  1.1400E-02  0.0000E+00  0.0000E+00  0.0000E+00  0.0000E+00  0.0000E+00  6.0116E-01
 26  8.7742E-03  2.5251E-01  2.1272E-01  9.7755E-02  0.0000E+00  3.9299E-01  4.7433E-01  0.0000E+00  0.0000E+00
 27  0.0000E+00  5.6349E-01  3.8948E-02  2.6397E-01  0.0000E+00  0.0000E+00  0.0000E+00  0.0000E+00  0.0000E+00
 28  0.0000E+00  2.7359E+00  0.0000E+00  3.6335E+00  9.2209E+00  3.4210E+00  4.8795E+00  1.9085E+00  8.3005E+00
 29  1.8463E+00  1.5055E+00  2.4622E+00  3.1869E+00  0.0000E+00  4.9226E-01  0.0000E+00  1.9683E+00  0.0000E+00
 30  0.0000E+00  1.5290E+00  0.0000E+00  4.3723E+00  0.0000E+00  0.0000E+00  6.3695E+00  0.0000E+00  0.0000E+00
 31  0.0000E+00  1.4985E+00  8.4186E-01  1.7622E+01  0.0000E+00  0.0000E+00  1.3075E+01  0.0000E+00  0.0000E+00
 32  7.8523E+00  2.3524E+00  9.5352E+00  0.0000E+00  1.9692E+01  1.4714E+01  0.0000E+00  1.7080E+01  0.0000E+00
 33  0.0000E+00  2.9278E+00  0.0000E+00  0.0000E+00  0.0000E+00  0.0000E+00  0.0000E+00  0.0000E+00  0.0000E+00
 34  0.0000E+00  2.2007E+00  0.0000E+00  0.0000E+00  0.0000E+00  0.0000E+00  0.0000E+00  0.0000E+00  0.0000E+00
 35  9.2000E-02  4.4420E-02  1.2546E-02  0.0000E+00  1.6031E-03  0.0000E+00  1.3871E-01  3.5525E-02  2.0250E-01
 36  0.0000E+00  1.5633E-02  0.0000E+00  8.0623E-02  0.0000E+00  2.5442E-02  0.0000E+00  4.5024E-02  1.7547E-03
 37  0.0000E+00  7.1442E-03  0.0000E+00  0.0000E+00  5.8099E-02  0.0000E+00  0.0000E+00  2.1948E-02  5.8515E-02
 38  7.4145E-03  2.8905E-01  5.3863E-02  8.8844E-02  8.5681E-01  8.4960E-02  6.8583E-01  1.0026E-01  0.0000E+00
 39  1.7590E-01  1.8387E-01  6.4703E-02  2.6663E-01  2.7044E-01  6.1121E-01  1.4629E-01  0.0000E+00  0.0000E+00
 40  1.4219E-03  2.5263E-01  3.9335E-01  1.9629E-01  6.2312E-01  0.0000E+00  0.0000E+00  0.0000E+00  0.0000E+00
 41  0.0000E+00  2.7835E-01  0.0000E+00  0.0000E+00  2.4723E-02  0.0000E+00  0.0000E+00  1.8229E-01  5.5966E-01
 42  2.5351E-01  2.0693E-01  5.0202E-01  0.0000E+00  0.0000E+00  0.0000E+00  0.0000E+00  0.0000E+00  0.0000E+00
 43  0.0000E+00  4.1072E-01  0.0000E+00  0.0000E+00  0.0000E+00  0.0000E+00  0.0000E+00  1.5963E-01  0.0000E+00
 44  0.0000E+00  2.0748E+00  0.0000E+00  0.0000E+00  1.5724E+00  0.0000E+00  0.0000E+00  4.9279E+00  1.2070E+00
 45  4.7504E+00  5.2776E+00  5.2598E+00  1.0698E+01  2.4852E+00  1.4890E+01  1.4237E+01  0.0000E+00  0.0000E+00
 46  0.0000E+00  2.7058E+00  0.0000E+00  9.9719E+00  6.8609E-01  6.5741E+00  4.8204E+00  0.0000E+00  1.3349E+00
 47  0.0000E+00  2.4522E+00  0.0000E+00  0.0000E+00  7.0941E+00  1.5580E+00  2.9276E+00  6.5545E+00  0.0000E+00
 48  0.0000E+00  3.8948E+00  0.0000E+00  1.1088E+01  2.4060E+01  0.0000E+00  1.0312E+01  0.0000E+00  0.0000E+00
 49  0.0000E+00  2.4864E+00  0.0000E+00  0.0000E+00  0.0000E+00  0.0000E+00  0.0000E+00  0.0000E+00  0.0000E+00
 50  0.0000E+00  4.7180E+00  0.0000E+00  0.0000E+00  0.0000E+00  3.1692E+01  0.0000E+00  1.2140E+01  0.0000E+00
 51  0.0000E+00  1.5964E-02  0.0000E+00  0.0000E+00  0.0000E+00  0.0000E+00  8.0096E-02  5.4444E-02  0.0000E+00
 52  0.0000E+00  6.7775E-03  0.0000E+00  0.0000E+00  0.0000E+00  4.7521E-02  1.9705E-02  0.0000E+00  0.0000E+00
 53  1.3178E-02  2.0227E-02  5.8247E-03  1.4286E-01  0.0000E+00  0.0000E+00  8.7571E-02  0.0000E+00  0.0000E+00
 54  6.6888E-02  2.0247E-01  1.0467E-01  2.6028E-01  1.1693E-01  1.6859E-01  4.1122E-01  4.8045E-01  3.0513E-01
 55  5.6009E-02  3.8117E-02  8.0977E-02  0.0000E+00  2.1966E-01  0.0000E+00  0.0000E+00  0.0000E+00  2.9081E-02
 56  0.0000E+00  7.9640E-02  0.0000E+00  0.0000E+00  0.0000E+00  0.0000E+00  0.0000E+00  0.0000E+00  0.0000E+00
 57  0.0000E+00  1.8257E-01  0.0000E+00  1.6022E-01  5.8418E-02  0.0000E+00  0.0000E+00  4.8397E-01  5.8272E-01
 58  0.0000E+00  1.4571E-01  0.0000E+00  0.0000E+00  0.0000E+00  0.0000E+00  0.0000E+00  0.0000E+00  0.0000E+00
 59  0.0000E+00  5.0989E-01  1.0562E-01  0.0000E+00  1.3629E-01  0.0000E+00  0.0000E+00  0.0000E+00  0.0000E+00
 60  0.0000E+00  4.2582E+00  0.0000E+00  3.5880E+00  9.2615E+00  4.9409E-01  1.1419E+01  6.1158E+00  4.9129E-02
 61  0.0000E+00  2.6710E+00  0.0000E+00  0.0000E+00  5.7624E+00  1.1542E+00  0.0000E+00  1.3482E+01  6.1794E+00
 62  7.6317E+00  1.9915E+00  2.3074E+00  0.0000E+00  0.0000E+00  0.0000E+00  0.0000E+00  0.0000E+00  0.0000E+00
 63  9.8827E+00  4.5282E+00  1.1733E+01  0.0000E+00  0.0000E+00  0.0000E+00  0.0000E+00  0.0000E+00  1.7748E+01
 64  7.8160E+00  1.0266E+01  3.7937E+01  1.2899E+01  0.0000E+00  0.0000E+00  0.0000E+00  0.0000E+00  0.0000E+00
 65  0.0000E+00  2.7957E+00  0.0000E+00  0.0000E+00  0.0000E+00  0.0000E+00  1.1337E+01  1.5243E+01  0.0000E+00
 66  0.0000E+00  2.7657E+00  0.0000E+00  0.0000E+00  0.0000E+00  0.0000E+00  0.0000E+00  0.0000E+00  3.7534E+01

# AV, chi2 & Mass for <> & i_chain = 1 ...  7 solutions
AV      -0.1158      0.3068     -0.0866      0.2411      0.2950      0.2482      0.2946      0.3498      0.2681
chi2 3.4180E-01  3.4690E-01  3.4322E-01  3.4408E-01  3.4589E-01  3.4509E-01  3.4500E-01  3.4528E-01  3.4556E-01
Mass 3.0367E-13  1.7450E-13  2.6593E-13  1.4530E-13  1.3743E-13  1.8673E-13  1.4012E-13  1.9066E-13  1.5757E-13
  51.40                                  [v0_min (km/s) before EX0s...]
 173.50                                  [vd_min (km/s) before EX0s...]


## Synthetic spectrum (Best Model) ##l_obs f_obs f_syn wei
 3478    [Nl_obs]
 3741.00    1.00808   0.81854    0.000
 3742.00    0.95895   0.82819    0.000
 3743.00    0.86535   0.82521    0.000
 3744.00    0.76634   0.81127    0.000
 3745.00    0.68174   0.78883    2.904
 3746.00    0.61077   0.76008    2.873
 3747.00    0.53986   0.72767    2.925
 3748.00    0.46858   0.69636    3.054
 3749.00    0.41164   0.67287    3.045
 3750.00    0.37897   0.66359    2.905
 3751.00    0.37286   0.67187    2.855
 3752.00    0.39754   0.69659    2.945
 3753.00    0.45436   0.73205    3.072
 3754.00    0.52172   0.76987    3.150
 3755.00    0.56554   0.80192    3.164
 3756.00    0.57867   0.82328    3.133
 3757.00    0.57915   0.83376    3.093
 3758.00    0.58173   0.83690    3.101
 3759.00    0.58869   0.83735    3.195
 3760.00    0.58588   0.83849    3.290
 3761.00    0.56019   0.84105    3.251
 3762.00    0.53638   0.84352    3.176
 3763.00    0.55290   0.84341    3.238
 3764.00    0.60052   0.83799    3.320
 3765.00    0.64425   0.82548    3.193
 3766.00    0.68548   0.80582    3.044
 3767.00    0.74150   0.78027    3.158
 3768.00    0.79099   0.75159    3.470
 3769.00    0.79923   0.72493    3.635
 3770.00    0.77408   0.70667    3.508
 3771.00    0.74620   0.70158    3.301
 3772.00    0.72501   0.71123    3.254
 3773.00    0.70524   0.73356    3.472
 3774.00    0.68627   0.76379    3.741
 3775.00    0.67109   0.79656    3.686
 3776.00    0.66104   0.82796    3.450
 3777.00    0.65635   0.85617    3.335
 3778.00    0.65779   0.88089    3.327
 3779.00    0.66809   0.90217    3.302
 3780.00    0.69323   0.91982    3.240
 3781.00    0.73954   0.93341    3.200
 3782.00    0.80948   0.94227    3.264
 3783.00    0.89330   0.94553    3.444
 3784.00    0.96313   0.94263    3.545
 3785.00    1.00099   0.93405    3.434
 3786.00    1.02472   0.92117    3.382
 3787.00    1.05325   0.90591    3.583
 3788.00    1.07361   0.89026    3.803
 3789.00    1.06837   0.87543    3.729
 3790.00    1.04128   0.86103    3.559
 3791.00    1.00120   0.84520    3.548
 3792.00    0.94812   0.82555    3.674
 3793.00    0.88675   0.80011    3.804
 3794.00    0.83559   0.76829    3.810
 3795.00    0.80599   0.73165    3.708
 3796.00    0.78880   0.69478    3.692
 3797.00    0.77727   0.66495    3.844
 3798.00    0.78031   0.64945    3.992
 3799.00    0.79707   0.65281    3.971
 3800.00    0.80563   0.67503    3.887
 3801.00    0.80396   0.71143    3.891
 3802.00    0.82712   0.75417    4.042
 3803.00    0.89239   0.79519    4.257
 3804.00    0.97411   0.82889    4.275
 3805.00    1.05008   0.85367    4.072
 3806.00    1.12270   0.87143    3.974
 3807.00    1.18852   0.88558    4.113
 3808.00    1.22801   0.89879    4.308
 3809.00    1.23721   0.91154    4.327
 3810.00    1.23517   0.92194    4.137
 3811.00    1.22472   0.92721    3.954
 3812.00    1.18464   0.92585    4.057
 3813.00    1.11569   0.91845    4.418
 3814.00    1.04917   0.90742    4.549
 3815.00    0.99853   0.89559    4.313
 3816.00    0.95004   0.88405    4.213
 3817.00    0.90426   0.87204    4.419
 3818.00    0.87963   0.85933    4.684
 3819.00    0.86726   0.84752    4.754
 3820.00    0.83253   0.83904    4.629
 3821.00    0.77561   0.83545    4.466
 3822.00    0.73322   0.83603    4.423
 3823.00    0.71828   0.83795    4.530
 3824.00    0.71280   0.83768    4.699
 3825.00    0.70519   0.83310    4.796
 3826.00    0.69645   0.82424    4.733
 3827.00    0.68521   0.81220    4.661
 3828.00    0.66777   0.79765    4.810
 3829.00    0.64914   0.77971    5.059
 3830.00    0.64115   0.75664    4.996
 3831.00    0.65041   0.72733    4.719
 3832.00    0.67531   0.69253    4.644
 3833.00    0.70643   0.65574    4.798
 3834.00    0.73084   0.62308    4.928
 3835.00    0.74127   0.60082    4.906
 3836.00    0.73729   0.59324    4.817
 3837.00    0.72361   0.60155    4.811
 3838.00    0.70855   0.62374    4.969
 3839.00    0.70196   0.65581    5.104
 3840.00    0.70960   0.69350    4.956
 3841.00    0.72440   0.73286    4.752
 3842.00    0.73444   0.77074    4.831
 3843.00    0.73868   0.80473    5.102
 3844.00    0.73997   0.83330    5.214
 3845.00    0.73028   0.85596    5.082
 3846.00    0.70218   0.87288    4.904
 3847.00    0.66891   0.88460    0.000
 3848.00    0.65067   0.89221    0.000
 3849.00    0.65127   0.89723    0.000
 3850.00    0.66224   0.90101    0.000
 3851.00    0.67332   0.90429    0.000
 3852.00    0.68267   0.90707    0.000
 3853.00    0.70612   0.90851    0.000
 3854.00    0.75291   0.90773    0.000
 3855.00    0.79832   0.90472    0.000
 3856.00    0.81851   0.89999    0.000
 3857.00    0.82994   0.89456    0.000
 3858.00    0.85265   0.88993    0.000
 3859.00    0.87022   0.88761    0.000
 3860.00    0.86346   0.88859    0.000
 3861.00    0.84536   0.89298    0.000
 3862.00    0.83653   0.89972    0.000
 3863.00    0.84015   0.90676    0.000
 3864.00    0.85054   0.91199    0.000
 3865.00    0.86291   0.91425    0.000
 3866.00    0.87575   0.91376    0.000
 3867.00    0.89189   0.91129    0.000
 3868.00    0.91704   0.90709    0.000
 3869.00    0.95685   0.90097    0.000
 3870.00    1.00369   0.89299    0.000
 3871.00    1.03127   0.88434    0.000
 3872.00    1.02453   0.87698    0.000
 3873.00    0.99687   0.87248    0.000
 3874.00    0.96428   0.87084    0.000
 3875.00    0.92883   0.87021    0.000
 3876.00    0.88747   0.86813    0.000
 3877.00    0.83985   0.86334    0.000
 3878.00    0.79917   0.85607    0.000
 3879.00    0.79143   0.84707    0.000
 3880.00    0.81825   0.83692    0.000
 3881.00    0.84457   0.82529    5.796
 3882.00    0.84026   0.81078    5.621
 3883.00    0.80119   0.79144    5.540
 3884.00    0.74457   0.76593    5.682
 3885.00    0.70015   0.73405    5.838
 3886.00    0.68389   0.69754    5.796
 3887.00    0.69049   0.66108    5.559
 3888.00    0.71240   0.63187    5.285
 3889.00    0.74672   0.61687    5.146
 3890.00    0.78913   0.61999    5.192
 3891.00    0.83202   0.64046    5.362
 3892.00    0.86701   0.67305    5.514
 3893.00    0.88712   0.71055    5.489
 3894.00    0.89062   0.74675    5.368
 3895.00    0.88101   0.77804    5.406
 3896.00    0.86260   0.80331    5.598
 3897.00    0.84093   0.82318    5.667
 3898.00    0.82841   0.83900    5.518
 3899.00    0.83794   0.85202    5.334
 3900.00    0.86002   0.86298    5.255
 3901.00    0.86865   0.87213    5.320
 3902.00    0.85508   0.87927    5.517
 3903.00    0.82990   0.88398    5.780
 3904.00    0.80412   0.88672    5.980
 3905.00    0.78512   0.88907    5.989
 3906.00    0.77929   0.89297    5.894
 3907.00    0.79096   0.89965    5.902
 3908.00    0.81874   0.90901    6.042
 3909.00    0.85734   0.91957    6.193
 3910.00    0.90297   0.92918    6.269
 3911.00    0.95086   0.93607    6.264
 3912.00    0.98815   0.93956    6.250
 3913.00    1.00039   0.93986    6.296
 3914.00    0.98611   0.93749    6.357
 3915.00    0.95560   0.93287    6.350
 3916.00    0.92336   0.92609    6.340
 3917.00    0.89869   0.91712    6.429
 3918.00    0.87314   0.90643    6.539
 3919.00    0.83408   0.89528    6.504
 3920.00    0.78846   0.88534    6.323
 3921.00    0.75592   0.87793    6.109
 3922.00    0.75271   0.87320    5.937
 3923.00    0.78458   0.86972    5.841
 3924.00    0.84020   0.86517    5.838
 3925.00    0.89353   0.85744    5.909
 3926.00    0.90960   0.84544    5.963
 3927.00    0.86926   0.82929    5.948
 3928.00    0.79643   0.80980    5.981
 3929.00    0.72872   0.78788    6.156
 3930.00    0.68031   0.76433    6.299
 3931.00    0.64935   0.74048    6.234
 3932.00    0.63099   0.71871    6.149
 3933.00    0.62284   0.70240    6.232
 3934.00    0.62847   0.69494    6.321
 3935.00    0.65008   0.69848    6.236
 3936.00    0.68181   0.71285    6.134
 3937.00    0.71801   0.73547    6.166
 3938.00    0.76003   0.76221    6.202
 3939.00    0.80430   0.78874    6.142
 3940.00    0.83390   0.81171    6.166
 3941.00    0.83836   0.82930    6.382
 3942.00    0.82850   0.84164    6.553
 3943.00    0.82193   0.85037    6.458
 3944.00    0.83037   0.85754    6.256
 3945.00    0.85552   0.86468    6.146
 3946.00    0.88795   0.87229    6.152
 3947.00    0.91752   0.87992    6.207
 3948.00    0.93999   0.88669    6.213
 3949.00    0.95380   0.89196    6.151
 3950.00    0.95830   0.89558    6.124
 3951.00    0.95696   0.89768    6.187
 3952.00    0.95718   0.89821    6.262
 3953.00    0.95829   0.89706    6.249
 3954.00    0.94806   0.89428    6.112
 3955.00    0.92102   0.89007    5.934
 3956.00    0.88589   0.88450    5.870
 3957.00    0.85336   0.87734    5.944
 3958.00    0.82895   0.86774    6.019
 3959.00    0.81013   0.85442    6.031
 3960.00    0.78744   0.83604    0.000
 3961.00    0.75470   0.81181    0.000
 3962.00    0.71193   0.78202    0.000
 3963.00    0.65835   0.74758    0.000
 3964.00    0.59271   0.70923    0.000
 3965.00    0.52567   0.66739    0.000
 3966.00    0.47778   0.62293    0.000
 3967.00    0.45485   0.57844    0.000
 3968.00    0.44590   0.53880    0.000
 3969.00    0.44700   0.51027    0.000
 3970.00    0.46346   0.49854    0.000
 3971.00    0.48986   0.50661    0.000
 3972.00    0.51177   0.53342    0.000
 3973.00    0.53029   0.57419    0.000
 3974.00    0.56034   0.62237    0.000
 3975.00    0.60469   0.67191    0.000
 3976.00    0.65296   0.71852    0.000
 3977.00    0.69886   0.75987    0.000
 3978.00    0.74319   0.79497    0.000
 3979.00    0.78915   0.82351    0.000
 3980.00    0.83760   0.84555    0.000
 3981.00    0.87927   0.86166    6.609
 3982.00    0.90277   0.87312    6.458
 3983.00    0.91581   0.88179    6.335
 3984.00    0.93601   0.88953    6.398
 3985.00    0.96289   0.89756    6.532
 3986.00    0.98461   0.90601    6.480
 3987.00    1.00211   0.91435    6.289
 3988.00    1.02012   0.92199    6.156
 3989.00    1.02291   0.92857    6.026
 3990.00    0.99308   0.93402    5.629
 3991.00    0.95006   0.93830    4.768
 3992.00    0.92466   0.94123    3.845
 3993.00    0.90869   0.94233    3.495
 3994.00    0.87911   0.94123    4.008
 3995.00    0.84602   0.93830    5.352
 3996.00    0.83437   0.93496    6.302
 3997.00    0.84765   0.93304    6.156
 3998.00    0.87468   0.93399    6.076
 3999.00    0.90570   0.93810    6.260
 4000.00    0.93328   0.94410    6.344
 4001.00    0.95094   0.94954    6.366
 4002.00    0.95643   0.95197    6.532
 4003.00    0.95537   0.95007    6.723
 4004.00    0.95517   0.94424    6.717
 4005.00    0.95836   0.93640    6.584
 4006.00    0.96977   0.92930    6.493
 4007.00    1.00330   0.92526    6.465
 4008.00    1.06230   0.92522    6.429
 4009.00    1.12194   0.92868    6.306
 4010.00    1.15719   0.93446    6.120
 4011.00    1.16897   0.94136    6.040
 4012.00    1.16603   0.94843    6.143
 4013.00    1.14792   0.95495    6.263
 4014.00    1.11516   0.96042    6.269
 4015.00    1.07817   0.96463    6.316
 4016.00    1.05009   0.96766    6.527
 4017.00    1.03983   0.96968    6.725
 4018.00    1.04675   0.97082    6.747
 4019.00    1.05821   0.97081    6.723
 4020.00    1.05839   0.96883    6.705
 4021.00    1.03662   0.96376    6.468
 4022.00    1.00000   0.95504    6.048
 4023.00    0.97608   0.94330    5.844
 4024.00    0.97834   0.93068    5.998
 4025.00    0.98997   0.92010    6.271
 4026.00    0.99623   0.91403    6.445
 4027.00    1.00017   0.91308    6.601
 4028.00    1.00078   0.91549    6.797
 4029.00    0.98451   0.91820    6.870
 4030.00    0.94697   0.91875    6.775
 4031.00    0.90138   0.91688    6.730
 4032.00    0.86347   0.91461    6.835
 4033.00    0.84312   0.91480    6.963
 4034.00    0.84169   0.91961    7.004
 4035.00    0.85349   0.92937    6.982
 4036.00    0.87655   0.94248    6.946
 4037.00    0.91423   0.95607    6.917
 4038.00    0.96236   0.96707    6.887
 4039.00    1.00673   0.97334    6.843
 4040.00    1.03358   0.97404    6.839
 4041.00    1.03422   0.96955    6.950
 4042.00    1.00709   0.96081    6.981
 4043.00    0.95889   0.94918    6.593
 4044.00    0.90615   0.93659    6.068
 4045.00    0.87226   0.92597    5.922
 4046.00    0.87672   0.92051    6.161
 4047.00    0.92641   0.92206    6.391
 4048.00    1.00119   0.92983    6.402
 4049.00    1.06303   0.94062    6.347
 4050.00    1.09210   0.95045    6.374
 4051.00    1.08970   0.95630    6.511
 4052.00    1.05947   0.95712    6.673
 4053.00    1.00567   0.95359    6.724
 4054.00    0.94125   0.94748    6.698
 4055.00    0.88570   0.94084    6.756
 4056.00    0.85551   0.93526    6.951
 4057.00    0.86024   0.93162    7.194
 4058.00    0.89885   0.92995    7.293
 4059.00    0.95959   0.92940    7.110
 4060.00    1.02147   0.92854    6.840
 4061.00    1.06255   0.92593    6.766
 4062.00    1.07451   0.92112    6.909
 4063.00    1.06194   0.91520    7.120
 4064.00    1.03590   0.91035    7.265
 4065.00    1.00941   0.90844    7.275
 4066.00    0.99196   0.90975    7.170
 4067.00    0.98555   0.91299    7.032
 4068.00    0.98063   0.91615    6.954
 4069.00    0.96710   0.91758    6.988
 4070.00    0.95113   0.91663    7.083
 4071.00    0.94537   0.91376    7.142
 4072.00    0.95214   0.90998    7.115
 4073.00    0.96669   0.90588    7.027
 4074.00    0.98450   0.90118    6.974
 4075.00    1.00059   0.89534    7.030
 4076.00    1.00809   0.88885    7.157
 4077.00    1.00535   0.88370    7.257
 4078.00    1.00359   0.88252    7.259
 4079.00    1.01428   0.88665    7.163
 4080.00    1.03509   0.89503    7.055
 4081.00    1.05794   0.90454    7.020
 4082.00    1.07864   0.91184    7.069
 4083.00    1.09371   0.91520    7.180
 4084.00    1.09703   0.91523    7.335
 4085.00    1.08723   0.91403    7.495
 4086.00    1.07368   0.91363    7.577
 4087.00    1.06543   0.91474    7.563
 4088.00    1.06173   0.91648    7.580
 4089.00    1.05680   0.91712    7.689
 4090.00    1.04468   0.91503    7.740
 4091.00    1.02216   0.90929    7.641
 4092.00    0.99018   0.89957    0.000
 4093.00    0.94908   0.88580    0.000
 4094.00    0.89595   0.86776    0.000
 4095.00    0.83064   0.84518    0.000
 4096.00    0.75969   0.81794    0.000
 4097.00    0.69433   0.78625    0.000
 4098.00    0.64831   0.75094    0.000
 4099.00    0.63426   0.71389    0.000
 4100.00    0.65947   0.67875    0.000
 4101.00    0.71512   0.65104    0.000
 4102.00    0.77416   0.63668    0.000
 4103.00    0.81320   0.63945    0.000
 4104.00    0.82430   0.65894    0.000
 4105.00    0.81423   0.69034    0.000
 4106.00    0.80005   0.72665    0.000
 4107.00    0.79210   0.76131    0.000
 4108.00    0.78800   0.79033    0.000
 4109.00    0.78261   0.81271    0.000
 4110.00    0.77422   0.82973    0.000
 4111.00    0.77114   0.84358    0.000
 4112.00    0.78746   0.85610    0.000
 4113.00    0.81675   0.86804    6.554
 4114.00    0.83236   0.87894    6.374
 4115.00    0.82628   0.88762    6.563
 4116.00    0.81468   0.89283    6.938
 4117.00    0.80661   0.89401    7.262
 4118.00    0.79789   0.89174    7.377
 4119.00    0.78794   0.88770    7.315
 4120.00    0.78252   0.88418    7.262
 4121.00    0.78490   0.88313    7.325
 4122.00    0.79441   0.88539    7.493
 4123.00    0.81034   0.89039    7.669
 4124.00    0.83252   0.89638    7.717
 4125.00    0.85986   0.90121    7.655
 4126.00    0.88891   0.90317    7.619
 4127.00    0.91157   0.90164    7.637
 4128.00    0.91908   0.89716    7.656
 4129.00    0.91254   0.89100    7.723
 4130.00    0.89938   0.88460    7.931
 4131.00    0.88007   0.87931    8.187
 4132.00    0.85229   0.87643    8.252
 4133.00    0.82559   0.87708    8.082
 4134.00    0.81491   0.88181    7.853
 4135.00    0.82191   0.89010    7.769
 4136.00    0.83812   0.90032    7.922
 4137.00    0.85744   0.91015    8.100
 4138.00    0.87456   0.91716    8.008
 4139.00    0.87835   0.91929    7.832
 4140.00    0.86065   0.91528    7.921
 4141.00    0.83168   0.90528    8.208
 4142.00    0.80639   0.89146    8.374
 4143.00    0.78074   0.87780    8.294
 4144.00    0.74900   0.86873    8.090
 4145.00    0.73274   0.86695    7.959
 4146.00    0.75574   0.87202    7.989
 4147.00    0.80566   0.88086    7.997
 4148.00    0.85603   0.88961    7.819
 4149.00    0.90031   0.89553    7.672
 4150.00    0.93924   0.89789    7.793
 4151.00    0.96148   0.89733    8.055
 4152.00    0.95790   0.89507    8.200
 4153.00    0.93916   0.89224    8.200
 4154.00    0.92036   0.88982    8.171
 4155.00    0.90329   0.88872    8.170
 4156.00    0.88602   0.88961    8.211
 4157.00    0.87379   0.89277    8.305
 4158.00    0.87169   0.89782    8.415
 4159.00    0.87714   0.90386    8.421
 4160.00    0.88526   0.90981    8.275
 4161.00    0.89393   0.91478    8.121
 4162.00    0.89990   0.91822    8.082
 4163.00    0.89632   0.91984    8.124
 4164.00    0.88313   0.91954    8.203
 4165.00    0.87356   0.91740    8.369
 4166.00    0.87794   0.91375    8.563
 4167.00    0.89227   0.90909    8.498
 4168.00    0.90596   0.90379    8.172
 4169.00    0.90884   0.89780    8.057
 4170.00    0.89717   0.89077    8.380
 4171.00    0.87616   0.88262    8.831
 4172.00    0.85229   0.87412    8.994
 4173.00    0.82877   0.86682    8.825
 4174.00    0.80907   0.86227    8.552
 4175.00    0.79740   0.86111    8.430
 4176.00    0.78984   0.86282    8.521
 4177.00    0.77349   0.86632    8.669
 4178.00    0.74808   0.87058    8.755
 4179.00    0.73195   0.87493    8.822
 4180.00    0.73519   0.87896    8.894
 4181.00    0.74960   0.88231    8.898
 4182.00    0.76541   0.88475    8.789
 4183.00    0.77913   0.88620    8.613
 4184.00    0.79267   0.88671    8.487
 4185.00    0.81099   0.88630    8.534
 4186.00    0.83509   0.88515    8.723
 4187.00    0.86030   0.88382    8.845
 4188.00    0.88095   0.88321    8.768
 4189.00    0.89324   0.88421    8.543
 4190.00    0.89873   0.88712    8.293
 4191.00    0.90296   0.89135    8.133
 4192.00    0.90682   0.89556    8.156
 4193.00    0.90682   0.89800    8.394
 4194.00    0.90540   0.89710    8.662
 4195.00    0.90955   0.89209    8.619
 4196.00    0.91740   0.88346    8.383
 4197.00    0.91951   0.87286    8.386
 4198.00    0.91394   0.86255    8.604
 4199.00    0.90638   0.85454    8.640
 4200.00    0.89946   0.85001    8.504
 4201.00    0.89212   0.84921    8.561
 4202.00    0.88538   0.85175    8.843
 4203.00    0.88162   0.85692    9.046
 4204.00    0.87996   0.86395    8.956
 4205.00    0.87739   0.87206    8.626
 4206.00    0.87377   0.88040    8.313
 4207.00    0.87217   0.88807    8.245
 4208.00    0.87722   0.89431    8.386
 4209.00    0.89192   0.89865    8.548
 4210.00    0.91253   0.90098    8.662
 4211.00    0.93255   0.90134    8.744
 4212.00    0.95145   0.89978    8.702
 4213.00    0.96931   0.89640    8.481
 4214.00    0.97570   0.89181    8.316
 4215.00    0.96308   0.88742    8.457
 4216.00    0.94984   0.88504    8.796
 4217.00    0.95773   0.88594    9.014
 4218.00    0.97387   0.88987    8.987
 4219.00    0.97323   0.89491    8.826
 4220.00    0.95761   0.89820    8.687
 4221.00    0.94152   0.89699    8.649
 4222.00    0.92646   0.88962    8.632
 4223.00    0.90768   0.87606    8.541
 4224.00    0.88652   0.85816    8.452
 4225.00    0.86723   0.83951    8.492
 4226.00    0.85187   0.82477    8.696
 4227.00    0.84567   0.81802    8.969
 4228.00    0.86234   0.82104    9.041
 4229.00    0.90666   0.83222    8.809
 4230.00    0.95770   0.84718    8.646
 4231.00    0.99048   0.86084    8.857
 4232.00    0.99846   0.86961    9.289
 4233.00    0.98612   0.87256    9.554
 4234.00    0.95996   0.87107    9.389
 4235.00    0.92707   0.86754    8.930
 4236.00    0.89455   0.86420    8.628
 4237.00    0.86952   0.86251    8.705
 4238.00    0.85879   0.86313    8.962
 4239.00    0.86560   0.86608    9.151
 4240.00    0.88703   0.87095    9.282
 4241.00    0.91372   0.87706    9.420
 4242.00    0.93121   0.88347    9.485
 4243.00    0.93043   0.88901    9.393
 4244.00    0.91375   0.89242    9.179
 4245.00    0.88771   0.89268    8.990
 4246.00    0.85801   0.88939    9.021
 4247.00    0.82965   0.88313    9.296
 4248.00    0.80674   0.87533    9.559
 4249.00    0.79035   0.86775    9.606
 4250.00    0.77856   0.86182    9.515
 4251.00    0.77424   0.85819    9.370
 4252.00    0.78621   0.85673    9.136
 4253.00    0.81395   0.85689    8.862
 4254.00    0.84372   0.85812    8.712
 4255.00    0.86764   0.85996    8.759
 4256.00    0.88996   0.86181    8.937
 4257.00    0.91258   0.86283    9.102
 4258.00    0.93023   0.86229    9.093
 4259.00    0.93849   0.86043    8.917
 4260.00    0.93682   0.85875    8.753
 4261.00    0.92671   0.85929    8.669
 4262.00    0.91099   0.86331    8.611
 4263.00    0.89436   0.87020    8.660
 4264.00    0.88202   0.87760    9.018
 4265.00    0.87468   0.88260    9.623
 4266.00    0.86889   0.88304    9.998
 4267.00    0.86412   0.87830    9.822
 4268.00    0.86284   0.86914    9.307
 4269.00    0.86348   0.85707    8.877
 4270.00    0.86090   0.84392    8.842
 4271.00    0.85383   0.83162    9.164
 4272.00    0.84535   0.82215    9.532
 4273.00    0.83801   0.81714    9.729
 4274.00    0.83259   0.81752    9.757
 4275.00    0.82852   0.82305    9.666
 4276.00    0.82596   0.83236    9.499
 4277.00    0.83014   0.84316    9.328
 4278.00    0.84642   0.85290    9.228
 4279.00    0.86703   0.85953    9.220
 4280.00    0.87680   0.86224    9.300
 4281.00    0.87136   0.86153    9.495
 4282.00    0.85632   0.85866    9.788
 4283.00    0.83768   0.85484    9.915
 4284.00    0.82070   0.85060    9.605
 4285.00    0.81127   0.84579    9.156
 4286.00    0.81364   0.83997    8.969
 4287.00    0.82596   0.83293    8.934
 4288.00    0.84262   0.82517    8.766
 4289.00    0.85933   0.81804    8.559
 4290.00    0.87299   0.81330    8.574
 4291.00    0.88022   0.81218    8.870
 4292.00    0.87776   0.81455    9.291
 4293.00    0.86374   0.81868   -2.000
 4294.00    0.84167   0.82199   -2.000
 4295.00    0.82481   0.82215   -2.000
 4296.00    0.82225   0.81789   -2.000
 4297.00    0.82128   0.80920   -2.000
 4298.00    0.80593   0.79722   -2.000
 4299.00    0.78165   0.78389   -2.000
 4300.00    0.76405   0.77150   -2.000
 4301.00    0.76223   0.76198   -2.000
 4302.00    0.77483   0.75621   -2.000
 4303.00    0.78884   0.75379   -2.000
 4304.00    0.79357   0.75334   -2.000
 4305.00    0.79381   0.75323   -2.000
 4306.00    0.79723   0.75239   -2.000
 4307.00    0.80168   0.75089   -2.000
 4308.00    0.80222   0.74992    9.216
 4309.00    0.79832   0.75117    9.188
 4310.00    0.79060   0.75595    9.102
 4311.00    0.77816   0.76460    8.984
 4312.00    0.76407   0.77659    8.842
 4313.00    0.75829   0.79107    8.874
 4314.00    0.76458   0.80733    9.171
 4315.00    0.77259   0.82465    9.513
 4316.00    0.77511   0.84182    9.657
 4317.00    0.77874   0.85695    9.639
 4318.00    0.78874   0.86786    9.578
 4319.00    0.79987   0.87288    9.511
 4320.00    0.80648   0.87132    9.425
 4321.00    0.80871   0.86351    9.317
 4322.00    0.80855   0.85060    9.265
 4323.00    0.80724   0.83448    9.430
 4324.00    0.80520   0.81793    9.835
 4325.00    0.80230   0.80439   10.237
 4326.00    0.79917   0.79690   10.374
 4327.00    0.79717   0.79678   10.223
 4328.00    0.79493   0.80273    9.950
 4329.00    0.78770   0.81140    9.767
 4330.00    0.77249   0.81899    0.000
 4331.00    0.75050   0.82271    0.000
 4332.00    0.72643   0.82127    0.000
 4333.00    0.70658   0.81416    0.000
 4334.00    0.69201   0.80076    0.000
 4335.00    0.67913   0.78008    0.000
 4336.00    0.67202   0.75156    0.000
 4337.00    0.68235   0.71629    0.000
 4338.00    0.71124   0.67796    0.000
 4339.00    0.74847   0.64255    0.000
 4340.00    0.79234   0.61684    0.000
 4341.00    0.84495   0.60608    0.000
 4342.00    0.87593   0.61202    0.000
 4343.00    0.83877   0.63245    0.000
 4344.00    0.75342   0.66225    0.000
 4345.00    0.69367   0.69546    0.000
 4346.00    0.68194   0.72706    0.000
 4347.00    0.68506   0.75374    0.000
 4348.00    0.68407   0.77375    0.000
 4349.00    0.68338   0.78659    0.000
 4350.00    0.68585   0.79303    0.000
 4351.00    0.68916   0.79516    9.345
 4352.00    0.69240   0.79608    9.666
 4353.00    0.69711   0.79881    9.797
 4354.00    0.70584   0.80505    9.764
 4355.00    0.72080   0.81449    9.873
 4356.00    0.74201   0.82534    9.983
 4357.00    0.76752   0.83547    9.746
 4358.00    0.79487   0.84366    9.422
 4359.00    0.82060   0.85003    9.455
 4360.00    0.83904   0.85555    9.708
 4361.00    0.84642   0.86120    9.776
 4362.00    0.84792   0.86722    9.771
 4363.00    0.85220   0.87289   10.018
 4364.00    0.86097   0.87699   10.258
 4365.00    0.86975   0.87837   10.026
 4366.00    0.87213   0.87660    9.590
 4367.00    0.86427   0.87220    9.433
 4368.00    0.85024   0.86643    9.565
 4369.00    0.83748   0.86062    9.782
 4370.00    0.82970   0.85551    9.981
 4371.00    0.82584   0.85101   10.139
 4372.00    0.82053   0.84661   10.226
 4373.00    0.81036   0.84211   10.245
 4374.00    0.80080   0.83820   10.277
 4375.00    0.79836   0.83622   10.358
 4376.00    0.80125   0.83720   10.342
 4377.00    0.80401   0.84089   10.144
 4378.00    0.80374   0.84532    9.980
 4379.00    0.80163   0.84749   10.036
 4380.00    0.80315   0.84461   10.201
 4381.00    0.80895   0.83542   10.336
 4382.00    0.80788   0.82093   10.526
 4383.00    0.79085   0.80427   10.708
 4384.00    0.76300   0.78958   10.708
 4385.00    0.73653   0.78037   10.367
 4386.00    0.72303   0.77810   10.027
 4387.00    0.72743   0.78199   10.069
 4388.00    0.74476   0.78977   10.298
 4389.00    0.76917   0.79915   10.453
 4390.00    0.79973   0.80855   10.527
 4391.00    0.83198   0.81721   10.594
 4392.00    0.85387   0.82482   10.652
 4393.00    0.85909   0.83127   10.694
 4394.00    0.85413   0.83670   10.708
 4395.00    0.84497   0.84144   10.708
 4396.00    0.83025   0.84574   10.708
 4397.00    0.81186   0.84938   10.708
 4398.00    0.79924   0.85160   10.708
 4399.00    0.79780   0.85168   10.708
 4400.00    0.80388   0.84940   10.708
 4401.00    0.81287   0.84516   10.708
 4402.00    0.82290   0.83969   10.708
 4403.00    0.83159   0.83366   10.708
 4404.00    0.83509   0.82781   10.708
 4405.00    0.83114   0.82312   10.708
 4406.00    0.82062   0.82080   10.680
 4407.00    0.80759   0.82179   10.644
 4408.00    0.79803   0.82631   10.708
 4409.00    0.79480   0.83362   10.708
 4410.00    0.79680   0.84213   10.708
 4411.00    0.80363   0.84970   10.708
 4412.00    0.81583   0.85420   10.708
 4413.00    0.82981   0.85436   10.708
 4414.00    0.83896   0.85049   10.708
 4415.00    0.84343   0.84469   10.708
 4416.00    0.84922   0.83990   10.708
 4417.00    0.85547   0.83860   10.708
 4418.00    0.85451   0.84151   10.708
 4419.00    0.84382   0.84729   10.708
 4420.00    0.82732   0.85349   10.708
 4421.00    0.80873   0.85791   10.708
 4422.00    0.78995   0.85962   10.708
 4423.00    0.77157   0.85906   10.708
 4424.00    0.75368   0.85742   10.708
 4425.00    0.73716   0.85576   10.708
 4426.00    0.72409   0.85456   10.708
 4427.00    0.71782   0.85371   10.708
 4428.00    0.72066   0.85285   10.708
 4429.00    0.72932   0.85159   10.708
 4430.00    0.73897   0.84966   10.708
 4431.00    0.75325   0.84691   10.708
 4432.00    0.77810   0.84339   10.708
 4433.00    0.80661   0.83947   10.708
 4434.00    0.82668   0.83606   10.708
 4435.00    0.83921   0.83449   10.708
 4436.00    0.85184   0.83589   10.708
 4437.00    0.86305   0.84039   10.708
 4438.00    0.86583   0.84665   10.708
 4439.00    0.85780   0.85226   10.708
 4440.00    0.84199   0.85499   10.708
 4441.00    0.82536   0.85403   10.708
 4442.00    0.81448   0.85059   10.708
 4443.00    0.80986   0.84713   10.708
 4444.00    0.80919   0.84602   10.708
 4445.00    0.81239   0.84821   10.708
 4446.00    0.82025   0.85297   10.708
 4447.00    0.83183   0.85844   10.494
 4448.00    0.84417   0.86274    9.911
 4449.00    0.85253   0.86467    9.605
 4450.00    0.85386   0.86385    9.942
 4451.00    0.85013   0.86037   10.421
 4452.00    0.84335   0.85451   10.313
 4453.00    0.83059   0.84675    9.831
 4454.00    0.81054   0.83789    9.514
 4455.00    0.78942   0.82911    9.514
 4456.00    0.77219   0.82164    9.759
 4457.00    0.75501   0.81632   10.017
 4458.00    0.73593   0.81327   10.087
 4459.00    0.72346   0.81209   10.024
 4460.00    0.72476   0.81232    9.982
 4461.00    0.73613   0.81378    0.000
 4462.00    0.74885   0.81650    0.000
 4463.00    0.75497   0.82026    0.000
 4464.00    0.75234   0.82435    0.000
 4465.00    0.74691   0.82755    0.000
 4466.00    0.74408   0.82870    0.000
 4467.00    0.74328   0.82724    0.000
 4468.00    0.74210   0.82363    0.000
 4469.00    0.73931   0.81931    0.000
 4470.00    0.73562   0.81635    0.000
 4471.00    0.73390   0.81670    0.000
 4472.00    0.73851   0.82147    0.000
 4473.00    0.75353   0.83042    0.000
 4474.00    0.77546   0.84190    0.000
 4475.00    0.79202   0.85343    0.000
 4476.00    0.79554   0.86244    0.000
 4477.00    0.78837   0.86699    0.000
 4478.00    0.77559   0.86626    0.000
 4479.00    0.76136   0.86085    0.000
 4480.00    0.74906   0.85283    0.000
 4481.00    0.74191   0.84523    0.000
 4482.00    0.74510   0.84109   10.708
 4483.00    0.76461   0.84202   10.708
 4484.00    0.79961   0.84747   10.708
 4485.00    0.84097   0.85495   10.708
 4486.00    0.87706   0.86132   10.708
 4487.00    0.89844   0.86426   10.708
 4488.00    0.90613   0.86332   10.708
 4489.00    0.91024   0.85968   10.708
 4490.00    0.91656   0.85535   10.708
 4491.00    0.92382   0.85194   10.708
 4492.00    0.92888   0.84999   10.708
 4493.00    0.92855   0.84915   10.708
 4494.00    0.91990   0.84883   10.708
 4495.00    0.90157   0.84894   10.708
 4496.00    0.87693   0.84992   10.708
 4497.00    0.85403   0.85228   10.708
 4498.00    0.84309   0.85610   10.708
 4499.00    0.85091   0.86091   10.708
 4500.00    0.86983   0.86615   10.708
 4501.00    0.88471   0.87157   10.708
 4502.00    0.89394   0.87721   10.708
 4503.00    0.90521   0.88303   10.708
 4504.00    0.91705   0.88854   10.708
 4505.00    0.92180   0.89287   10.708
 4506.00    0.91900   0.89523   10.708
 4507.00    0.91405   0.89545   10.708
 4508.00    0.91072   0.89402   10.708
 4509.00    0.90865   0.89165   10.708
 4510.00    0.90180   0.88878   10.708
 4511.00    0.88447   0.88542   10.708
 4512.00    0.86114   0.88142   10.708
 4513.00    0.84051   0.87679   10.708
 4514.00    0.82423   0.87197   10.708
 4515.00    0.81244   0.86769   10.708
 4516.00    0.81376   0.86458   10.708
 4517.00    0.83292   0.86291   10.708
 4518.00    0.85347   0.86250   10.708
 4519.00    0.85741   0.86276   10.708
 4520.00    0.85223   0.86286   10.708
 4521.00    0.85264   0.86187   10.708
 4522.00    0.85552   0.85905   10.708
 4523.00    0.85386   0.85403   10.708
 4524.00    0.85481   0.84690   10.708
 4525.00    0.86525   0.83822   10.708
 4526.00    0.87546   0.82881   10.708
 4527.00    0.87340   0.81969   10.708
 4528.00    0.86023   0.81196   10.708
 4529.00    0.84258   0.80650   10.708
 4530.00    0.82420   0.80367   10.708
 4531.00    0.80999   0.80318   10.708
 4532.00    0.80896   0.80433   10.708
 4533.00    0.82234   0.80653   10.708
 4534.00    0.83645   0.80967   10.708
 4535.00    0.84960   0.81413   10.640
 4536.00    0.88584   0.82026   10.708
 4537.00    0.93014   0.82765   10.708
 4538.00    0.89668   0.83506    9.876
 4539.00    0.75998   0.84090    3.894
 4540.00    0.62998   0.84422    2.605
 4541.00    0.61472   0.84503    2.528
 4542.00    0.72261   0.84419    2.747
 4543.00    0.85148   0.84270    2.763
 4544.00    0.82554   0.84110    2.685
 4545.00    0.63320   0.83941    2.701
 4546.00    0.50280   0.83732    2.736
 4547.00    0.54088   0.83462    2.714
 4548.00    0.59139   0.83136    2.696
 4549.00    0.57528   0.82791    2.723
 4550.00    0.61394   0.82482    0.000
 4551.00    0.73656   0.82249    0.000
 4552.00    0.79693   0.82110    0.000
 4553.00    0.77204   0.82076    0.000
 4554.00    0.82316   0.82180    0.000
 4555.00    0.95117   0.82470    0.000
 4556.00    0.94289   0.82974    0.000
 4557.00    0.76981   0.83663    0.000
 4558.00    0.65229   0.84448    0.000
 4559.00    0.67329   0.85185    0.000
 4560.00    0.70507   0.85723    0.000
 4561.00    0.68923   0.85968    0.000
 4562.00    0.68864   0.85912    0.000
 4563.00    0.71347   0.85633    0.000
 4564.00    0.70166   0.85280    0.000
 4565.00    0.64754   0.85009    0.000
 4566.00    0.60947   0.84919    0.000
 4567.00    0.60926   0.85017    0.000
 4568.00    0.62948   0.85218    0.000
 4569.00    0.69022   0.85403    0.000
 4570.00    0.82922   0.85487    0.000
 4571.00    0.99500   0.85463    0.000
 4572.00    1.07910   0.85399    0.000
 4573.00    1.06235   0.85376    0.000
 4574.00    0.99640   0.85426    0.000
 4575.00    0.87859   0.85499    0.000
 4576.00    0.69711   0.85498    0.000
 4577.00    0.58704   0.85336    0.000
 4578.00    0.71549   0.84968    0.000
 4579.00    0.98571   0.84425    0.000
 4580.00    1.15214   0.83808    0.000
 4581.00    1.15384   0.83235    0.000
 4582.00    1.07741   0.82797    0.000
 4583.00    0.97481   0.82550    0.000
 4584.00    0.88807   0.82511    0.000
 4585.00    0.94033   0.82660    0.000
 4586.00    1.18450   0.82947    0.000
 4587.00    1.35532   0.83305    0.000
 4588.00    1.17980   0.83653    0.000
 4589.00    0.87984   0.83907    0.000
 4590.00    0.81993   0.84000    0.000
 4591.00    0.92110   0.83912    0.000
 4592.00    0.92411   0.83686    0.000
 4593.00    0.83861   0.83403    0.000
 4594.00    0.80306   0.83150    0.000
 4595.00    0.83945   0.82990    0.000
 4596.00    0.90382   0.82935    0.000
 4597.00    0.97978   0.82961    0.000
 4598.00    1.06025   0.83019    0.000
 4599.00    1.11678   0.83069    0.000
 4600.00    1.11634   0.83096    0.000
 4601.00    1.04377   0.83110    0.000
 4602.00    0.91570   0.83139    0.000
 4603.00    0.78956   0.83222    0.000
 4604.00    0.73693   0.83392    0.000
 4605.00    0.80936   0.83676    0.000
 4606.00    0.95886   0.84074    0.000
 4607.00    0.99826   0.84548    0.000
 4608.00    0.84445   0.85041    0.000
 4609.00    0.68566   0.85478    0.000
 4610.00    0.67248   0.85786    0.000
 4611.00    0.70048   0.85922    0.000
 4612.00    0.67315   0.85897    0.000
 4613.00    0.67970   0.85765    0.000
 4614.00    0.79809   0.85598    0.000
 4615.00    0.96297   0.85453    0.000
 4616.00    1.05279   0.85345    0.000
 4617.00    0.97433   0.85260    0.000
 4618.00    0.79647   0.85192    0.000
 4619.00    0.76753   0.85151    0.000
 4620.00    0.95575   0.85156    0.000
 4621.00    1.11620   0.85229    0.000
 4622.00    1.10942   0.85349    0.000
 4623.00    1.06977   0.85465    0.000
 4624.00    1.07335   0.85533    0.000
 4625.00    1.01807   0.85510    0.000
 4626.00    0.88920   0.85383    0.000
 4627.00    0.83235   0.85191    0.000
 4628.00    0.89300   0.84980    0.000
 4629.00    0.94828   0.84779    0.000
 4630.00    0.92729   0.84609    0.000
 4631.00    0.87671   0.84463    0.000
 4632.00    0.83924   0.84305    0.000
 4633.00    0.82136   0.84106    0.000
 4634.00    0.85968   0.83856    0.000
 4635.00    1.00057   0.83547    0.000
 4636.00    1.14479   0.83189    0.000
 4637.00    1.09563   0.82832    0.000
 4638.00    0.88933   0.82534    0.000
 4639.00    0.77807   0.82320    0.000
 4640.00    0.84236   0.82197    0.000
 4641.00    0.94945   0.82146    0.000
 4642.00    0.98872   0.82111    0.000
 4643.00    0.94568   0.82005    0.000
 4644.00    0.90590   0.81752    0.000
 4645.00    0.97446   0.81335    0.000
 4646.00    1.07646   0.80818    0.000
 4647.00    1.03429   0.80332    0.000
 4648.00    0.87037   0.80026    0.000
 4649.00    0.75885   0.79987    0.000
 4650.00    0.75321   0.80218    0.000
 4651.00    0.79786   0.80638    0.000
 4652.00    0.88355   0.81105    0.000
 4653.00    1.00551   0.81499    0.000
 4654.00    1.02072   0.81779    0.000
 4655.00    0.81022   0.81994    0.000
 4656.00    0.62009   0.82240    0.000
 4657.00    0.77597   0.82590    0.000
 4658.00    1.08692   0.83056    0.000
 4659.00    1.13515   0.83558    0.000
 4660.00    0.91840   0.83942    0.000
 4661.00    0.69895   0.84051    0.000
 4662.00    0.60335   0.83794    0.000
 4663.00    0.62194   0.83174    0.000
 4664.00    0.70204   0.82284    0.000
 4665.00    0.78999   0.81271    0.000
 4666.00    0.86868   0.80288    0.000
 4667.00    0.93564   0.79484    0.000
 4668.00    0.96982   0.78980    0.000
 4669.00    0.95694   0.78852    0.000
 4670.00    0.92352   0.79110    0.000
 4671.00    0.90993   0.79678    0.000
 4672.00    0.93506   0.80392    0.000
 4673.00    1.00381   0.81067    0.000
 4674.00    1.12099   0.81586    0.000
 4675.00    1.30940   0.81918    0.000
 4676.00    1.61521   0.82072    0.000
 4677.00    1.98303   0.82073    0.000
 4678.00    2.16534   0.81935    0.000
 4679.00    2.02596   0.81682    0.000
 4680.00    1.78523   0.81363    0.000
 4681.00    1.65882   0.81055    0.000
 4682.00    1.56159   0.80838    0.000
 4683.00    1.38326   0.80746    0.000
 4684.00    1.20963   0.80756    0.000
 4685.00    1.15412   0.80826    0.000
 4686.00    1.21877   0.80918    0.000
 4687.00    1.31000   0.81004    0.000
 4688.00    1.28236   0.81082    0.000
 4689.00    1.11427   0.81176    0.000
 4690.00    0.98368   0.81299    0.000
 4691.00    0.99536   0.81450    0.000
 4692.00    1.04046   0.81630    0.000
 4693.00    1.02242   0.81828    0.000
 4694.00    0.97880   0.82011    0.000
 4695.00    0.97135   0.82133    0.000
 4696.00    1.01835   0.82118    0.000
 4697.00    1.08770   0.81911    0.000
 4698.00    1.10478   0.81515    0.000
 4699.00    1.00171   0.80988    0.000
 4700.00    0.75952   0.80417    0.000
 4701.00    0.48531   0.79904    0.000
 4702.00    0.38582   0.79535    0.000
 4703.00    0.50173   0.79327    0.000
 4704.00    0.66405   0.79232    0.000
 4705.00    0.79825   0.79205    0.000
 4706.00    0.97711   0.79228    0.000
 4707.00    1.13180   0.79287    0.000
 4708.00    1.05177   0.79349    0.000
 4709.00    0.79175   0.79404    0.000
 4710.00    0.67321   0.79484    0.000
 4711.00    0.78274   0.79612    0.000
 4712.00    0.91756   0.79780    0.000
 4713.00    0.96987   0.79972    0.000
 4714.00    0.98314   0.80196    0.000
 4715.00    0.94080   0.80472    0.000
 4716.00    0.78110   0.80861    0.000
 4717.00    0.61826   0.81396    0.000
 4718.00    0.66083   0.82025    0.000
 4719.00    0.83666   0.82635    0.000
 4720.00    0.87912   0.83121    0.000
 4721.00    0.78565   0.83432    0.000
 4722.00    0.76803   0.83573    0.000
 4723.00    0.86720   0.83548    0.000
 4724.00    0.95311   0.83352    0.000
 4725.00    0.92834   0.82987    0.000
 4726.00    0.79601   0.82468    0.000
 4727.00    0.69749   0.81822    0.000
 4728.00    0.78113   0.81107    0.000
 4729.00    0.94209   0.80436    0.000
 4730.00    0.95870   0.79942    0.000
 4731.00    0.82847   0.79727    0.000
 4732.00    0.71357   0.79787    0.000
 4733.00    0.73798   0.80019    0.000
 4734.00    0.91658   0.80316    0.000
 4735.00    1.10587   0.80612    0.000
 4736.00    1.14453   0.80854    0.000
 4737.00    1.07077   0.81034    0.000
 4738.00    1.00462   0.81178    0.000
 4739.00    0.93821   0.81300    0.000
 4740.00    0.82082   0.81436    0.000
 4741.00    0.70768   0.81597    0.000
 4742.00    0.67946   0.81739    0.000
 4743.00    0.71948   0.81862    0.000
 4744.00    0.77274   0.82007    0.000
 4745.00    0.83179   0.82178    0.000
 4746.00    0.90251   0.82343    0.000
 4747.00    0.95671   0.82465    0.000
 4748.00    0.96105   0.82534    0.000
 4749.00    0.91281   0.82541    0.000
 4750.00    0.83740   0.82454    0.000
 4751.00    0.77977   0.82256    0.000
 4752.00    0.77882   0.81978    0.000
 4753.00    0.84159   0.81651    0.000
 4754.00    0.92194   0.81310    0.000
 4755.00    0.91831   0.81008    0.000
 4756.00    0.80521   0.80787    0.000
 4757.00    0.72023   0.80647    0.000
 4758.00    0.76701   0.80546    0.000
 4759.00    0.87369   0.80418    0.000
 4760.00    0.94633   0.80202    0.000
 4761.00    0.98171   0.79857    3.514
 4762.00    1.00009   0.79390    3.522
 4763.00    0.99780   0.78855    3.513
 4764.00    0.98060   0.78348    3.516
 4765.00    0.97829   0.77992    3.507
 4766.00    0.98589   0.77874    3.475
 4767.00    0.94474   0.77990    3.449
 4768.00    0.84899   0.78287    3.452
 4769.00    0.78582   0.78702    3.470
 4770.00    0.80795   0.79158    3.486
 4771.00    0.87645   0.79578    3.495
 4772.00    0.93743   0.79933    3.504
 4773.00    0.96236   0.80230    3.523
 4774.00    0.94135   0.80502    3.536
 4775.00    0.87928   0.80776    3.507
 4776.00    0.79728   0.81025    3.449
 4777.00    0.73004   0.81175    3.427
 4778.00    0.71240   0.81176    3.459
 4779.00    0.76536   0.81042    3.496
 4780.00    0.86516   0.80806    3.502
 4781.00    0.94555   0.80486    3.484
 4782.00    0.95242   0.80121    3.472
 4783.00    0.87356   0.79764    3.496
 4784.00    0.76658   0.79436    3.530
 4785.00    0.72971   0.79144    3.512
 4786.00    0.77621   0.78925    3.468
 4787.00    0.83725   0.78804    3.492
 4788.00    0.90109   0.78772    3.567
 4789.00    1.00639   0.78847    3.572
 4790.00    1.09523   0.79076    3.496
 4791.00    1.05324   0.79441    3.443
 4792.00    0.93515   0.79904    3.441
 4793.00    0.91887   0.80418    3.441
 4794.00    1.02774   0.80892    3.437
 4795.00    1.12802   0.81237    3.460
 4796.00    1.10219   0.81390    3.498
 4797.00    0.92490   0.81329    3.509
 4798.00    0.73003   0.81090    3.494
 4799.00    0.70023   0.80776    3.488
 4800.00    0.80511   0.80496    3.497
 4801.00    0.88440   0.80312    3.504
 4802.00    0.92503   0.80229    3.508
 4803.00    1.00729   0.80197    3.518
 4804.00    1.09907   0.80135    3.534
 4805.00    1.10652   0.79985    3.547
 4806.00    1.03198   0.79756    3.545
 4807.00    0.94267   0.79517    3.519
 4808.00    0.87094   0.79351    3.480
 4809.00    0.81126   0.79288    3.449
 4810.00    0.74481   0.79314    3.450
 4811.00    0.68959   0.79417    3.490
 4812.00    0.75978   0.79576    3.533
 4813.00    1.01480   0.79761    3.539
 4814.00    1.25221   0.79963    3.527
 4815.00    1.24584   0.80186    3.525
 4816.00    1.08159   0.80422    3.502
 4817.00    0.95755   0.80636    3.443
 4818.00    0.89216   0.80780    3.438
 4819.00    0.84607   0.80805    3.544
 4820.00    0.89306   0.80672    3.623
 4821.00    1.07060   0.80379    3.541
 4822.00    1.21166   0.79967    3.448
 4823.00    1.14520   0.79509    3.491
 4824.00    0.91394   0.79081    3.577
 4825.00    0.68146   0.78747    3.571
 4826.00    0.60909   0.78563    3.523
 4827.00    0.73894   0.78528    3.520
 4828.00    0.91688   0.78539    3.533
 4829.00    0.98751   0.78494    3.516
 4830.00    0.95851   0.78388    3.485
 4831.00    0.90518   0.78279    3.475
 4832.00    0.87668   0.78213    3.489
 4833.00    0.85750   0.78185    3.516
 4834.00    0.76443   0.78182    3.538
 4835.00    0.60702   0.78207    3.551
 4836.00    0.56623   0.78212    3.564
 4837.00    0.72376   0.78125    3.574
 4838.00    0.91146   0.77925    3.553
 4839.00    0.96710   0.77657    3.508
 4840.00    0.89359   0.77363    3.497
 4841.00    0.78102   0.77083    3.540
 4842.00    0.73412   0.76876    3.578
 4843.00    0.76303   0.76765    3.573
 4844.00    0.75439   0.76703    3.561
 4845.00    0.64216   0.76621    3.572
 4846.00    0.48718   0.76500    3.587
 4847.00    0.40505   0.76315    3.580
 4848.00    0.49238   0.76013    0.000
 4849.00    0.66746   0.75571    0.000
 4850.00    0.68137   0.75016    0.000
 4851.00    0.49234   0.74382    0.000
 4852.00    0.34470   0.73639    0.000
 4853.00    0.39596   0.72688    0.000
 4854.00    0.59184   0.71458    0.000
 4855.00    0.80734   0.69936    0.000
 4856.00    0.92933   0.68115    0.000
 4857.00    0.94025   0.66036    0.000
 4858.00    0.92057   0.63828    0.000
 4859.00    0.95213   0.61635    0.000
 4860.00    1.06784   0.59617    0.000
 4861.00    1.20445   0.58037    0.000
 4862.00    1.23733   0.57218    0.000
 4863.00    1.12892   0.57419    0.000
 4864.00    0.94849   0.58689    0.000
 4865.00    0.79515   0.60710    0.000
 4866.00    0.73056   0.62953    0.000
 4867.00    0.66676   0.65038    0.000
 4868.00    0.46514   0.66775    0.000
 4869.00    0.25165   0.68078    0.000
 4870.00    0.29260   0.68975    0.000
 4871.00    0.52081   0.69592    0.000
 4872.00    0.64199   0.70058    0.000
 4873.00    0.61758   0.70521    0.000
 4874.00    0.60385   0.71140    0.000
 4875.00    0.60047   0.71938    3.677
 4876.00    0.50976   0.72786    3.682
 4877.00    0.39453   0.73571    3.682
 4878.00    0.39323   0.74264    3.714
 4879.00    0.47387   0.74835    3.763
 4880.00    0.51950   0.75237    3.777
 4881.00    0.55126   0.75459    3.743
 4882.00    0.65135   0.75472    3.688
 4883.00    0.77789   0.75283    3.651
 4884.00    0.82776   0.74998    3.654
 4885.00    0.77803   0.74695    3.666
 4886.00    0.66208   0.74369    3.655
 4887.00    0.50623   0.74043    3.661
 4888.00    0.36805   0.73798    3.719
 4889.00    0.38969   0.73702    3.755
 4890.00    0.62431   0.73777    3.698
 4891.00    0.82688   0.74050    3.650
 4892.00    0.77074   0.74561    3.717
 4893.00    0.63626   0.75346    3.814
 4894.00    0.67859   0.76389    3.804
 4895.00    0.81673   0.77494    3.718
 4896.00    0.86552   0.78398    3.659
 4897.00    0.82428   0.78970    3.673
 4898.00    0.77945   0.79189    3.742
 4899.00    0.77451   0.79115    3.795
 4900.00    0.78916   0.78852    3.775
 4901.00    0.74468   0.78506    3.729
 4902.00    0.63800   0.78208    3.713
 4903.00    0.63169   0.78051    3.718
 4904.00    0.78137   0.77993    3.718
 4905.00    0.84575   0.77965    3.715
 4906.00    0.69114   0.77955    3.713
 4907.00    0.57114   0.77921    3.694
 4908.00    0.68852   0.77772    3.662
 4909.00    0.89072   0.77487    3.658
 4910.00    0.97532   0.77159    3.697
 4911.00    0.91485   0.76907    3.738
 4912.00    0.80670   0.76805    3.742
 4913.00    0.80144   0.76865    3.720
 4914.00    0.92180   0.76972    3.698
 4915.00    0.99539   0.76930    3.697
 4916.00    0.92150   0.76608    3.715
 4917.00    0.80001   0.75961    3.732
 4918.00    0.74879   0.75002    3.732
 4919.00    0.79504   0.73847    3.721
 4920.00    0.86571   0.72725    3.716
 4921.00    0.82545   0.71907    3.738
 4922.00    0.67035   0.71587    3.781
 4923.00    0.56824   0.71825    3.809
 4924.00    0.60625   0.72546    3.804
 4925.00    0.70457   0.73545    3.781
 4926.00    0.76050   0.74652    3.773
 4927.00    0.72408   0.75781    3.806
 4928.00    0.63676   0.76828    3.850
 4929.00    0.61039   0.77612    3.827
 4930.00    0.69367   0.78054    3.762
 4931.00    0.83406   0.78165    3.766
 4932.00    0.92959   0.77959    3.836
 4933.00    0.88931   0.77506    3.844
 4934.00    0.76430   0.76904    3.766
 4935.00    0.71548   0.76250    3.716
 4936.00    0.77680   0.75711    3.740
 4937.00    0.84083   0.75382    3.801
 4938.00    0.84167   0.75190    3.842
 4939.00    0.78502   0.75114    3.827
 4940.00    0.67557   0.75244    0.000
 4941.00    0.52623   0.75660    0.000
 4942.00    0.43389   0.76316    0.000
 4943.00    0.51290   0.77023    0.000
 4944.00    0.68901   0.77618    0.000
 4945.00    0.77542   0.78096    0.000
 4946.00    0.76128   0.78463    0.000
 4947.00    0.77446   0.78705    0.000
 4948.00    0.85520   0.78880    0.000
 4949.00    0.94932   0.79035    0.000
 4950.00    0.99809   0.79108    0.000
 4951.00    0.97610   0.79016    0.000
 4952.00    0.92495   0.78725    0.000
 4953.00    0.91111   0.78219    0.000
 4954.00    0.94003   0.77494    0.000
 4955.00    0.97303   0.76628    0.000
 4956.00    0.98227   0.75762    0.000
 4957.00    0.95614   0.75016    0.000
 4958.00    0.89308   0.74477    0.000
 4959.00    0.80876   0.74246    0.000
 4960.00    0.74569   0.74466    0.000
 4961.00    0.73023   0.75017    0.000
 4962.00    0.71465   0.75531    0.000
 4963.00    0.65010   0.75806    0.000
 4964.00    0.58800   0.75858    0.000
 4965.00    0.58914   0.75749    0.000
 4966.00    0.60040   0.75516    0.000
 4967.00    0.54934   0.75241    0.000
 4968.00    0.46832   0.75072    0.000
 4969.00    0.42915   0.75080    0.000
 4970.00    0.45638   0.75237    0.000
 4971.00    0.54634   0.75513    0.000
 4972.00    0.69270   0.75849    0.000
 4973.00    0.84319   0.76182    0.000
 4974.00    0.86931   0.76435    0.000
 4975.00    0.71853   0.76524    0.000
 4976.00    0.53923   0.76408    0.000
 4977.00    0.49410   0.76053    0.000
 4978.00    0.59248   0.75464    0.000
 4979.00    0.74304   0.74696    0.000
 4980.00    0.82378   0.73819    0.000
 4981.00    0.80611   0.72954    0.000
 4982.00    0.81820   0.72210    0.000
 4983.00    0.91862   0.71640    0.000
 4984.00    0.96482   0.71341    0.000
 4985.00    0.88800   0.71422    0.000
 4986.00    0.84370   0.71853    0.000
 4987.00    0.90405   0.72462    0.000
 4988.00    0.90203   0.73092    0.000
 4989.00    0.75241   0.73632    0.000
 4990.00    0.61043   0.73986    0.000
 4991.00    0.61128   0.74165    0.000
 4992.00    0.72987   0.74253    0.000
 4993.00    0.87215   0.74320    0.000
 4994.00    0.94377   0.74392    0.000
 4995.00    0.92354   0.74402    0.000
 4996.00    0.87545   0.74321    0.000
 4997.00    0.83280   0.74168    0.000
 4998.00    0.76596   0.73880    0.000
 4999.00    0.69110   0.73435    0.000
 5000.00    0.68620   0.72878    0.000
 5001.00    0.74940   0.72262    0.000
 5002.00    0.78786   0.71694    0.000
 5003.00    0.81206   0.71261    0.000
 5004.00    0.94735   0.70973    0.000
 5005.00    1.18852   0.70809    0.000
 5006.00    1.37439   0.70720    0.000
 5007.00    1.42272   0.70690    0.000
 5008.00    1.37467   0.70754    0.000
 5009.00    1.26329   0.70906    0.000
 5010.00    1.08601   0.71000    0.000
 5011.00    0.85784   0.70871    0.000
 5012.00    0.62993   0.70506    0.000
 5013.00    0.49197   0.70000    0.000
 5014.00    0.52061   0.69476    0.000
 5015.00    0.64406   0.69075    0.000
 5016.00    0.70115   0.68885    0.000
 5017.00    0.68142   0.68930    0.000
 5018.00    0.69059   0.69163    0.000
 5019.00    0.72201   0.69480    0.000
 5020.00    0.69238   0.69854    0.000
 5021.00    0.64382   0.70298    0.000
 5022.00    0.68303   0.70736    0.000
 5023.00    0.75997   0.71088    0.000
 5024.00    0.74083   0.71383    0.000
 5025.00    0.64320   0.71689    0.000
 5026.00    0.59021   0.71986    0.000
 5027.00    0.63674   0.72231    0.000
 5028.00    0.75227   0.72454    0.000
 5029.00    0.85230   0.72703    4.132
 5030.00    0.86253   0.73028    4.082
 5031.00    0.81200   0.73380    4.053
 5032.00    0.78043   0.73629    4.093
 5033.00    0.79333   0.73715    4.164
 5034.00    0.82457   0.73610    4.188
 5035.00    0.82667   0.73250    4.168
 5036.00    0.77481   0.72602    4.147
 5037.00    0.71689   0.71759    4.141
 5038.00    0.70702   0.70930    4.143
 5039.00    0.71529   0.70250    4.150
 5040.00    0.69570   0.69723    4.159
 5041.00    0.67850   0.69412    4.176
 5042.00    0.70855   0.69434    4.197
 5043.00    0.76464   0.69872    4.199
 5044.00    0.79295   0.70672    4.175
 5045.00    0.75577   0.71553    4.159
 5046.00    0.66091   0.72222    4.175
 5047.00    0.57942   0.72596    4.189
 5048.00    0.56817   0.72664    4.184
 5049.00    0.60018   0.72472    4.223
 5050.00    0.63304   0.72184    4.339
 5051.00    0.67185   0.71999    4.416
 5052.00    0.72491   0.72011    4.367
 5053.00    0.76525   0.72208    4.299
 5054.00    0.76694   0.72570    4.311
 5055.00    0.73470   0.73048    4.355
 5056.00    0.68701   0.73543    4.361
 5057.00    0.64206   0.73978    4.332
 5058.00    0.62149   0.74340    4.306
 5059.00    0.64946   0.74613    4.312
 5060.00    0.72365   0.74750    4.350
 5061.00    0.80094   0.74709    4.391
 5062.00    0.83204   0.74499    4.412
 5063.00    0.78970   0.74132    4.426
 5064.00    0.70021   0.73620    4.437
 5065.00    0.64164   0.73022    4.429
 5066.00    0.63294   0.72451    4.399
 5067.00    0.60333   0.72056    4.373
 5068.00    0.56162   0.71879    4.363
 5069.00    0.63836   0.71804    4.350
 5070.00    0.84408   0.71773    4.334
 5071.00    1.00009   0.71805    4.343
 5072.00    0.98631   0.71850    4.373
 5073.00    0.83944   0.71814    4.378
 5074.00    0.65918   0.71703    4.351
 5075.00    0.54614   0.71568    4.342
 5076.00    0.53001   0.71351    4.378
 5077.00    0.56267   0.71008    4.433
 5078.00    0.60402   0.70594    4.481
 5079.00    0.64553   0.70154    4.505
 5080.00    0.67128   0.69700    4.488
 5081.00    0.65632   0.69343    4.423
 5082.00    0.60989   0.69270    4.358
 5083.00    0.57486   0.69497    4.363
 5084.00    0.57835   0.69884    4.405
 5085.00    0.62024   0.70347    4.378
 5086.00    0.68792   0.70875    4.297
 5087.00    0.75582   0.71408    4.286
 5088.00    0.77234   0.71866    4.363
 5089.00    0.69417   0.72242    4.444
 5090.00    0.58333   0.72563    4.456
 5091.00    0.56453   0.72819    4.389
 5092.00    0.65770   0.72968    4.301
 5093.00    0.77751   0.72997    4.270
 5094.00    0.83275   0.72886    4.315
 5095.00    0.77715   0.72601    4.401
 5096.00    0.66456   0.72144    4.449
 5097.00    0.60347   0.71592    4.399
 5098.00    0.63964   0.71052    4.317
 5099.00    0.74315   0.70614    4.306
 5100.00    0.83374   0.70342    4.338
 5101.00    0.83401   0.70291    4.320
 5102.00    0.75427   0.70435    4.276
 5103.00    0.66023   0.70622    4.285
 5104.00    0.59106   0.70709    4.343
 5105.00    0.54846   0.70664    4.393
 5106.00    0.50400   0.70529    4.419
 5107.00    0.43696   0.70356    4.430
 5108.00    0.38690   0.70181    4.420
 5109.00    0.41121   0.70071    4.387
 5110.00    0.51375   0.70107    4.368
 5111.00    0.65192   0.70290    4.391
 5112.00    0.76248   0.70602    4.404
 5113.00    0.80372   0.71041    4.360
 5114.00    0.80084   0.71520    4.323
 5115.00    0.79454   0.71950    4.365
 5116.00    0.77690   0.72302    4.442
 5117.00    0.74058   0.72532    4.470
 5118.00    0.73591   0.72599    4.434
 5119.00    0.79357   0.72467    4.369
 5120.00    0.84575   0.72104    4.319
 5121.00    0.83485   0.71543    4.308
 5122.00    0.81785   0.70864    4.325
 5123.00    0.84097   0.70152    4.355
 5124.00    0.82715   0.69476    4.395
 5125.00    0.71878   0.68911    4.437
 5126.00    0.59950   0.68548    4.456
 5127.00    0.57129   0.68399    4.435
 5128.00    0.64530   0.68395    4.392
 5129.00    0.76126   0.68497    4.356
 5130.00    0.82061   0.68704    4.346
 5131.00    0.77399   0.69003    4.361
 5132.00    0.67270   0.69355    4.378
 5133.00    0.58099   0.69686    4.404
 5134.00    0.51718   0.69910    4.492
 5135.00    0.48950   0.70014    4.633
 5136.00    0.51623   0.70032    4.696
 5137.00    0.58935   0.69920    4.650
 5138.00    0.66221   0.69634    4.657
 5139.00    0.71470   0.69271    4.703
 5140.00    0.77914   0.68943    4.516
 5141.00    0.87049   0.68706    4.325
 5142.00    0.95362   0.68572    4.925
 5143.00    0.97896   0.68443    7.398
 5144.00    0.91211   0.68308   10.708
 5145.00    0.78134   0.68279   10.708
 5146.00    0.67678   0.68307   10.708
 5147.00    0.64580   0.68276   10.708
 5148.00    0.65940   0.68210   10.708
 5149.00    0.67636   0.68166   10.708
 5150.00    0.67485   0.68153   10.708
 5151.00    0.66283   0.68150   10.708
 5152.00    0.66633   0.68147   10.708
 5153.00    0.67272   0.68213   10.708
 5154.00    0.63643   0.68419   10.565
 5155.00    0.57336   0.68766    5.623
 5156.00    0.56031   0.69236    4.418
 5157.00    0.62147   0.69776    4.510
 5158.00    0.71037   0.70278    4.756
 5159.00    0.77421   0.70631    4.660
 5160.00    0.77910   0.70737    4.544
 5161.00    0.72132   0.70537    4.591
 5162.00    0.62855   0.69991    4.696
 5163.00    0.55367   0.69062    4.742
 5164.00    0.54948   0.67817    4.689
 5165.00    0.61031   0.66395    4.599
 5166.00    0.68008   0.64857    4.567
 5167.00    0.70897   0.63254    4.576
 5168.00    0.68057   0.61762    4.546
 5169.00    0.63885   0.60654    4.497
 5170.00    0.64585   0.60116    4.507
 5171.00    0.68117   0.60080    4.546
 5172.00    0.67999   0.60309    4.531
 5173.00    0.65082   0.60693    4.503
 5174.00    0.64834   0.61393    4.550
 5175.00    0.67781   0.62536    4.617
 5176.00    0.70545   0.63871    4.581
 5177.00    0.70985   0.64982    4.486
 5178.00    0.69232   0.65644    4.453
 5179.00    0.67683   0.65831    4.498
 5180.00    0.67914   0.65591    4.556
 5181.00    0.66195   0.65026    4.563
 5182.00    0.59878   0.64281    4.500
 5183.00    0.57263   0.63514    4.432
 5184.00    0.67836   0.62924    4.425
 5185.00    0.87107   0.62804    4.453
 5186.00    1.02878   0.63339    4.461
 5187.00    1.06480   0.64281    4.464
 5188.00    0.96975   0.65210    4.494
 5189.00    0.83857   0.65920    4.535
 5190.00    0.77653   0.66407    0.000
 5191.00    0.78894   0.66704    0.000
 5192.00    0.82061   0.66772    0.000
 5193.00    0.81555   0.66660    0.000
 5194.00    0.75060   0.66623    0.000
 5195.00    0.66028   0.66813    0.000
 5196.00    0.59687   0.67128    0.000
 5197.00    0.58833   0.67489    0.000
 5198.00    0.63244   0.67890    0.000
 5199.00    0.69799   0.68256    0.000
 5200.00    0.75522   0.68471    0.000
 5201.00    0.79944   0.68452    0.000
 5202.00    0.82667   0.68164    0.000
 5203.00    0.81661   0.67648    0.000
 5204.00    0.76744   0.66965    0.000
 5205.00    0.71778   0.66191    0.000
 5206.00    0.70293   0.65441    0.000
 5207.00    0.72300   0.64909    0.000
 5208.00    0.75106   0.64734    0.000
 5209.00    0.74690   0.64868    0.000
 5210.00    0.70010   0.65265    0.000
 5211.00    0.64786   0.65910    4.954
 5212.00    0.61623   0.66695    4.963
 5213.00    0.59510   0.67486    4.991
 5214.00    0.60307   0.68177    5.022
 5215.00    0.69923   0.68688    4.997
 5216.00    0.84535   0.69011    4.927
 5217.00    0.88250   0.69244    4.915
 5218.00    0.78650   0.69499    4.979
 5219.00    0.73632   0.69780    5.010
 5220.00    0.82260   0.69985    4.956
 5221.00    0.94287   0.69992    4.897
 5222.00    0.96544   0.69741    4.887
 5223.00    0.82576   0.69248    4.907
 5224.00    0.60536   0.68582    4.912
 5225.00    0.49927   0.67839    4.867
 5226.00    0.56983   0.67146    4.805
 5227.00    0.69903   0.66642    4.805
 5228.00    0.77319   0.66451    4.857
 5229.00    0.75431   0.66661    4.865
 5230.00    0.68053   0.67160    4.810
 5231.00    0.63510   0.67692    4.772
 5232.00    0.65133   0.68146    4.785
 5233.00    0.69789   0.68496    4.817
 5234.00    0.73045   0.68755    4.830
 5235.00    0.71903   0.69033    4.805
 5236.00    0.67763   0.69404    4.770
 5237.00    0.65276   0.69849    4.771
 5238.00    0.67089   0.70302    4.787
 5239.00    0.72285   0.70682    4.757
 5240.00    0.76274   0.70968    4.699
 5241.00    0.73844   0.71168    4.682
 5242.00    0.66205   0.71252    4.710
 5243.00    0.59760   0.71187    4.734
 5244.00    0.59591   0.70999    4.717
 5245.00    0.66442   0.70738    4.663
 5246.00    0.73838   0.70388    4.609
 5247.00    0.74112   0.69904    4.600
 5248.00    0.70900   0.69363    4.626
 5249.00    0.72053   0.68940    4.648
 5250.00    0.72535   0.68679    4.648
 5251.00    0.62858   0.68497    4.636
 5252.00    0.48714   0.68443    4.647
 5253.00    0.43405   0.68605    4.707
 5254.00    0.50088   0.68919    4.772
 5255.00    0.63259   0.69259    4.778
 5256.00    0.75731   0.69564    4.739
 5257.00    0.82800   0.69851    4.707
 5258.00    0.86361   0.70065    4.685
 5259.00    0.89608   0.70027    4.667
 5260.00    0.89443   0.69619    4.686
 5261.00    0.82585   0.68848    4.765
 5262.00    0.74176   0.67802    4.840
 5263.00    0.70666   0.66637    4.842
 5264.00    0.70334   0.65473    4.820
 5265.00    0.68486   0.64380    4.842
 5266.00    0.64502   0.63470    4.884
 5267.00    0.60259   0.62887    4.902
 5268.00    0.57632   0.62690    4.925
 5269.00    0.58494   0.62733    4.977
 5270.00    0.64629   0.62833    4.997
 5271.00    0.74230   0.63095    4.949
 5272.00    0.79461   0.63749    4.929
 5273.00    0.75190   0.64702    5.005
 5274.00    0.66282   0.65657    5.087
 5275.00    0.60720   0.66501    5.078
 5276.00    0.63048   0.67252    5.019
 5277.00    0.72553   0.67960    4.967
 5278.00    0.82979   0.68633    4.898
 5279.00    0.88517   0.69129    4.821
 5280.00    0.88066   0.69340    4.829
 5281.00    0.83077   0.69359    4.944
 5282.00    0.75748   0.69330    5.020
 5283.00    0.68548   0.69352    4.962
 5284.00    0.63934   0.69473    4.874
 5285.00    0.64218   0.69749    4.846
 5286.00    0.70763   0.70250    4.849
 5287.00    0.79845   0.70889    4.861
 5288.00    0.82495   0.71457    4.919
 5289.00    0.77055   0.71848    4.999
 5290.00    0.73208   0.72095    4.980
 5291.00    0.76289   0.72216    4.856
 5292.00    0.81032   0.72138    4.782
 5293.00    0.82057   0.71792    4.816
 5294.00    0.78675   0.71238    4.864
 5295.00    0.72234   0.70619    4.877
 5296.00    0.65069   0.69988    4.914
 5297.00    0.61647   0.69324    4.978
 5298.00    0.66947   0.68702    4.970
 5299.00    0.78108   0.68324    4.875
 5300.00    0.84643   0.68344    4.790
 5301.00    0.82050   0.68664    4.765
 5302.00    0.74734   0.69081    4.778
 5303.00    0.67438   0.69545    4.810
 5304.00    0.62971   0.70107    4.858
 5305.00    0.65255   0.70723    4.897
 5306.00    0.77854   0.71245    4.888
 5307.00    0.96227   0.71578    4.843
 5308.00    1.09171   0.71758    4.815
 5309.00    1.10259   0.71882    4.810
 5310.00    1.00495   0.71984    4.796
 5311.00    0.85827   0.72004    4.761
 5312.00    0.73854   0.71891    4.727
 5313.00    0.67379   0.71683    4.726
 5314.00    0.64883   0.71440    4.783
 5315.00    0.65841   0.71191    4.866
 5316.00    0.70269   0.70933    4.914
 5317.00    0.74694   0.70657    4.915
 5318.00    0.74544   0.70415    4.911
 5319.00    0.71144   0.70236    4.928
 5320.00    0.69058   0.70038    4.967
 5321.00    0.67763   0.69763    5.001
 5322.00    0.64362   0.69410    5.001
 5323.00    0.61821   0.68921    4.992
 5324.00    0.65137   0.68232    5.024
 5325.00    0.71795   0.67434    5.091
 5326.00    0.75265   0.66737    5.151
 5327.00    0.73723   0.66206    5.185
 5328.00    0.68975   0.65735    5.199
 5329.00    0.62412   0.65388    5.202
 5330.00    0.55418   0.65484    5.205
 5331.00    0.50837   0.66103    5.235
 5332.00    0.51006   0.66922    5.307
 5333.00    0.54809   0.67646    5.380
 5334.00    0.59667   0.68248    5.391
 5335.00    0.64663   0.68773    5.328
 5336.00    0.69569   0.69121    5.236
 5337.00    0.73203   0.69186    5.202
 5338.00    0.74504   0.69051    5.275
 5339.00    0.73912   0.68855    5.380
 5340.00    0.71921   0.68627    5.408
 5341.00    0.67507   0.68370    5.342
 5342.00    0.60651   0.68218    5.256
 5343.00    0.54782   0.68284    5.253
 5344.00    0.52801   0.68449    5.363
 5345.00    0.53265   0.68560    5.449
 5346.00    0.54069   0.68604    5.381
 5347.00    0.55850   0.68676    5.229
 5348.00    0.58679   0.68835    5.120
 5349.00    0.59490   0.69018    5.107
 5350.00    0.57176   0.69224    5.168
 5351.00    0.56110   0.69577    5.211
 5352.00    0.59034   0.70099    5.181
 5353.00    0.62303   0.70665    5.135
 5354.00    0.63387   0.71173    5.119
 5355.00    0.65658   0.71639    5.091
 5356.00    0.71324   0.72058    5.029
 5357.00    0.77118   0.72328    4.985
 5358.00    0.79602   0.72397    4.995
 5359.00    0.78565   0.72296    5.023
 5360.00    0.75499   0.72057    5.028
 5361.00    0.72385   0.71678    5.002
 5362.00    0.70856   0.71173    4.971
 5363.00    0.71745   0.70606    4.981
 5364.00    0.75120   0.70060    5.019
 5365.00    0.79897   0.69537    5.005
 5366.00    0.81750   0.68992    4.947
 5367.00    0.74084   0.68454    4.976
 5368.00    0.57521   0.67982    5.105
 5369.00    0.41795   0.67619    5.172
 5370.00    0.33831   0.67358    5.120
 5371.00    0.33251   0.67199    5.089
 5372.00    0.36694   0.67241    5.160
 5373.00    0.40780   0.67599    5.269
 5374.00    0.45930   0.68225    5.322
 5375.00    0.55655   0.68902    5.263
 5376.00    0.68496   0.69472    5.156
 5377.00    0.77568   0.69891    5.139
 5378.00    0.79500   0.70163    5.230
 5379.00    0.76376   0.70304    5.330
 5380.00    0.71564   0.70306    5.372
 5381.00    0.67752   0.70192   -2.000
 5382.00    0.65414   0.70040   -2.000
 5383.00    0.63053   0.69908   -2.000
 5384.00    0.59209   0.69803   -2.000
 5385.00    0.53593   0.69733   -2.000
 5386.00    0.48401   0.69683   -2.000
 5387.00    0.47204   0.69586   -2.000
 5388.00    0.51262   0.69407   -2.000
 5389.00    0.59434   0.69147   -2.000
 5390.00    0.70247   0.68815   -2.000
 5391.00    0.81622   0.68442   -2.000
 5392.00    0.89252   0.68052   -2.000
 5393.00    0.89206   0.67647   -2.000
 5394.00    0.84001   0.67269   -2.000
 5395.00    0.79373   0.66980   -2.000
 5396.00    0.75486   0.66774    3.680
 5397.00    0.68889   0.66583    4.457
 5398.00    0.59398   0.66444    5.205
 5399.00    0.50064   0.66482    5.539
 5400.00    0.44702   0.66603    5.484
 5401.00    0.45583   0.66587    5.396
 5402.00    0.50528   0.66418    5.397
 5403.00    0.55643   0.66205    5.424
 5404.00    0.60191   0.65929    5.429
 5405.00    0.64988   0.65516    5.396
 5406.00    0.69050   0.65066    5.335
 5407.00    0.70812   0.64809    5.272
 5408.00    0.70429   0.64850    5.249
 5409.00    0.69119   0.65056    5.278
 5410.00    0.67877   0.65283    5.303
 5411.00    0.67028   0.65586    5.266
 5412.00    0.66024   0.66103    5.208
 5413.00    0.65375   0.66779    5.180
 5414.00    0.68514   0.67411    5.142
 5415.00    0.76930   0.67901    5.062
 5416.00    0.85194   0.68303    5.001
 5417.00    0.87060   0.68686    5.027
 5418.00    0.82043   0.68994    5.126
 5419.00    0.73534   0.69130    5.239
 5420.00    0.66135   0.69087    5.296
 5421.00    0.63178   0.68958    5.274
 5422.00    0.64861   0.68854    5.239
 5423.00    0.69766   0.68797    5.248
 5424.00    0.76210   0.68675    5.275
 5425.00    0.81429   0.68437    5.279
 5426.00    0.81455   0.68214    5.258
 5427.00    0.76019   0.68091    5.245
 5428.00    0.71229   0.67953    5.288
 5429.00    0.71788   0.67619    5.381
 5430.00    0.75811   0.67111    5.429
 5431.00    0.78664   0.66705    5.395
 5432.00    0.76318   0.66538    5.388
 5433.00    0.68727   0.66447    5.465
 5434.00    0.61016   0.66373    5.534
 5435.00    0.58415   0.66451    5.531
 5436.00    0.62893   0.66780    5.516
 5437.00    0.71823   0.67316    5.540
 5438.00    0.78700   0.67930    5.577
 5439.00    0.80364   0.68553    5.600
 5440.00    0.79498   0.69100    5.612
 5441.00    0.78012   0.69457    5.603
 5442.00    0.74841   0.69548    5.546
 5443.00    0.71475   0.69375    5.488
 5444.00    0.72776   0.69019    5.532
 5445.00    0.79052   0.68540    5.655
 5446.00    0.84602   0.67973    5.683
 5447.00    0.86165   0.67408    5.588
 5448.00    0.85370   0.67025    5.541
 5449.00    0.84392   0.66931    5.588
 5450.00    0.84109   0.66971    5.606
 5451.00    0.83870   0.66946    5.549
 5452.00    0.82012   0.66832    5.494
 5453.00    0.77815   0.66718    5.467
 5454.00    0.71928   0.66622    5.423
 5455.00    0.65543   0.66471    5.375
 5456.00    0.60242   0.66285    5.379
 5457.00    0.58357   0.66250    5.412
 5458.00    0.62028   0.66428    5.384
 5459.00    0.70376   0.66646    5.311
 5460.00    0.79498   0.66768    5.290
 5461.00    0.84641   0.66819    5.320
 5462.00    0.82261   0.66852    5.325
 5463.00    0.73530   0.66838    5.317
 5464.00    0.63857   0.66794    5.359
 5465.00    0.59649   0.66830    5.382
 5466.00    0.64414   0.66935    5.266
 5467.00    0.72313   0.67005    5.111
 5468.00    0.73441   0.67049    5.098
 5469.00    0.67363   0.67078    5.197
 5470.00    0.60781   0.67023    5.249
 5471.00    0.57567   0.66842    5.228
 5472.00    0.57651   0.66563    5.226
 5473.00    0.58701   0.66203    5.305
 5474.00    0.58487   0.65793    5.462
 5475.00    0.58232   0.65450    5.596
 5476.00    0.60433   0.65190    5.596
 5477.00    0.64497   0.64920    5.516
 5478.00    0.67675   0.64750    5.482
 5479.00    0.67583   0.64855    5.498
 5480.00    0.63110   0.65141    5.515
 5481.00    0.55182   0.65394    5.549
 5482.00    0.46960   0.65589    5.625
 5483.00    0.43662   0.65854    5.682
 5484.00    0.47907   0.66190    5.650
 5485.00    0.54363   0.66495    5.585
 5486.00    0.56562   0.66714    5.570
 5487.00    0.55502   0.66821    5.590
 5488.00    0.55516   0.66849    5.590
 5489.00    0.58475   0.66882    5.556
 5490.00    0.63006   0.66942    5.518
 5491.00    0.64807   0.66980   -2.000
 5492.00    0.62013   0.67002   -2.000
 5493.00    0.59683   0.67006   -2.000
 5494.00    0.61061   0.66961   -2.000
 5495.00    0.59887   0.66928   -2.000
 5496.00    0.49335   0.66935   -2.000
 5497.00    0.29941   0.66881   -2.000
 5498.00    0.04315   0.66718   -2.000
 5499.00   -0.26723   0.66591   -2.000
 5500.00   -0.55122   0.66563   -2.000
 5501.00   -0.60649   0.66477   -2.000
 5502.00   -0.29273   0.66250   -2.000
 5503.00    0.33176   0.66014   -2.000
 5504.00    1.03518   0.65897   -2.000
 5505.00    1.48005   0.65844   -2.000
 5506.00    1.51381   0.65735   -2.000
 5507.00    1.31181   0.65577   -2.000
 5508.00    1.08123   0.65491   -2.000
 5509.00    0.88533   0.65490   -2.000
 5510.00    0.72922   0.65451   -2.000
 5511.00    0.61658   0.65356   -2.000
 5512.00    0.55438   0.65266   -2.000
 5513.00    0.54780   0.65221   -2.000
 5514.00    0.56808   0.65279   -2.000
 5515.00    0.55311   0.65469    5.412
 5516.00    0.48946   0.65764    5.428
 5517.00    0.43469   0.66114    5.447
 5518.00    0.43654   0.66493    5.460
 5519.00    0.49916   0.66885    5.474
 5520.00    0.60185   0.67205    5.475
 5521.00    0.70962   0.67374    5.437
 5522.00    0.78073   0.67397    5.391
 5523.00    0.77916   0.67296    5.425
 5524.00    0.70841   0.67075    5.537
 5525.00    0.61380   0.66754    5.624
 5526.00    0.54512   0.66407    5.638
 5527.00    0.53551   0.66096    5.633
 5528.00    0.57812   0.65822    5.645
 5529.00    0.63459   0.65629    5.656
 5530.00    0.68456   0.65620    5.625
 5531.00    0.72954   0.65759    5.527
 5532.00    0.75881   0.65903    5.463
 5533.00    0.75756   0.66021    5.570
 5534.00    0.75555   0.66148    5.779
 5535.00    0.80294   0.66268    5.844
 5536.00    0.87547   0.66374    5.759
 5537.00    0.89890   0.66522    5.734
 5538.00    0.86618   0.66695    5.778
 5539.00    0.82851   0.66827    5.743
 5540.00    0.80961   0.66942    5.631
 5541.00    0.80106   0.67073    5.563
 5542.00    0.79495   0.67169    5.574
 5543.00    0.78833   0.67171    5.623
 5544.00    0.77757   0.67129    5.664
 5545.00    0.75911   0.67146    5.666
 5546.00    0.73324   0.67211    5.628
 5547.00    0.70901   0.67276    5.564
 5548.00    0.71056   0.67370    5.494
 5549.00    0.75345   0.67504    5.432
 5550.00    0.80530   0.67598    5.393
 5551.00    0.81934   0.67607    5.389
 5552.00    0.79572   0.67562    5.427
 5553.00    0.75842   0.67470    5.490
 5554.00    0.70839   0.67312    5.509
 5555.00    0.64374   0.67124    5.450
 5556.00    0.59516   0.66978    5.432
 5557.00    0.59085   0.66874    5.548
 5558.00    0.60688   0.66755    5.636
 5559.00    0.60556   0.66620    5.526
 5560.00    0.58940   0.66499    5.420
 5561.00    0.58416   0.66377    5.513
 5562.00    0.60977   0.66209    5.617
 5563.00    0.65709   0.65993    5.516
 5564.00    0.67145   0.65786    5.429
 5565.00    0.61640   0.65620    5.573
 5566.00    0.53606   0.65453    5.744
 5567.00    0.49657   0.65304    5.685
 5568.00    0.52321   0.65230    5.552
 5569.00    0.60134   0.65178    5.553
 5570.00    0.68634   0.65118    5.626
 5571.00    0.74006   0.65142    5.661
 5572.00    0.76032   0.65245    5.687
 5573.00    0.76871   0.65294    5.749
 5574.00    0.79400   0.65346    5.807
 5575.00    0.83516   0.65521    5.820
 5576.00    0.84275   0.65714    5.833
 5577.00    0.78652   0.65833    5.875
 5578.00    0.69856   0.65928    5.908
 5579.00    0.62374   0.66003    5.895
 5580.00    0.58317   0.66017    5.863
 5581.00    0.57022   0.65954    5.840
 5582.00    0.55695   0.65766    5.828
 5583.00    0.54014   0.65444    5.823
 5584.00    0.55733   0.65050    5.823
 5585.00    0.61926   0.64605    5.834
 5586.00    0.68161   0.64103    5.863
 5587.00    0.70316   0.63588    5.880
 5588.00    0.67646   0.63155    5.819
 5589.00    0.61936   0.62879    5.683
 5590.00    0.56428   0.62766    5.560
 5591.00    0.53209   0.62811    5.510
 5592.00    0.52449   0.63005    5.529
 5593.00    0.54512   0.63278    5.571
 5594.00    0.60269   0.63519    5.569
 5595.00    0.68481   0.63686    5.520
 5596.00    0.75578   0.63857    5.490
 5597.00    0.79133   0.64014    5.496
 5598.00    0.78928   0.63985    5.490
 5599.00    0.75749   0.63790    5.447
 5600.00    0.70777   0.63662    5.397
 5601.00    0.65139   0.63681    5.379
 5602.00    0.60010   0.63743    5.419
 5603.00    0.57396   0.63864    5.474
 5604.00    0.59111   0.64162    5.463
 5605.00    0.63028   0.64656    5.411
 5606.00    0.64266   0.65195    5.426
 5607.00    0.61721   0.65667    5.497
 5608.00    0.58257   0.66056    5.511
 5609.00    0.56151   0.66347    5.450
 5610.00    0.55628   0.66489    5.396
 5611.00    0.54489   0.66413    5.396
 5612.00    0.50632   0.66144    5.442
 5613.00    0.47954   0.65805    5.492
 5614.00    0.52888   0.65443    5.503
 5615.00    0.63867   0.64980    5.502
 5616.00    0.73167   0.64472    5.553
 5617.00    0.75687   0.64175    5.644
 5618.00    0.70665   0.64145    5.711
 5619.00    0.61229   0.64167    5.745
 5620.00    0.52287   0.64140    5.783
 5621.00    0.46822   0.64142    5.837
 5622.00    0.44721   0.64225    5.891
 5623.00    0.42196   0.64311    5.917
 5624.00    0.36542   0.64291    5.898
 5625.00    0.33590   0.64204    5.865
 5626.00    0.40235   0.64232    5.861
 5627.00    0.51607   0.64428    5.894
 5628.00    0.58205   0.64653    5.934
 5629.00    0.58832   0.64851    5.915
 5630.00    0.58189   0.65075    5.802
 5631.00    0.60934   0.65292    5.661
 5632.00    0.68765   0.65410    5.573
 5633.00    0.77989   0.65397    5.551
 5634.00    0.83375   0.65280    5.560
 5635.00    0.83166   0.65102    5.553
 5636.00    0.79183   0.64890    5.518
 5637.00    0.75893   0.64641    5.526
 5638.00    0.75810   0.64380    5.623
 5639.00    0.75242   0.64198    5.725
 5640.00    0.70613   0.64111    5.728
 5641.00    0.64736   0.64048    5.659
 5642.00    0.61022   0.64001    5.599
 5643.00    0.57882   0.64056    5.588
 5644.00    0.53348   0.64189    5.624
 5645.00    0.49311   0.64317    5.662
 5646.00    0.48296   0.64433    5.676
 5647.00    0.50603   0.64567    5.712
 5648.00    0.55605   0.64718    5.792
 5649.00    0.62725   0.64844    5.853
 5650.00    0.69526   0.64908    5.844
 5651.00    0.71083   0.64906    5.807
 5652.00    0.66143   0.64881    5.813
 5653.00    0.60356   0.64831    5.906
 5654.00    0.58310   0.64650    6.049
 5655.00    0.58642   0.64288    6.108
 5656.00    0.57737   0.63919    6.030
 5657.00    0.52861   0.63671    5.941
 5658.00    0.45741   0.63363    5.927
 5659.00    0.42923   0.62946    5.950
 5660.00    0.46596   0.62732    5.962
 5661.00    0.51328   0.62825    5.963
 5662.00    0.53922   0.62934    5.957
 5663.00    0.57124   0.62961    5.926
 5664.00    0.61959   0.63094    5.879
 5665.00    0.65009   0.63373    5.861
 5666.00    0.63748   0.63617    5.886
 5667.00    0.59162   0.63750    5.923
 5668.00    0.55933   0.63858    5.932
 5669.00    0.60089   0.64031    5.891
 5670.00    0.69681   0.64252    5.817
 5671.00    0.74818   0.64455    5.758
 5672.00    0.72049   0.64637    5.753
 5673.00    0.67049   0.64869    5.807
 5674.00    0.64234   0.65125    5.868
 5675.00    0.63741   0.65280    5.852
 5676.00    0.64254   0.65317    5.764
 5677.00    0.64438   0.65343    5.694
 5678.00    0.64194   0.65338    5.675
 5679.00    0.64277   0.65186    5.676
 5680.00    0.64077   0.64941    5.682
 5681.00    0.62438   0.64743    5.700
 5682.00    0.61679   0.64553    5.713
 5683.00    0.65774   0.64283    5.691
 5684.00    0.72859   0.64024    5.647
 5685.00    0.77089   0.63891    5.629
 5686.00    0.77883   0.63838    5.669
 5687.00    0.78875   0.63798    5.756
 5688.00    0.80299   0.63799    5.803
 5689.00    0.79713   0.63918    5.717
 5690.00    0.77375   0.64131    5.563
 5691.00    0.75144   0.64358    5.489
 5692.00    0.71969   0.64560    5.534
 5693.00    0.65775   0.64756    5.653
 5694.00    0.58699   0.64892    5.781
 5695.00    0.54747   0.64900    5.857
 5696.00    0.53913   0.64825    5.881
 5697.00    0.53975   0.64705    5.892
 5698.00    0.55244   0.64489    5.922
 5699.00    0.59174   0.64191    5.974
 5700.00    0.64942   0.63937    6.007
 5701.00    0.70338   0.63726    5.974
 5702.00    0.73933   0.63472    5.900
 5703.00    0.75575   0.63214    5.840
 5704.00    0.76542   0.63032    5.827
 5705.00    0.78209   0.62856    5.853
 5706.00    0.80294   0.62597    5.867
 5707.00    0.81300   0.62324    5.830
 5708.00    0.79441   0.62108    5.783
 5709.00    0.73973   0.61930    5.767
 5710.00    0.66515   0.61844    5.731
 5711.00    0.59619   0.61923    5.634
 5712.00    0.55007   0.62116    5.550
 5713.00    0.53394   0.62410    5.547
 5714.00    0.54555   0.62847    5.576
 5715.00    0.58071   0.63326    5.573
 5716.00    0.63903   0.63759    5.562
 5717.00    0.70981   0.64169    5.589
 5718.00    0.76170   0.64544    5.651
 5719.00    0.77416   0.64845    5.703
 5720.00    0.76243   0.65091    5.687
 5721.00    0.74834   0.65286    5.615
 5722.00    0.73584   0.65420    5.604
 5723.00    0.72241   0.65485    5.694
 5724.00    0.70869   0.65469    5.732
 5725.00    0.69439   0.65406    5.652
 5726.00    0.67613   0.65331    5.639
 5727.00    0.65725   0.65193    5.783
 5728.00    0.65202   0.64998    5.883
 5729.00    0.66851   0.64883    5.823
 5730.00    0.69882   0.64876    5.804
 5731.00    0.73024   0.64855    5.925
 5732.00    0.75292   0.64803    5.990
 5733.00    0.76329   0.64835    5.910
 5734.00    0.76473   0.64952    5.894
 5735.00    0.76171   0.65036    6.022
 5736.00    0.75530   0.65061    6.095
 5737.00    0.73689   0.65075    6.025
 5738.00    0.69112   0.65095    5.991
 5739.00    0.62405   0.65089    6.062
 5740.00    0.56818   0.65047    0.000
 5741.00    0.54442   0.65013    0.000
 5742.00    0.55134   0.65013    0.000
 5743.00    0.59319   0.65017    0.000
 5744.00    0.68053   0.64983    0.000
 5745.00    0.78570   0.64950    0.000
 5746.00    0.84347   0.64955    0.000
 5747.00    0.81836   0.64943    0.000
 5748.00    0.72433   0.64836    0.000
 5749.00    0.60283   0.64677    0.000
 5750.00    0.50756   0.64556    0.000
 5751.00    0.48202   0.64459    0.000
 5752.00    0.54109   0.64336    0.000
 5753.00    0.64011   0.64200    0.000
 5754.00    0.70175   0.64110    0.000
 5755.00    0.71822   0.64102    0.000
 5756.00    0.74544   0.64168    0.000
 5757.00    0.80674   0.64242    0.000
 5758.00    0.87615   0.64270    0.000
 5759.00    0.90542   0.64257    0.000
 5760.00    0.85633   0.64215    0.000
 5761.00    0.75821   0.64166    0.000
 5762.00    0.68546   0.64108    0.000
 5763.00    0.67676   0.64055    0.000
 5764.00    0.72132   0.64083    0.000
 5765.00    0.77053   0.64245    0.000
 5766.00    0.77090   0.64440    0.000
 5767.00    0.72223   0.64593    0.000
 5768.00    0.66586   0.64735    0.000
 5769.00    0.64048   0.64854    0.000
 5770.00    0.66388   0.64896    0.000
 5771.00    0.71712   0.64859    0.000
 5772.00    0.76594   0.64775    0.000
 5773.00    0.79955   0.64666    0.000
 5774.00    0.81568   0.64555    0.000
 5775.00    0.78937   0.64420    0.000
 5776.00    0.70651   0.64255    0.000
 5777.00    0.61677   0.64054    0.000
 5778.00    0.58751   0.63789    0.000
 5779.00    0.63085   0.63474    0.000
 5780.00    0.71334   0.63140    0.000
 5781.00    0.78356   0.62751    0.000
 5782.00    0.80548   0.62343    0.000
 5783.00    0.79239   0.62079    0.000
 5784.00    0.77340   0.61983    0.000
 5785.00    0.75151   0.61938    0.000
 5786.00    0.71696   0.61963    0.000
 5787.00    0.66642   0.62160    0.000
 5788.00    0.60237   0.62455    0.000
 5789.00    0.53043   0.62734    0.000
 5790.00    0.46054   0.63007    0.000
 5791.00    0.40836   0.63260    0.000
 5792.00    0.39469   0.63488    0.000
 5793.00    0.44134   0.63720    0.000
 5794.00    0.53968   0.63909    0.000
 5795.00    0.63173   0.64041    0.000
 5796.00    0.67708   0.64196    0.000
 5797.00    0.70057   0.64353    0.000
 5798.00    0.73294   0.64433    0.000
 5799.00    0.76672   0.64516    0.000
 5800.00    0.78389   0.64674    0.000
 5801.00    0.77830   0.64788    0.000
 5802.00    0.75836   0.64815    0.000
 5803.00    0.74528   0.64835    0.000
 5804.00    0.75515   0.64840    0.000
 5805.00    0.78739   0.64765   -2.000
 5806.00    0.82375   0.64676   -2.000
 5807.00    0.83334   0.64626   -2.000
 5808.00    0.80111   0.64595   -2.000
 5809.00    0.74075   0.64555   -2.000
 5810.00    0.67752   0.64530   -2.000
 5811.00    0.63473   0.64524   -2.000
 5812.00    0.61440   0.64494   -2.000
 5813.00    0.59731   0.64418   -2.000
 5814.00    0.58585   0.64349   -2.000
 5815.00    0.60902   0.64310   -2.000
 5816.00    0.65666   0.64263   -2.000
 5817.00    0.67202   0.64233   -2.000
 5818.00    0.63974   0.64297   -2.000
 5819.00    0.60301   0.64429   -2.000
 5820.00    0.58785   0.64540   -2.000
 5821.00    0.58331   0.64640   -2.000
 5822.00    0.57886   0.64763   -2.000
 5823.00    0.57531   0.64860   -2.000
 5824.00    0.57385   0.64904   -2.000
 5825.00    0.57506   0.64938    0.000
 5826.00    0.58824   0.64984    0.000
 5827.00    0.62641   0.65005    0.000
 5828.00    0.68296   0.65000    0.000
 5829.00    0.73252   0.65002    0.000
 5830.00    0.75330   0.65009    0.000
 5831.00    0.73617   0.64978    0.000
 5832.00    0.69077   0.64910    0.000
 5833.00    0.64040   0.64865    0.000
 5834.00    0.60544   0.64824    0.000
 5835.00    0.59672   0.64739    0.000
 5836.00    0.61036   0.64666    0.000
 5837.00    0.63278   0.64675    0.000
 5838.00    0.65396   0.64693    0.000
 5839.00    0.66901   0.64676    0.000
 5840.00    0.67517   0.64698    0.000
 5841.00    0.67384   0.64762    0.000
 5842.00    0.67516   0.64787    0.000
 5843.00    0.68589   0.64747    0.000
 5844.00    0.68680   0.64670    0.000
 5845.00    0.65436   0.64551    0.000
 5846.00    0.60328   0.64381    0.000
 5847.00    0.56757   0.64164    0.000
 5848.00    0.55847   0.63914    0.000
 5849.00    0.56517   0.63651    0.000
 5850.00    0.56691   0.63373    0.000
 5851.00    0.54674   0.63090    0.000
 5852.00    0.50817   0.62819    0.000
 5853.00    0.47076   0.62521    0.000
 5854.00    0.45958   0.62186    0.000
 5855.00    0.48354   0.61920    0.000
 5856.00    0.51229   0.61758    0.000
 5857.00    0.51212   0.61601    0.000
 5858.00    0.49045   0.61448    0.000
 5859.00    0.47646   0.61418    0.000
 5860.00    0.49259   0.61519    0.000
 5861.00    0.54170   0.61655    0.000
 5862.00    0.59908   0.61798    0.000
 5863.00    0.63874   0.61927    0.000
 5864.00    0.65858   0.62068    0.000
 5865.00    0.66131   0.62246    0.000
 5866.00    0.63753   0.62396    0.000
 5867.00    0.59735   0.62468    0.000
 5868.00    0.59198   0.62544    0.000
 5869.00    0.64562   0.62658    0.000
 5870.00    0.70672   0.62730    0.000
 5871.00    0.72806   0.62729    0.000
 5872.00    0.72683   0.62678    0.000
 5873.00    0.73862   0.62572    0.000
 5874.00    0.77833   0.62430    0.000
 5875.00    0.82714   0.62268    0.000
 5876.00    0.83377   0.62070    0.000
 5877.00    0.77188   0.61867    0.000
 5878.00    0.67144   0.61728    0.000
 5879.00    0.57754   0.61650    0.000
 5880.00    0.52235   0.61519    0.000
 5881.00    0.51897   0.61359    0.000
 5882.00    0.55777   0.61211    0.000
 5883.00    0.60291   0.60997    0.000
 5884.00    0.60007   0.60602    0.000
 5885.00    0.52428   0.60034    0.000
 5886.00    0.40078   0.59266    0.000
 5887.00    0.28506   0.58303    0.000
 5888.00    0.23801   0.57302    0.000
 5889.00    0.26207   0.56288    0.000
 5890.00    0.29453   0.55194    0.000
 5891.00    0.30097   0.54308    0.000
 5892.00    0.30266   0.53876    0.000
 5893.00    0.32265   0.53645    0.000
 5894.00    0.36492   0.53571    0.000
 5895.00    0.42108   0.53812    0.000
 5896.00    0.47653   0.54139    0.000
 5897.00    0.52207   0.54553    0.000
 5898.00    0.55614   0.55340    0.000
 5899.00    0.57860   0.56257    0.000
 5900.00    0.58933   0.57033    0.000
 5901.00    0.59081   0.57862    5.854
 5902.00    0.58862   0.58754    5.891
 5903.00    0.59056   0.59460    5.941
 5904.00    0.60447   0.59986    6.007
 5905.00    0.63331   0.60431    6.065
 5906.00    0.67393   0.60743    6.082
 5907.00    0.71781   0.60928    6.064
 5908.00    0.74884   0.61080    6.049
 5909.00    0.73867   0.61190    6.061
 5910.00    0.66949   0.61199    6.100
 5911.00    0.58613   0.61148    6.148
 5912.00    0.56106   0.61103    6.184
 5913.00    0.59635   0.61029    6.189
 5914.00    0.63838   0.60896    6.165
 5915.00    0.65012   0.60769    6.143
 5916.00    0.63024   0.60722    6.152
 5917.00    0.61926   0.60727    6.147
 5918.00    0.66133   0.60768    6.072
 5919.00    0.73694   0.60838    5.986
 5920.00    0.78870   0.60939    5.977
 5921.00    0.78449   0.61067    6.007
 5922.00    0.72642   0.61166    5.984
 5923.00    0.64694   0.61224    5.909
 5924.00    0.58637   0.61280    5.844
 5925.00    0.56119   0.61319    5.839
 5926.00    0.56751   0.61310    5.899
 5927.00    0.59268   0.61269    5.951
 5928.00    0.62200   0.61221    5.934
 5929.00    0.64531   0.61176    5.914
 5930.00    0.65722   0.61115    5.965
 5931.00    0.65633   0.61042    6.003
 5932.00    0.64575   0.61031    5.946
 5933.00    0.63311   0.61084    5.901
 5934.00    0.62267   0.61110    5.974
 5935.00    0.60795   0.61110    6.065
 5936.00    0.58594   0.61165    6.050
 5937.00    0.57088   0.61258    6.015
 5938.00    0.57612   0.61280    6.061
 5939.00    0.59628   0.61274    6.131
 5940.00    0.61887   0.61307    6.135
 5941.00    0.63697   0.61306    6.092
 5942.00    0.65404   0.61252    6.068
 5943.00    0.68499   0.61243    6.107
 5944.00    0.73727   0.61264    6.199
 5945.00    0.79660   0.61237    6.254
 5946.00    0.83775   0.61186    6.216
 5947.00    0.83571   0.61160    6.151
 5948.00    0.78133   0.61115    6.138
 5949.00    0.69134   0.60992    6.191
 5950.00    0.60279   0.60852    6.251
 5951.00    0.56194   0.60796    6.198
 5952.00    0.58099   0.60763    6.032
 5953.00    0.61950   0.60657    5.930
 5954.00    0.63917   0.60577    5.984
 5955.00    0.63482   0.60624    6.116
 5956.00    0.61693   0.60683    6.201
 5957.00    0.59856   0.60694    6.155
 5958.00    0.58424   0.60768    6.035
 5959.00    0.56760   0.60921    6.005
 5960.00    0.54814   0.61071    6.087
 5961.00    0.53782   0.61214    6.113
 5962.00    0.55225   0.61360    6.048
 5963.00    0.59875   0.61480    6.071
 5964.00    0.64487   0.61573    6.226
 5965.00    0.63103   0.61653    6.328
 5966.00    0.57809   0.61694    6.264
 5967.00    0.59070   0.61723    6.123
 5968.00    0.69717   0.61787    6.012
 5969.00    0.81745   0.61835    5.984
 5970.00    0.87929   0.61848    6.019
 5971.00    0.86209   0.61855    6.053
 5972.00    0.79377   0.61826    6.080
 5973.00    0.73095   0.61725    6.155
 5974.00    0.70175   0.61586    6.240
 5975.00    0.69439   0.61425    6.224
 5976.00    0.68032   0.61230    6.155
 5977.00    0.63588   0.61038    6.200
 5978.00    0.58114   0.60885    6.340
 5979.00    0.56497   0.60764    6.386
 5980.00    0.59691   0.60670    6.282
 5981.00    0.64477   0.60589    6.147
 5982.00    0.67541   0.60521    6.090
 5983.00    0.67265   0.60475    6.144
 5984.00    0.65292   0.60413    6.216
 5985.00    0.64546   0.60340    6.172
 5986.00    0.64174   0.60357    6.085
 5987.00    0.60911   0.60449    6.114
 5988.00    0.54226   0.60517    6.174
 5989.00    0.46603   0.60607    6.075
 5990.00    0.41873   0.60780    5.939
 5991.00    0.42989   0.60944    5.994
 5992.00    0.48700   0.61032    6.139
 5993.00    0.55293   0.61115    6.116
 5994.00    0.60646   0.61209    5.995
 5995.00    0.64264   0.61233    5.991
 5996.00    0.66166   0.61186    6.054
 5997.00    0.66646   0.61125    6.024
 5998.00    0.66153   0.61045    5.961
 5999.00    0.64792   0.60935    6.002
 6000.00    0.61737   0.60819    6.110
 6001.00    0.57077   0.60727    6.169
 6002.00    0.54190   0.60642    6.180
 6003.00    0.56226   0.60524    6.197
 6004.00    0.61423   0.60404    6.211
 6005.00    0.65668   0.60320    6.203
 6006.00    0.66354   0.60229    6.228
 6007.00    0.63145   0.60140    6.311
 6008.00    0.58163   0.60080    6.332
 6009.00    0.53815   0.60027    6.235
 6010.00    0.50622   0.60018    6.226
 6011.00    0.49126   0.60064    6.355
 6012.00    0.51652   0.60098    6.169
 6013.00    0.58405   0.60083    5.744
 6014.00    0.64190   0.60055    6.213
 6015.00    0.64292   0.60065    9.263
 6016.00    0.59717   0.60056   10.708
 6017.00    0.54526   0.59964   10.708
 6018.00    0.52866   0.59891   10.708
 6019.00    0.55868   0.59895   10.708
 6020.00    0.59898   0.59869   10.708
 6021.00    0.60732   0.59813   10.708
 6022.00    0.56816   0.59850   10.708
 6023.00    0.49394   0.59965   10.708
 6024.00    0.42132   0.60061   10.708
 6025.00    0.38966   0.60179    8.433
 6026.00    0.42335   0.60394    5.720
 6027.00    0.51142   0.60610    5.555
 6028.00    0.60483   0.60766    6.101
 6029.00    0.67261   0.60963    6.296
 6030.00    0.72570   0.61176    6.136
 6031.00    0.76331   0.61316    6.006
 6032.00    0.75295   0.61427    6.001
 6033.00    0.68581   0.61549    6.075
 6034.00    0.59743   0.61637    6.138
 6035.00    0.52460   0.61675    6.167
 6036.00    0.48372   0.61692    6.225
 6037.00    0.47293   0.61695    6.301
 6038.00    0.47840   0.61682    6.280
 6039.00    0.49471   0.61653    6.199
 6040.00    0.52784   0.61620    6.251
 6041.00    0.57152   0.61614    6.408
 6042.00    0.60362   0.61631    6.377
 6043.00    0.60943   0.61648    6.169
 6044.00    0.58886   0.61707    6.119
 6045.00    0.54956   0.61790    6.272
 6046.00    0.50626   0.61844    6.356
 6047.00    0.48672   0.61890    6.273
 6048.00    0.51943   0.61942    6.196
 6049.00    0.59016   0.61945    6.181
 6050.00    0.64900   0.61892    6.131
 6051.00    0.67108   0.61834    6.034
 6052.00    0.66541   0.61752    5.971
 6053.00    0.64811   0.61617    5.979
 6054.00    0.63026   0.61471    6.027
 6055.00    0.60742   0.61356    6.046
 6056.00    0.56999   0.61251    5.981
 6057.00    0.53409   0.61151    5.902
 6058.00    0.53291   0.61092    5.922
 6059.00    0.57943   0.61054    6.003
 6060.00    0.65825   0.61015    6.007
 6061.00    0.72806   0.60972    5.937
 6062.00    0.74374   0.60902    5.907
 6063.00    0.69887   0.60813    5.969
 6064.00    0.61996   0.60765    6.094
 6065.00    0.53845   0.60751    6.176
 6066.00    0.48000   0.60737    6.124
 6067.00    0.45542   0.60836    6.043
 6068.00    0.46465   0.61047    6.087
 6069.00    0.50580   0.61242    6.212
 6070.00    0.56809   0.61437    6.259
 6071.00    0.61934   0.61649    6.192
 6072.00    0.62597   0.61800    6.092
 6073.00    0.58521   0.61865    6.051
 6074.00    0.52009   0.61866    6.112
 6075.00    0.46442   0.61788    6.209
 6076.00    0.44467   0.61631    6.245
 6077.00    0.45964   0.61439    6.219
 6078.00    0.49491   0.61223    6.184
 6079.00    0.54400   0.60956    6.151
 6080.00    0.60732   0.60718    6.111
 6081.00    0.68666   0.60566    6.073
 6082.00    0.76967   0.60404    6.045
 6083.00    0.81656   0.60251    6.022
 6084.00    0.79940   0.60203    5.994
 6085.00    0.74152   0.60196    5.955
 6086.00    0.68553   0.60152    5.911
 6087.00    0.65626   0.60125    5.885
 6088.00    0.64387   0.60143    5.895
 6089.00    0.59875   0.60158    5.936
 6090.00    0.50074   0.60135    5.992
 6091.00    0.41086   0.60118    6.033
 6092.00    0.38806   0.60172    6.050
 6093.00    0.42272   0.60241    6.074
 6094.00    0.48248   0.60279    6.127
 6095.00    0.55117   0.60359    6.197
 6096.00    0.62429   0.60452    6.251
 6097.00    0.70157   0.60462    6.257
 6098.00    0.77159   0.60423    6.215
 6099.00    0.80591   0.60338    6.162
 6100.00    0.78940   0.60159    6.138
 6101.00    0.73686   0.59974    6.162
 6102.00    0.67284   0.59810    6.219
 6103.00    0.61671   0.59593    6.253
 6104.00    0.57243   0.59467    6.249
 6105.00    0.52692   0.59529    6.254
 6106.00    0.47092   0.59619    6.281
 6107.00    0.40969   0.59732    6.270
 6108.00    0.35878   0.59924    6.213
 6109.00    0.33764   0.60114    6.181
 6110.00    0.35126   0.60294    6.205
 6111.00    0.38435   0.60447    6.234
 6112.00    0.41511   0.60531    6.226
 6113.00    0.42640   0.60592    6.184
 6114.00    0.42514   0.60633    6.125
 6115.00    0.44075   0.60614    6.068
 6116.00    0.48777   0.60521    6.038
 6117.00    0.55444   0.60360    6.056
 6118.00    0.61675   0.60183    6.084
 6119.00    0.64927   0.59959    6.052
 6120.00    0.64276   0.59668    5.981
 6121.00    0.60715   0.59442    5.980
 6122.00    0.56071   0.59266    6.063
 6123.00    0.52161   0.59083    6.146
 6124.00    0.49436   0.59059    6.202
 6125.00    0.47486   0.59159    6.267
 6126.00    0.47640   0.59215    6.305
 6127.00    0.52288   0.59334    6.230
 6128.00    0.61057   0.59523    6.107
 6129.00    0.70879   0.59630    6.085
 6130.00    0.78814   0.59677    6.149
 6131.00    0.82600   0.59698    6.168
 6132.00    0.80205   0.59613    6.119
 6133.00    0.71032   0.59411    6.085
 6134.00    0.58735   0.59134    6.100
 6135.00    0.49123   0.58797    6.137
 6136.00    0.44520   0.58476    6.130
 6137.00    0.44142   0.58199    6.037
 6138.00    0.47236   0.57972    5.945
 6139.00    0.53072   0.57937    5.967
 6140.00    0.59769   0.58099    6.076
 6141.00    0.64821   0.58308    6.162
 6142.00    0.66422   0.58537    6.189
 6143.00    0.64120   0.58849    6.200
 6144.00    0.59450   0.59186    6.233
 6145.00    0.54775   0.59409    6.292
 6146.00    0.51371   0.59527    6.322
 6147.00    0.49542   0.59619    6.252
 6148.00    0.49214   0.59640    6.083
 6149.00    0.49809   0.59563    5.870
 6150.00    0.50038   0.59467    5.688
 6151.00    0.49107   0.59371    5.571
 6152.00    0.48191   0.59250    5.478
 6153.00    0.48572   0.59134    5.390
 6154.00    0.49298   0.59019    5.397
 6155.00    0.48934   0.58818    5.559
 6156.00    0.47823   0.58555    5.748
 6157.00    0.47315   0.58274    5.801
 6158.00    0.48630   0.57865    5.795
 6159.00    0.52511   0.57338    5.859
 6160.00    0.58967   0.56832    5.941
 6161.00    0.66951   0.56341    5.963
 6162.00    0.74223   0.55833    5.974
 6163.00    0.78721   0.55431    6.037
 6164.00    0.79752   0.55226    6.102
 6165.00    0.77399   0.55163    6.107
 6166.00    0.72004   0.55161    6.084
 6167.00    0.64750   0.55220    6.081
 6168.00    0.57998   0.55406    6.106
 6169.00    0.54031   0.55615    6.113
 6170.00    0.53977   0.55718    6.015
 6171.00    0.57061   0.55874    5.811
 6172.00    0.60505   0.56158    5.619
 6173.00    0.62095   0.56377    5.516
 6174.00    0.61876   0.56537    5.484
 6175.00    0.61784   0.56796    5.495
 6176.00    0.64761   0.57068    5.550
 6177.00    0.71291   0.57234    5.633
 6178.00    0.78052   0.57393    5.694
 6179.00    0.81859   0.57603    5.732
 6180.00    0.81733   0.57740    5.819
 6181.00    0.77838   0.57797    5.954
 6182.00    0.71032   0.57875    6.012
 6183.00    0.63746   0.57899    5.978
 6184.00    0.59651   0.57803    6.017
 6185.00    0.60140   0.57663    6.163
 6186.00    0.63229   0.57484    6.239
 6187.00    0.65984   0.57230    6.179
 6188.00    0.65996   0.56939    6.130
 6189.00    0.62791   0.56652    6.159
 6190.00    0.57845   0.56440    6.184
 6191.00    0.52483   0.56296    6.160
 6192.00    0.47165   0.56168    6.128
 6193.00    0.41925   0.56188    6.123
 6194.00    0.37040   0.56358    6.143
 6195.00    0.34617   0.56498    6.163
 6196.00    0.37355   0.56649    6.155
 6197.00    0.43091   0.56851    6.147
 6198.00    0.45951   0.57012    6.194
 6199.00    0.44877   0.57118    6.234
 6200.00    0.43878   0.57193    6.131
 6201.00    0.45445   0.57272    5.936
 6202.00    0.48897   0.57381    5.817
 6203.00    0.51180   0.57486    5.778
 6204.00    0.49507   0.57582    5.723
 6205.00    0.47077   0.57683    5.697
 6206.00    0.49989   0.57766    5.818
 6207.00    0.56983   0.57792    5.991
 6208.00    0.61868   0.57739    6.000
 6209.00    0.63946   0.57623    5.974
 6210.00    0.67547   0.57439    6.139
 6211.00    0.76196   0.57159   -2.000
 6212.00    0.89602   0.56843   -2.000
 6213.00    1.00484   0.56518   -2.000
 6214.00    0.99294   0.56158   -2.000
 6215.00    0.83729   0.55858   -2.000
 6216.00    0.57617   0.55635   -2.000
 6217.00    0.26101   0.55439   -2.000
 6218.00   -0.03734   0.55347   -2.000
 6219.00   -0.20862   0.55334   -2.000
 6220.00   -0.17323   0.55321   -2.000
 6221.00    0.01214   0.55361   -2.000
 6222.00    0.22447   0.55442   -2.000
 6223.00    0.39544   0.55503    5.371
 6224.00    0.50387   0.55536    5.498
 6225.00    0.54283   0.55541    5.718
 6226.00    0.52234   0.55534    5.961
 6227.00    0.47648   0.55462    6.157
 6228.00    0.44212   0.55312    6.269
 6229.00    0.43288   0.55198    6.322
 6230.00    0.44326   0.55088    6.362
 6231.00    0.45771   0.54949    6.396
 6232.00    0.46443   0.54929    6.405
 6233.00    0.46761   0.55006    6.367
 6234.00    0.47404   0.55060    6.270
 6235.00    0.47931   0.55177    6.122
 6236.00    0.47593   0.55325    5.977
 6237.00    0.46219   0.55361    5.933
 6238.00    0.44224   0.55339    6.035
 6239.00    0.42542   0.55296    6.203
 6240.00    0.42590   0.55151    6.290
 6241.00    0.45981   0.54952    6.180
 6242.00    0.52474   0.54834    5.917
 6243.00    0.58792   0.54716    5.704
 6244.00    0.61993   0.54574    5.642
 6245.00    0.61815   0.54584    5.643
 6246.00    0.59225   0.54651    5.642
 6247.00    0.55351   0.54661    5.703
 6248.00    0.51925   0.54755    5.857
 6249.00    0.51220   0.54859    6.010
 6250.00    0.53666   0.54839    6.099
 6251.00    0.56863   0.54795    6.199
 6252.00    0.58510   0.54711    6.330
 6253.00    0.58143   0.54514    6.369
 6254.00    0.57049   0.54316    6.299
 6255.00    0.57700   0.54143    6.295
 6256.00    0.61363   0.53967    6.378
 6257.00    0.66986   0.53880    6.328
 6258.00    0.71837   0.53897    6.129
 6259.00    0.72630   0.53963    6.055
 6260.00    0.68946   0.54143    6.185
 6261.00    0.63717   0.54427    6.315
 6262.00    0.58673   0.54670    6.314
 6263.00    0.53187   0.54937    6.268
 6264.00    0.47544   0.55258    6.267
 6265.00    0.43714   0.55469    6.309
 6266.00    0.43174   0.55593    6.318
 6267.00    0.45999   0.55752    6.202
 6268.00    0.50668   0.55869    6.048
 6269.00    0.54451   0.55902    6.043
 6270.00    0.54860   0.55962    6.128
 6271.00    0.51032   0.56048    6.049
 6272.00    0.46339   0.56094    5.855
 6273.00    0.46856   0.56140    5.822
 6274.00    0.54670   0.56187    5.889
 6275.00    0.66419   0.56194    5.725
 6276.00    0.74918   0.56189    5.318
 6277.00    0.72938   0.56160    4.933
 6278.00    0.61393   0.56086    4.712
 6279.00    0.47911   0.56029    4.677
 6280.00    0.38304   0.55985    0.000
 6281.00    0.34912   0.55941    0.000
 6282.00    0.37727   0.55964    0.000
 6283.00    0.44983   0.56037    0.000
 6284.00    0.53845   0.56135    0.000
 6285.00    0.61050   0.56285    0.000
 6286.00    0.63913   0.56441    0.000
 6287.00    0.61508   0.56589    0.000
 6288.00    0.56393   0.56716    0.000
 6289.00    0.52771   0.56783    0.000
 6290.00    0.52706   0.56804    0.000
 6291.00    0.56049   0.56765    0.000
 6292.00    0.61486   0.56675    0.000
 6293.00    0.66973   0.56553    0.000
 6294.00    0.70231   0.56377    0.000
 6295.00    0.70170   0.56198    0.000
 6296.00    0.68724   0.56029    0.000
 6297.00    0.68074   0.55841    0.000
 6298.00    0.66623   0.55682    0.000
 6299.00    0.61820   0.55566    0.000
 6300.00    0.54468   0.55478    0.000
 6301.00    0.47684   0.55444    0.000
 6302.00    0.44772   0.55462    0.000
 6303.00    0.46929   0.55532    0.000
 6304.00    0.51162   0.55674    0.000
 6305.00    0.53809   0.55845    0.000
 6306.00    0.54534   0.56003    0.000
 6307.00    0.55003   0.56181    0.000
 6308.00    0.56921   0.56354    0.000
 6309.00    0.60116   0.56433    0.000
 6310.00    0.61251   0.56446    0.000
 6311.00    0.57824   0.56437    0.000
 6312.00    0.51700   0.56333    0.000
 6313.00    0.46871   0.56167    0.000
 6314.00    0.46899   0.56035    0.000
 6315.00    0.51749   0.55856    0.000
 6316.00    0.56122   0.55653    0.000
 6317.00    0.55419   0.55581    0.000
 6318.00    0.50148   0.55541    0.000
 6319.00    0.43672   0.55473    0.000
 6320.00    0.40049   0.55556    0.000
 6321.00    0.41845   0.55729    6.161
 6322.00    0.48737   0.55859    6.198
 6323.00    0.57680   0.56042    6.268
 6324.00    0.63683   0.56285    6.254
 6325.00    0.63493   0.56476    6.167
 6326.00    0.57649   0.56631    6.183
 6327.00    0.49530   0.56782    6.339
 6328.00    0.44074   0.56873    6.408
 6329.00    0.44316   0.56926    6.314
 6330.00    0.49668   0.56950    6.293
 6331.00    0.56619   0.56903    6.438
 6332.00    0.60200   0.56828    6.552
 6333.00    0.58854   0.56722    6.506
 6334.00    0.55615   0.56574    6.402
 6335.00    0.53202   0.56437    6.338
 6336.00    0.52009   0.56288    6.314
 6337.00    0.51113   0.56167    6.318
 6338.00    0.49148   0.56126    6.349
 6339.00    0.45854   0.56089    6.396
 6340.00    0.42378   0.56063    6.436
 6341.00    0.40132   0.56098    6.440
 6342.00    0.40234   0.56119    6.397
 6343.00    0.43094   0.56113    6.369
 6344.00    0.48246   0.56109    6.438
 6345.00    0.54299   0.56103    6.518
 6346.00    0.59226   0.56133    6.406
 6347.00    0.61260   0.56174    6.186
 6348.00    0.59634   0.56212    6.126
 6349.00    0.55797   0.56300    6.231
 6350.00    0.53022   0.56380    6.295
 6351.00    0.54403   0.56399    6.268
 6352.00    0.60772   0.56383    6.267
 6353.00    0.67077   0.56317    6.297
 6354.00    0.65603   0.56187    6.271
 6355.00    0.55502   0.55989    6.250
 6356.00    0.42334   0.55738    6.365
 6357.00    0.31996   0.55500    6.524
 6358.00    0.28330   0.55256    6.508
 6359.00    0.31190   0.54983    6.388
 6360.00    0.37879   0.54786    6.386
 6361.00    0.46683   0.54677    6.477
 6362.00    0.56440   0.54590    6.486
 6363.00    0.64524   0.54587    6.419
 6364.00    0.67893   0.54702    6.390
 6365.00    0.65530   0.54871    6.391
 6366.00    0.58527   0.55085    6.359
 6367.00    0.49468   0.55343    6.316
 6368.00    0.41218   0.55616    6.320
 6369.00    0.35275   0.55885    6.348
 6370.00    0.32346   0.56127    6.338
 6371.00    0.33433   0.56339    6.268
 6372.00    0.38310   0.56523    6.171
 6373.00    0.43464   0.56669    6.114
 6374.00    0.45520   0.56777    6.130
 6375.00    0.45677   0.56836    6.135
 6376.00    0.46201   0.56845    6.039
 6377.00    0.45807   0.56836    5.880
 6378.00    0.43007   0.56786    5.761
 6379.00    0.40242   0.56693    5.752
 6380.00    0.40692   0.56627    5.842
 6381.00    0.44493   0.56575    5.880
 6382.00    0.49820   0.56505    5.782
 6383.00    0.54476   0.56485    5.723
 6384.00    0.57126   0.56503    5.844
 6385.00    0.58182   0.56495    6.013
 6386.00    0.58341   0.56506    6.071
 6387.00    0.57310   0.56526    6.101
 6388.00    0.54743   0.56495    6.229
 6389.00    0.51033   0.56444    6.417
 6390.00    0.46576   0.56377    6.549
 6391.00    0.41340   0.56258    6.540
 6392.00    0.36363   0.56148    6.420
 6393.00    0.34499   0.56056    6.335
 6394.00    0.37510   0.55933    6.354
 6395.00    0.44115   0.55870    6.386
 6396.00    0.51060   0.55877    6.348
 6397.00    0.54477   0.55831    6.274
 6398.00    0.53421   0.55815    6.260
 6399.00    0.51267   0.55899    6.387
 6400.00    0.51103   0.55928    6.480
 6401.00    0.53161   0.55941    6.141
 6402.00    0.56090   0.56075    5.829
 6403.00    0.57998   0.56184    6.820
 6404.00    0.57804   0.56235   10.708
 6405.00    0.56008   0.56333   10.708
 6406.00    0.55042   0.56384   10.708
 6407.00    0.58301   0.56381   10.708
 6408.00    0.65159   0.56352   10.708
 6409.00    0.70257   0.56268   10.708
 6410.00    0.70251   0.56220   10.708
 6411.00    0.66196   0.56175   10.708
 6412.00    0.61081   0.56076   10.708
 6413.00    0.58041   0.56058   10.708
 6414.00    0.57751   0.56075    7.095
 6415.00    0.58269   0.56022    5.657
 6416.00    0.57993   0.56004    5.930
 6417.00    0.56593   0.56017    6.443
 6418.00    0.54460   0.55965    6.372
 6419.00    0.52485   0.55925    6.178
 6420.00    0.51986   0.55940    6.171
 6421.00    0.53954   0.55954    6.212
 6422.00    0.57026   0.55989    6.230
 6423.00    0.58195   0.56103    6.288
 6424.00    0.56398   0.56238    6.366
 6425.00    0.53347   0.56337    6.359
 6426.00    0.52931   0.56440    6.248
 6427.00    0.58488   0.56519    6.111
 6428.00    0.66814   0.56502    6.024
 6429.00    0.70986   0.56447    6.031
 6430.00    0.70046   0.56391    6.122
 6431.00    0.68023   0.56287    6.246
 6432.00    0.66978   0.56198    6.337
 6433.00    0.66359   0.56166    6.348
 6434.00    0.64874   0.56139    6.318
 6435.00    0.61886   0.56144    6.319
 6436.00    0.59204   0.56170    6.346
 6437.00    0.59221   0.56194    6.360
 6438.00    0.61084   0.56265    6.399
 6439.00    0.62288   0.56325    6.512
 6440.00    0.62466   0.56389    6.604
 6441.00    0.62848   0.56539    6.529
 6442.00    0.64339   0.56672    6.317
 6443.00    0.66840   0.56764    6.089
 6444.00    0.68759   0.56860    5.891
 6445.00    0.68173   0.56883    5.736
 6446.00    0.64577   0.56807    5.664
 6447.00    0.59096   0.56639    5.705
 6448.00    0.54339   0.56416    5.819
 6449.00    0.52558   0.56194    5.944
 6450.00    0.53466   0.55931    6.060
 6451.00    0.55493   0.55724    6.162
 6452.00    0.57534   0.55659    6.202
 6453.00    0.58724   0.55609    6.156
 6454.00    0.58022   0.55622    6.087
 6455.00    0.54932   0.55758    6.066
 6456.00    0.50234   0.55867    6.092
 6457.00    0.45424   0.55945    6.129
 6458.00    0.42091   0.56063    6.154
 6459.00    0.41895   0.56125    6.179
 6460.00    0.46416   0.56089    6.263
 6461.00    0.55375   0.56079    6.393
 6462.00    0.65393   0.56075    6.390
 6463.00    0.72650   0.55993    6.180
 6464.00    0.75148   0.55979    5.982
 6465.00    0.72620   0.56057    5.929
 6466.00    0.66241   0.56086    5.911
 6467.00    0.57928   0.56150    5.845
 6468.00    0.49920   0.56277    5.838
 6469.00    0.45251   0.56325    5.962
 6470.00    0.47491   0.56335    6.128
 6471.00    0.56795   0.56368    6.196
 6472.00    0.68196   0.56331    6.105
 6473.00    0.76885   0.56258    5.903
 6474.00    0.81239   0.56235    5.715
 6475.00    0.81162   0.56182    5.618
 6476.00    0.77079   0.56094    5.617
 6477.00    0.70190   0.56045    5.690
 6478.00    0.62461   0.55983    5.808
 6479.00    0.55838   0.55858    5.943
 6480.00    0.51698   0.55738    6.070
 6481.00    0.50189   0.55634    6.175
 6482.00    0.50277   0.55500    6.255
 6483.00    0.51291   0.55381    6.307
 6484.00    0.53415   0.55317    6.326
 6485.00    0.56845   0.55265    6.328
 6486.00    0.61295   0.55209    6.343
 6487.00    0.65561   0.55156    6.315
 6488.00    0.68017   0.55051    6.146
 6489.00    0.68962   0.54858    5.937
 6490.00    0.70313   0.54588    5.916
 6491.00    0.71587   0.54207    6.099
 6492.00    0.70016   0.53728    6.276
 6493.00    0.65476   0.53242    6.314
 6494.00    0.60892   0.52745    6.263
 6495.00    0.58434   0.52288    6.200
 6496.00    0.58456   0.52002    6.165
 6497.00    0.59948   0.51850    6.167
 6498.00    0.61378   0.51858    6.190
 6499.00    0.62519   0.52074    6.187
 6500.00    0.64251   0.52395    6.125
 6501.00    0.66806   0.52815    6.081
 6502.00    0.69425   0.53299    6.172
 6503.00    0.70658   0.53753    6.328
 6504.00    0.68820   0.54182    6.368
 6505.00    0.62874   0.54555    6.341
 6506.00    0.53885   0.54834    6.425
 6507.00    0.47455   0.55050    6.526
 6508.00    0.49613   0.55203    6.420
 6509.00    0.57959   0.55282    6.249
 6510.00    0.64678   0.55316    6.288
 6511.00    0.65399   0.55322    6.460
 6512.00    0.60450   0.55285    6.493
 6513.00    0.53969   0.55207    6.374
 6514.00    0.50959   0.55123    6.271
 6515.00    0.52803   0.55031    6.221
 6516.00    0.57721   0.54917    6.176
 6517.00    0.62680   0.54831    6.119
 6518.00    0.64457   0.54794    6.075
 6519.00    0.60823   0.54770    6.090
 6520.00    0.51907   0.54790    6.185
 6521.00    0.41614   0.54859    6.283
 6522.00    0.34555   0.54931    6.295
 6523.00    0.31964   0.55008    6.272
 6524.00    0.33500   0.55075    6.279
 6525.00    0.39835   0.55116    6.242
 6526.00    0.49730   0.55144    6.115
 6527.00    0.56848   0.55140    6.064
 6528.00    0.56058   0.55120    0.000
 6529.00    0.50100   0.55108    0.000
 6530.00    0.43926   0.55087    0.000
 6531.00    0.38509   0.55068    0.000
 6532.00    0.33831   0.55067    0.000
 6533.00    0.32055   0.55076    0.000
 6534.00    0.35020   0.55095    0.000
 6535.00    0.41797   0.55123    0.000
 6536.00    0.49335   0.55160    0.000
 6537.00    0.53585   0.55192    0.000
 6538.00    0.52860   0.55200    0.000
 6539.00    0.49988   0.55184    0.000
 6540.00    0.48497   0.55127    0.000
 6541.00    0.49682   0.55009    0.000
 6542.00    0.53297   0.54852    0.000
 6543.00    0.58310   0.54647    0.000
 6544.00    0.63656   0.54391    0.000
 6545.00    0.68744   0.54141    0.000
 6546.00    0.73479   0.53887    0.000
 6547.00    0.77879   0.53620    0.000
 6548.00    0.79814   0.53394    0.000
 6549.00    0.74902   0.53175    0.000
 6550.00    0.63395   0.52935    0.000
 6551.00    0.52439   0.52690    0.000
 6552.00    0.47603   0.52403    0.000
 6553.00    0.48901   0.52052    0.000
 6554.00    0.53829   0.51626    0.000
 6555.00    0.59482   0.51116    0.000
 6556.00    0.64788   0.50507    0.000
 6557.00    0.71853   0.49750    0.000
 6558.00    0.87229   0.48906    0.000
 6559.00    1.19870   0.48019    0.000
 6560.00    1.70897   0.47007    0.000
 6561.00    2.30736   0.46072    0.000
 6562.00    2.84538   0.45405    0.000
 6563.00    3.16550   0.44863    0.000
 6564.00    3.17653   0.44644    0.000
 6565.00    2.87689   0.44933    0.000
 6566.00    2.33895   0.45438    0.000
 6567.00    1.69273   0.46145    0.000
 6568.00    1.09293   0.47105    0.000
 6569.00    0.67957   0.48034    0.000
 6570.00    0.49628   0.48851    0.000
 6571.00    0.48623   0.49619    0.000
 6572.00    0.55068   0.50237    0.000
 6573.00    0.59243   0.50701    0.000
 6574.00    0.58242   0.51113    0.000
 6575.00    0.55142   0.51459    0.000
 6576.00    0.52611   0.51749    0.000
 6577.00    0.51708   0.52045    0.000
 6578.00    0.52924   0.52317    0.000
 6579.00    0.56894   0.52551    0.000
 6580.00    0.65301   0.52785    0.000
 6581.00    0.79009   0.52983    0.000
 6582.00    0.93980   0.53139    0.000
 6583.00    1.03627   0.53298    0.000
 6584.00    1.04908   0.53416    0.000
 6585.00    0.98670   0.53512    0.000
 6586.00    0.88037   0.53609    0.000
 6587.00    0.76747   0.53643    0.000
 6588.00    0.66888   0.53644    0.000
 6589.00    0.59121   0.53627    0.000
 6590.00    0.53689   0.53533    0.000
 6591.00    0.50681   0.53401    0.000
 6592.00    0.50179   0.53282    0.000
 6593.00    0.51985   0.53151    0.000
 6594.00    0.55222   0.53033    0.000
 6595.00    0.58665   0.53001    0.000
 6596.00    0.61289   0.53020    0.000
 6597.00    0.62902   0.53076    0.000
 6598.00    0.64708   0.53208    0.000
 6599.00    0.67631   0.53353    0.000
 6600.00    0.70333   0.53487    0.000
 6601.00    0.70463   0.53624    0.000
 6602.00    0.66443   0.53713    0.000
 6603.00    0.59153   0.53746    0.000
 6604.00    0.53119   0.53745    0.000
 6605.00    0.52187   0.53703    0.000
 6606.00    0.55342   0.53632    0.000
 6607.00    0.59214   0.53551    0.000
 6608.00    0.60965   0.53493    0.000
 6609.00    0.60023   0.53468    6.520
 6610.00    0.58968   0.53472    6.461
 6611.00    0.59855   0.53525    6.367
 6612.00    0.61428   0.53615    6.234
 6613.00    0.62046   0.53731    6.100
 6614.00    0.61991   0.53854    6.052
 6615.00    0.62287   0.53972    6.100
 6616.00    0.63519   0.54086    6.117
 6617.00    0.64519   0.54169    6.026
 6618.00    0.62167   0.54221    5.920
 6619.00    0.55812   0.54242    5.896
 6620.00    0.49394   0.54225    5.963
 6621.00    0.46433   0.54180    6.088
 6622.00    0.47035   0.54095    6.222
 6623.00    0.49120   0.53985    6.313
 6624.00    0.49811   0.53879    6.325
 6625.00    0.48585   0.53750    6.289
 6626.00    0.48126   0.53626    6.301
 6627.00    0.50095   0.53529    6.399
 6628.00    0.53347   0.53419    6.523
 6629.00    0.56116   0.53321    6.605
 6630.00    0.57257   0.53245    6.626
 6631.00    0.56831   0.53152    6.613
 6632.00    0.56139   0.53071    6.614
 6633.00    0.56812   0.53022    6.601
 6634.00    0.59991   0.52977    6.485
 6635.00    0.64748   0.52958    6.310
 6636.00    0.68333   0.52988    6.230
 6637.00    0.69406   0.53025    6.237
 6638.00    0.68876   0.53060    6.175
 6639.00    0.68489   0.53120    6.054
 6640.00    0.69486   0.53165    6.045
 6641.00    0.70046   0.53163    6.145
 6642.00    0.66493   0.53168    6.178
 6643.00    0.59526   0.53171    6.119
 6644.00    0.53945   0.53137    6.114
 6645.00    0.52229   0.53119    6.194
 6646.00    0.53551   0.53119    6.263
 6647.00    0.56361   0.53112    6.314
 6648.00    0.59390   0.53115    6.416
 6649.00    0.62288   0.53118    6.530
 6650.00    0.65213   0.53118    6.540
 6651.00    0.67512   0.53111    6.480
 6652.00    0.67856   0.53088    6.492
 6653.00    0.65321   0.53066    6.577
 6654.00    0.60191   0.53031    6.624
 6655.00    0.55042   0.52984    6.585
 6656.00    0.52798   0.52943    6.486
 6657.00    0.52526   0.52883    6.376
 6658.00    0.51221   0.52798    6.287
 6659.00    0.48684   0.52720    6.223
 6660.00    0.47043   0.52625    6.169
 6661.00    0.48198   0.52497    6.115
 6662.00    0.52526   0.52396    6.063
 6663.00    0.57617   0.52315    6.015
 6664.00    0.60472   0.52229    5.985
 6665.00    0.61160   0.52203    6.017
 6666.00    0.61328   0.52220    6.127
 6667.00    0.61210   0.52260    6.229
 6668.00    0.59867   0.52349    6.239
 6669.00    0.56236   0.52446    6.265
 6670.00    0.50863   0.52539    6.432
 6671.00    0.47692   0.52625    6.629
 6672.00    0.50142   0.52654    6.665
 6673.00    0.56228   0.52632    6.583
 6674.00    0.61426   0.52576    6.519
 6675.00    0.62728   0.52439    6.474
 6676.00    0.59504   0.52258    6.403
 6677.00    0.53777   0.52101    6.319
 6678.00    0.48229   0.51939    6.262
 6679.00    0.44155   0.51793    6.250
 6680.00    0.41906   0.51732    6.271
 6681.00    0.41507   0.51731    6.277
 6682.00    0.42657   0.51769    6.217
 6683.00    0.44699   0.51864    6.087
 6684.00    0.46902   0.51981    5.950
 6685.00    0.48711   0.52099    5.928
 6686.00    0.49861   0.52211    6.048
 6687.00    0.50440   0.52302    6.138
 6688.00    0.50754   0.52367    6.092
 6689.00    0.51134   0.52407    6.067
 6690.00    0.51234   0.52422    6.178
 6691.00    0.49865   0.52409    6.304
 6692.00    0.47207   0.52381    6.342
 6693.00    0.45775   0.52333    6.385
 6694.00    0.46832   0.52262    6.499
 6695.00    0.48554   0.52203    6.583
 6696.00    0.49133   0.52145    0.000
 6697.00    0.48527   0.52085    0.000
 6698.00    0.47307   0.52062    0.000
 6699.00    0.46080   0.52051    0.000
 6700.00    0.46163   0.52049    0.000
 6701.00    0.49333   0.52072    0.000
 6702.00    0.54791   0.52084    0.000
 6703.00    0.58715   0.52098    0.000
 6704.00    0.59232   0.52117    0.000
 6705.00    0.57932   0.52109    0.000
 6706.00    0.55993   0.52101    0.000
 6707.00    0.53106   0.52094    0.000
 6708.00    0.50311   0.52051    0.000
 6709.00    0.50320   0.52002    0.000
 6710.00    0.54147   0.51939    0.000
 6711.00    0.60660   0.51824    0.000
 6712.00    0.69778   0.51690    0.000
 6713.00    0.82639   0.51535    0.000
 6714.00    0.98114   0.51353    0.000
 6715.00    1.12602   0.51166    0.000
 6716.00    1.23225   0.50993    0.000
 6717.00    1.28301   0.50867    0.000
 6718.00    1.25581   0.50775    0.000
 6719.00    1.13321   0.50728    0.000
 6720.00    0.94722   0.50747    0.000
 6721.00    0.76887   0.50805    0.000
 6722.00    0.64760   0.50896    0.000
 6723.00    0.59866   0.50998    0.000
 6724.00    0.61394   0.51097    0.000
 6725.00    0.66849   0.51207    0.000
 6726.00    0.72920   0.51299    0.000
 6727.00    0.77256   0.51369    0.000
 6728.00    0.81741   0.51440    0.000
 6729.00    0.90132   0.51498    0.000
 6730.00    1.01742   0.51540    0.000
 6731.00    1.11729   0.51574    0.000
 6732.00    1.14359   0.51594    0.000
 6733.00    1.06070   0.51596    0.000
 6734.00    0.89718   0.51587    0.000
 6735.00    0.72324   0.51557    0.000
 6736.00    0.59805   0.51509    0.000
 6737.00    0.54861   0.51451    0.000
 6738.00    0.55217   0.51384    0.000
 6739.00    0.56432   0.51318    0.000
 6740.00    0.56532   0.51244    0.000
 6741.00    0.55151   0.51165    0.000
 6742.00    0.51388   0.51111    0.000
 6743.00    0.45317   0.51054    0.000
 6744.00    0.40210   0.50988    0.000
 6745.00    0.39233   0.50937    0.000
 6746.00    0.41090   0.50887    0.000
 6747.00    0.43076   0.50830    0.000
 6748.00    0.45263   0.50773    0.000
 6749.00    0.48676   0.50739    0.000
 6750.00    0.52763   0.50711    0.000
 6751.00    0.56255   0.50689    0.000
 6752.00    0.58401   0.50721    0.000
 6753.00    0.59283   0.50771    5.699
 6754.00    0.59911   0.50840    5.843
 6755.00    0.61305   0.50957    5.955
 6756.00    0.63601   0.51077    6.062
 6757.00    0.66110   0.51206    6.192
 6758.00    0.67532   0.51345    6.284
 6759.00    0.66895   0.51454    6.294
 6760.00    0.64268   0.51541    6.299
 6761.00    0.60162   0.51609    6.350
 6762.00    0.55045   0.51630    6.377
 6763.00    0.49519   0.51618    6.341
 6764.00    0.44448   0.51582    6.327
 6765.00    0.40741   0.51508    6.380
 6766.00    0.39110   0.51428    6.397
 6767.00    0.39513   0.51362    6.250
 6768.00    0.41142   0.51288    5.901
 6769.00    0.44561   0.51237    5.429
 6770.00    0.52081   0.51235    4.968
 6771.00    0.62136   0.51259    4.617
 6772.00    0.67705   0.51315    4.424
 6773.00    0.65968   0.51404    4.336
 6774.00    0.62203   0.51507    4.223
 6775.00    0.61799   0.51611    4.075
 6776.00    0.65902   0.51701    4.017
 6777.00    0.71289   0.51765    4.021
 6778.00    0.72055   0.51785    3.888
 6779.00    0.67052   0.51756    3.662
 6780.00    0.61467   0.51680    3.616
 6781.00    0.58972   0.51552    3.817
 6782.00    0.59025   0.51398    4.083
 6783.00    0.60039   0.51237    4.261
 6784.00    0.60855   0.51071    4.408
 6785.00    0.61154   0.50932    4.583
 6786.00    0.61423   0.50838    4.742
 6787.00    0.62316   0.50772    4.869
 6788.00    0.64143   0.50741    5.006
 6789.00    0.65999   0.50753    5.143
 6790.00    0.66416   0.50778    5.209
 6791.00    0.66218   0.50800    5.208
 6792.00    0.68044   0.50833    5.220
 6793.00    0.72343   0.50865    5.207
 6794.00    0.76950   0.50883    5.052
 6795.00    0.79302   0.50912    4.782
 6796.00    0.77665   0.50938    4.540
 6797.00    0.72610   0.50966    4.432
 6798.00    0.66456   0.51014    4.501
 6799.00    0.61002   0.51052    4.685
 6800.00    0.57134   0.51098    4.843
 6801.00    0.55230   0.51143    4.945
 6802.00    0.55413   0.51162    5.067
 6803.00    0.57831   0.51193    5.183
 6804.00    0.61837   0.51201    5.195
 6805.00    0.64304   0.51181    5.119
 6806.00    0.61912   0.51183    5.058
 6807.00    0.56011   0.51160    5.046
 6808.00    0.51040   0.51123    5.055
 6809.00    0.49989   0.51113    5.029
 6810.00    0.52746   0.51084    4.952
 6811.00    0.54970   0.51064    4.922
 6812.00    0.53068   0.51054    5.029
 6813.00    0.51892   0.51026    5.170
 6814.00    0.56900   0.51029    5.177
 6815.00    0.61342   0.51039    5.132
 6816.00    0.56240   0.51036    5.188
 6817.00    0.46442   0.51057    5.256
 6818.00    0.42512   0.51082    5.181
 6819.00    0.47227   0.51116    5.044
 6820.00    0.57329   0.51163    4.990
 6821.00    0.67957   0.51201    5.015
 6822.00    0.73805   0.51241    5.077
 6823.00    0.70177   0.51278    5.234
 6824.00    0.57023   0.51306    5.528
 6825.00    0.42542   0.51315    5.796
 6826.00    0.35006   0.51299    5.825
 6827.00    0.34310   0.51289    5.668
 6828.00    0.37112   0.51274    5.469
 6829.00    0.42433   0.51251    5.242
 6830.00    0.49040   0.51231    5.008
 6831.00    0.52937   0.51213    4.878
 6832.00    0.50786   0.51213    4.926
 6833.00    0.43075   0.51208    5.121
 6834.00    0.34027   0.51179    5.364
 6835.00    0.30449   0.51142    5.515
 6836.00    0.34787   0.51081    5.516
 6837.00    0.41073   0.50987    5.491
 6838.00    0.44602   0.50877    5.529
 6839.00    0.48108   0.50745    5.559
 6840.00    0.53911   0.50621    5.520
 6841.00    0.59046   0.50529    5.473
 6842.00    0.60677   0.50459    5.468
 6843.00    0.59381   0.50438    5.478
 6844.00    0.56601   0.50457    5.461
 6845.00    0.53047   0.50506    5.411
 6846.00    0.49135   0.50594    5.361
 6847.00    0.45349   0.50676    5.368
 6848.00    0.42528   0.50747    5.446
 6849.00    0.41724   0.50805    5.539
 6850.00    0.42759   0.50824    5.603
 6851.00    0.43987   0.50818    5.631
 6852.00    0.44614   0.50770    5.562
 6853.00    0.45250   0.50678    5.300
 6854.00    0.45401   0.50599    4.937
 6855.00    0.43474   0.50508    4.677
 6856.00    0.41496   0.50398    4.593
 6857.00    0.44613   0.50329    4.641
 6858.00    0.51500   0.50271    4.784
 6859.00    0.54341   0.50220    5.005
 6860.00    0.52651   0.50213    5.255
 6861.00    0.53964   0.50225    5.448
 6862.00    0.58428   0.50257    5.545
 6863.00    0.58042   0.50296    5.592
 6864.00    0.51763   0.50331    5.616
 6865.00    0.46595   0.50368    5.610
 6866.00    0.45591   0.50383    5.609
 6867.00    0.46342   0.50393    5.671
 6868.00    0.47439   0.50402    5.789
 6869.00    0.49409   0.50386    5.886
 6870.00    0.52048   0.50374    5.903
 6871.00    0.53965   0.50378    5.843
 6872.00    0.53353   0.50386    5.759
 6873.00    0.49123   0.50406    5.708
 6874.00    0.43042   0.50439    5.658
 6875.00    0.38826   0.50487    5.538
 6876.00    0.38976   0.50549    5.389
 6877.00    0.43425   0.50596    5.310
 6878.00    0.48371   0.50630    5.325
 6879.00    0.49244   0.50659    5.398
 6880.00    0.46842   0.50666    5.489
 6881.00    0.45126   0.50660    5.553
 6882.00    0.44939   0.50657    5.552
 6883.00    0.44392   0.50656    5.467
 6884.00    0.41648   0.50652    5.328
 6885.00    0.36431   0.50678    5.207
 6886.00    0.31538   0.50737    5.195
 6887.00    0.30442   0.50796    5.351
 6888.00    0.33300   0.50877    5.595
 6889.00    0.37905   0.50974    5.779
 6890.00    0.42003   0.51056    5.882
 6891.00    0.44000   0.51134    5.961
 6892.00    0.43454   0.51196    5.988
 6893.00    0.40873   0.51230    5.918
 6894.00    0.37353   0.51253    5.812
 6895.00    0.34357   0.51261    5.751
 6896.00    0.33391   0.51258    5.741
 6897.00    0.34538   0.51257    5.742
 6898.00    0.35111   0.51241    5.720
 6899.00    0.33113   0.51239    5.674
 6900.00    0.30895   0.51263    5.663
 6901.00    0.32645   0.51281    5.715
 6902.00    0.41194   0.51307    5.750
 6903.00    0.55400   0.51345    5.700
 6904.00    0.68585   0.51395    5.631
 6905.00    0.74979   0.51449    5.616
 6906.00    0.75253   0.51480    5.631
 6907.00    0.72607   0.51507    5.642
 6908.00    0.69022   0.51530    5.671
 6909.00    0.65137   0.51516    5.718
 6910.00    0.60615   0.51485    5.713
 6911.00    0.56063   0.51430    5.634
 6912.00    0.53881   0.51345    5.575
 6913.00    0.53987   0.51277    5.589
 6914.00    0.51794   0.51201    5.603
 6915.00    0.45570   0.51116    5.563
 6916.00    0.40306   0.51076    5.512
 6917.00    0.40163   0.51039    5.487
 6918.00    0.43990   0.51022    5.463
 6919.00    0.48101   0.51034    5.429
 6920.00    0.48789   0.51028    5.422
 6921.00    0.46236   0.51036    5.466
 6922.00    0.45203   0.51029    5.550
 6923.00    0.47540   0.51005    5.653
 6924.00    0.49594   0.50990    5.759
 6925.00    0.49082   0.50969    5.816
 6926.00    0.47566   0.50952    5.752
 6927.00    0.45720   0.50943    5.644
 6928.00    0.42220   0.50951    5.686
 6929.00    0.38727   0.50970    5.882
 6930.00    0.40067   0.50992    5.986
 6931.00    0.46113   0.51009    5.891
 6932.00    0.50681   0.51041    5.771
 6933.00    0.50167   0.51081    5.724
 6934.00    0.46348   0.51101    5.705
 6935.00    0.44113   0.51127    5.687
 6936.00    0.48341   0.51152    5.688
 6937.00    0.56675   0.51176    5.694
 6938.00    0.60799   0.51205    5.662
 6939.00    0.58076   0.51213    5.624
 6940.00    0.52930   0.51214    5.655
 6941.00    0.49668   0.51208    5.687
 6942.00    0.50013   0.51181    5.576
 6943.00    0.52545   0.51130    5.418
 6944.00    0.54329   0.51096    5.439
 6945.00    0.55413   0.51068    5.605
 6946.00    0.57765   0.51029    5.669
 6947.00    0.59810   0.51019    5.595
 6948.00    0.58040   0.51013    5.553
 6949.00    0.53762   0.51003    5.570
 6950.00    0.51135   0.51015    5.555
 6951.00    0.49610   0.51015    5.505
 6952.00    0.45818   0.51013    5.474
 6953.00    0.40757   0.51034    5.438
 6954.00    0.38506   0.51050    5.348
 6955.00    0.40875   0.51076    5.271
 6956.00    0.46333   0.51122    5.298
 6957.00    0.50122   0.51174    5.362
 6958.00    0.47733   0.51242    5.345
 6959.00    0.40609   0.51324    5.317
 6960.00    0.34443   0.51398    5.408
 6961.00    0.34749   0.51468    5.540
 6962.00    0.43873   0.51541    5.548
 6963.00    0.57796   0.51591    5.473
 6964.00    0.69524   0.51628    5.455
 6965.00    0.74597   0.51668    5.506
 6966.00    0.71938   0.51695    5.560
 6967.00    0.63856   0.51707    5.547
 6968.00    0.54774   0.51707    5.454
 6969.00    0.49411   0.51688    5.356
 6970.00    0.49845   0.51658    5.322
 6971.00    0.52627   0.51608    5.321
 6972.00    0.52945   0.51511    5.315
 6973.00    0.49656   0.51392    5.350
 6974.00    0.45590   0.51253    5.447
 6975.00    0.46616   0.51090    5.488
 6976.00    0.54087   0.50909    5.409
 6977.00    0.58664   0.50741    5.382
 6978.00    0.52906   0.50638    5.527
 6979.00    0.42580   0.50576    5.661
 6980.00    0.36998   0.50567    5.586
 6981.00    0.39587   0.50633    5.422
 6982.00    0.47618   0.50744    5.336
 6983.00    0.53567   0.50908    5.342
 6984.00    0.53177   0.51076    5.382
 6985.00    0.50600   0.51226    5.384
 6986.00    0.49961   0.51370    5.336
 6987.00    0.49612   0.51466    5.328
 6988.00    0.47675   0.51526    5.388
 6989.00    0.45679   0.51563    5.412
 6990.00    0.45350   0.51572    5.360
 6991.00    0.46562   0.51569    5.354
 6992.00    0.48629   0.51550    5.428
 6993.00    0.51034   0.51535    5.416
 6994.00    0.52618   0.51520    5.262
 6995.00    0.51510   0.51491    5.141
 6996.00    0.47371   0.51454    5.154
 6997.00    0.42298   0.51397    5.237
 6998.00    0.39090   0.51334    5.330
 6999.00    0.39881   0.51275    5.437
 7000.00    0.44099   0.51206    5.534
 7001.00    0.48668   0.51134   -2.000
 7002.00    0.53148   0.51065   -2.000
 7003.00    0.60077   0.51016   -2.000
 7004.00    0.66583   0.50986   -2.000
 7005.00    0.64227   0.50964   -2.000
 7006.00    0.52448   0.50954   -2.000
 7007.00    0.40657   0.50964   -2.000
 7008.00    0.35748   0.50984   -2.000
 7009.00    0.38292   0.50990   -2.000
 7010.00    0.46149   0.50996   -2.000
 7011.00    0.56010   0.50995   -2.000
 7012.00    0.63994   0.50973   -2.000
 7013.00    0.66793   0.50933   -2.000
 7014.00    0.64505   0.50862   -2.000
 7015.00    0.60559   0.50814   -2.000
 7016.00    0.58895   0.50793   -2.000
 7017.00    0.62028   0.50759   -2.000
 7018.00    0.68212   0.50757   -2.000
 7019.00    0.72753   0.50785   -2.000
 7020.00    0.73259   0.50825   -2.000
 7021.00    0.70317   0.50874   -2.000
 7022.00    0.65750   0.50904   -2.000
 7023.00    0.61071   0.50941   -2.000
 7024.00    0.55129   0.50987   -2.000
 7025.00    0.46755   0.51011   -2.000
 7026.00    0.41204   0.51035   -2.000
 7027.00    0.44378   0.51076   -2.000
 7028.00    0.49066   0.51126   -2.000
 7029.00    0.43448   0.51187   -2.000
 7030.00    0.31672   0.51239   -2.000
 7031.00    0.26228   0.51289   -2.000
 7032.00    0.27983   0.51343   -2.000
 7033.00    0.30818   0.51376   -2.000
 7034.00    0.34982   0.51405   -2.000
 7035.00    0.43905   0.51425   -2.000
 7036.00    0.55880   0.51427   -2.000
 7037.00    0.66100   0.51466   -2.000
 7038.00    0.71548   0.51541   -2.000
 7039.00    0.71249   0.51623   -2.000
 7040.00    0.65654   0.51739   -2.000
 7041.00    0.57274   0.51875   -2.000
 7042.00    0.51314   0.52025   -2.000
 7043.00    0.51388   0.52183   -2.000
 7044.00    0.54489   0.52317   -2.000
 7045.00    0.55286   0.52418   -2.000
 7046.00    0.51807   0.52488   -2.000
 7047.00    0.45711   0.52499   -2.000
 7048.00    0.41506   0.52442   -2.000
 7049.00    0.41867   0.52332   -2.000
 7050.00    0.43399   0.52146   -2.000
 7051.00    0.41973   0.51892   -2.000
 7052.00    0.38138   0.51597   -2.000
 7053.00    0.35620   0.51257   -2.000
 7054.00    0.38966   0.50913   -2.000
 7055.00    0.48673   0.50575   -2.000
 7056.00    0.58004   0.50245   -2.000
 7057.00    0.60381   0.49963   -2.000
 7058.00    0.55447   0.49716   -2.000
 7059.00    0.47722   0.49522   -2.000
 7060.00    0.44272   0.49377   -2.000
 7061.00    0.47512   0.49248   -2.000
 7062.00    0.51495   0.49162   -2.000
 7063.00    0.51517   0.49100   -2.000
 7064.00    0.49734   0.49043   -2.000
 7065.00    0.47981   0.49014   -2.000
 7066.00    0.43995   0.48983   -2.000
 7067.00    0.37627   0.48978   -2.000
 7068.00    0.33552   0.49012   -2.000
 7069.00    0.34636   0.49047   -2.000
 7070.00    0.38874   0.49111   -2.000
 7071.00    0.43675   0.49204   -2.000
 7072.00    0.48306   0.49308   -2.000
 7073.00    0.54063   0.49428   -2.000
 7074.00    0.63196   0.49540   -2.000
 7075.00    0.73816   0.49633   -2.000
 7076.00    0.79215   0.49711   -2.000
 7077.00    0.75344   0.49753   -2.000
 7078.00    0.64029   0.49752   -2.000
 7079.00    0.52162   0.49717   -2.000
 7080.00    0.48351   0.49622   -2.000
 7081.00    0.51853   0.49475   -2.000
 7082.00    0.52450   0.49276   -2.000
 7083.00    0.45525   0.49029   -2.000
 7084.00    0.35954   0.48772   -2.000
 7085.00    0.31986   0.48470   -2.000
 7086.00    0.39460   0.48155   -2.000
 7087.00    0.50919   0.47870   -2.000
 7088.00    0.50446   0.47597   -2.000
 7089.00    0.38195   0.47370   -2.000
 7090.00    0.29663   0.47186   -2.000
 7091.00    0.32466   0.47021   -2.000
 7092.00    0.41716   0.46933   -2.000
 7093.00    0.46057   0.46878   -2.000
 7094.00    0.36215   0.46850   -2.000
 7095.00    0.21347   0.46878   -2.000
 7096.00    0.20093   0.46909   -2.000
 7097.00    0.30672   0.46993   -2.000
 7098.00    0.36615   0.47082   -2.000
 7099.00    0.34760   0.47169   -2.000
 7100.00    0.33100   0.47276   -2.000
 7101.00    0.33435   0.47364   -2.000
 7102.00    0.31814   0.47469   -2.000
 7103.00    0.26543   0.47548   -2.000
 7104.00    0.19343   0.47603   -2.000
 7105.00    0.14381   0.47650   -2.000
 7106.00    0.15658   0.47682   -2.000
 7107.00    0.22885   0.47705   -2.000
 7108.00    0.31959   0.47705   -2.000
 7109.00    0.37064   0.47692   -2.000
 7110.00    0.34552   0.47682   -2.000
 7111.00    0.28046   0.47684   -2.000
 7112.00    0.24219   0.47690   -2.000
 7113.00    0.25633   0.47699   -2.000
 7114.00    0.30311   0.47729   -2.000
 7115.00    0.32892   0.47771   -2.000
 7116.00    0.30185   0.47820   -2.000
 7117.00    0.27463   0.47867   -2.000
 7118.00    0.30552   0.47891   -2.000
 7119.00    0.35966   0.47907   -2.000
 7120.00    0.37712   0.47892   -2.000
 7121.00    0.35961   0.47852   -2.000
 7122.00    0.33427   0.47791   -2.000
 7123.00    0.30723   0.47677   -2.000
 7124.00    0.28531   0.47547   -2.000
 7125.00    0.29779   0.47403   -2.000
 7126.00    0.34812   0.47246   -2.000
 7127.00    0.37471   0.47093   -2.000
 7128.00    0.33067   0.46925   -2.000
 7129.00    0.25254   0.46779   -2.000
 7130.00    0.21001   0.46690   -2.000
 7131.00    0.25249   0.46626   -2.000
 7132.00    0.35726   0.46598   -2.000
 7133.00    0.41070   0.46616   -2.000
 7134.00    0.35781   0.46659   -2.000
 7135.00    0.29066   0.46754   -2.000
 7136.00    0.27164   0.46852   -2.000
 7137.00    0.23128   0.46943   -2.000
 7138.00    0.14721   0.47047   -2.000
 7139.00    0.13357   0.47133   -2.000
 7140.00    0.22861   0.47205   -2.000
 7141.00    0.29941   0.47251   -2.000
 7142.00    0.28280   0.47283   -2.000
 7143.00    0.28811   0.47297   -2.000
 7144.00    0.36304   0.47303   -2.000
 7145.00    0.39767   0.47292   -2.000
 7146.00    0.31627   0.47259   -2.000
 7147.00    0.16332   0.47260   -2.000
 7148.00    0.02063   0.47273   -2.000
 7149.00   -0.04983   0.47297   -2.000
 7150.00   -0.06801   0.47369   -2.000
 7151.00   -0.12759   0.47454   -2.000
 7152.00   -0.24487   0.47578   -2.000
 7153.00   -0.32133   0.47726   -2.000
 7154.00   -0.25853   0.47862   -2.000
 7155.00   -0.03197   0.48009   -2.000
 7156.00    0.21797   0.48110   -2.000
 7157.00    0.25721   0.48170   -2.000
 7158.00    0.12020   0.48193   -2.000
 7159.00    0.09168   0.48156   -2.000
 7160.00    0.22034   0.48105   -2.000
 7161.00    0.29099   0.47958   -2.000
 7162.00    0.25147   0.47792   -2.000
 7163.00    0.24820   0.47629   -2.000
 7164.00    0.32927   0.47457   -2.000
 7165.00    0.41283   0.47346   -2.000
 7166.00    0.44737   0.47217   -2.000
 7167.00    0.43227   0.47151   -2.000
 7168.00    0.35285   0.47142   -2.000
 7169.00    0.20618   0.47176   -2.000
 7170.00    0.10141   0.47254   -2.000
 7171.00    0.17565   0.47324   -2.000
 7172.00    0.35275   0.47391   -2.000
 7173.00    0.42948   0.47448   -2.000
 7174.00    0.37558   0.47480   -2.000
 7175.00    0.29895   0.47493   -2.000
 7176.00    0.24470   0.47481   -2.000
 7177.00    0.20592   0.47430   -2.000
 7178.00    0.22097   0.47361   -2.000
 7179.00    0.33645   0.47288   -2.000
 7180.00    0.51002   0.47217   -2.000
 7181.00    0.64396   0.47167   -2.000
 7182.00    0.67201   0.47102   -2.000
 7183.00    0.59993   0.47029   -2.000
 7184.00    0.53929   0.46979   -2.000
 7185.00    0.58827   0.46915   -2.000
 7186.00    0.65585   0.46871   -2.000
 7187.00    0.59842   0.46828   -2.000
 7188.00    0.44132   0.46768   -2.000
 7189.00    0.29944   0.46744   -2.000
 7190.00    0.23229   0.46709   -2.000
 7191.00    0.24096   0.46708   -2.000
 7192.00    0.28921   0.46742   -2.000
 7193.00    0.32615   0.46776   -2.000
 7194.00    0.31288   0.46832   -2.000
 7195.00    0.26066   0.46863   -2.000
 7196.00    0.25955   0.46910   -2.000
 7197.00    0.36103   0.46958   -2.000
 7198.00    0.46697   0.46986   -2.000
 7199.00    0.48288   0.47004   -2.000
 7200.00    0.46406   0.46987   -2.000
 7201.00    0.46745   0.46987   -2.000
 7202.00    0.41993   0.46981   -2.000
 7203.00    0.28099   0.46945   -2.000
 7204.00    0.17425   0.46903   -2.000
 7205.00    0.21338   0.46833   -2.000
 7206.00    0.35869   0.46795   -2.000
 7207.00    0.48423   0.46774   -2.000
 7208.00    0.45593   0.46744   -2.000
 7209.00    0.26544   0.46748   -2.000
 7210.00    0.09300   0.46752   -2.000
 7211.00    0.08812   0.46802   -2.000
 7212.00    0.22929   0.46889   -2.000
 7213.00    0.41626   0.46973   -2.000
 7214.00    0.54432   0.47077   -2.000
 7215.00    0.55797   0.47167   -2.000
 7216.00    0.47796   0.47258   -2.000
 7217.00    0.38020   0.47345   -2.000
 7218.00    0.36239   0.47424   -2.000
