###################################################################
## OUTPUT of StarlightChains_v04.for    [Cid@UFSC - 01/Apr/2007] ##
###################################################################

## Some input info
2017cio.txt                              [arq_obs]
Base.CB07.vall.4m                        [arq_base]
Masks.EmLines.NEW.gm                     [arq_masks]
StCv04.C11.config                        [arq_config]
   66                                    [N_base]
    0                                    [N_YAV_components = # of components with extra extinction!]
    0                                    [i_FitPowerLaw (1/0 = Yes/No)]
-9.99                                    [alpha_PowerLaw]
CCM                                      [red_law_option]
 1.458241                                [q_norm = A(l_norm)/A(V)]

## (Re)Sampling Parameters
 3741.00                                 [l_ini (A)]
 7218.00                                 [l_fin (A)]
    1.00                                 [dl    (A)]     (OBS: dl_cushion =    50.00 A)

## Normalization info
 4020.00                                 [l_norm (A) - for base]
 4010.00                                 [llow_norm (A) - window for f_obs]
 4060.00                                 [lupp_norm (A) - window for f_obs]
4.886733E-17                             [fobs_norm (in input units)]

## S/N
 3691.00                                 [llow_SN (A) - window for S/N]
 7268.00                                 [lupp_SN (A) - window for S/N]
   3.403                                 [S/N in S/N window]
   5.442                                 [S/N in norm. window]
   3.259                                 [S/N_err in S/N window]
   5.211                                 [S/N_err in norm. window]
  1.0000                                 [fscale_chi2]

## etc...
    -2007438                             [idum_orig]
  2384                                   [NOl_eff]
  2383                                   [Nl_eff]
     1    NSIGMA                         [Ntot_cliped & clip_method]
   582330                                [Nglobal_steps]
   7                                     [N_chains]
  15                                     [NEX0s_base = N_base in EX0s-fits]
 0   0   1       51   2.0   1.211E+01    [Clip-Bug, RC-Crash & Burn-In warning-flags, n_censored_weights, wei_nsig_threshold & wei_limit]
    10     10.839     10.347      0.492  [idt_all, wdt_TotTime, wdt_UsrTime & wdt_SysTime (sec)]

## Synthesis Results - Best model ##

 1.86692E-01                             [chi2/Nl_eff]
    10.16832                             [adev (%)]

    95.96737                             [sum-of-x (%)]
 7.96439E-17                             [Flux_tot (units of input spectrum!)]
 1.42942E-14                             [Mini_tot (???)]
 1.14933E-14                             [Mcor_tot (???)]

-179.90                                  [v0_min  (km/s)]
 155.62                                  [vd_min  (km/s)]
 0.3943                                  [AV_min  (mag)]
 0.0000                                  [YAV_min (mag)]

# j     x_j(%)      Mini_j(%)     Mcor_j(%)     age_j(yr)     Z_j      (L/M)_j    YAV?  Mstars   component_j        a/Fe...       SSP_chi2r SSP_adev(%)   SSP_AV   SSP_x(%)
  1      0.0000     0.0000E+00    0.0000E+00    1.000000E+06  0.00400  1.094E-02    0   1.0000   age020_m42            0.0000     2.4024E-01    11.5542   1.8818    84.1706
  2      0.0000     0.0000E+00    0.0000E+00    3.160000E+06  0.00400  4.007E-02    0   0.9999   age045_m42            0.0000     2.2499E-01    11.1280   1.1848    88.8062
  3      0.0000     0.0000E+00    0.0000E+00    5.010000E+06  0.00400  2.539E-02    0   0.9488   age055_m42            0.0000     2.2893E-01    11.2133   1.4908    87.1800
  4      0.0023     5.1676E-04    5.9256E-04    6.610000E+06  0.00400  2.620E-02    0   0.9220   age061_m42            0.0000     2.2082E-01    11.0564   1.1094    89.0925
  5      0.0000     0.0000E+00    0.0000E+00    1.000000E+07  0.00400  1.322E-02    0   0.8862   age070_m42            0.0000     1.9823E-01    10.4245   0.8011    92.2119
  6      0.0000     0.0000E+00    0.0000E+00    1.445000E+07  0.00400  7.883E-03    0   0.8571   age078_m42            0.0000     2.0336E-01    10.5620   1.1227    90.0853
  7      0.0000     0.0000E+00    0.0000E+00    2.512000E+07  0.00400  5.251E-03    0   0.8174   age090_m42            0.0000     1.9447E-01    10.3198   0.6682    92.8820
  8     43.6044     6.9379E+01    6.7743E+01    4.000000E+07  0.00400  3.649E-03    0   0.7851   age104_m42            0.0000     1.9510E-01    10.3562   0.4471    93.3586
  9      0.0000     0.0000E+00    0.0000E+00    5.500000E+07  0.00400  3.098E-03    0   0.7629   age110_m42            0.0000     2.0331E-01    10.6410   0.6181    92.5792
 10      0.0000     0.0000E+00    0.0000E+00    1.015200E+08  0.00400  2.228E-03    0   0.7207   age116_m42            0.0000     2.0983E-01    10.8815   0.6502    92.2280
 11      0.0000     0.0000E+00    0.0000E+00    2.861200E+08  0.00400  1.093E-03    0   0.6648   age125_m42            0.0000     2.0615E-01    10.7883   0.0772    95.1440
 12      0.0000     0.0000E+00    0.0000E+00    5.088000E+08  0.00400  6.597E-04    0   0.6365   age130_m42            0.0000     2.1640E-01    11.1820   0.0868    95.0415
 13      0.0000     0.0000E+00    0.0000E+00    1.434000E+09  0.00400  2.132E-04    0   0.5798   age139_m42            0.0000     2.2463E-01    11.5229  -0.8684    96.1237
 14      0.0000     0.0000E+00    0.0000E+00    4.250000E+09  0.00400  5.895E-05    0   0.5377   age158_m42            0.0000     2.8388E-01    13.2847  -1.0000    81.3881
 15      0.0000     0.0000E+00    0.0000E+00    7.500000E+09  0.00400  3.510E-05    0   0.5212   age171_m42            0.0000     3.4701E-01    14.7281  -1.0000    74.5534
 16      0.0000     0.0000E+00    0.0000E+00    1.300000E+10  0.00400  2.005E-05    0   0.5034   age193_m42            0.0000     4.1872E-01    16.1235  -1.0000    68.9115
 17      0.0000     0.0000E+00    0.0000E+00    1.800000E+10  0.00400  1.525E-05    0   0.4967   age213_m42            0.0000     4.2841E-01    16.2961  -1.0000    67.8919
 18      0.0000     0.0000E+00    0.0000E+00    1.000000E+06  0.00800  1.238E-02    0   1.0000   age020_m52            0.0000     2.4047E-01    11.5579   1.8782    84.3330
 19      0.0000     0.0000E+00    0.0000E+00    3.160000E+06  0.00800  3.074E-02    0   0.9966   age045_m52            0.0000     2.4019E-01    11.5310   1.8047    84.9573
 20      0.0000     0.0000E+00    0.0000E+00    5.010000E+06  0.00800  2.668E-02    0   0.9443   age055_m52            0.0000     2.2965E-01    11.2356   1.5676    86.6236
 21      0.0000     0.0000E+00    0.0000E+00    6.610000E+06  0.00800  2.136E-02    0   0.9177   age061_m52            0.0000     2.0162E-01    10.4944   0.3009    93.2179
 22      0.0000     0.0000E+00    0.0000E+00    1.000000E+07  0.00800  1.215E-02    0   0.8827   age070_m52            0.0000     1.9558E-01    10.3530   0.9674    92.5702
 23      0.0000     0.0000E+00    0.0000E+00    1.445000E+07  0.00800  8.717E-03    0   0.8552   age078_m52            0.0000     2.0136E-01    10.5060   1.0885    91.3104
 24      0.0000     0.0000E+00    0.0000E+00    2.512000E+07  0.00800  5.592E-03    0   0.8162   age090_m52            0.0000     1.9359E-01    10.3009   0.7308    94.0111
 25      0.0000     0.0000E+00    0.0000E+00    4.000000E+07  0.00800  3.896E-03    0   0.7841   age104_m52            0.0000     1.9606E-01    10.3943   0.6544    94.2368
 26      0.0000     0.0000E+00    0.0000E+00    1.015200E+08  0.00800  2.148E-03    0   0.7226   age116_m52            0.0000     2.0397E-01    10.6879   0.6106    93.2913
 27      0.0000     0.0000E+00    0.0000E+00    2.861200E+08  0.00800  9.925E-04    0   0.6683   age125_m52            0.0000     2.1484E-01    11.1581   0.1515    95.9400
 28      0.2379     4.3974E+00    3.3569E+00    9.047900E+08  0.00800  3.141E-04    0   0.6138   age135_m52            0.0000     2.3812E-01    12.0232  -0.6106    98.1780
 29      0.0000     0.0000E+00    0.0000E+00    1.434000E+09  0.00800  1.719E-04    0   0.5853   age139_m52            0.0000     2.6044E-01    12.7232  -1.0000    89.0009
 30      0.0000     0.0000E+00    0.0000E+00    2.500000E+09  0.00800  7.872E-05    0   0.5600   age150_m52            0.0000     3.4392E-01    14.7644  -1.0000    77.2613
 31      0.0000     0.0000E+00    0.0000E+00    4.250000E+09  0.00800  4.336E-05    0   0.5426   age158_m52            0.0000     3.5159E-01    14.8744  -1.0000    76.0336
 32      0.0000     0.0000E+00    0.0000E+00    6.250000E+09  0.00800  3.159E-05    0   0.5319   age166_m52            0.0000     4.4021E-01    16.6123  -1.0000    69.5016
 33      0.0000     0.0000E+00    0.0000E+00    1.300000E+10  0.00800  1.361E-05    0   0.5073   age193_m52            0.0000     6.9784E-01    20.7762  -1.0000    55.5507
 34      0.0000     0.0000E+00    0.0000E+00    1.800000E+10  0.00800  9.886E-06    0   0.4990   age213_m52            0.0000     7.6882E-01    21.7580  -1.0000    52.5191
 35      0.0000     0.0000E+00    0.0000E+00    1.000000E+06  0.02000  1.544E-02    0   1.0000   age020_m62            0.0000     2.4126E-01    11.5780   1.8736    84.5492
 36      0.0000     0.0000E+00    0.0000E+00    3.160000E+06  0.02000  3.762E-02    0   0.9858   age045_m62            0.0000     2.4254E-01    11.5992   1.8138    85.2374
 37      0.0000     0.0000E+00    0.0000E+00    5.010000E+06  0.02000  3.296E-02    0   0.9342   age055_m62            0.0000     2.3012E-01    11.2710   1.4575    87.9709
 38     52.1228     2.6224E+01    2.8899E+01    8.710000E+06  0.02000  1.154E-02    0   0.8861   age067_m62            0.0000     1.9282E-01    10.4973   0.3599    97.9686
 39      0.0000     0.0000E+00    0.0000E+00    1.445000E+07  0.02000  7.663E-03    0   0.8472   age078_m62            0.0000     1.9075E-01    10.2526   0.5975    95.4253
 40      0.0000     0.0000E+00    0.0000E+00    2.512000E+07  0.02000  4.532E-03    0   0.8099   age090_m62            0.0000     1.9065E-01    10.2514   0.5891    95.2103
 41      0.0000     0.0000E+00    0.0000E+00    5.500000E+07  0.02000  2.733E-03    0   0.7595   age110_m62            0.0000     1.9704E-01    10.4239   0.6337    93.6876
 42      0.0000     0.0000E+00    0.0000E+00    1.609000E+08  0.02000  1.369E-03    0   0.6985   age120_m62            0.0000     2.0824E-01    10.9043   0.5016    94.9471
 43      0.0000     0.0000E+00    0.0000E+00    2.861200E+08  0.02000  9.013E-04    0   0.6714   age125_m62            0.0000     2.1719E-01    11.2991   0.2679    96.8778
 44      0.0000     0.0000E+00    0.0000E+00    5.088000E+08  0.02000  5.028E-04    0   0.6449   age130_m62            0.0000     2.3735E-01    12.0597  -0.0784    97.9559
 45      0.0000     0.0000E+00    0.0000E+00    9.047900E+08  0.02000  2.428E-04    0   0.6179   age135_m62            0.0000     2.5186E-01    12.3618  -0.6532    96.8106
 46      0.0000     0.0000E+00    0.0000E+00    1.434000E+09  0.02000  1.263E-04    0   0.5908   age139_m62            0.0000     2.6990E-01    12.8530  -1.0000    91.6909
 47      0.0000     0.0000E+00    0.0000E+00    2.500000E+09  0.02000  5.985E-05    0   0.5673   age150_m62            0.0000     3.6488E-01    15.1742  -1.0000    77.5167
 48      0.0000     0.0000E+00    0.0000E+00    4.250000E+09  0.02000  3.271E-05    0   0.5468   age158_m62            0.0000     5.0229E-01    17.7261  -1.0000    67.0884
 49      0.0000     0.0000E+00    0.0000E+00    1.000000E+10  0.02000  1.360E-05    0   0.5167   age181_m62            0.0000     6.9981E-01    20.7654  -1.0000    56.8472
 50      0.0000     0.0000E+00    0.0000E+00    1.800000E+10  0.02000  7.124E-06    0   0.5013   age213_m62            0.0000     8.3476E-01    22.5893  -1.0000    51.0402
 51      0.0000     0.0000E+00    0.0000E+00    1.000000E+06  0.05000  2.592E-02    0   0.9998   age020_m72            0.0000     2.4213E-01    11.6067   1.8626    84.6765
 52      0.0000     0.0000E+00    0.0000E+00    3.160000E+06  0.05000  4.845E-02    0   0.9577   age045_m72            0.0000     2.3976E-01    11.4940   1.7065    85.9887
 53      0.0000     0.0000E+00    0.0000E+00    5.010000E+06  0.05000  3.072E-02    0   0.9147   age055_m72            0.0000     2.0688E-01    10.6933   1.1958    91.2476
 54      0.0000     0.0000E+00    0.0000E+00    6.610000E+06  0.05000  1.455E-02    0   0.8877   age061_m72            0.0000     2.3653E-01    11.5578   0.3850    99.9865
 55      0.0000     0.0000E+00    0.0000E+00    1.000000E+07  0.05000  9.074E-03    0   0.8524   age070_m72            0.0000     2.2142E-01    11.0500   1.3827    90.9145
 56      0.0000     0.0000E+00    0.0000E+00    2.512000E+07  0.05000  4.250E-03    0   0.7902   age090_m72            0.0000     2.0589E-01    10.6275   1.0880    92.3390
 57      0.0000     0.0000E+00    0.0000E+00    4.000000E+07  0.05000  3.087E-03    0   0.7618   age104_m72            0.0000     2.0405E-01    10.5896   0.8592    93.8944
 58      0.0000     0.0000E+00    0.0000E+00    1.015200E+08  0.05000  1.700E-03    0   0.7096   age116_m72            0.0000     2.0372E-01    10.7421   0.6315    95.1106
 59      0.0000     0.0000E+00    0.0000E+00    2.861200E+08  0.05000  7.384E-04    0   0.6633   age125_m72            0.0000     2.2766E-01    11.6968   0.1522    97.4204
 60      0.0000     0.0000E+00    0.0000E+00    5.088000E+08  0.05000  3.819E-04    0   0.6372   age130_m72            0.0000     2.4736E-01    12.3158  -0.3174    97.8827
 61      0.0000     0.0000E+00    0.0000E+00    9.047900E+08  0.05000  1.676E-04    0   0.6110   age135_m72            0.0000     2.8944E-01    13.2398  -0.9845    94.8490
 62      0.0000     0.0000E+00    0.0000E+00    1.434000E+09  0.05000  8.837E-05    0   0.5874   age139_m72            0.0000     3.7300E-01    15.3401  -1.0000    78.5864
 63      0.0000     0.0000E+00    0.0000E+00    2.500000E+09  0.05000  4.233E-05    0   0.5598   age150_m72            0.0000     5.1100E-01    17.8755  -1.0000    67.6248
 64      0.0000     0.0000E+00    0.0000E+00    6.250000E+09  0.05000  1.435E-05    0   0.5249   age166_m72            0.0000     7.6271E-01    21.6469  -1.0000    54.0526
 65      0.0000     0.0000E+00    0.0000E+00    1.300000E+10  0.05000  6.513E-06    0   0.5036   age193_m72            0.0000     9.4901E-01    24.0629  -1.0000    47.6822
 66      0.0000     0.0000E+00    0.0000E+00    1.800000E+10  0.05000  4.527E-06    0   0.4945   age213_m72            0.0000     1.0617E+00    25.4222  -1.0000    43.9799


## Synthesis Results - Average & Chains ##

# j      x_j: min, <> & last-chain-values for 1 ...  7 chains
  1      0.0000      0.2806      0.0000      0.0000      0.0000      0.0000      0.0000      0.0000      2.3929
  2      0.0000      1.0829      0.0000      2.4491      2.1657      0.0000      3.0084      0.0000      0.0000
  3      0.0000      0.7088      2.0552      0.3461      0.0000      0.0000      0.0000      0.0000      0.0000
  4      0.0023      0.7962      0.5414      0.0000      0.0000      0.0000      0.0000      0.1642      0.0000
  5      0.0000      3.4276     16.3001      0.0000      0.0000      0.0000     19.8720      2.2312      0.0000
  6      0.0000      1.0430      4.6654      9.6337      0.0000      0.0000      0.0000      0.0000      1.0366
  7      0.0000      5.1799      0.0000     18.7301      0.0000      0.1715      0.0000      0.0000      0.0000
  8     43.6044      3.6881      8.2495      0.0000      5.5665      0.0000      0.0000      2.6915      4.8545
  9      0.0000      4.1898      0.0000      0.0000      2.8421     16.0475      0.0000     14.6543      0.0000
 10      0.0000      2.6782      0.4086      0.0000      1.6874      0.0000      0.0000      0.0000      5.1157
 11      0.0000      0.4560      0.0000      0.0000      0.0432      4.3116      0.0000      0.8706      0.0000
 12      0.0000      0.5253      0.0000      0.0000      0.0000      0.0000      0.0000      0.0000      0.2430
 13      0.0000      0.0599      0.0000      0.0000      0.0000      0.0000      0.0000      0.0000      0.0000
 14      0.0000      0.0493      0.2058      0.0000      0.0000      0.0000      0.0000      0.0000      0.0000
 15      0.0000      0.0116      0.0000      0.0000      0.0000      0.0000      0.0000      0.0000      0.0000
 16      0.0000      0.0023      0.0000      0.0000      0.0000      0.0000      0.0000      0.0000      0.0000
 17      0.0000      0.0406      0.0000      0.0000      0.0000      0.0000      0.0000      0.0000      0.0000
 18      0.0000      0.5507      0.0000      0.8624      0.0000      0.0000      0.0000      0.0000      3.0264
 19      0.0000      0.3401      0.0000      0.0000      0.0000      0.0000      4.3288      0.0000      0.4378
 20      0.0000      0.3688      0.0000      0.0000      0.0000      0.0000      0.0000      1.2541      0.0000
 21      0.0000      2.1624      0.6981      1.2100      4.6538      0.6810      1.1059      0.0000      0.0000
 22      0.0000      2.2359      0.0000      0.0000      0.0000      9.1642      1.2221      0.0000      0.6799
 23      0.0000      1.0242      0.0000      0.0000      0.1987      1.0289      0.0000      7.7188      2.0568
 24      0.0000      4.1314     13.5691      0.0000      0.0000      0.0000      0.0000      6.6467     10.4095
 25      0.0000      5.7014      0.0000      0.0000     18.8940      1.1272      0.0000      0.0000      0.0000
 26      0.0000      2.6336      2.4551     14.0095      5.4999      0.0000      0.0000      0.0000     10.9590
 27      0.0000      1.2280      1.3444      3.7320      0.0000      0.0000      0.0000      1.0664      3.3750
 28      0.2379      0.0611      1.0615      0.0000      0.0000      0.0000      0.0549      0.0000      1.1928
 29      0.0000      0.0566      0.9447      0.0000      0.0000      0.0000      0.0000      0.0000      0.0000
 30      0.0000      0.0062      0.2799      0.0952      0.0000      0.0000      0.0000      0.0000      0.0000
 31      0.0000      0.0159      0.0000      0.0000      0.0000      0.0000      0.0000      0.0000      0.0000
 32      0.0000      0.0380      0.0000      0.0000      0.0000      0.0000      0.0000      0.0000      0.0000
 33      0.0000      0.0070      0.0000      0.0000      0.0000      0.0000      0.0000      0.0000      0.0000
 34      0.0000      0.0010      0.0000      0.0000      0.0000      0.0000      0.0000      0.0000      0.0000
 35      0.0000      0.3275      0.2928      0.0000      0.0000      0.0000      0.0000      1.2580      0.0000
 36      0.0000      0.2555      0.0000      0.0000      0.0000      5.0412      0.0000      0.0000      0.0000
 37      0.0000      0.5928      0.0000      0.0000      1.3489      0.0000      0.0000      0.0000      0.0000
 38     52.1228     13.3572     26.5682     34.3434     33.2004     29.2227     30.0136     28.8254     26.9501
 39      0.0000      8.4094      0.0000      0.0000      4.6206      5.3761      7.4103     15.8248     11.5202
 40      0.0000      7.2610     11.8100      0.0000      1.3778     11.8479     20.2183      4.3642      0.0000
 41      0.0000      4.2511      0.0000      0.0000      0.0000      3.8168      2.0231      0.0000      0.0000
 42      0.0000      1.2540      0.0000      1.1403      2.1160      0.0000      2.7189      0.0000      3.5044
 43      0.0000      1.0991      0.0000      0.0000      0.0000      0.0000      1.7034      0.5953      0.0000
 44      0.0000      0.3584      0.0000      0.0000      0.0000      0.0000      0.0000      0.0000      0.0000
 45      0.0000      0.1439      0.0000      0.0000      0.0000      0.0000      0.0000      0.0000      0.0000
 46      0.0000      0.0558      0.0000      0.0000      0.0620      0.0000      0.0000      0.0000      0.0000
 47      0.0000      0.0013      0.0000      0.0000      0.0000      0.0203      0.0000      0.0000      0.0000
 48      0.0000      0.0171      0.0000      0.0000      0.0000      0.0000      0.0730      0.0000      0.0000
 49      0.0000      0.0144      0.0000      0.0000      0.0000      0.0000      0.2258      0.0000      0.0000
 50      0.0000      0.0041      0.0000      0.0000      0.0000      0.0000      0.0000      0.0000      0.1782
 51      0.0000      0.2511      0.0000      0.0511      0.0524      1.4499      0.0000      0.0000      0.0000
 52      0.0000      0.2286      2.3758      0.0000      0.0000      0.7097      0.0000      0.0000      0.0000
 53      0.0000      0.6739      0.0000      0.0000      0.0000      0.5096      0.0000      0.0000      0.0000
 54      0.0000      5.2357      0.0000      6.3015      4.7318      0.0000      0.0000      0.0000      0.0000
 55      0.0000      0.2983      0.0000      0.0000      0.0000      1.4371      0.2911      0.0000      0.0000
 56      0.0000      1.2087      0.0000      0.0000      0.0000      0.0000      0.0000      3.3797      0.0000
 57      0.0000      1.2349      0.4187      1.7060      0.0000      0.0000      0.0000      0.0000      4.8390
 58      0.0000      2.2762      0.5532      0.0000      5.8878      2.2549      0.0000      0.0000      0.7579
 59      0.0000      0.4304      0.0000      0.0000      0.0000      0.0000      0.0000      2.2632      0.0000
 60      0.0000      0.3751      0.0000      0.0000      0.0000      0.0000      0.0000      0.0000      0.0000
 61      0.0000      0.0563      0.0000      0.0000      0.0000      0.2763      0.0000      0.0000      0.0000
 62      0.0000      0.0460      0.0000      0.0000      0.0000      0.0000      0.0000      0.0000      0.3162
 63      0.0000      0.0167      0.0000      0.0000      0.0000      0.0000      0.0000      0.0000      0.0000
 64      0.0000      0.0102      0.0000      0.0000      0.0000      0.0000      0.0000      0.0000      0.0000
 65      0.0000      0.0078      0.0000      0.0000      0.0000      0.0000      0.0000      0.0000      0.0000
 66      0.0000      0.0063      0.0000      0.0000      0.0000      0.0000      0.0000      0.0000      0.0000

# j      m_j: min, <> & last-chain-values for 1 ...  7 chains
  1  0.0000E+00  9.9698E-02  0.0000E+00  0.0000E+00  0.0000E+00  0.0000E+00  0.0000E+00  0.0000E+00  6.2735E-01
  2  0.0000E+00  1.0503E-01  0.0000E+00  3.7988E-01  3.4078E-01  0.0000E+00  3.4801E-01  0.0000E+00  0.0000E+00
  3  0.0000E+00  1.0296E-01  3.6478E-01  8.0397E-02  0.0000E+00  0.0000E+00  0.0000E+00  0.0000E+00  0.0000E+00
  4  5.9256E-04  1.0891E-01  9.0497E-02  0.0000E+00  0.0000E+00  0.0000E+00  0.0000E+00  3.7782E-02  0.0000E+00
  5  0.0000E+00  8.9308E-01  5.1898E+00  0.0000E+00  0.0000E+00  0.0000E+00  6.1752E+00  9.7808E-01  0.0000E+00
  6  0.0000E+00  4.4078E-01  2.4093E+00  6.5107E+00  0.0000E+00  0.0000E+00  0.0000E+00  0.0000E+00  3.2325E-01
  7  0.0000E+00  3.1342E+00  0.0000E+00  1.8123E+01  0.0000E+00  1.6544E-01  0.0000E+00  0.0000E+00  0.0000E+00
  8  6.7743E+01  3.0843E+00  8.4302E+00  0.0000E+00  7.5521E+00  0.0000E+00  0.0000E+00  3.7870E+00  2.9956E+00
  9  0.0000E+00  4.0103E+00  0.0000E+00  0.0000E+00  4.4132E+00  2.4495E+01  0.0000E+00  2.3599E+01  0.0000E+00
 10  0.0000E+00  3.3674E+00  6.2774E-01  0.0000E+00  3.4419E+00  0.0000E+00  0.0000E+00  0.0000E+00  4.7462E+00
 11  0.0000E+00  1.0780E+00  0.0000E+00  0.0000E+00  1.6584E-01  1.6255E+01  0.0000E+00  3.4629E+00  0.0000E+00
 12  0.0000E+00  1.9698E+00  0.0000E+00  0.0000E+00  0.0000E+00  0.0000E+00  0.0000E+00  0.0000E+00  6.7246E-01
 13  0.0000E+00  6.3294E-01  0.0000E+00  0.0000E+00  0.0000E+00  0.0000E+00  0.0000E+00  0.0000E+00  0.0000E+00
 14  0.0000E+00  1.7474E+00  8.9151E+00  0.0000E+00  0.0000E+00  0.0000E+00  0.0000E+00  0.0000E+00  0.0000E+00
 15  0.0000E+00  6.6926E-01  0.0000E+00  0.0000E+00  0.0000E+00  0.0000E+00  0.0000E+00  0.0000E+00  0.0000E+00
 16  0.0000E+00  2.2179E-01  0.0000E+00  0.0000E+00  0.0000E+00  0.0000E+00  0.0000E+00  0.0000E+00  0.0000E+00
 17  0.0000E+00  5.1415E+00  0.0000E+00  0.0000E+00  0.0000E+00  0.0000E+00  0.0000E+00  0.0000E+00  0.0000E+00
 18  0.0000E+00  1.7291E-01  0.0000E+00  4.3298E-01  0.0000E+00  0.0000E+00  0.0000E+00  0.0000E+00  7.0113E-01
 19  0.0000E+00  4.2852E-02  0.0000E+00  0.0000E+00  0.0000E+00  0.0000E+00  6.5058E-01  0.0000E+00  4.0707E-02
 20  0.0000E+00  5.0736E-02  0.0000E+00  0.0000E+00  0.0000E+00  0.0000E+00  0.0000E+00  2.9027E-01  0.0000E+00
 21  0.0000E+00  3.6112E-01  1.4246E-01  3.2313E-01  1.2608E+00  1.8137E-01  2.2026E-01  0.0000E+00  0.0000E+00
 22  0.0000E+00  6.3139E-01  0.0000E+00  0.0000E+00  0.0000E+00  4.1268E+00  4.1158E-01  0.0000E+00  1.4167E-01
 23  0.0000E+00  3.9057E-01  0.0000E+00  0.0000E+00  1.2291E-01  6.2568E-01  0.0000E+00  4.9521E+00  5.7875E-01
 24  0.0000E+00  2.3439E+00  9.4068E+00  0.0000E+00  0.0000E+00  0.0000E+00  0.0000E+00  6.3442E+00  4.3577E+00
 25  0.0000E+00  4.4601E+00  0.0000E+00  0.0000E+00  2.3978E+01  1.4062E+00  0.0000E+00  0.0000E+00  0.0000E+00
 26  0.0000E+00  3.4436E+00  3.9228E+00  2.9294E+01  1.1667E+01  0.0000E+00  0.0000E+00  0.0000E+00  1.0574E+01
 27  0.0000E+00  3.2140E+00  4.2997E+00  1.5620E+01  0.0000E+00  0.0000E+00  0.0000E+00  4.6958E+00  6.5179E+00
 28  3.3569E+00  4.6385E-01  9.8521E+00  0.0000E+00  0.0000E+00  0.0000E+00  4.9756E-01  0.0000E+00  6.6853E+00
 29  0.0000E+00  7.4915E-01  1.5277E+01  0.0000E+00  0.0000E+00  0.0000E+00  0.0000E+00  0.0000E+00  0.0000E+00
 30  0.0000E+00  1.7110E-01  9.4573E+00  4.2096E+00  0.0000E+00  0.0000E+00  0.0000E+00  0.0000E+00  0.0000E+00
 31  0.0000E+00  7.7235E-01  0.0000E+00  0.0000E+00  0.0000E+00  0.0000E+00  0.0000E+00  0.0000E+00  0.0000E+00
 32  0.0000E+00  2.4902E+00  0.0000E+00  0.0000E+00  0.0000E+00  0.0000E+00  0.0000E+00  0.0000E+00  0.0000E+00
 33  0.0000E+00  1.0130E+00  0.0000E+00  0.0000E+00  0.0000E+00  0.0000E+00  0.0000E+00  0.0000E+00  0.0000E+00
 34  0.0000E+00  2.0345E-01  0.0000E+00  0.0000E+00  0.0000E+00  0.0000E+00  0.0000E+00  0.0000E+00  0.0000E+00
 35  0.0000E+00  8.2453E-02  9.0080E-02  0.0000E+00  0.0000E+00  0.0000E+00  0.0000E+00  5.3280E-01  0.0000E+00
 36  0.0000E+00  2.6019E-02  0.0000E+00  0.0000E+00  0.0000E+00  8.1881E-01  0.0000E+00  0.0000E+00  0.0000E+00
 37  0.0000E+00  6.5311E-02  0.0000E+00  0.0000E+00  2.4108E-01  0.0000E+00  0.0000E+00  0.0000E+00  0.0000E+00
 38  2.8899E+01  3.9866E+00  9.6894E+00  1.6391E+01  1.6075E+01  1.3909E+01  1.0683E+01  1.4474E+01  5.9352E+00
 39  0.0000E+00  3.6137E+00  0.0000E+00  0.0000E+00  3.2212E+00  3.6842E+00  3.7978E+00  1.1441E+01  3.6530E+00
 40  0.0000E+00  5.0437E+00  1.0024E+01  0.0000E+00  1.5526E+00  1.3124E+01  1.6749E+01  5.1003E+00  0.0000E+00
 41  0.0000E+00  4.5919E+00  0.0000E+00  0.0000E+00  0.0000E+00  6.5746E+00  2.6062E+00  0.0000E+00  0.0000E+00
 42  0.0000E+00  2.4870E+00  0.0000E+00  3.6164E+00  6.8079E+00  0.0000E+00  6.4308E+00  0.0000E+00  5.1283E+00
 43  0.0000E+00  3.1823E+00  0.0000E+00  0.0000E+00  0.0000E+00  0.0000E+00  5.8822E+00  2.8998E+00  0.0000E+00
 44  0.0000E+00  1.7869E+00  0.0000E+00  0.0000E+00  0.0000E+00  0.0000E+00  0.0000E+00  0.0000E+00  0.0000E+00
 45  0.0000E+00  1.4232E+00  0.0000E+00  0.0000E+00  0.0000E+00  0.0000E+00  0.0000E+00  0.0000E+00  0.0000E+00
 46  0.0000E+00  1.0140E+00  0.0000E+00  0.0000E+00  1.8295E+00  0.0000E+00  0.0000E+00  0.0000E+00  0.0000E+00
 47  0.0000E+00  4.9638E-02  0.0000E+00  0.0000E+00  0.0000E+00  1.1925E+00  0.0000E+00  0.0000E+00  0.0000E+00
 48  0.0000E+00  1.1098E+00  0.0000E+00  0.0000E+00  0.0000E+00  0.0000E+00  5.6576E+00  0.0000E+00  0.0000E+00
 49  0.0000E+00  2.1319E+00  0.0000E+00  0.0000E+00  0.0000E+00  0.0000E+00  3.9763E+01  0.0000E+00  0.0000E+00
 50  0.0000E+00  1.1097E+00  0.0000E+00  0.0000E+00  0.0000E+00  0.0000E+00  0.0000E+00  0.0000E+00  3.5961E+01
 51  0.0000E+00  3.7649E-02  0.0000E+00  1.2258E-02  1.2734E-02  3.4666E-01  0.0000E+00  0.0000E+00  0.0000E+00
 52  0.0000E+00  1.7565E-02  2.2305E-01  0.0000E+00  0.0000E+00  8.6961E-02  0.0000E+00  0.0000E+00  0.0000E+00
 53  0.0000E+00  7.7996E-02  0.0000E+00  0.0000E+00  0.0000E+00  9.4044E-02  0.0000E+00  0.0000E+00  0.0000E+00
 54  0.0000E+00  1.2416E+00  0.0000E+00  2.3897E+00  1.8204E+00  0.0000E+00  0.0000E+00  0.0000E+00  0.0000E+00
 55  0.0000E+00  1.0890E-01  0.0000E+00  0.0000E+00  0.0000E+00  8.3676E-01  1.2677E-01  0.0000E+00  0.0000E+00
 56  0.0000E+00  8.7351E-01  0.0000E+00  0.0000E+00  0.0000E+00  0.0000E+00  0.0000E+00  4.1094E+00  0.0000E+00
 57  0.0000E+00  1.1845E+00  4.9079E-01  2.6168E+00  0.0000E+00  0.0000E+00  0.0000E+00  0.0000E+00  3.4250E+00
 58  0.0000E+00  3.6931E+00  1.0968E+00  0.0000E+00  1.5497E+01  5.8342E+00  0.0000E+00  0.0000E+00  9.0729E-01
 59  0.0000E+00  1.5028E+00  0.0000E+00  0.0000E+00  0.0000E+00  0.0000E+00  0.0000E+00  1.3295E+01  0.0000E+00
 60  0.0000E+00  2.4326E+00  0.0000E+00  0.0000E+00  0.0000E+00  0.0000E+00  0.0000E+00  0.0000E+00  0.0000E+00
 61  0.0000E+00  7.9848E-01  0.0000E+00  0.0000E+00  0.0000E+00  6.2433E+00  0.0000E+00  0.0000E+00  0.0000E+00
 62  0.0000E+00  1.1884E+00  0.0000E+00  0.0000E+00  0.0000E+00  0.0000E+00  0.0000E+00  0.0000E+00  6.0286E+00
 63  0.0000E+00  8.5673E-01  0.0000E+00  0.0000E+00  0.0000E+00  0.0000E+00  0.0000E+00  0.0000E+00  0.0000E+00
 64  0.0000E+00  1.4544E+00  0.0000E+00  0.0000E+00  0.0000E+00  0.0000E+00  0.0000E+00  0.0000E+00  0.0000E+00
 65  0.0000E+00  2.3531E+00  0.0000E+00  0.0000E+00  0.0000E+00  0.0000E+00  0.0000E+00  0.0000E+00  0.0000E+00
 66  0.0000E+00  2.6932E+00  0.0000E+00  0.0000E+00  0.0000E+00  0.0000E+00  0.0000E+00  0.0000E+00  0.0000E+00

# AV, chi2 & Mass for <> & i_chain = 1 ...  7 solutions
AV       0.3943      0.5879      0.5539      0.5686      0.5237      0.6124      0.6051      0.6097      0.5788
chi2 1.8669E-01  1.9108E-01  1.8877E-01  1.8884E-01  1.8891E-01  1.8922E-01  1.8888E-01  1.8953E-01  1.9002E-01
Mass 1.1493E-14  2.7690E-14  2.1650E-14  1.6873E-14  1.5659E-14  1.7944E-14  2.3760E-14  1.6949E-14  3.7072E-14
-179.90                                  [v0_min (km/s) before EX0s...]
 155.62                                  [vd_min (km/s) before EX0s...]


## Synthetic spectrum (Best Model) ##l_obs f_obs f_syn wei
 3478    [Nl_obs]
 3741.00    0.53983   0.87902    0.000
 3742.00    0.56858   0.85984    0.000
 3743.00    0.62546   0.83064    0.000
 3744.00    0.67288   0.79347    0.000
 3745.00    0.65858   0.75200    1.433
 3746.00    0.62528   0.71322    1.436
 3747.00    0.65928   0.68713    1.456
 3748.00    0.72816   0.68193    1.495
 3749.00    0.73042   0.69897    1.539
 3750.00    0.66641   0.73316    1.559
 3751.00    0.61741   0.77597    1.535
 3752.00    0.63691   0.81830    1.502
 3753.00    0.71917   0.85412    1.510
 3754.00    0.78495   0.88148    1.543
 3755.00    0.75459   0.90098    1.557
 3756.00    0.67241   0.91421    1.564
 3757.00    0.64114   0.92261    1.599
 3758.00    0.68445   0.92660    1.648
 3759.00    0.76572   0.92572    1.665
 3760.00    0.85010   0.91931    1.652
 3761.00    0.90548   0.90633    1.642
 3762.00    0.89290   0.88549    1.648
 3763.00    0.80551   0.85593    1.665
 3764.00    0.71787   0.81809    1.676
 3765.00    0.71167   0.77443    1.670
 3766.00    0.77643   0.73016    1.659
 3767.00    0.85729   0.69394    1.662
 3768.00    0.92714   0.67565    1.683
 3769.00    0.98621   0.68065    1.716
 3770.00    1.04939   0.70692    1.746
 3771.00    1.11444   0.74750    1.762
 3772.00    1.13447   0.79368    1.772
 3773.00    1.07734   0.83786    1.784
 3774.00    0.98386   0.87591    1.785
 3775.00    0.91703   0.90713    1.774
 3776.00    0.90608   0.93249    1.774
 3777.00    0.92702   0.95287    1.794
 3778.00    0.90200   0.96842    1.795
 3779.00    0.81277   0.97906    1.749
 3780.00    0.77792   0.98479    1.695
 3781.00    0.88233   0.98582    1.673
 3782.00    1.05087   0.98321    1.691
 3783.00    1.18006   0.97817    1.733
 3784.00    1.24180   0.97109    1.761
 3785.00    1.25539   0.96181    1.758
 3786.00    1.25688   0.94976    1.764
 3787.00    1.26199   0.93375    1.803
 3788.00    1.24846   0.91269    1.847
 3789.00    1.19843   0.88565    1.861
 3790.00    1.12330   0.85146    1.840
 3791.00    1.04406   0.80960    1.817
 3792.00    0.97475   0.76166    1.839
 3793.00    0.90135   0.71211    1.904
 3794.00    0.78373   0.66917    1.931
 3795.00    0.62708   0.64319    1.899
 3796.00    0.50226   0.64159    1.898
 3797.00    0.45355   0.66426    1.964
 3798.00    0.46539   0.70468    2.021
 3799.00    0.53050   0.75329    2.015
 3800.00    0.66832   0.80079    1.990
 3801.00    0.85879   0.84102    1.988
 3802.00    1.02922   0.87216    2.014
 3803.00    1.12655   0.89642    2.046
 3804.00    1.14363   0.91749    2.056
 3805.00    1.09889   0.93721    2.054
 3806.00    1.02501   0.95546    2.082
 3807.00    0.95948   0.97133    2.144
 3808.00    0.93192   0.98332    2.188
 3809.00    0.93355   0.99037    2.185
 3810.00    0.92427   0.99271    2.156
 3811.00    0.89038   0.99087    2.137
 3812.00    0.85326   0.98468    2.152
 3813.00    0.83546   0.97338    2.181
 3814.00    0.84547   0.95602    2.173
 3815.00    0.86643   0.93313    2.148
 3816.00    0.86613   0.91005    2.174
 3817.00    0.83298   0.89565    2.239
 3818.00    0.78493   0.89466    2.262
 3819.00    0.76496   0.90448    2.234
 3820.00    0.81150   0.91902    2.218
 3821.00    0.89210   0.93124    2.245
 3822.00    0.93211   0.93590    2.299
 3823.00    0.91594   0.93174    2.324
 3824.00    0.87954   0.92006    2.274
 3825.00    0.84319   0.90204    2.215
 3826.00    0.80707   0.87774    2.244
 3827.00    0.77268   0.84638    2.342
 3828.00    0.74227   0.80722    2.409
 3829.00    0.70984   0.76097    2.407
 3830.00    0.67453   0.71091    2.381
 3831.00    0.66593   0.66368    2.386
 3832.00    0.70609   0.62879    2.446
 3833.00    0.74079   0.61481    2.501
 3834.00    0.70223   0.62459    2.479
 3835.00    0.62455   0.65495    2.440
 3836.00    0.58463   0.69903    2.482
 3837.00    0.58691   0.74832    2.573
 3838.00    0.59609   0.79580    2.613
 3839.00    0.60739   0.83778    2.580
 3840.00    0.63050   0.87309    2.527
 3841.00    0.65582   0.90182    2.517
 3842.00    0.67293   0.92463    2.568
 3843.00    0.69817   0.94237    2.607
 3844.00    0.74980   0.95586    2.561
 3845.00    0.81626   0.96584    2.491
 3846.00    0.88079   0.97302    2.478
 3847.00    0.95134   0.97841    0.000
 3848.00    1.03227   0.98305    0.000
 3849.00    1.09421   0.98725    0.000
 3850.00    1.11449   0.99048    0.000
 3851.00    1.11617   0.99225    0.000
 3852.00    1.11536   0.99256    0.000
 3853.00    1.07517   0.99222    0.000
 3854.00    0.98189   0.99223    0.000
 3855.00    0.90642   0.99262    0.000
 3856.00    0.90337   0.99295    0.000
 3857.00    0.93049   0.99313    0.000
 3858.00    0.93510   0.99295    0.000
 3859.00    0.92293   0.99209    0.000
 3860.00    0.91074   0.99055    0.000
 3861.00    0.89133   0.98838    0.000
 3862.00    0.86892   0.98516    0.000
 3863.00    0.88092   0.98058    0.000
 3864.00    0.96006   0.97584    0.000
 3865.00    1.10581   0.97248    0.000
 3866.00    1.27248   0.96988    0.000
 3867.00    1.37697   0.96631    0.000
 3868.00    1.38454   0.96165    0.000
 3869.00    1.34541   0.95722    0.000
 3870.00    1.30681   0.95365    0.000
 3871.00    1.26876   0.95040    0.000
 3872.00    1.22408   0.94663    0.000
 3873.00    1.17986   0.94166    0.000
 3874.00    1.15078   0.93482    0.000
 3875.00    1.14771   0.92603    0.000
 3876.00    1.14293   0.91559    0.000
 3877.00    1.07601   0.90300    0.000
 3878.00    0.95106   0.88689    0.000
 3879.00    0.84957   0.86628    0.000
 3880.00    0.80119   0.84030    0.000
 3881.00    0.75581   0.80768    3.040
 3882.00    0.69230   0.76772    2.966
 3883.00    0.64419   0.72165    2.958
 3884.00    0.63038   0.67349    3.038
 3885.00    0.63759   0.63119    3.108
 3886.00    0.65237   0.60501    3.073
 3887.00    0.67227   0.60200    2.928
 3888.00    0.70314   0.62222    2.781
 3889.00    0.75245   0.66006    2.750
 3890.00    0.81240   0.70681    2.806
 3891.00    0.86202   0.75388    2.814
 3892.00    0.88870   0.79566    2.758
 3893.00    0.89379   0.83021    2.742
 3894.00    0.88952   0.85764    2.784
 3895.00    0.88851   0.87909    2.822
 3896.00    0.87976   0.89649    2.823
 3897.00    0.84276   0.91149    2.808
 3898.00    0.79572   0.92483    2.803
 3899.00    0.77890   0.93667    2.823
 3900.00    0.79084   0.94689    2.861
 3901.00    0.80303   0.95514    2.890
 3902.00    0.82261   0.96147    2.877
 3903.00    0.87370   0.96674    2.817
 3904.00    0.93316   0.97173    2.776
 3905.00    0.95734   0.97656    2.829
 3906.00    0.95709   0.98076    2.940
 3907.00    0.97810   0.98369    2.999
 3908.00    1.03942   0.98521    2.974
 3909.00    1.12274   0.98594    2.922
 3910.00    1.17539   0.98649    2.919
 3911.00    1.14977   0.98707    3.008
 3912.00    1.06327   0.98719    3.133
 3913.00    0.96584   0.98577    3.183
 3914.00    0.87786   0.98155    3.146
 3915.00    0.80918   0.97449    3.090
 3916.00    0.79715   0.96643    3.074
 3917.00    0.86552   0.96010    3.105
 3918.00    0.96520   0.95714    3.109
 3919.00    1.02381   0.95684    3.027
 3920.00    1.01779   0.95715    2.941
 3921.00    0.96611   0.95591    2.937
 3922.00    0.90991   0.95182    2.979
 3923.00    0.88669   0.94635    2.983
 3924.00    0.90310   0.94208    2.913
 3925.00    0.92928   0.94010    2.816
 3926.00    0.90256   0.93982    2.800
 3927.00    0.80333   0.93936    2.908
 3928.00    0.71902   0.93638    3.001
 3929.00    0.71360   0.92999    2.941
 3930.00    0.71301   0.92265    2.837
 3931.00    0.66123   0.91822    2.821
 3932.00    0.65125   0.91887    2.885
 3933.00    0.74951   0.92486    2.967
 3934.00    0.85814   0.93460    3.011
 3935.00    0.89579   0.94534    2.984
 3936.00    0.93128   0.95453    2.898
 3937.00    1.01942   0.96078    2.817
 3938.00    1.08762   0.96399    2.845
 3939.00    1.07804   0.96457    2.983
 3940.00    1.04014   0.96321    3.040
 3941.00    1.02506   0.96116    2.923
 3942.00    1.01944   0.95957    2.832
 3943.00    1.00783   0.95873    2.889
 3944.00    1.00739   0.95845    3.009
 3945.00    1.02007   0.95849    3.052
 3946.00    1.01359   0.95835    2.960
 3947.00    0.98415   0.95730    2.818
 3948.00    0.97582   0.95482    2.775
 3949.00    0.98997   0.95086    2.868
 3950.00    0.95984   0.94558    2.980
 3951.00    0.87050   0.93944    3.003
 3952.00    0.79851   0.93295    2.948
 3953.00    0.80690   0.92635    2.879
 3954.00    0.89475   0.91940    2.845
 3955.00    1.00427   0.91117    2.845
 3956.00    1.04992   0.90026    2.828
 3957.00    1.02001   0.88539    2.771
 3958.00    0.98650   0.86602    2.707
 3959.00    0.97526   0.84187    2.689
 3960.00    0.94052   0.81273    0.000
 3961.00    0.86484   0.77946    0.000
 3962.00    0.78382   0.74284    0.000
 3963.00    0.73790   0.70263    0.000
 3964.00    0.74625   0.65934    0.000
 3965.00    0.78104   0.61630    0.000
 3966.00    0.78465   0.58021    0.000
 3967.00    0.74716   0.55902    0.000
 3968.00    0.70823   0.55803    0.000
 3969.00    0.69188   0.57781    0.000
 3970.00    0.69731   0.61434    0.000
 3971.00    0.72767   0.66033    0.000
 3972.00    0.78897   0.70792    0.000
 3973.00    0.86671   0.75162    0.000
 3974.00    0.93597   0.78905    0.000
 3975.00    0.99982   0.81979    0.000
 3976.00    1.07260   0.84431    0.000
 3977.00    1.12189   0.86335    0.000
 3978.00    1.09837   0.87785    0.000
 3979.00    1.02678   0.88918    0.000
 3980.00    0.97613   0.89882    0.000
 3981.00    0.96022   0.90778    3.060
 3982.00    0.94784   0.91649    3.032
 3983.00    0.92138   0.92493    3.059
 3984.00    0.88131   0.93264    3.103
 3985.00    0.83341   0.93898    3.127
 3986.00    0.79015   0.94375    3.108
 3987.00    0.77613   0.94727    3.044
 3988.00    0.81246   0.94977    2.956
 3989.00    0.89110   0.95118    2.878
 3990.00    0.98583   0.95138    2.828
 3991.00    1.07504   0.95075    2.778
 3992.00    1.14346   0.94999    2.646
 3993.00    1.18004   0.94963    2.353
 3994.00    1.18270   0.95005    2.019
 3995.00    1.16392   0.95150    1.904
 3996.00    1.13258   0.95367    2.142
 3997.00    1.07293   0.95585    2.598
 3998.00    0.98595   0.95728    2.772
 3999.00    0.93505   0.95736    2.688
 4000.00    0.95438   0.95549    2.754
 4001.00    0.95159   0.95136    2.965
 4002.00    0.85931   0.94515    3.097
 4003.00    0.79152   0.93707    3.058
 4004.00    0.85117   0.92764    2.935
 4005.00    0.93770   0.91875    2.849
 4006.00    0.93386   0.91336    2.859
 4007.00    0.88865   0.91326    2.938
 4008.00    0.89124   0.91839    3.026
 4009.00    0.94582   0.92733    3.081
 4010.00    1.00000   0.93771    3.076
 4011.00    0.98676   0.94696    2.998
 4012.00    0.89958   0.95347    2.899
 4013.00    0.83412   0.95714    2.888
 4014.00    0.85772   0.95869    2.996
 4015.00    0.92134   0.95865    3.093
 4016.00    0.96112   0.95696    3.067
 4017.00    0.97107   0.95295    3.009
 4018.00    0.96989   0.94547    3.021
 4019.00    0.97385   0.93306    3.107
 4020.00    0.98678   0.91484    3.208
 4021.00    0.99682   0.89224    3.222
 4022.00    0.99016   0.87053    3.106
 4023.00    0.96218   0.85658    2.936
 4024.00    0.93243   0.85450    2.823
 4025.00    0.94175   0.86395    2.848
 4026.00    0.99423   0.88087    2.995
 4027.00    1.04090   0.89950    3.098
 4028.00    1.05470   0.91483    3.069
 4029.00    1.05843   0.92470    3.033
 4030.00    1.07359   0.93032    3.078
 4031.00    1.09687   0.93426    3.166
 4032.00    1.10838   0.93848    3.242
 4033.00    1.08617   0.94345    3.277
 4034.00    1.04788   0.94856    3.264
 4035.00    1.04653   0.95269    3.212
 4036.00    1.08634   0.95484    3.177
 4037.00    1.11246   0.95468    3.227
 4038.00    1.09753   0.95253    3.334
 4039.00    1.05827   0.94896    3.364
 4040.00    0.99802   0.94464    3.270
 4041.00    0.90484   0.94038    3.148
 4042.00    0.81195   0.93715    3.072
 4043.00    0.78858   0.93570    3.062
 4044.00    0.85038   0.93635    3.101
 4045.00    0.95241   0.93886    3.141
 4046.00    1.05152   0.94233    3.155
 4047.00    1.12502   0.94548    3.144
 4048.00    1.16956   0.94722    3.126
 4049.00    1.19026   0.94711    3.125
 4050.00    1.17508   0.94544    3.143
 4051.00    1.11081   0.94288    3.160
 4052.00    1.03615   0.94009    3.144
 4053.00    1.01078   0.93755    3.081
 4054.00    1.01736   0.93549    3.029
 4055.00    0.99621   0.93379    3.062
 4056.00    0.96635   0.93222    3.154
 4057.00    0.99151   0.93045    3.208
 4058.00    1.05983   0.92822    3.205
 4059.00    1.11507   0.92577    3.195
 4060.00    1.16143   0.92365    3.189
 4061.00    1.23074   0.92232    3.180
 4062.00    1.28888   0.92176    3.200
 4063.00    1.26800   0.92147    3.278
 4064.00    1.14994   0.92060    3.345
 4065.00    0.97544   0.91838    3.308
 4066.00    0.83270   0.91456    3.245
 4067.00    0.79899   0.90978    3.269
 4068.00    0.85790   0.90535    3.340
 4069.00    0.93581   0.90200    3.348
 4070.00    0.97259   0.89947    3.306
 4071.00    0.94327   0.89729    3.278
 4072.00    0.87149   0.89519    3.261
 4073.00    0.79826   0.89332    3.236
 4074.00    0.74115   0.89229    3.242
 4075.00    0.70979   0.89284    3.312
 4076.00    0.72726   0.89504    3.388
 4077.00    0.78856   0.89796    3.392
 4078.00    0.81933   0.90007    3.343
 4079.00    0.77808   0.90013    3.299
 4080.00    0.75735   0.89791    3.282
 4081.00    0.83902   0.89400    3.288
 4082.00    0.95035   0.88919    3.314
 4083.00    0.99647   0.88410    3.343
 4084.00    0.99217   0.87903    3.345
 4085.00    0.98793   0.87394    3.312
 4086.00    0.99420   0.86839    3.297
 4087.00    0.99407   0.86163    3.344
 4088.00    0.96309   0.85302    3.449
 4089.00    0.90128   0.84186    3.565
 4090.00    0.85121   0.82710    3.613
 4091.00    0.84548   0.80782    3.561
 4092.00    0.86941   0.78370    0.000
 4093.00    0.88752   0.75478    0.000
 4094.00    0.86842   0.72123    0.000
 4095.00    0.81146   0.68342    0.000
 4096.00    0.75842   0.64316    0.000
 4097.00    0.75816   0.60511    0.000
 4098.00    0.83634   0.57591    0.000
 4099.00    0.95438   0.56164    0.000
 4100.00    1.00676   0.56587    0.000
 4101.00    0.94087   0.58786    0.000
 4102.00    0.81067   0.62263    0.000
 4103.00    0.69599   0.66297    0.000
 4104.00    0.65084   0.70216    0.000
 4105.00    0.67255   0.73607    0.000
 4106.00    0.70452   0.76356    0.000
 4107.00    0.71728   0.78535    0.000
 4108.00    0.73435   0.80282    0.000
 4109.00    0.77385   0.81727    0.000
 4110.00    0.82653   0.82945    0.000
 4111.00    0.87705   0.83961    0.000
 4112.00    0.91465   0.84757    0.000
 4113.00    0.93710   0.85268    3.227
 4114.00    0.94908   0.85438    3.270
 4115.00    0.95060   0.85281    3.329
 4116.00    0.93714   0.84953    3.368
 4117.00    0.91511   0.84715    3.369
 4118.00    0.89955   0.84802    3.347
 4119.00    0.88936   0.85333    3.333
 4120.00    0.87047   0.86243    3.359
 4121.00    0.85066   0.87288    3.427
 4122.00    0.85295   0.88170    3.500
 4123.00    0.86594   0.88682    3.534
 4124.00    0.85527   0.88790    3.503
 4125.00    0.83364   0.88590    3.442
 4126.00    0.84667   0.88233    3.426
 4127.00    0.88763   0.87864    3.493
 4128.00    0.90834   0.87600    3.631
 4129.00    0.89916   0.87520    3.773
 4130.00    0.88997   0.87654    3.814
 4131.00    0.90661   0.87968    3.757
 4132.00    0.95557   0.88383    3.694
 4133.00    1.01421   0.88789    3.701
 4134.00    1.04515   0.89065    3.814
 4135.00    1.02919   0.89103    4.044
 4136.00    0.96680   0.88793    4.340
 4137.00    0.86784   0.88027    4.502
 4138.00    0.75251   0.86801    4.343
 4139.00    0.65572   0.85342    4.066
 4140.00    0.60733   0.84049    3.958
 4141.00    0.59906   0.83332    4.068
 4142.00    0.60782   0.83429    4.288
 4143.00    0.64070   0.84261    4.350
 4144.00    0.71144   0.85486    4.074
 4145.00    0.79577   0.86689    3.736
 4146.00    0.85683   0.87560    3.597
 4147.00    0.88990   0.88011    3.617
 4148.00    0.91167   0.88152    3.665
 4149.00    0.93667   0.88140    3.714
 4150.00    0.96835   0.88094    3.772
 4151.00    0.99270   0.88088    3.762
 4152.00    0.99213   0.88166    3.648
 4153.00    0.96286   0.88337    3.559
 4154.00    0.91382   0.88583    3.608
 4155.00    0.86252   0.88856    3.727
 4156.00    0.82728   0.89088    3.788
 4157.00    0.81852   0.89230    3.766
 4158.00    0.82894   0.89260    3.716
 4159.00    0.82809   0.89182    3.701
 4160.00    0.80076   0.89024    3.728
 4161.00    0.77863   0.88817    3.721
 4162.00    0.78805   0.88570    3.654
 4163.00    0.80575   0.88285    3.653
 4164.00    0.80630   0.87983    3.778
 4165.00    0.80239   0.87696    3.854
 4166.00    0.81633   0.87451    3.744
 4167.00    0.85409   0.87264    3.606
 4168.00    0.90141   0.87126    3.575
 4169.00    0.92755   0.87024    3.604
 4170.00    0.92466   0.86954    3.643
 4171.00    0.92759   0.86925    3.737
 4172.00    0.95596   0.86952    3.881
 4173.00    0.98121   0.87047    3.918
 4174.00    0.97281   0.87202    3.794
 4175.00    0.92891   0.87385    3.691
 4176.00    0.87391   0.87565    3.716
 4177.00    0.84840   0.87721    3.811
 4178.00    0.86658   0.87830    3.887
 4179.00    0.90065   0.87874    3.910
 4180.00    0.92606   0.87844    3.876
 4181.00    0.94213   0.87743    3.803
 4182.00    0.95043   0.87585    3.742
 4183.00    0.94530   0.87394    3.760
 4184.00    0.92372   0.87199    3.856
 4185.00    0.89179   0.87043    3.939
 4186.00    0.87096   0.86971    3.944
 4187.00    0.88898   0.87018    3.892
 4188.00    0.93175   0.87176    3.823
 4189.00    0.94347   0.87392    3.763
 4190.00    0.90610   0.87581    3.715
 4191.00    0.85700   0.87660    3.676
 4192.00    0.83560   0.87573    3.676
 4193.00    0.85664   0.87325    3.759
 4194.00    0.89028   0.86976    3.865
 4195.00    0.88277   0.86607    3.840
 4196.00    0.84341   0.86295    3.713
 4197.00    0.83770   0.86094    3.663
 4198.00    0.87810   0.86022    3.726
 4199.00    0.91695   0.86071    3.792
 4200.00    0.92608   0.86220    3.802
 4201.00    0.90825   0.86436    3.786
 4202.00    0.86315   0.86688    3.769
 4203.00    0.78968   0.86941    3.756
 4204.00    0.71567   0.87164    3.758
 4205.00    0.68182   0.87326    3.786
 4206.00    0.68522   0.87408    3.838
 4207.00    0.69037   0.87404    3.894
 4208.00    0.68558   0.87321    3.946
 4209.00    0.68647   0.87165    3.982
 4210.00    0.71459   0.86961    3.945
 4211.00    0.78280   0.86747    3.802
 4212.00    0.87624   0.86575    3.669
 4213.00    0.96242   0.86497    3.681
 4214.00    1.01799   0.86534    3.810
 4215.00    1.03568   0.86651    3.925
 4216.00    1.02684   0.86762    3.951
 4217.00    1.00687   0.86768    3.907
 4218.00    0.97102   0.86590    3.862
 4219.00    0.90881   0.86199    3.871
 4220.00    0.83319   0.85620    3.917
 4221.00    0.77368   0.84931    3.947
 4222.00    0.75783   0.84250    3.940
 4223.00    0.79043   0.83715    3.898
 4224.00    0.83070   0.83448    3.819
 4225.00    0.83675   0.83499    3.722
 4226.00    0.82671   0.83808    3.684
 4227.00    0.83852   0.84234    3.754
 4228.00    0.87022   0.84621    3.866
 4229.00    0.89862   0.84864    3.920
 4230.00    0.91043   0.84940    3.939
 4231.00    0.90244   0.84907    3.982
 4232.00    0.87832   0.84841    4.035
 4233.00    0.85552   0.84801    4.057
 4234.00    0.86893   0.84817    4.057
 4235.00    0.92540   0.84892    4.048
 4236.00    0.96531   0.85014    3.995
 4237.00    0.94513   0.85171    3.907
 4238.00    0.91046   0.85360    3.900
 4239.00    0.90754   0.85569    4.008
 4240.00    0.90561   0.85772    4.046
 4241.00    0.86803   0.85925    3.885
 4242.00    0.81342   0.85972    3.711
 4243.00    0.77529   0.85874    3.684
 4244.00    0.76609   0.85636    3.795
 4245.00    0.77953   0.85301    3.971
 4246.00    0.79714   0.84920    4.125
 4247.00    0.81002   0.84529    4.192
 4248.00    0.83064   0.84155    4.182
 4249.00    0.86790   0.83822    4.136
 4250.00    0.91191   0.83569    4.082
 4251.00    0.94857   0.83452    4.048
 4252.00    0.96885   0.83503    4.061
 4253.00    0.96607   0.83687    4.114
 4254.00    0.93664   0.83911    4.148
 4255.00    0.89543   0.84092    4.125
 4256.00    0.87531   0.84189    4.067
 4257.00    0.87914   0.84231    4.007
 4258.00    0.86860   0.84284    3.961
 4259.00    0.83768   0.84370    3.935
 4260.00    0.83332   0.84426    3.931
 4261.00    0.87623   0.84344    3.942
 4262.00    0.93304   0.84049    3.962
 4263.00    0.96347   0.83569    3.973
 4264.00    0.94776   0.83042    3.957
 4265.00    0.90771   0.82624    3.945
 4266.00    0.89594   0.82381    3.999
 4267.00    0.92201   0.82255    4.103
 4268.00    0.94380   0.82150    4.145
 4269.00    0.94434   0.82008    4.109
 4270.00    0.94378   0.81834    4.103
 4271.00    0.93978   0.81703    4.166
 4272.00    0.90593   0.81708    4.231
 4273.00    0.85568   0.81892    4.227
 4274.00    0.83950   0.82229    4.137
 4275.00    0.87091   0.82630    4.024
 4276.00    0.91801   0.82976    3.976
 4277.00    0.94736   0.83166    4.003
 4278.00    0.94344   0.83159    4.051
 4279.00    0.92445   0.82993    4.078
 4280.00    0.92339   0.82757    4.082
 4281.00    0.93020   0.82531    4.083
 4282.00    0.90724   0.82350    4.104
 4283.00    0.86190   0.82190    4.137
 4284.00    0.83410   0.82002    4.152
 4285.00    0.82787   0.81764    4.146
 4286.00    0.82206   0.81507    4.137
 4287.00    0.82658   0.81310    4.125
 4288.00    0.86748   0.81242    4.097
 4289.00    0.93277   0.81313    4.047
 4290.00    0.97990   0.81468    3.978
 4291.00    0.97218   0.81619    3.904
 4292.00    0.90374   0.81690    3.853
 4293.00    0.82879   0.81642    3.869
 4294.00    0.80784   0.81461    3.972
 4295.00    0.81187   0.81158   -2.000
 4296.00    0.78427   0.80772   -2.000
 4297.00    0.76216   0.80358   -2.000
 4298.00    0.82381   0.79976   -2.000
 4299.00    0.98132   0.79674   -2.000
 4300.00    1.19083   0.79469   -2.000
 4301.00    1.39102   0.79341   -2.000
 4302.00    1.52183   0.79248   -2.000
 4303.00    1.54276   0.79148   -2.000
 4304.00    1.44217   0.79044   -2.000
 4305.00    1.24600   0.78983   -2.000
 4306.00    1.01856   0.79021   -2.000
 4307.00    0.85626   0.79186   -2.000
 4308.00    0.81004   0.79456   -2.000
 4309.00    0.80843   0.79774   -2.000
 4310.00    0.77411   0.80089   -2.000
 4311.00    0.74779   0.80381    3.901
 4312.00    0.78397   0.80656    3.901
 4313.00    0.84065   0.80909    3.934
 4314.00    0.85506   0.81104    4.005
 4315.00    0.82320   0.81197    4.075
 4316.00    0.77678   0.81154    4.102
 4317.00    0.75343   0.80960    4.083
 4318.00    0.77173   0.80608    4.040
 4319.00    0.81545   0.80086    4.013
 4320.00    0.86219   0.79397    4.023
 4321.00    0.90524   0.78596    4.055
 4322.00    0.93543   0.77810    4.094
 4323.00    0.93044   0.77178    4.136
 4324.00    0.88503   0.76773    4.188
 4325.00    0.82847   0.76537    4.245
 4326.00    0.79095   0.76310    4.303
 4327.00    0.77977   0.75913    4.356
 4328.00    0.77781   0.75221    4.383
 4329.00    0.75119   0.74175    4.353
 4330.00    0.69614   0.72745    0.000
 4331.00    0.65432   0.70877    0.000
 4332.00    0.64102   0.68480    0.000
 4333.00    0.61938   0.65508    0.000
 4334.00    0.58374   0.62067    0.000
 4335.00    0.58891   0.58501    0.000
 4336.00    0.66908   0.55365    0.000
 4337.00    0.80004   0.53278    0.000
 4338.00    0.91964   0.52696    0.000
 4339.00    0.95747   0.53712    0.000
 4340.00    0.91620   0.56015    0.000
 4341.00    0.87557   0.59050    0.000
 4342.00    0.86006   0.62260    0.000
 4343.00    0.81561   0.65234    0.000
 4344.00    0.73903   0.67761    0.000
 4345.00    0.69914   0.69799    0.000
 4346.00    0.72269   0.71384    0.000
 4347.00    0.76953   0.72588    0.000
 4348.00    0.79796   0.73535    0.000
 4349.00    0.79113   0.74385    0.000
 4350.00    0.76450   0.75268    0.000
 4351.00    0.75493   0.76233    4.084
 4352.00    0.78107   0.77230    4.059
 4353.00    0.83366   0.78155    4.079
 4354.00    0.88426   0.78906    4.134
 4355.00    0.89967   0.79441    4.164
 4356.00    0.87279   0.79803    4.138
 4357.00    0.82667   0.80080    4.070
 4358.00    0.80185   0.80347    4.017
 4359.00    0.83214   0.80628    4.032
 4360.00    0.89616   0.80892    4.093
 4361.00    0.93713   0.81075    4.128
 4362.00    0.93378   0.81123    4.137
 4363.00    0.90131   0.81033    4.173
 4364.00    0.85740   0.80858    4.232
 4365.00    0.81320   0.80674    4.273
 4366.00    0.77065   0.80536    4.305
 4367.00    0.73095   0.80442    4.368
 4368.00    0.71057   0.80353    4.437
 4369.00    0.72300   0.80235    4.470
 4370.00    0.74209   0.80086    4.540
 4371.00    0.72998   0.79952    4.761
 4372.00    0.69415   0.79903    5.109
 4373.00    0.66728   0.79976    5.405
 4374.00    0.66045   0.80137    5.461
 4375.00    0.67091   0.80291    5.265
 4376.00    0.70416   0.80310    5.058
 4377.00    0.75792   0.80090    5.022
 4378.00    0.79707   0.79578    5.041
 4379.00    0.79175   0.78801    4.917
 4380.00    0.76979   0.77857    4.684
 4381.00    0.77017   0.76874    4.484
 4382.00    0.77875   0.75971    4.395
 4383.00    0.77207   0.75256    4.420
 4384.00    0.77529   0.74848    4.481
 4385.00    0.81326   0.74860    4.487
 4386.00    0.85198   0.75340    4.430
 4387.00    0.84854   0.76206    4.366
 4388.00    0.80894   0.77258    4.357
 4389.00    0.76598   0.78269    4.423
 4390.00    0.74928   0.79074    4.502
 4391.00    0.76686   0.79621    4.528
 4392.00    0.79380   0.79985    4.528
 4393.00    0.80596   0.80270    4.550
 4394.00    0.80860   0.80514    4.588
 4395.00    0.81265   0.80690    4.612
 4396.00    0.81452   0.80750    4.598
 4397.00    0.81269   0.80671    4.559
 4398.00    0.81979   0.80456    4.557
 4399.00    0.84261   0.80124    4.623
 4400.00    0.86898   0.79711    4.706
 4401.00    0.88652   0.79276    4.748
 4402.00    0.89558   0.78907    4.738
 4403.00    0.90125   0.78692    4.713
 4404.00    0.90603   0.78686    4.728
 4405.00    0.90060   0.78883    4.769
 4406.00    0.86523   0.79218    4.725
 4407.00    0.81110   0.79577    4.589
 4408.00    0.79173   0.79824    4.517
 4409.00    0.82677   0.79850    4.587
 4410.00    0.87073   0.79621    4.722
 4411.00    0.87964   0.79203    4.840
 4412.00    0.84688   0.78761    4.929
 4413.00    0.79720   0.78495    4.963
 4414.00    0.77245   0.78528    4.880
 4415.00    0.78376   0.78849    4.708
 4416.00    0.79909   0.79327    4.567
 4417.00    0.78836   0.79788    4.519
 4418.00    0.74444   0.80100    4.547
 4419.00    0.68281   0.80228    4.616
 4420.00    0.63442   0.80211    4.697
 4421.00    0.61973   0.80112    4.782
 4422.00    0.63878   0.79982    4.881
 4423.00    0.67333   0.79845    4.958
 4424.00    0.69550   0.79716    4.938
 4425.00    0.69356   0.79603    4.820
 4426.00    0.67851   0.79505    4.689
 4427.00    0.67531   0.79410    4.606
 4428.00    0.70570   0.79291    4.589
 4429.00    0.74678   0.79119    4.633
 4430.00    0.74822   0.78876    4.717
 4431.00    0.71770   0.78589    4.805
 4432.00    0.71092   0.78339    4.854
 4433.00    0.73727   0.78226    4.846
 4434.00    0.76248   0.78309    4.790
 4435.00    0.78247   0.78564    4.727
 4436.00    0.81691   0.78878    4.692
 4437.00    0.84794   0.79110    4.656
 4438.00    0.83635   0.79179    4.576
 4439.00    0.79150   0.79117    4.513
 4440.00    0.75682   0.79030    4.567
 4441.00    0.74478   0.79025    4.705
 4442.00    0.73744   0.79137    4.794
 4443.00    0.71680   0.79325    4.798
 4444.00    0.67878   0.79512    4.769
 4445.00    0.64640   0.79638    4.733
 4446.00    0.64743   0.79675    4.679
 4447.00    0.67143   0.79616    4.591
 4448.00    0.69281   0.79461    4.458
 4449.00    0.72153   0.79218    4.282
 4450.00    0.77808   0.78903    4.097
 4451.00    0.84183   0.78553    3.992
 4452.00    0.88064   0.78227    4.022
 4453.00    0.90583   0.77971    4.111
 4454.00    0.94423   0.77803    4.139
 4455.00    0.98821   0.77706    4.121
 4456.00    1.01492   0.77652    4.128
 4457.00    1.02075   0.77625    4.148
 4458.00    1.01373   0.77630    4.139
 4459.00    0.99777   0.77673    4.115
 4460.00    0.96762   0.77731    4.115
 4461.00    0.90785   0.77736    0.000
 4462.00    0.82887   0.77586    0.000
 4463.00    0.80003   0.77174    0.000
 4464.00    0.85770   0.76439    0.000
 4465.00    0.91537   0.75396    0.000
 4466.00    0.89292   0.74189    0.000
 4467.00    0.84466   0.73103    0.000
 4468.00    0.84307   0.72487    0.000
 4469.00    0.86404   0.72599    0.000
 4470.00    0.85478   0.73466    0.000
 4471.00    0.80375   0.74843    0.000
 4472.00    0.73890   0.76329    0.000
 4473.00    0.71386   0.77547    0.000
 4474.00    0.74494   0.78258    0.000
 4475.00    0.77382   0.78406    0.000
 4476.00    0.76519   0.78123    0.000
 4477.00    0.76844   0.77664    0.000
 4478.00    0.81136   0.77321    0.000
 4479.00    0.83703   0.77306    0.000
 4480.00    0.81307   0.77666    0.000
 4481.00    0.79363   0.78265    0.000
 4482.00    0.82514   0.78873    4.458
 4483.00    0.89052   0.79281    4.461
 4484.00    0.95070   0.79398    4.402
 4485.00    0.97473   0.79269    4.403
 4486.00    0.95770   0.79030    4.520
 4487.00    0.92438   0.78815    4.649
 4488.00    0.89869   0.78686    4.706
 4489.00    0.88800   0.78624    4.731
 4490.00    0.88821   0.78574    4.761
 4491.00    0.88826   0.78502    4.766
 4492.00    0.87786   0.78433    4.726
 4493.00    0.85352   0.78423    4.663
 4494.00    0.82862   0.78515    4.617
 4495.00    0.82800   0.78702    4.626
 4496.00    0.84785   0.78944    4.694
 4497.00    0.85359   0.79201    4.779
 4498.00    0.83711   0.79459    4.861
 4499.00    0.82767   0.79722    4.942
 4500.00    0.84720   0.79979    4.990
 4501.00    0.89141   0.80189    4.948
 4502.00    0.92505   0.80301    4.872
 4503.00    0.90333   0.80295    4.892
 4504.00    0.84404   0.80193    4.968
 4505.00    0.81526   0.80039    4.915
 4506.00    0.82616   0.79864    4.767
 4507.00    0.82789   0.79669    4.727
 4508.00    0.81469   0.79437    4.809
 4509.00    0.82215   0.79166    4.864
 4510.00    0.84200   0.78886    4.873
 4511.00    0.82893   0.78648    4.950
 4512.00    0.77842   0.78493    5.086
 4513.00    0.72650   0.78436    5.150
 4514.00    0.69987   0.78458    5.096
 4515.00    0.70184   0.78528    4.995
 4516.00    0.70969   0.78606    4.899
 4517.00    0.69438   0.78647    4.828
 4518.00    0.66280   0.78603    4.782
 4519.00    0.64600   0.78442    4.760
 4520.00    0.65745   0.78158    4.772
 4521.00    0.68815   0.77769    4.829
 4522.00    0.71469   0.77304    4.910
 4523.00    0.71564   0.76799    4.978
 4524.00    0.69731   0.76308    5.026
 4525.00    0.68263   0.75899    5.066
 4526.00    0.68472   0.75632    5.090
 4527.00    0.70435   0.75528    5.073
 4528.00    0.73338   0.75554    4.996
 4529.00    0.76009   0.75643    4.882
 4530.00    0.77670   0.75745    4.827
 4531.00    0.78594   0.75870    4.893
 4532.00    0.80721   0.76071    4.985
 4533.00    0.84940   0.76382    4.977
 4534.00    0.87674   0.76776    4.942
 4535.00    0.85439   0.77163    5.007
 4536.00    0.80811   0.77451    5.144
 4537.00    0.77566   0.77598    5.243
 4538.00    0.74346   0.77627    5.266
 4539.00    0.68759   0.77591    5.236
 4540.00    0.62611   0.77529    5.193
 4541.00    0.59352   0.77452    5.156
 4542.00    0.60664   0.77349    5.103
 4543.00    0.65305   0.77208    5.031
 4544.00    0.68822   0.77029    5.001
 4545.00    0.68986   0.76817    5.043
 4546.00    0.70252   0.76586    5.085
 4547.00    0.76549   0.76354    5.063
 4548.00    0.84948   0.76142    5.037
 4549.00    0.90100   0.75980    5.066
 4550.00    0.88783   0.75909    0.000
 4551.00    0.82628   0.75979    0.000
 4552.00    0.78887   0.76215    0.000
 4553.00    0.81310   0.76596    0.000
 4554.00    0.84511   0.77052    0.000
 4555.00    0.83665   0.77489    0.000
 4556.00    0.80859   0.77817    0.000
 4557.00    0.79178   0.77980    0.000
 4558.00    0.78657   0.77969    0.000
 4559.00    0.77792   0.77818    0.000
 4560.00    0.75042   0.77592    0.000
 4561.00    0.71262   0.77370    0.000
 4562.00    0.70237   0.77219    0.000
 4563.00    0.73782   0.77166    0.000
 4564.00    0.79477   0.77190    0.000
 4565.00    0.83593   0.77235    0.000
 4566.00    0.83195   0.77248    0.000
 4567.00    0.78405   0.77202    0.000
 4568.00    0.72705   0.77116    0.000
 4569.00    0.69252   0.77036    0.000
 4570.00    0.69046   0.77000    0.000
 4571.00    0.70785   0.77011    0.000
 4572.00    0.71688   0.77039    0.000
 4573.00    0.70985   0.77037    0.000
 4574.00    0.70457   0.76968    0.000
 4575.00    0.70854   0.76822    0.000
 4576.00    0.71128   0.76621    0.000
 4577.00    0.70950   0.76417    0.000
 4578.00    0.71164   0.76262    0.000
 4579.00    0.72041   0.76181    0.000
 4580.00    0.72977   0.76174    0.000
 4581.00    0.73513   0.76222    0.000
 4582.00    0.73577   0.76309    0.000
 4583.00    0.73133   0.76420    0.000
 4584.00    0.72290   0.76531    0.000
 4585.00    0.71911   0.76609    0.000
 4586.00    0.73059   0.76615    0.000
 4587.00    0.75047   0.76529    0.000
 4588.00    0.75979   0.76362    0.000
 4589.00    0.75465   0.76155    0.000
 4590.00    0.74645   0.75955    0.000
 4591.00    0.74526   0.75800    0.000
 4592.00    0.75143   0.75714    0.000
 4593.00    0.74702   0.75698    0.000
 4594.00    0.71384   0.75735    0.000
 4595.00    0.67473   0.75781    0.000
 4596.00    0.66921   0.75794    0.000
 4597.00    0.68826   0.75754    0.000
 4598.00    0.69339   0.75680    0.000
 4599.00    0.67774   0.75615    0.000
 4600.00    0.66017   0.75600    0.000
 4601.00    0.65344   0.75656    0.000
 4602.00    0.65696   0.75784    0.000
 4603.00    0.65527   0.75974    0.000
 4604.00    0.63752   0.76208    0.000
 4605.00    0.62688   0.76455    0.000
 4606.00    0.65063   0.76669    0.000
 4607.00    0.69015   0.76810    0.000
 4608.00    0.70862   0.76865    0.000
 4609.00    0.70029   0.76851    0.000
 4610.00    0.68570   0.76804    0.000
 4611.00    0.69416   0.76754    0.000
 4612.00    0.73674   0.76706    0.000
 4613.00    0.77820   0.76641    0.000
 4614.00    0.77904   0.76549    0.000
 4615.00    0.74756   0.76442    0.000
 4616.00    0.71228   0.76360    0.000
 4617.00    0.68484   0.76343    0.000
 4618.00    0.66919   0.76399    0.000
 4619.00    0.67396   0.76500    0.000
 4620.00    0.69706   0.76593    0.000
 4621.00    0.71190   0.76633    0.000
 4622.00    0.69843   0.76600    0.000
 4623.00    0.67094   0.76505    0.000
 4624.00    0.64947   0.76369    0.000
 4625.00    0.63425   0.76225    0.000
 4626.00    0.62533   0.76097    0.000
 4627.00    0.63770   0.75999    0.000
 4628.00    0.67347   0.75924    0.000
 4629.00    0.70320   0.75848    0.000
 4630.00    0.70134   0.75743    0.000
 4631.00    0.67220   0.75588    0.000
 4632.00    0.63572   0.75375    0.000
 4633.00    0.61427   0.75107    0.000
 4634.00    0.62040   0.74799    0.000
 4635.00    0.64926   0.74486    0.000
 4636.00    0.68032   0.74224    0.000
 4637.00    0.68374   0.74063    0.000
 4638.00    0.65017   0.74017    0.000
 4639.00    0.60416   0.74044    0.000
 4640.00    0.57933   0.74060    0.000
 4641.00    0.59975   0.73972    0.000
 4642.00    0.65940   0.73734    0.000
 4643.00    0.72026   0.73374    0.000
 4644.00    0.75497   0.72989    0.000
 4645.00    0.76490   0.72703    0.000
 4646.00    0.76257   0.72610    0.000
 4647.00    0.76139   0.72734    0.000
 4648.00    0.76929   0.73025    0.000
 4649.00    0.78596   0.73388    0.000
 4650.00    0.80282   0.73735    0.000
 4651.00    0.80560   0.74026    0.000
 4652.00    0.78415   0.74280    0.000
 4653.00    0.73955   0.74549    0.000
 4654.00    0.69498   0.74859    0.000
 4655.00    0.68492   0.75183    0.000
 4656.00    0.70534   0.75443    0.000
 4657.00    0.71435   0.75560    0.000
 4658.00    0.69070   0.75497    0.000
 4659.00    0.65150   0.75271    0.000
 4660.00    0.64454   0.74930    0.000
 4661.00    0.71286   0.74524    0.000
 4662.00    0.80385   0.74093    0.000
 4663.00    0.80767   0.73686    0.000
 4664.00    0.73016   0.73371    0.000
 4665.00    0.67527   0.73218    0.000
 4666.00    0.67891   0.73258    0.000
 4667.00    0.70065   0.73454    0.000
 4668.00    0.70954   0.73714    0.000
 4669.00    0.70338   0.73939    0.000
 4670.00    0.70266   0.74076    0.000
 4671.00    0.72727   0.74128    0.000
 4672.00    0.75194   0.74133    0.000
 4673.00    0.73367   0.74124    0.000
 4674.00    0.68459   0.74107    0.000
 4675.00    0.65176   0.74065    0.000
 4676.00    0.65089   0.73988    0.000
 4677.00    0.66271   0.73885    0.000
 4678.00    0.65087   0.73784    0.000
 4679.00    0.59167   0.73712    0.000
 4680.00    0.51654   0.73679    0.000
 4681.00    0.47878   0.73673    0.000
 4682.00    0.49018   0.73679    0.000
 4683.00    0.52732   0.73684    0.000
 4684.00    0.55713   0.73690    0.000
 4685.00    0.55198   0.73700    0.000
 4686.00    0.50644   0.73718    0.000
 4687.00    0.45115   0.73745    0.000
 4688.00    0.46236   0.73789    0.000
 4689.00    0.57259   0.73858    0.000
 4690.00    0.66747   0.73943    0.000
 4691.00    0.63677   0.74014    0.000
 4692.00    0.55771   0.74019    0.000
 4693.00    0.55121   0.73910    0.000
 4694.00    0.60289   0.73677    0.000
 4695.00    0.63667   0.73356    0.000
 4696.00    0.61462   0.73019    0.000
 4697.00    0.55360   0.72733    0.000
 4698.00    0.52387   0.72529    0.000
 4699.00    0.56371   0.72406    0.000
 4700.00    0.61056   0.72338    0.000
 4701.00    0.61689   0.72301    0.000
 4702.00    0.64299   0.72276    0.000
 4703.00    0.70934   0.72250    0.000
 4704.00    0.69219   0.72208    0.000
 4705.00    0.54973   0.72139    0.000
 4706.00    0.47109   0.72026    0.000
 4707.00    0.57637   0.71861    0.000
 4708.00    0.71864   0.71656    0.000
 4709.00    0.75446   0.71465    0.000
 4710.00    0.72491   0.71374    0.000
 4711.00    0.70681   0.71469    0.000
 4712.00    0.71054   0.71780    0.000
 4713.00    0.71765   0.72262    0.000
 4714.00    0.71110   0.72814    0.000
 4715.00    0.69007   0.73327    0.000
 4716.00    0.67194   0.73723    0.000
 4717.00    0.65773   0.73975    0.000
 4718.00    0.62180   0.74094    0.000
 4719.00    0.56135   0.74109    0.000
 4720.00    0.51661   0.74044    0.000
 4721.00    0.53745   0.73900    0.000
 4722.00    0.64947   0.73664    0.000
 4723.00    0.77954   0.73336    0.000
 4724.00    0.77372   0.72949    0.000
 4725.00    0.62481   0.72571    0.000
 4726.00    0.50869   0.72281    0.000
 4727.00    0.51353   0.72131    0.000
 4728.00    0.56675   0.72127    0.000
 4729.00    0.60216   0.72233    0.000
 4730.00    0.61449   0.72391    0.000
 4731.00    0.60871   0.72551    0.000
 4732.00    0.58517   0.72676    0.000
 4733.00    0.55646   0.72756    0.000
 4734.00    0.54070   0.72792    0.000
 4735.00    0.52130   0.72793    0.000
 4736.00    0.46236   0.72768    0.000
 4737.00    0.39432   0.72728    0.000
 4738.00    0.39393   0.72691    0.000
 4739.00    0.45205   0.72677    0.000
 4740.00    0.48614   0.72702    0.000
 4741.00    0.47852   0.72764    0.000
 4742.00    0.47431   0.72849    0.000
 4743.00    0.47891   0.72936    0.000
 4744.00    0.46459   0.73001    0.000
 4745.00    0.45000   0.73025    0.000
 4746.00    0.48029   0.72996    0.000
 4747.00    0.53946   0.72909    0.000
 4748.00    0.57024   0.72772    0.000
 4749.00    0.55878   0.72601    0.000
 4750.00    0.53286   0.72419    0.000
 4751.00    0.52057   0.72249    0.000
 4752.00    0.53132   0.72107    0.000
 4753.00    0.53800   0.71999    0.000
 4754.00    0.51037   0.71917    0.000
 4755.00    0.47837   0.71845    0.000
 4756.00    0.49429   0.71759    0.000
 4757.00    0.55200   0.71634    0.000
 4758.00    0.61776   0.71458    0.000
 4759.00    0.69828   0.71237    0.000
 4760.00    0.79866   0.71004    0.000
 4761.00    0.84810   0.70803    4.857
 4762.00    0.77987   0.70676    4.946
 4763.00    0.65449   0.70644    4.950
 4764.00    0.58058   0.70702    4.899
 4765.00    0.58799   0.70817    4.868
 4766.00    0.64732   0.70945    4.910
 4767.00    0.71664   0.71052    4.983
 4768.00    0.75926   0.71128    5.003
 4769.00    0.75841   0.71188    4.933
 4770.00    0.72250   0.71250    4.801
 4771.00    0.68590   0.71315    4.687
 4772.00    0.66995   0.71366    4.650
 4773.00    0.64681   0.71374    4.674
 4774.00    0.59966   0.71322    4.717
 4775.00    0.57900   0.71204    4.754
 4776.00    0.62431   0.71034    4.774
 4777.00    0.69164   0.70833    4.770
 4778.00    0.71977   0.70627    4.748
 4779.00    0.69476   0.70439    4.734
 4780.00    0.64544   0.70286    4.747
 4781.00    0.62713   0.70175    4.784
 4782.00    0.65359   0.70104    4.820
 4783.00    0.65896   0.70067    4.824
 4784.00    0.61826   0.70063    4.784
 4785.00    0.61807   0.70097    4.732
 4786.00    0.69219   0.70181    4.707
 4787.00    0.72786   0.70327    4.736
 4788.00    0.64915   0.70536    4.818
 4789.00    0.52757   0.70788    4.917
 4790.00    0.47188   0.71043    4.980
 4791.00    0.54279   0.71247    4.966
 4792.00    0.68927   0.71351    4.907
 4793.00    0.75231   0.71334    4.901
 4794.00    0.68430   0.71218    4.974
 4795.00    0.62581   0.71056    5.026
 4796.00    0.65362   0.70911    4.996
 4797.00    0.68194   0.70824    4.946
 4798.00    0.65378   0.70800    4.931
 4799.00    0.61360   0.70806    4.948
 4800.00    0.58410   0.70798    4.978
 4801.00    0.53149   0.70746    4.996
 4802.00    0.47645   0.70652    4.984
 4803.00    0.50413   0.70540    4.941
 4804.00    0.59935   0.70442    4.902
 4805.00    0.63310   0.70377    4.925
 4806.00    0.57935   0.70345    4.982
 4807.00    0.55090   0.70329    4.967
 4808.00    0.61271   0.70311    4.870
 4809.00    0.72733   0.70287    4.794
 4810.00    0.81343   0.70267    4.786
 4811.00    0.79916   0.70270    4.814
 4812.00    0.72117   0.70309    4.852
 4813.00    0.69730   0.70376    4.891
 4814.00    0.74707   0.70448    4.905
 4815.00    0.78329   0.70490    4.864
 4816.00    0.75013   0.70473    4.797
 4817.00    0.65521   0.70383    4.774
 4818.00    0.54379   0.70225    4.794
 4819.00    0.47774   0.70025    4.803
 4820.00    0.50184   0.69820    4.777
 4821.00    0.62128   0.69646    4.728
 4822.00    0.77138   0.69513    4.673
 4823.00    0.86015   0.69408    4.622
 4824.00    0.87829   0.69306    4.606
 4825.00    0.87411   0.69190    4.650
 4826.00    0.84792   0.69063    4.713
 4827.00    0.77117   0.68944    4.731
 4828.00    0.66970   0.68858    4.726
 4829.00    0.60001   0.68819    4.766
 4830.00    0.57342   0.68821    4.830
 4831.00    0.57054   0.68839    4.846
 4832.00    0.59204   0.68835    4.814
 4833.00    0.63862   0.68772    4.779
 4834.00    0.66469   0.68631    4.749
 4835.00    0.63202   0.68419    4.714
 4836.00    0.60160   0.68163    4.703
 4837.00    0.64399   0.67895    4.748
 4838.00    0.69053   0.67645    4.821
 4839.00    0.64398   0.67426    4.861
 4840.00    0.55982   0.67235    4.847
 4841.00    0.55466   0.67051    4.789
 4842.00    0.65066   0.66841    4.715
 4843.00    0.77162   0.66570    4.665
 4844.00    0.77402   0.66215    4.701
 4845.00    0.59104   0.65772    4.836
 4846.00    0.38334   0.65243    4.946
 4847.00    0.33643   0.64619    4.897
 4848.00    0.42442   0.63867    0.000
 4849.00    0.53543   0.62945    0.000
 4850.00    0.62791   0.61813    0.000
 4851.00    0.69340   0.60451    0.000
 4852.00    0.70858   0.58846    0.000
 4853.00    0.68308   0.56995    0.000
 4854.00    0.69979   0.54914    0.000
 4855.00    0.82676   0.52691    0.000
 4856.00    1.04028   0.50540    0.000
 4857.00    1.27150   0.48789    0.000
 4858.00    1.45246   0.47796    0.000
 4859.00    1.52723   0.47795    0.000
 4860.00    1.46196   0.48784    0.000
 4861.00    1.27403   0.50526    0.000
 4862.00    1.04380   0.52659    0.000
 4863.00    0.84371   0.54825    0.000
 4864.00    0.69286   0.56773    0.000
 4865.00    0.59696   0.58378    0.000
 4866.00    0.57085   0.59631    0.000
 4867.00    0.59877   0.60599    0.000
 4868.00    0.62057   0.61384    0.000
 4869.00    0.60419   0.62088    0.000
 4870.00    0.57771   0.62780    0.000
 4871.00    0.56127   0.63482    0.000
 4872.00    0.53756   0.64180    0.000
 4873.00    0.50522   0.64838    0.000
 4874.00    0.49998   0.65418    0.000
 4875.00    0.55452   0.65888    4.902
 4876.00    0.67259   0.66229    4.847
 4877.00    0.80721   0.66438    4.849
 4878.00    0.87330   0.66538    4.839
 4879.00    0.84430   0.66559    4.794
 4880.00    0.77381   0.66533    4.773
 4881.00    0.70607   0.66482    4.802
 4882.00    0.64696   0.66421    4.843
 4883.00    0.60140   0.66359    4.866
 4884.00    0.58349   0.66301    4.870
 4885.00    0.59768   0.66258    4.866
 4886.00    0.63146   0.66256    4.861
 4887.00    0.65527   0.66339    4.861
 4888.00    0.63925   0.66562    4.866
 4889.00    0.60497   0.66951    4.863
 4890.00    0.60432   0.67479    4.842
 4891.00    0.60598   0.68063    4.839
 4892.00    0.52754   0.68590    4.911
 4893.00    0.42513   0.68966    5.015
 4894.00    0.45028   0.69142    5.026
 4895.00    0.58699   0.69129    4.947
 4896.00    0.68117   0.68981    4.890
 4897.00    0.69854   0.68774    4.897
 4898.00    0.71797   0.68577    4.926
 4899.00    0.75441   0.68438    4.921
 4900.00    0.75612   0.68372    4.855
 4901.00    0.69767   0.68366    4.778
 4902.00    0.59556   0.68384    4.774
 4903.00    0.49413   0.68380    4.848
 4904.00    0.44268   0.68326    4.936
 4905.00    0.45690   0.68224    4.944
 4906.00    0.52443   0.68106    4.827
 4907.00    0.62970   0.68020    4.685
 4908.00    0.74187   0.67999    4.645
 4909.00    0.78779   0.68040    4.688
 4910.00    0.71125   0.68099    4.726
 4911.00    0.57636   0.68091    4.741
 4912.00    0.49740   0.67916    4.758
 4913.00    0.50208   0.67486    4.748
 4914.00    0.55272   0.66761    4.670
 4915.00    0.61119   0.65783    4.544
 4916.00    0.65533   0.64695    4.436
 4917.00    0.68684   0.63720    4.422
 4918.00    0.71034   0.63087    4.520
 4919.00    0.70615   0.62941    4.610
 4920.00    0.66445   0.63303    4.567
 4921.00    0.62843   0.64077    4.493
 4922.00    0.63776   0.65086    4.531
 4923.00    0.66028   0.66141    4.651
 4924.00    0.65542   0.67090    4.747
 4925.00    0.64867   0.67831    4.775
 4926.00    0.66744   0.68310    4.768
 4927.00    0.67204   0.68520    4.806
 4928.00    0.63814   0.68491    4.913
 4929.00    0.63421   0.68292    4.979
 4930.00    0.69811   0.68006    4.924
 4931.00    0.73113   0.67701    4.881
 4932.00    0.66730   0.67408    4.952
 4933.00    0.61242   0.67133    5.033
 4934.00    0.65907   0.66891    5.022
 4935.00    0.73850   0.66715    5.017
 4936.00    0.76928   0.66648    5.094
 4937.00    0.77387   0.66715    5.149
 4938.00    0.79288   0.66904    5.107
 4939.00    0.81763   0.67175    5.088
 4940.00    0.81533   0.67474    0.000
 4941.00    0.75602   0.67754    0.000
 4942.00    0.65224   0.67992    0.000
 4943.00    0.57263   0.68192    0.000
 4944.00    0.56493   0.68362    0.000
 4945.00    0.61194   0.68504    0.000
 4946.00    0.66533   0.68610    0.000
 4947.00    0.67766   0.68653    0.000
 4948.00    0.65861   0.68599    0.000
 4949.00    0.68203   0.68420    0.000
 4950.00    0.76012   0.68106    0.000
 4951.00    0.80947   0.67672    0.000
 4952.00    0.81595   0.67166    0.000
 4953.00    0.87856   0.66673    0.000
 4954.00    1.02343   0.66312    0.000
 4955.00    1.15217   0.66167    0.000
 4956.00    1.20721   0.66240    0.000
 4957.00    1.22149   0.66450    0.000
 4958.00    1.21314   0.66681    0.000
 4959.00    1.15890   0.66833    0.000
 4960.00    1.06689   0.66852    0.000
 4961.00    0.98230   0.66746    0.000
 4962.00    0.90237   0.66575    0.000
 4963.00    0.77799   0.66415    0.000
 4964.00    0.62774   0.66323    0.000
 4965.00    0.53965   0.66329    0.000
 4966.00    0.54769   0.66432    0.000
 4967.00    0.61066   0.66607    0.000
 4968.00    0.67450   0.66816    0.000
 4969.00    0.69983   0.67015    0.000
 4970.00    0.68252   0.67161    0.000
 4971.00    0.64788   0.67218    0.000
 4972.00    0.61966   0.67166    0.000
 4973.00    0.61250   0.66998    0.000
 4974.00    0.63492   0.66721    0.000
 4975.00    0.68019   0.66355    0.000
 4976.00    0.70391   0.65931    0.000
 4977.00    0.66368   0.65484    0.000
 4978.00    0.61683   0.65066    0.000
 4979.00    0.65844   0.64740    0.000
 4980.00    0.74660   0.64569    0.000
 4981.00    0.76564   0.64575    0.000
 4982.00    0.72506   0.64728    0.000
 4983.00    0.71308   0.64963    0.000
 4984.00    0.73408   0.65205    0.000
 4985.00    0.72821   0.65391    0.000
 4986.00    0.66298   0.65496    0.000
 4987.00    0.56509   0.65532    0.000
 4988.00    0.54024   0.65532    0.000
 4989.00    0.66431   0.65528    0.000
 4990.00    0.81512   0.65529    0.000
 4991.00    0.82120   0.65527    0.000
 4992.00    0.71624   0.65505    0.000
 4993.00    0.63262   0.65428    0.000
 4994.00    0.60099   0.65266    0.000
 4995.00    0.59041   0.65015    0.000
 4996.00    0.59761   0.64699    0.000
 4997.00    0.63002   0.64370    0.000
 4998.00    0.67332   0.64085    0.000
 4999.00    0.73846   0.63873    0.000
 5000.00    0.91397   0.63733    0.000
 5001.00    1.26173   0.63643    0.000
 5002.00    1.70172   0.63594    0.000
 5003.00    2.11061   0.63595    0.000
 5004.00    2.43205   0.63645    0.000
 5005.00    2.60037   0.63704    0.000
 5006.00    2.47192   0.63699    0.000
 5007.00    2.01595   0.63562    0.000
 5008.00    1.47323   0.63262    0.000
 5009.00    1.08700   0.62821    0.000
 5010.00    0.86663   0.62318    0.000
 5011.00    0.73515   0.61876    0.000
 5012.00    0.66558   0.61617    0.000
 5013.00    0.64563   0.61623    0.000
 5014.00    0.64489   0.61878    0.000
 5015.00    0.64178   0.62280    0.000
 5016.00    0.64130   0.62712    0.000
 5017.00    0.64376   0.63092    0.000
 5018.00    0.62797   0.63381    0.000
 5019.00    0.59358   0.63584    0.000
 5020.00    0.58044   0.63736    0.000
 5021.00    0.60655   0.63862    0.000
 5022.00    0.63710   0.63969    0.000
 5023.00    0.63980   0.64065    0.000
 5024.00    0.61531   0.64164    0.000
 5025.00    0.57559   0.64289    0.000
 5026.00    0.53365   0.64451    0.000
 5027.00    0.51884   0.64629    0.000
 5028.00    0.57021   0.64777    0.000
 5029.00    0.66375   0.64844    5.514
 5030.00    0.70533   0.64786    5.497
 5031.00    0.66597   0.64578    5.591
 5032.00    0.61760   0.64226    5.670
 5033.00    0.60701   0.63775    5.652
 5034.00    0.61276   0.63283    5.585
 5035.00    0.60441   0.62799    5.527
 5036.00    0.56919   0.62379    5.501
 5037.00    0.51444   0.62098    5.535
 5038.00    0.46544   0.62033    5.656
 5039.00    0.45494   0.62214    5.800
 5040.00    0.50625   0.62574    5.818
 5041.00    0.59048   0.62975    5.715
 5042.00    0.64220   0.63282    5.653
 5043.00    0.65585   0.63425    5.692
 5044.00    0.68092   0.63402    5.759
 5045.00    0.71121   0.63282    5.762
 5046.00    0.69047   0.63163    5.663
 5047.00    0.62680   0.63120    5.559
 5048.00    0.58616   0.63170    5.592
 5049.00    0.58512   0.63297    5.719
 5050.00    0.58877   0.63473    5.754
 5051.00    0.58131   0.63665    5.683
 5052.00    0.57508   0.63850    5.646
 5053.00    0.58716   0.64026    5.676
 5054.00    0.62640   0.64203    5.710
 5055.00    0.67809   0.64375    5.735
 5056.00    0.71445   0.64505    5.778
 5057.00    0.72388   0.64546    5.802
 5058.00    0.70727   0.64471    5.745
 5059.00    0.65875   0.64272    5.664
 5060.00    0.57702   0.63969    5.658
 5061.00    0.49349   0.63622    5.713
 5062.00    0.45330   0.63308    5.748
 5063.00    0.47258   0.63091    5.739
 5064.00    0.53424   0.62984    5.714
 5065.00    0.59540   0.62952    5.695
 5066.00    0.61531   0.62961    5.693
 5067.00    0.59645   0.62989    5.722
 5068.00    0.57030   0.63017    5.777
 5069.00    0.56572   0.63031    5.803
 5070.00    0.59520   0.63029    5.749
 5071.00    0.64258   0.63005    5.654
 5072.00    0.67151   0.62932    5.596
 5073.00    0.64139   0.62783    5.617
 5074.00    0.54750   0.62556    5.706
 5075.00    0.46324   0.62280    5.768
 5076.00    0.46797   0.61998    5.718
 5077.00    0.55730   0.61767    5.601
 5078.00    0.66799   0.61652    5.520
 5079.00    0.72262   0.61669    5.529
 5080.00    0.69579   0.61792    5.608
 5081.00    0.66851   0.61983    5.633
 5082.00    0.71178   0.62214    5.533
 5083.00    0.77420   0.62450    5.436
 5084.00    0.77972   0.62664    5.438
 5085.00    0.72612   0.62847    5.434
 5086.00    0.64967   0.63000    5.344
 5087.00    0.58504   0.63123    5.300
 5088.00    0.55733   0.63209    5.398
 5089.00    0.57562   0.63247    5.521
 5090.00    0.61404   0.63220    5.553
 5091.00    0.60837   0.63109    5.569
 5092.00    0.54368   0.62905    5.650
 5093.00    0.50326   0.62636    5.740
 5094.00    0.54298   0.62355    5.762
 5095.00    0.61220   0.62117    5.719
 5096.00    0.64019   0.61954    5.685
 5097.00    0.60005   0.61874    5.769
 5098.00    0.52313   0.61861    5.977
 5099.00    0.48965   0.61869    6.138
 5100.00    0.53275   0.61848    6.134
 5101.00    0.59572   0.61778    6.066
 5102.00    0.61457   0.61667    6.054
 5103.00    0.56910   0.61539    6.123
 5104.00    0.49697   0.61420    6.202
 5105.00    0.47925   0.61338    6.166
 5106.00    0.53934   0.61320    6.022
 5107.00    0.61289   0.61375    5.939
 5108.00    0.64365   0.61496    5.980
 5109.00    0.62610   0.61679    6.041
 5110.00    0.58778   0.61902    6.044
 5111.00    0.56895   0.62136    6.007
 5112.00    0.57545   0.62359    5.974
 5113.00    0.57628   0.62530    5.973
 5114.00    0.56934   0.62604    6.006
 5115.00    0.58798   0.62550    6.052
 5116.00    0.63029   0.62355    6.072
 5117.00    0.65298   0.62035    6.033
 5118.00    0.64131   0.61637    5.953
 5119.00    0.61722   0.61216    5.891
 5120.00    0.58566   0.60830    5.864
 5121.00    0.53514   0.60517    5.847
 5122.00    0.49282   0.60303    5.823
 5123.00    0.51134   0.60192    5.793
 5124.00    0.58313   0.60165    5.784
 5125.00    0.64924   0.60213    5.821
 5126.00    0.68989   0.60334    5.869
 5127.00    0.72543   0.60515    5.850
 5128.00    0.75523   0.60733    5.736
 5129.00    0.75630   0.60960    5.573
 5130.00    0.71834   0.61161    5.447
 5131.00    0.65294   0.61304    5.432
 5132.00    0.59362   0.61371    5.516
 5133.00    0.57339   0.61353    5.619
 5134.00    0.57893   0.61248    5.672
 5135.00    0.57348   0.61085    5.649
 5136.00    0.56105   0.60903    5.611
 5137.00    0.56731   0.60725    5.636
 5138.00    0.58033   0.60567    5.716
 5139.00    0.57382   0.60424    5.781
 5140.00    0.56687   0.60286    5.799
 5141.00    0.59314   0.60172    5.785
 5142.00    0.63338   0.60095    5.787
 5143.00    0.64850   0.60040    5.837
 5144.00    0.64785   0.59993    5.885
 5145.00    0.65895   0.59947    5.876
 5146.00    0.66817   0.59890    5.870
 5147.00    0.65026   0.59823    5.944
 5148.00    0.62038   0.59758    6.021
 5149.00    0.60674   0.59738    5.991
 5150.00    0.60604   0.59807    5.924
 5151.00    0.60152   0.59989    5.931
 5152.00    0.59218   0.60272    5.983
 5153.00    0.58523   0.60619    5.994
 5154.00    0.58322   0.60976    5.948
 5155.00    0.58792   0.61274    5.887
 5156.00    0.60538   0.61452    5.864
 5157.00    0.63337   0.61470    5.905
 5158.00    0.65012   0.61306    5.962
 5159.00    0.64225   0.60947    5.988
 5160.00    0.63012   0.60388    6.007
 5161.00    0.63063   0.59658    6.065
 5162.00    0.62497   0.58824    6.171
 5163.00    0.60841   0.57978    6.273
 5164.00    0.62733   0.57227    6.256
 5165.00    0.69274   0.56661    6.107
 5166.00    0.72095   0.56317    5.998
 5167.00    0.66758   0.56180    6.012
 5168.00    0.61813   0.56201    6.010
 5169.00    0.63418   0.56346    5.903
 5170.00    0.65161   0.56625    5.830
 5171.00    0.61794   0.57056    5.877
 5172.00    0.58030   0.57593    5.941
 5173.00    0.58773   0.58111    5.947
 5174.00    0.62698   0.58478    5.983
 5175.00    0.65553   0.58621    6.107
 5176.00    0.63305   0.58526    6.239
 5177.00    0.56886   0.58230    6.285
 5178.00    0.53103   0.57830    6.238
 5179.00    0.54334   0.57464    6.168
 5180.00    0.54800   0.57266    6.173
 5181.00    0.51726   0.57331    6.254
 5182.00    0.49591   0.57682    6.280
 5183.00    0.51195   0.58236    6.191
 5184.00    0.54236   0.58821    6.071
 5185.00    0.56799   0.59275    5.989
 5186.00    0.59283   0.59521    5.936
 5187.00    0.61147   0.59570    5.885
 5188.00    0.60402   0.59487    5.818
 5189.00    0.57575   0.59357    5.783
 5190.00    0.56083   0.59274    0.000
 5191.00    0.57223   0.59318    0.000
 5192.00    0.59122   0.59498    0.000
 5193.00    0.60219   0.59759    0.000
 5194.00    0.60405   0.60031    0.000
 5195.00    0.60345   0.60245    0.000
 5196.00    0.60886   0.60338    0.000
 5197.00    0.61985   0.60268    0.000
 5198.00    0.62766   0.60018    0.000
 5199.00    0.62736   0.59601    0.000
 5200.00    0.62174   0.59061    0.000
 5201.00    0.62109   0.58466    0.000
 5202.00    0.63240   0.57893    0.000
 5203.00    0.63181   0.57430    0.000
 5204.00    0.59089   0.57166    0.000
 5205.00    0.55945   0.57147    0.000
 5206.00    0.61388   0.57368    0.000
 5207.00    0.68770   0.57797    0.000
 5208.00    0.64569   0.58373    0.000
 5209.00    0.53776   0.59003    0.000
 5210.00    0.52492   0.59591    0.000
 5211.00    0.60276   0.60073    6.187
 5212.00    0.64822   0.60430    6.206
 5213.00    0.63078   0.60685    6.227
 5214.00    0.60302   0.60882    6.247
 5215.00    0.60120   0.61053    6.251
 5216.00    0.62876   0.61180    6.230
 5217.00    0.66241   0.61209    6.218
 5218.00    0.67244   0.61085    6.247
 5219.00    0.65433   0.60794    6.271
 5220.00    0.62472   0.60367    6.227
 5221.00    0.60577   0.59880    6.145
 5222.00    0.60803   0.59448    6.107
 5223.00    0.61059   0.59185    6.159
 5224.00    0.59327   0.59151    6.279
 5225.00    0.58293   0.59334    6.345
 5226.00    0.60626   0.59657    6.265
 5227.00    0.62334   0.60003    6.177
 5228.00    0.59492   0.60272    6.229
 5229.00    0.57123   0.60438    6.333
 5230.00    0.60707   0.60542    6.335
 5231.00    0.65474   0.60644    6.264
 5232.00    0.64048   0.60803    6.228
 5233.00    0.56218   0.61030    6.250
 5234.00    0.47384   0.61288    6.295
 5235.00    0.45172   0.61517    6.308
 5236.00    0.52342   0.61676    6.258
 5237.00    0.61090   0.61752    6.178
 5238.00    0.63966   0.61754    6.128
 5239.00    0.63810   0.61685    6.147
 5240.00    0.65343   0.61533    6.218
 5241.00    0.67450   0.61290    6.243
 5242.00    0.67904   0.60967    6.173
 5243.00    0.67503   0.60591    6.111
 5244.00    0.67042   0.60205    6.138
 5245.00    0.65069   0.59871    6.207
 5246.00    0.61001   0.59652    6.248
 5247.00    0.57162   0.59563    6.260
 5248.00    0.55653   0.59575    6.263
 5249.00    0.56228   0.59673    6.268
 5250.00    0.57643   0.59857    6.262
 5251.00    0.58750   0.60102    6.227
 5252.00    0.59202   0.60367    6.181
 5253.00    0.59723   0.60614    6.199
 5254.00    0.61294   0.60801    6.283
 5255.00    0.64498   0.60867    6.318
 5256.00    0.68634   0.60740    6.245
 5257.00    0.71614   0.60389    6.137
 5258.00    0.71953   0.59849    6.081
 5259.00    0.69705   0.59195    6.108
 5260.00    0.65818   0.58520    6.191
 5261.00    0.61754   0.57906    6.243
 5262.00    0.59316   0.57408    6.201
 5263.00    0.59924   0.57048    6.074
 5264.00    0.61861   0.56826    5.954
 5265.00    0.60685   0.56736    5.955
 5266.00    0.55812   0.56775    6.057
 5267.00    0.51559   0.56941    6.092
 5268.00    0.50483   0.57256    6.025
 5269.00    0.51574   0.57734    5.999
 5270.00    0.53417   0.58308    6.050
 5271.00    0.55282   0.58877    6.078
 5272.00    0.56688   0.59387    6.035
 5273.00    0.57536   0.59823    5.971
 5274.00    0.58996   0.60168    5.896
 5275.00    0.62424   0.60405    5.771
 5276.00    0.65305   0.60516    5.585
 5277.00    0.63164   0.60497    5.368
 5278.00    0.58382   0.60402    5.163
 5279.00    0.58044   0.60320    5.018
 5280.00    0.61427   0.60328    4.979
 5281.00    0.61785   0.60464    5.051
 5282.00    0.59432   0.60715    5.070
 5283.00    0.60102   0.61032    4.859
 5284.00    0.63093   0.61340    4.674
 5285.00    0.63556   0.61566    4.826
 5286.00    0.63922   0.61678    4.963
 5287.00    0.69093   0.61680    4.575
 5288.00    0.71187   0.61586    4.542
 5289.00    0.58725   0.61389    6.594
 5290.00    0.40840   0.61084   12.114
 5291.00    0.36423   0.60685   -1.000
 5292.00    0.45013   0.60233   12.114
 5293.00    0.53248   0.59788   12.114
 5294.00    0.56047   0.59414   12.114
 5295.00    0.56290   0.59177   12.114
 5296.00    0.57756   0.59134   12.114
 5297.00    0.62177   0.59296   12.114
 5298.00    0.66705   0.59611   12.114
 5299.00    0.67366   0.59998   12.114
 5300.00    0.64675   0.60396   12.114
 5301.00    0.62043   0.60771   12.114
 5302.00    0.62262   0.61088   12.114
 5303.00    0.65344   0.61321    8.926
 5304.00    0.66706   0.61466    5.841
 5305.00    0.62845   0.61544    5.371
 5306.00    0.58269   0.61580    5.809
 5307.00    0.59179   0.61584    5.987
 5308.00    0.65162   0.61548    5.803
 5309.00    0.71063   0.61460    5.752
 5310.00    0.70641   0.61331    5.838
 5311.00    0.62489   0.61179    5.869
 5312.00    0.54907   0.61023    5.836
 5313.00    0.54920   0.60878    5.803
 5314.00    0.57850   0.60744    5.766
 5315.00    0.57479   0.60620    5.714
 5316.00    0.55914   0.60494    5.694
 5317.00    0.57626   0.60342    5.739
 5318.00    0.63315   0.60130    5.814
 5319.00    0.69193   0.59839    5.882
 5320.00    0.67944   0.59466    5.954
 5321.00    0.58207   0.59016    6.029
 5322.00    0.50250   0.58521    6.042
 5323.00    0.51864   0.58046    5.980
 5324.00    0.58713   0.57671    5.957
 5325.00    0.63440   0.57459    6.024
 5326.00    0.62685   0.57458    6.079
 5327.00    0.57634   0.57704    6.056
 5328.00    0.53341   0.58162    6.041
 5329.00    0.53819   0.58704    6.087
 5330.00    0.59041   0.59195    6.117
 5331.00    0.65609   0.59563    6.080
 5332.00    0.68264   0.59789    6.036
 5333.00    0.65478   0.59867    6.040
 5334.00    0.61365   0.59801    6.089
 5335.00    0.59380   0.59632    6.156
 5336.00    0.59449   0.59422    6.205
 5337.00    0.60752   0.59233    6.209
 5338.00    0.63016   0.59096    6.170
 5339.00    0.65745   0.59035    6.125
 5340.00    0.67895   0.59048    6.135
 5341.00    0.68179   0.59098    6.201
 5342.00    0.65664   0.59133    6.251
 5343.00    0.61569   0.59151    6.239
 5344.00    0.58975   0.59178    6.182
 5345.00    0.58867   0.59260    6.124
 5346.00    0.59482   0.59422    6.108
 5347.00    0.59682   0.59660    6.154
 5348.00    0.60066   0.59970    6.250
 5349.00    0.62391   0.60333    6.330
 5350.00    0.68022   0.60700    6.306
 5351.00    0.73817   0.61020    6.217
 5352.00    0.73787   0.61267    6.201
 5353.00    0.68037   0.61432    6.290
 5354.00    0.62655   0.61501    6.399
 5355.00    0.61486   0.61467    6.444
 5356.00    0.64093   0.61340    6.403
 5357.00    0.66985   0.61137    6.338
 5358.00    0.66126   0.60880    6.343
 5359.00    0.62246   0.60595    6.424
 5360.00    0.59285   0.60306    6.505
 5361.00    0.57567   0.60030    6.523
 5362.00    0.55105   0.59761    6.467
 5363.00    0.54147   0.59478    6.407
 5364.00    0.58313   0.59175    6.429
 5365.00    0.63628   0.58875    6.506
 5366.00    0.62973   0.58613    6.541
 5367.00    0.58511   0.58440    6.501
 5368.00    0.57598   0.58403    6.432
 5369.00    0.60549   0.58534    6.407
 5370.00    0.62685   0.58831    6.460
 5371.00    0.62098   0.59236    6.504
 5372.00    0.59935   0.59651    6.437
 5373.00    0.58439   0.59983    6.343
 5374.00    0.59014   0.60196    6.350
 5375.00    0.59844   0.60297    6.391
 5376.00    0.58197   0.60310    6.336
 5377.00    0.54329   0.60265    6.250
 5378.00    0.50446   0.60175    6.253
 5379.00    0.48401   0.60064    6.314
 5380.00    0.49163   0.59957    6.336
 5381.00    0.52523   0.59865    6.310
 5382.00    0.56817   0.59777    6.281
 5383.00    0.58893   0.59677    6.281
 5384.00    0.57487   0.59552   -2.000
 5385.00    0.56737   0.59384   -2.000
 5386.00    0.59982   0.59174   -2.000
 5387.00    0.63048   0.58932   -2.000
 5388.00    0.61898   0.58674   -2.000
 5389.00    0.60694   0.58417   -2.000
 5390.00    0.63502   0.58177   -2.000
 5391.00    0.66055   0.57961   -2.000
 5392.00    0.64171   0.57781   -2.000
 5393.00    0.61549   0.57664   -2.000
 5394.00    0.61667   0.57630   -2.000
 5395.00    0.60893   0.57665   -2.000
 5396.00    0.56588   0.57747   -2.000
 5397.00    0.53402   0.57833   -2.000
 5398.00    0.55083   0.57836    5.779
 5399.00    0.58450   0.57706    5.849
 5400.00    0.60081   0.57476    5.966
 5401.00    0.61061   0.57204    6.116
 5402.00    0.62768   0.56942    6.230
 5403.00    0.63947   0.56756    6.280
 5404.00    0.62691   0.56706    6.291
 5405.00    0.58064   0.56818    6.335
 5406.00    0.51267   0.57065    6.443
 5407.00    0.45843   0.57392    6.557
 5408.00    0.44879   0.57763    6.612
 5409.00    0.49115   0.58168    6.593
 5410.00    0.55811   0.58582    6.551
 5411.00    0.59370   0.58945    6.571
 5412.00    0.57533   0.59221    6.657
 5413.00    0.53488   0.59403    6.703
 5414.00    0.50064   0.59502    6.672
 5415.00    0.47447   0.59531    6.666
 5416.00    0.46387   0.59499    6.717
 5417.00    0.48861   0.59421    6.735
 5418.00    0.54218   0.59328    6.693
 5419.00    0.58639   0.59232    6.663
 5420.00    0.59984   0.59140    6.648
 5421.00    0.59319   0.59034    6.571
 5422.00    0.58799   0.58885    6.520
 5423.00    0.60269   0.58686    6.673
 5424.00    0.63365   0.58449    6.773
 5425.00    0.65497   0.58166    6.334
 5426.00    0.64158   0.57843    6.105
 5427.00    0.58603   0.57506    7.664
 5428.00    0.52490   0.57217   12.114
 5429.00    0.51770   0.57052   12.114
 5430.00    0.55948   0.57017   12.114
 5431.00    0.58794   0.57083   12.114
 5432.00    0.58020   0.57267   12.114
 5433.00    0.56146   0.57576   12.114
 5434.00    0.55147   0.57980   12.114
 5435.00    0.55325   0.58424   12.114
 5436.00    0.56298   0.58832   12.114
 5437.00    0.57514   0.59125   12.114
 5438.00    0.58842   0.59246   12.114
 5439.00    0.60177   0.59177   12.114
 5440.00    0.60325   0.58943   12.114
 5441.00    0.58181   0.58597   11.367
 5442.00    0.55670   0.58212    7.179
 5443.00    0.55897   0.57862    6.126
 5444.00    0.58327   0.57608    6.332
 5445.00    0.60356   0.57481    6.625
 5446.00    0.62008   0.57473    6.563
 5447.00    0.64465   0.57522    6.415
 5448.00    0.66046   0.57537    6.378
 5449.00    0.64825   0.57476    6.469
 5450.00    0.63958   0.57362    6.591
 5451.00    0.67246   0.57247    6.630
 5452.00    0.71043   0.57181    6.626
 5453.00    0.69273   0.57195    6.686
 5454.00    0.62571   0.57288    6.802
 5455.00    0.55886   0.57445    6.894
 5456.00    0.53120   0.57606    6.916
 5457.00    0.55583   0.57712    6.871
 5458.00    0.61035   0.57746    6.802
 5459.00    0.65123   0.57740    6.764
 5460.00    0.63618   0.57736    6.798
 5461.00    0.56432   0.57753    6.896
 5462.00    0.51286   0.57790    6.969
 5463.00    0.54260   0.57839    6.948
 5464.00    0.59650   0.57863    6.907
 5465.00    0.60135   0.57833    6.911
 5466.00    0.57928   0.57751    6.870
 5467.00    0.57270   0.57611    6.728
 5468.00    0.56345   0.57413    6.632
 5469.00    0.52275   0.57187    6.679
 5470.00    0.46292   0.56971    6.728
 5471.00    0.41674   0.56780    6.655
 5472.00    0.41260   0.56627    6.581
 5473.00    0.45208   0.56537    6.623
 5474.00    0.49857   0.56512    6.704
 5475.00    0.52552   0.56537    6.726
 5476.00    0.54975   0.56622    6.706
 5477.00    0.58643   0.56761    6.685
 5478.00    0.61799   0.56902    6.654
 5479.00    0.62623   0.57024    6.617
 5480.00    0.61412   0.57143    6.616
 5481.00    0.58977   0.57273    6.669
 5482.00    0.55690   0.57391    6.726
 5483.00    0.52751   0.57471    6.730
 5484.00    0.52417   0.57502    6.662
 5485.00    0.54373   0.57498    6.582
 5486.00    0.54691   0.57489    6.600
 5487.00    0.52071   0.57500    6.710
 5488.00    0.50191   0.57525    6.738
 5489.00    0.51383   0.57540    6.608
 5490.00    0.53999   0.57544    6.453
 5491.00    0.56312   0.57532    6.334
 5492.00    0.58242   0.57494    6.186
 5493.00    0.59997   0.57448    6.052
 5494.00    0.61223   0.57404   -2.000
 5495.00    0.60332   0.57352   -2.000
 5496.00    0.55868   0.57289   -2.000
 5497.00    0.53055   0.57221   -2.000
 5498.00    0.61566   0.57133   -2.000
 5499.00    0.76841   0.57009   -2.000
 5500.00    0.81797   0.56872   -2.000
 5501.00    0.79228   0.56764   -2.000
 5502.00    0.90945   0.56691   -2.000
 5503.00    1.14224   0.56637   -2.000
 5504.00    1.21200   0.56588   -2.000
 5505.00    1.05631   0.56536   -2.000
 5506.00    0.85741   0.56483   -2.000
 5507.00    0.66077   0.56416   -2.000
 5508.00    0.37295   0.56313   -2.000
 5509.00    0.09159   0.56208   -2.000
 5510.00    0.05354   0.56152   -2.000
 5511.00    0.24228   0.56188   -2.000
 5512.00    0.41925   0.56339   -2.000
 5513.00    0.47449   0.56587   -2.000
 5514.00    0.46131   0.56890   -2.000
 5515.00    0.45858   0.57198   -2.000
 5516.00    0.51599   0.57460   -2.000
 5517.00    0.61084   0.57645   -2.000
 5518.00    0.67897   0.57725    6.361
 5519.00    0.69928   0.57697    6.503
 5520.00    0.68832   0.57585    6.647
 5521.00    0.65325   0.57419    6.749
 5522.00    0.59891   0.57226    6.833
 5523.00    0.55755   0.57034    6.864
 5524.00    0.56134   0.56872    6.803
 5525.00    0.58593   0.56766    6.739
 5526.00    0.58980   0.56723    6.767
 5527.00    0.59383   0.56743    6.766
 5528.00    0.63476   0.56814    6.594
 5529.00    0.67454   0.56896    6.433
 5530.00    0.65629   0.56957    6.479
 5531.00    0.60534   0.56999    6.551
 5532.00    0.58213   0.57048    6.393
 5533.00    0.59629   0.57116    6.185
 5534.00    0.61816   0.57201    6.202
 5535.00    0.61188   0.57298    6.418
 5536.00    0.56831   0.57384    6.648
 5537.00    0.53598   0.57440    6.760
 5538.00    0.55673   0.57466    6.730
 5539.00    0.59093   0.57464    6.650
 5540.00    0.58733   0.57441    6.625
 5541.00    0.56552   0.57419    6.683
 5542.00    0.55998   0.57426    6.788
 5543.00    0.55583   0.57479    6.851
 5544.00    0.53044   0.57561    6.815
 5545.00    0.49858   0.57646    6.742
 5546.00    0.48651   0.57718    6.708
 5547.00    0.50368   0.57755    6.707
 5548.00    0.54359   0.57737    6.685
 5549.00    0.58777   0.57669    6.585
 5550.00    0.61708   0.57570    6.430
 5551.00    0.62083   0.57460    6.348
 5552.00    0.59671   0.57352    6.428
 5553.00    0.55069   0.57261    6.630
 5554.00    0.50043   0.57186    6.859
 5555.00    0.47389   0.57112    7.011
 5556.00    0.48111   0.57029    7.040
 5557.00    0.49937   0.56936    6.996
 5558.00    0.50863   0.56828    6.954
 5559.00    0.51237   0.56701    6.962
 5560.00    0.51594   0.56562    7.010
 5561.00    0.51415   0.56424    7.032
 5562.00    0.50317   0.56308    6.985
 5563.00    0.48660   0.56230    6.901
 5564.00    0.46768   0.56180    6.844
 5565.00    0.44725   0.56160    6.872
 5566.00    0.43624   0.56178    6.964
 5567.00    0.45529   0.56219    7.007
 5568.00    0.50011   0.56267    6.945
 5569.00    0.53464   0.56327    6.838
 5570.00    0.53908   0.56393    6.749
 5571.00    0.52633   0.56447    6.689
 5572.00    0.51378   0.56504    6.652
 5573.00    0.50932   0.56571    6.627
 5574.00    0.50778   0.56617    6.634
 5575.00    0.49727   0.56634    6.707
 5576.00    0.48795   0.56625    6.801
 5577.00    0.50704   0.56572    6.799
 5578.00    0.54113   0.56462    6.718
 5579.00    0.54075   0.56287    6.703
 5580.00    0.50787   0.56036    6.765
 5581.00    0.49616   0.55722    6.775
 5582.00    0.51455   0.55386    6.727
 5583.00    0.52142   0.55058    6.748
 5584.00    0.50365   0.54775    6.860
 5585.00    0.48497   0.54571    6.952
 5586.00    0.47936   0.54474    6.937
 5587.00    0.48181   0.54500    6.821
 5588.00    0.48102   0.54635    6.718
 5589.00    0.47087   0.54834    6.744
 5590.00    0.46922   0.55040    6.788
 5591.00    0.50044   0.55210    6.657
 5592.00    0.54405   0.55324    6.529
 5593.00    0.55558   0.55368    6.665
 5594.00    0.53965   0.55347    6.665
 5595.00    0.53088   0.55274    6.121
 5596.00    0.51969   0.55168    6.103
 5597.00    0.47686   0.55087    8.498
 5598.00    0.43191   0.55091   12.114
 5599.00    0.43837   0.55199   12.114
 5600.00    0.48113   0.55396   12.114
 5601.00    0.51033   0.55665   12.114
 5602.00    0.53058   0.55973   12.114
 5603.00    0.57773   0.56286   12.114
 5604.00    0.65371   0.56553   12.114
 5605.00    0.72673   0.56739   12.114
 5606.00    0.75062   0.56817   12.114
 5607.00    0.69703   0.56773   12.114
 5608.00    0.59657   0.56621   12.114
 5609.00    0.50496   0.56396   12.114
 5610.00    0.44767   0.56128   12.114
 5611.00    0.42207   0.55845    9.570
 5612.00    0.41181   0.55577    5.577
 5613.00    0.40699   0.55360    4.967
 5614.00    0.42474   0.55231    5.311
 5615.00    0.48047   0.55210    5.379
 5616.00    0.55306   0.55247    5.143
 5617.00    0.61031   0.55273    5.120
 5618.00    0.64124   0.55269    5.297
 5619.00    0.65105   0.55251    5.456
 5620.00    0.65121   0.55233    5.560
 5621.00    0.64785   0.55223    5.675
 5622.00    0.63297   0.55237    5.817
 5623.00    0.60328   0.55300    5.947
 5624.00    0.57554   0.55434    5.995
 5625.00    0.55790   0.55622    5.959
 5626.00    0.52842   0.55809    5.980
 5627.00    0.48194   0.55955    6.137
 5628.00    0.46285   0.56041    6.300
 5629.00    0.49900   0.56058    6.352
 5630.00    0.55419   0.56006    6.393
 5631.00    0.58144   0.55902    6.510
 5632.00    0.56653   0.55761    6.588
 5633.00    0.53508   0.55602    6.545
 5634.00    0.54430   0.55444    6.493
 5635.00    0.60601   0.55309    6.517
 5636.00    0.65270   0.55213    6.561
 5637.00    0.64518   0.55155    6.572
 5638.00    0.62602   0.55127    6.595
 5639.00    0.62487   0.55121    6.656
 5640.00    0.61296   0.55137    6.714
 5641.00    0.57411   0.55179    6.741
 5642.00    0.53514   0.55231    6.767
 5643.00    0.51035   0.55288    6.813
 5644.00    0.48061   0.55363    6.862
 5645.00    0.43932   0.55454    6.893
 5646.00    0.40909   0.55550    6.898
 5647.00    0.41026   0.55632    6.896
 5648.00    0.44474   0.55686    6.916
 5649.00    0.49298   0.55693    6.940
 5650.00    0.52112   0.55622    6.911
 5651.00    0.51403   0.55459    6.855
 5652.00    0.48526   0.55232    6.886
 5653.00    0.46175   0.54978    6.977
 5654.00    0.46925   0.54729    6.962
 5655.00    0.50369   0.54517    6.842
 5656.00    0.53395   0.54360    6.801
 5657.00    0.54684   0.54284    6.865
 5658.00    0.55268   0.54311    6.888
 5659.00    0.55249   0.54412    6.844
 5660.00    0.53672   0.54514    6.849
 5661.00    0.51404   0.54603    6.889
 5662.00    0.50653   0.54699    6.844
 5663.00    0.51129   0.54794    6.758
 5664.00    0.50738   0.54870    6.793
 5665.00    0.50386   0.54937    6.911
 5666.00    0.53072   0.55017    6.916
 5667.00    0.58377   0.55119    6.811
 5668.00    0.62800   0.55241    6.763
 5669.00    0.63966   0.55367    6.799
 5670.00    0.61797   0.55481    6.830
 5671.00    0.58717   0.55571    6.827
 5672.00    0.57813   0.55616    6.825
 5673.00    0.58967   0.55608    6.832
 5674.00    0.59729   0.55551    6.840
 5675.00    0.58683   0.55461    6.868
 5676.00    0.55768   0.55349    6.933
 5677.00    0.51590   0.55225    6.987
 5678.00    0.47565   0.55101    6.965
 5679.00    0.46329   0.54991    6.909
 5680.00    0.49624   0.54892    6.896
 5681.00    0.54835   0.54805    6.890
 5682.00    0.57870   0.54748    6.829
 5683.00    0.58450   0.54740    6.777
 5684.00    0.58375   0.54771    6.815
 5685.00    0.57793   0.54837    6.864
 5686.00    0.56377   0.54938    6.805
 5687.00    0.55627   0.55063    6.689
 5688.00    0.57037   0.55182    6.608
 5689.00    0.59375   0.55268    6.515
 5690.00    0.60124   0.55293    6.328
 5691.00    0.57798   0.55242    6.064
 5692.00    0.53051   0.55122    5.783
 5693.00    0.49357   0.54946    5.520
 5694.00    0.49388   0.54735    5.322
 5695.00    0.51219   0.54522    5.283
 5696.00    0.52164   0.54331    5.432
 5697.00    0.52984   0.54174    5.616
 5698.00    0.55232   0.54050    5.704
 5699.00    0.58318   0.53941    5.855
 5700.00    0.60665   0.53831    6.221
 5701.00    0.61109   0.53715    6.574
 5702.00    0.59406   0.53591    6.615
 5703.00    0.56504   0.53465    6.508
 5704.00    0.53784   0.53335    6.499
 5705.00    0.52341   0.53221    6.559
 5706.00    0.52324   0.53184    6.590
 5707.00    0.52698   0.53243    6.591
 5708.00    0.53041   0.53393    6.564
 5709.00    0.54550   0.53626    6.453
 5710.00    0.57511   0.53899    6.246
 5711.00    0.59820   0.54185    6.016
 5712.00    0.59379   0.54475    5.815
 5713.00    0.55878   0.54733    5.630
 5714.00    0.51409   0.54942    5.458
 5715.00    0.49968   0.55115    5.337
 5716.00    0.52611   0.55253    5.299
 5717.00    0.55564   0.55356    5.355
 5718.00    0.55683   0.55422    5.510
 5719.00    0.53296   0.55431    5.756
 5720.00    0.50651   0.55378    6.058
 5721.00    0.50529   0.55292    6.333
 5722.00    0.53872   0.55192    6.503
 5723.00    0.58844   0.55080    6.548
 5724.00    0.61882   0.54963    6.524
 5725.00    0.59352   0.54863    6.532
 5726.00    0.52330   0.54810    6.589
 5727.00    0.46730   0.54815    6.614
 5728.00    0.45300   0.54857    6.577
 5729.00    0.45623   0.54894    6.533
 5730.00    0.45360   0.54918    6.539
 5731.00    0.44216   0.54946    6.602
 5732.00    0.43314   0.54967    6.679
 5733.00    0.44314   0.54962    6.689
 5734.00    0.47336   0.54934    6.641
 5735.00    0.51040   0.54893    6.624
 5736.00    0.55183   0.54850    6.648
 5737.00    0.60223   0.54829    6.636
 5738.00    0.63713   0.54839    6.567
 5739.00    0.61677   0.54875    6.490
 5740.00    0.55577   0.54908    0.000
 5741.00    0.51112   0.54917    0.000
 5742.00    0.49707   0.54909    0.000
 5743.00    0.48767   0.54905    0.000
 5744.00    0.48152   0.54890    0.000
 5745.00    0.49835   0.54835    0.000
 5746.00    0.53123   0.54737    0.000
 5747.00    0.55155   0.54630    0.000
 5748.00    0.54597   0.54563    0.000
 5749.00    0.51866   0.54545    0.000
 5750.00    0.47817   0.54552    0.000
 5751.00    0.43767   0.54577    0.000
 5752.00    0.42088   0.54621    0.000
 5753.00    0.44762   0.54675    0.000
 5754.00    0.50568   0.54716    0.000
 5755.00    0.56209   0.54711    0.000
 5756.00    0.59269   0.54656    0.000
 5757.00    0.58980   0.54586    0.000
 5758.00    0.56544   0.54533    0.000
 5759.00    0.53922   0.54520    0.000
 5760.00    0.51917   0.54565    0.000
 5761.00    0.51344   0.54669    0.000
 5762.00    0.55005   0.54812    0.000
 5763.00    0.64326   0.54960    0.000
 5764.00    0.74552   0.55069    0.000
 5765.00    0.79222   0.55117    0.000
 5766.00    0.76818   0.55115    0.000
 5767.00    0.69350   0.55070    0.000
 5768.00    0.59500   0.54991    0.000
 5769.00    0.50520   0.54894    0.000
 5770.00    0.46270   0.54788    0.000
 5771.00    0.48172   0.54670    0.000
 5772.00    0.52236   0.54536    0.000
 5773.00    0.53868   0.54363    0.000
 5774.00    0.53107   0.54137    0.000
 5775.00    0.52936   0.53876    0.000
 5776.00    0.56694   0.53604    0.000
 5777.00    0.64032   0.53337    0.000
 5778.00    0.68245   0.53085    0.000
 5779.00    0.64869   0.52876    0.000
 5780.00    0.58588   0.52763    0.000
 5781.00    0.54955   0.52769    0.000
 5782.00    0.53552   0.52870    0.000
 5783.00    0.52622   0.53015    0.000
 5784.00    0.52808   0.53173    0.000
 5785.00    0.54738   0.53357    0.000
 5786.00    0.57275   0.53561    0.000
 5787.00    0.59320   0.53755    0.000
 5788.00    0.61019   0.53928    0.000
 5789.00    0.62737   0.54070    0.000
 5790.00    0.64295   0.54177    0.000
 5791.00    0.64809   0.54262    0.000
 5792.00    0.63043   0.54342    0.000
 5793.00    0.59882   0.54426    0.000
 5794.00    0.58769   0.54509    0.000
 5795.00    0.60090   0.54584    0.000
 5796.00    0.59414   0.54650    0.000
 5797.00    0.54820   0.54715    0.000
 5798.00    0.49885   0.54772    0.000
 5799.00    0.49014   0.54799    0.000
 5800.00    0.54469   0.54782    0.000
 5801.00    0.63854   0.54737    0.000
 5802.00    0.70737   0.54680    0.000
 5803.00    0.72110   0.54630    0.000
 5804.00    0.70446   0.54612    0.000
 5805.00    0.68504   0.54619    0.000
 5806.00    0.67039   0.54630    0.000
 5807.00    0.64603   0.54627    0.000
 5808.00    0.59294   0.54601   -2.000
 5809.00    0.55019   0.54552   -2.000
 5810.00    0.59668   0.54493   -2.000
 5811.00    0.71311   0.54449   -2.000
 5812.00    0.78353   0.54437   -2.000
 5813.00    0.75305   0.54455   -2.000
 5814.00    0.65716   0.54499   -2.000
 5815.00    0.55116   0.54564   -2.000
 5816.00    0.48275   0.54640   -2.000
 5817.00    0.47864   0.54703   -2.000
 5818.00    0.53718   0.54738   -2.000
 5819.00    0.61971   0.54746   -2.000
 5820.00    0.66994   0.54736   -2.000
 5821.00    0.66755   0.54718   -2.000
 5822.00    0.63036   0.54702   -2.000
 5823.00    0.58637   0.54696   -2.000
 5824.00    0.56158   0.54693   -2.000
 5825.00    0.56862   0.54682   -2.000
 5826.00    0.60413   0.54658   -2.000
 5827.00    0.64924   0.54616   -2.000
 5828.00    0.67986   0.54553    0.000
 5829.00    0.68656   0.54483    0.000
 5830.00    0.67372   0.54422    0.000
 5831.00    0.65048   0.54371    0.000
 5832.00    0.62884   0.54325    0.000
 5833.00    0.62327   0.54300    0.000
 5834.00    0.64746   0.54315    0.000
 5835.00    0.70829   0.54364    0.000
 5836.00    0.79314   0.54414    0.000
 5837.00    0.85388   0.54446    0.000
 5838.00    0.84802   0.54460    0.000
 5839.00    0.80040   0.54454    0.000
 5840.00    0.75829   0.54408    0.000
 5841.00    0.71820   0.54316    0.000
 5842.00    0.65551   0.54200    0.000
 5843.00    0.57598   0.54075    0.000
 5844.00    0.50531   0.53943    0.000
 5845.00    0.46629   0.53798    0.000
 5846.00    0.45696   0.53634    0.000
 5847.00    0.43316   0.53465    0.000
 5848.00    0.37111   0.53309    0.000
 5849.00    0.33167   0.53159    0.000
 5850.00    0.37350   0.52991    0.000
 5851.00    0.46072   0.52806    0.000
 5852.00    0.52764   0.52652    0.000
 5853.00    0.55107   0.52571    0.000
 5854.00    0.54309   0.52555    0.000
 5855.00    0.53540   0.52569    0.000
 5856.00    0.55422   0.52592    0.000
 5857.00    0.59999   0.52648    0.000
 5858.00    0.65487   0.52743    0.000
 5859.00    0.69254   0.52834    0.000
 5860.00    0.69553   0.52882    0.000
 5861.00    0.66743   0.52898    0.000
 5862.00    0.62432   0.52920    0.000
 5863.00    0.58603   0.52957    0.000
 5864.00    0.56384   0.52985    0.000
 5865.00    0.55357   0.52975    0.000
 5866.00    0.54560   0.52919    0.000
 5867.00    0.53348   0.52813    0.000
 5868.00    0.52437   0.52604    0.000
 5869.00    0.54079   0.52296    0.000
 5870.00    0.59409   0.51968    0.000
 5871.00    0.67041   0.51700    0.000
 5872.00    0.74140   0.51530    0.000
 5873.00    0.77668   0.51404    0.000
 5874.00    0.77461   0.51353    0.000
 5875.00    0.76654   0.51416    0.000
 5876.00    0.75995   0.51558    0.000
 5877.00    0.72612   0.51675    0.000
 5878.00    0.67391   0.51669    0.000
 5879.00    0.66198   0.51542    0.000
 5880.00    0.70073   0.51295    0.000
 5881.00    0.72957   0.50885    0.000
 5882.00    0.70264   0.50244    0.000
 5883.00    0.62410   0.49381    0.000
 5884.00    0.54258   0.48439    0.000
 5885.00    0.52232   0.47601    0.000
 5886.00    0.55200   0.46926    0.000
 5887.00    0.55045   0.46396    0.000
 5888.00    0.49833   0.46033    0.000
 5889.00    0.45279   0.45837    0.000
 5890.00    0.44656   0.45864    0.000
 5891.00    0.46433   0.46118    0.000
 5892.00    0.47379   0.46495    0.000
 5893.00    0.44942   0.46926    0.000
 5894.00    0.40990   0.47427    0.000
 5895.00    0.40427   0.48046    0.000
 5896.00    0.44693   0.48767    0.000
 5897.00    0.51117   0.49498    0.000
 5898.00    0.55850   0.50145    0.000
 5899.00    0.56219   0.50688    0.000
 5900.00    0.54318   0.51136    0.000
 5901.00    0.54878   0.51491    6.154
 5902.00    0.58710   0.51761    6.142
 5903.00    0.62873   0.51956    6.146
 5904.00    0.64246   0.52090    6.230
 5905.00    0.61622   0.52183    6.391
 5906.00    0.58153   0.52229    6.506
 5907.00    0.58152   0.52211    6.440
 5908.00    0.60402   0.52134    6.326
 5909.00    0.60659   0.52036    6.373
 5910.00    0.58218   0.51938    6.533
 5911.00    0.54828   0.51859    6.607
 5912.00    0.51028   0.51801    6.566
 5913.00    0.47036   0.51774    6.519
 5914.00    0.45003   0.51802    6.540
 5915.00    0.47092   0.51858    6.628
 5916.00    0.52180   0.51920    6.692
 5917.00    0.56604   0.51987    6.644
 5918.00    0.56104   0.52049    6.553
 5919.00    0.49591   0.52102    6.520
 5920.00    0.43259   0.52144    6.514
 5921.00    0.43425   0.52172    6.480
 5922.00    0.47389   0.52191    6.476
 5923.00    0.49041   0.52188    6.560
 5924.00    0.46677   0.52163    6.654
 5925.00    0.42555   0.52144    6.652
 5926.00    0.41074   0.52133    6.590
 5927.00    0.44584   0.52105    6.556
 5928.00    0.49664   0.52052    6.589
 5929.00    0.52227   0.52002    6.670
 5930.00    0.52681   0.51988    6.738
 5931.00    0.53304   0.51992    6.746
 5932.00    0.55295   0.51988    6.735
 5933.00    0.58415   0.51973    6.755
 5934.00    0.61008   0.51948    6.805
 5935.00    0.61104   0.51915    6.855
 5936.00    0.57605   0.51890    6.873
 5937.00    0.52311   0.51877    6.861
 5938.00    0.50610   0.51874    6.862
 5939.00    0.54898   0.51883    6.898
 5940.00    0.60607   0.51913    6.931
 5941.00    0.63240   0.51958    6.927
 5942.00    0.63000   0.51985    6.900
 5943.00    0.61263   0.51981    6.880
 5944.00    0.58266   0.51967    6.886
 5945.00    0.54551   0.51937    6.915
 5946.00    0.51571   0.51863    6.940
 5947.00    0.49468   0.51757    6.945
 5948.00    0.46522   0.51672    6.939
 5949.00    0.43420   0.51623    6.925
 5950.00    0.44319   0.51573    6.888
 5951.00    0.49916   0.51515    6.826
 5952.00    0.55159   0.51496    6.762
 5953.00    0.56169   0.51543    6.740
 5954.00    0.53288   0.51634    6.807
 5955.00    0.48851   0.51737    6.923
 5956.00    0.45690   0.51849    6.958
 5957.00    0.45486   0.51971    6.904
 5958.00    0.48057   0.52082    6.908
 5959.00    0.51401   0.52159    6.989
 5960.00    0.52740   0.52196    6.995
 5961.00    0.52254   0.52222    6.926
 5962.00    0.53092   0.52250    6.959
 5963.00    0.56193   0.52280    7.121
 5964.00    0.59215   0.52316    7.244
 5965.00    0.59484   0.52356    7.255
 5966.00    0.55955   0.52396    7.244
 5967.00    0.51936   0.52413    7.242
 5968.00    0.53155   0.52386    7.198
 5969.00    0.59507   0.52308    7.130
 5970.00    0.65251   0.52184    7.114
 5971.00    0.66764   0.52027    7.148
 5972.00    0.64164   0.51854    7.164
 5973.00    0.59464   0.51693    7.178
 5974.00    0.55429   0.51562    7.258
 5975.00    0.54042   0.51467    7.346
 5976.00    0.55519   0.51397    7.303
 5977.00    0.57016   0.51335    7.165
 5978.00    0.55022   0.51278    7.082
 5979.00    0.51190   0.51247    7.079
 5980.00    0.50117   0.51253    7.087
 5981.00    0.52011   0.51274    7.084
 5982.00    0.53718   0.51299    7.093
 5983.00    0.53858   0.51347    7.113
 5984.00    0.52930   0.51435    7.120
 5985.00    0.51578   0.51535    7.090
 5986.00    0.50427   0.51619    7.032
 5987.00    0.50357   0.51697    7.027
 5988.00    0.52041   0.51780    7.142
 5989.00    0.55089   0.51840    7.287
 5990.00    0.57666   0.51855    7.323
 5991.00    0.56307   0.51835    7.320
 5992.00    0.49403   0.51797    7.404
 5993.00    0.42034   0.51740    7.483
 5994.00    0.40396   0.51666    7.422
 5995.00    0.43346   0.51584    7.368
 5996.00    0.46515   0.51494    7.501
 5997.00    0.49087   0.51401    7.678
 5998.00    0.51728   0.51330    7.669
 5999.00    0.53118   0.51280    7.553
 6000.00    0.52538   0.51224    7.506
 6001.00    0.53068   0.51145    7.501
 6002.00    0.57383   0.51063    7.449
 6003.00    0.63026   0.51021    7.369
 6004.00    0.66197   0.51024    7.316
 6005.00    0.66118   0.51037    7.300
 6006.00    0.63663   0.51030    7.304
 6007.00    0.59630   0.51010    7.322
 6008.00    0.55174   0.51006    7.336
 6009.00    0.52136   0.51015    7.313
 6010.00    0.50912   0.50989    7.255
 6011.00    0.49064   0.50919    7.235
 6012.00    0.45776   0.50853    7.294
 6013.00    0.44983   0.50817    7.364
 6014.00    0.49631   0.50794    7.372
 6015.00    0.57344   0.50773    7.331
 6016.00    0.63306   0.50774    7.275
 6017.00    0.63192   0.50808    7.213
 6018.00    0.57037   0.50864    7.187
 6019.00    0.50729   0.50942    7.285
 6020.00    0.48542   0.51046    7.461
 6021.00    0.48966   0.51162    7.454
 6022.00    0.50136   0.51283    7.233
 6023.00    0.52871   0.51414    7.155
 6024.00    0.57551   0.51543    7.313
 6025.00    0.62432   0.51648    7.327
 6026.00    0.65101   0.51731    7.066
 6027.00    0.63792   0.51813    6.922
 6028.00    0.59677   0.51889    7.055
 6029.00    0.56890   0.51942    7.198
 6030.00    0.56889   0.51970    7.133
 6031.00    0.56851   0.51986    6.947
 6032.00    0.55193   0.51992    6.787
 6033.00    0.53515   0.51977    6.723
 6034.00    0.53603   0.51940    6.754
 6035.00    0.55974   0.51903    6.825
 6036.00    0.59614   0.51882    6.882
 6037.00    0.62352   0.51882    6.904
 6038.00    0.62589   0.51903    6.915
 6039.00    0.60001   0.51942    6.967
 6040.00    0.55566   0.51997    7.073
 6041.00    0.51110   0.52058    7.191
 6042.00    0.47763   0.52108    7.273
 6043.00    0.45536   0.52136    7.295
 6044.00    0.43674   0.52143    7.293
 6045.00    0.41428   0.52135    7.335
 6046.00    0.39905   0.52101    7.424
 6047.00    0.41411   0.52032    7.496
 6048.00    0.46034   0.51942    7.519
 6049.00    0.51634   0.51847    7.514
 6050.00    0.56437   0.51746    7.499
 6051.00    0.59469   0.51636    7.481
 6052.00    0.59827   0.51535    7.465
 6053.00    0.57150   0.51462    7.462
 6054.00    0.53125   0.51419    7.501
 6055.00    0.50823   0.51383    7.586
 6056.00    0.52403   0.51342    7.581
 6057.00    0.57816   0.51291    7.361
 6058.00    0.63348   0.51232    7.150
 6059.00    0.64536   0.51161    7.223
 6060.00    0.62362   0.51100    7.395
 6061.00    0.60977   0.51106    7.264
 6062.00    0.61233   0.51181    6.968
 6063.00    0.61291   0.51296    6.873
 6064.00    0.59888   0.51441    6.953
 6065.00    0.56946   0.51622    6.990
 6066.00    0.53579   0.51818    6.967
 6067.00    0.51603   0.51977    6.988
 6068.00    0.52682   0.52070    7.040
 6069.00    0.56856   0.52102    7.047
 6070.00    0.60725   0.52082    7.031
 6071.00    0.60304   0.52007    7.046
 6072.00    0.55291   0.51874    7.070
 6073.00    0.48392   0.51703    7.049
 6074.00    0.43478   0.51526    6.973
 6075.00    0.43152   0.51345    6.885
 6076.00    0.46156   0.51151    6.862
 6077.00    0.49424   0.50980    6.945
 6078.00    0.50919   0.50873    7.065
 6079.00    0.50614   0.50808    7.122
 6080.00    0.50981   0.50741    7.109
 6081.00    0.54239   0.50697    7.066
 6082.00    0.59512   0.50695    7.021
 6083.00    0.63858   0.50693    7.016
 6084.00    0.63870   0.50650    7.131
 6085.00    0.58785   0.50590    7.375
 6086.00    0.52735   0.50560    7.574
 6087.00    0.49748   0.50547    7.562
 6088.00    0.49516   0.50542    7.424
 6089.00    0.50407   0.50575    7.294
 6090.00    0.52129   0.50644    7.189
 6091.00    0.54551   0.50707    7.095
 6092.00    0.56697   0.50732    7.036
 6093.00    0.57314   0.50741    7.052
 6094.00    0.55548   0.50727    7.174
 6095.00    0.52313   0.50655    7.354
 6096.00    0.50717   0.50503    7.427
 6097.00    0.52633   0.50291    7.338
 6098.00    0.56644   0.50119    7.266
 6099.00    0.59648   0.50043    7.317
 6100.00    0.58512   0.50019    7.388
 6101.00    0.53341   0.50009    7.387
 6102.00    0.48387   0.50048    7.353
 6103.00    0.46572   0.50175    7.352
 6104.00    0.46920   0.50352    7.402
 6105.00    0.47354   0.50491    7.464
 6106.00    0.46585   0.50570    7.460
 6107.00    0.45705   0.50643    7.395
 6108.00    0.47732   0.50735    7.376
 6109.00    0.52086   0.50795    7.418
 6110.00    0.53719   0.50782    7.410
 6111.00    0.50441   0.50716    7.350
 6112.00    0.45098   0.50630    7.378
 6113.00    0.41115   0.50508    7.500
 6114.00    0.40435   0.50311    7.554
 6115.00    0.43036   0.50058    7.524
 6116.00    0.47250   0.49797    7.577
 6117.00    0.51479   0.49566    7.733
 6118.00    0.54794   0.49418    7.806
 6119.00    0.56754   0.49349    7.706
 6120.00    0.57349   0.49328    7.521
 6121.00    0.57036   0.49364    7.337
 6122.00    0.56515   0.49475    7.190
 6123.00    0.56061   0.49636    7.115
 6124.00    0.55450   0.49804    7.143
 6125.00    0.54369   0.49960    7.267
 6126.00    0.52544   0.50069    7.436
 6127.00    0.49797   0.50100    7.581
 6128.00    0.46490   0.50047    7.638
 6129.00    0.44562   0.49903    7.614
 6130.00    0.46141   0.49663    7.563
 6131.00    0.49767   0.49348    7.500
 6132.00    0.51843   0.49048    7.412
 6133.00    0.51805   0.48884    7.341
 6134.00    0.51421   0.48868    7.346
 6135.00    0.50897   0.48919    7.428
 6136.00    0.49357   0.49016    7.533
 6137.00    0.47420   0.49220    7.611
 6138.00    0.46775   0.49519    7.616
 6139.00    0.48406   0.49790    7.491
 6140.00    0.51927   0.49962    7.246
 6141.00    0.55117   0.50067    7.046
 6142.00    0.55776   0.50147    7.053
 6143.00    0.54834   0.50177    7.254
 6144.00    0.54688   0.50129    7.525
 6145.00    0.55826   0.50034    7.779
 6146.00    0.57126   0.49954    7.965
 6147.00    0.57108   0.49907    8.057
 6148.00    0.54995   0.49864    8.046
 6149.00    0.51841   0.49794    7.946
 6150.00    0.49423   0.49716    7.729
 6151.00    0.48578   0.49625    7.300
 6152.00    0.49062   0.49469    6.687
 6153.00    0.49715   0.49224    6.125
 6154.00    0.49416   0.48916    5.772
 6155.00    0.48142   0.48541    5.609
 6156.00    0.46513   0.48095    5.584
 6157.00    0.45117   0.47661    5.682
 6158.00    0.44068   0.47339    5.889
 6159.00    0.42750   0.47133    6.141
 6160.00    0.41143   0.47008    6.361
 6161.00    0.40908   0.46976    6.533
 6162.00    0.42796   0.47069    6.679
 6163.00    0.44478   0.47207    6.821
 6164.00    0.43826   0.47296    6.976
 6165.00    0.41758   0.47396    7.166
 6166.00    0.40418   0.47573    7.372
 6167.00    0.41342   0.47755    7.508
 6168.00    0.44373   0.47886    7.544
 6169.00    0.47286   0.48045    7.603
 6170.00    0.48601   0.48264    7.778
 6171.00    0.49375   0.48469    7.997
 6172.00    0.50880   0.48627    8.068
 6173.00    0.52974   0.48780    7.787
 6174.00    0.54711   0.48923    7.214
 6175.00    0.55024   0.49025    6.647
 6176.00    0.54031   0.49102    6.256
 6177.00    0.53415   0.49161    6.052
 6178.00    0.53930   0.49173    6.039
 6179.00    0.54294   0.49134    6.253
 6180.00    0.53292   0.49045    6.638
 6181.00    0.50943   0.48884    6.934
 6182.00    0.48254   0.48662    6.976
 6183.00    0.46779   0.48426    6.921
 6184.00    0.47294   0.48199    6.897
 6185.00    0.49207   0.47965    6.867
 6186.00    0.50910   0.47743    6.862
 6187.00    0.50467   0.47637    7.028
 6188.00    0.47718   0.47676    7.341
 6189.00    0.44708   0.47765    7.520
 6190.00    0.43636   0.47865    7.461
 6191.00    0.45779   0.48001    7.386
 6192.00    0.50751   0.48166    7.380
 6193.00    0.56469   0.48278    7.316
 6194.00    0.60052   0.48301    7.191
 6195.00    0.59111   0.48309    7.158
 6196.00    0.54831   0.48365    7.259
 6197.00    0.51201   0.48437    7.408
 6198.00    0.49283   0.48501    7.586
 6199.00    0.47045   0.48575    7.853
 6200.00    0.44480   0.48672    8.121
 6201.00    0.43754   0.48761    8.146
 6202.00    0.45153   0.48805    7.868
 6203.00    0.46972   0.48785    7.458
 6204.00    0.48349   0.48690    7.050
 6205.00    0.49460   0.48520    6.707
 6206.00    0.50044   0.48299    6.485
 6207.00    0.49510   0.48036    6.438
 6208.00    0.48099   0.47722    6.596
 6209.00    0.46474   0.47399    6.953
 6210.00    0.44258   0.47125    7.403
 6211.00    0.40637   0.46909    7.735
 6212.00    0.36327   0.46766    7.843
 6213.00    0.33603   0.46679    7.685
 6214.00    0.35457   0.46620   -2.000
 6215.00    0.43319   0.46600   -2.000
 6216.00    0.53355   0.46632   -2.000
 6217.00    0.60486   0.46692   -2.000
 6218.00    0.66345   0.46737   -2.000
 6219.00    0.74638   0.46764   -2.000
 6220.00    0.81432   0.46795   -2.000
 6221.00    0.80281   0.46811   -2.000
 6222.00    0.72497   0.46780   -2.000
 6223.00    0.63660   0.46710   -2.000
 6224.00    0.56192   0.46602   -2.000
 6225.00    0.50382   0.46464   -2.000
 6226.00    0.47227   0.46361    5.979
 6227.00    0.47100   0.46337    6.197
 6228.00    0.47682   0.46371    6.586
 6229.00    0.46753   0.46455    7.153
 6230.00    0.45763   0.46576    7.768
 6231.00    0.46929   0.46699    8.205
 6232.00    0.49479   0.46783    8.387
 6233.00    0.51326   0.46791    8.403
 6234.00    0.51407   0.46698    8.362
 6235.00    0.49984   0.46545    8.313
 6236.00    0.48607   0.46403    8.212
 6237.00    0.49017   0.46254    7.990
 6238.00    0.51933   0.46100    7.640
 6239.00    0.55838   0.46035    7.274
 6240.00    0.56508   0.46071    7.112
 6241.00    0.52356   0.46141    7.230
 6242.00    0.48351   0.46233    7.431
 6243.00    0.48678   0.46349    7.455
 6244.00    0.51068   0.46444    7.250
 6245.00    0.52612   0.46477    6.900
 6246.00    0.54192   0.46436    6.504
 6247.00    0.56756   0.46308    6.168
 6248.00    0.58727   0.46126    6.003
 6249.00    0.58848   0.45920    6.065
 6250.00    0.57930   0.45706    6.353
 6251.00    0.56332   0.45490    6.840
 6252.00    0.52816   0.45296    7.462
 6253.00    0.48172   0.45174    8.060
 6254.00    0.46424   0.45175    8.376
 6255.00    0.48324   0.45281    8.365
 6256.00    0.48958   0.45419    8.326
 6257.00    0.45952   0.45616    8.421
 6258.00    0.42872   0.45892    8.498
 6259.00    0.42640   0.46150    8.473
 6260.00    0.44451   0.46316    8.486
 6261.00    0.46134   0.46456    8.566
 6262.00    0.45751   0.46604    8.528
 6263.00    0.43176   0.46694    8.294
 6264.00    0.40336   0.46729    7.996
 6265.00    0.39144   0.46779    7.724
 6266.00    0.40248   0.46861    7.486
 6267.00    0.41789   0.46927    7.365
 6268.00    0.40478   0.46970    7.494
 6269.00    0.37458   0.47005    7.744
 6270.00    0.38149   0.47036    7.698
 6271.00    0.43544   0.47040    7.309
 6272.00    0.49214   0.47015    6.943
 6273.00    0.52821   0.46982    6.745
 6274.00    0.55416   0.46940    6.646
 6275.00    0.57171   0.46879    6.647
 6276.00    0.56670   0.46827    6.805
 6277.00    0.53045   0.46827    6.971
 6278.00    0.47090   0.46879    6.830
 6279.00    0.42409   0.46960    6.428
 6280.00    0.43539   0.47061    0.000
 6281.00    0.50266   0.47198    0.000
 6282.00    0.58139   0.47356    0.000
 6283.00    0.63635   0.47494    0.000
 6284.00    0.65479   0.47580    0.000
 6285.00    0.64523   0.47613    0.000
 6286.00    0.62601   0.47590    0.000
 6287.00    0.60146   0.47507    0.000
 6288.00    0.56723   0.47375    0.000
 6289.00    0.53241   0.47235    0.000
 6290.00    0.51348   0.47090    0.000
 6291.00    0.51335   0.46922    0.000
 6292.00    0.52541   0.46766    0.000
 6293.00    0.54857   0.46678    0.000
 6294.00    0.58227   0.46653    0.000
 6295.00    0.61361   0.46638    0.000
 6296.00    0.63139   0.46625    0.000
 6297.00    0.65153   0.46655    0.000
 6298.00    0.69034   0.46746    0.000
 6299.00    0.71821   0.46857    0.000
 6300.00    0.69334   0.46951    0.000
 6301.00    0.62081   0.47050    0.000
 6302.00    0.53839   0.47185    0.000
 6303.00    0.48351   0.47319    0.000
 6304.00    0.47469   0.47405    0.000
 6305.00    0.49475   0.47436    0.000
 6306.00    0.51658   0.47425    0.000
 6307.00    0.53657   0.47383    0.000
 6308.00    0.56045   0.47318    0.000
 6309.00    0.58262   0.47209    0.000
 6310.00    0.59149   0.47075    0.000
 6311.00    0.57866   0.46981    0.000
 6312.00    0.54472   0.46927    0.000
 6313.00    0.50325   0.46862    0.000
 6314.00    0.46790   0.46831    0.000
 6315.00    0.44019   0.46893    0.000
 6316.00    0.41872   0.46996    0.000
 6317.00    0.40760   0.47088    0.000
 6318.00    0.40693   0.47205    0.000
 6319.00    0.40580   0.47363    0.000
 6320.00    0.40040   0.47505    0.000
 6321.00    0.40632   0.47606    8.701
 6322.00    0.43153   0.47685    8.578
 6323.00    0.45795   0.47768    8.404
 6324.00    0.46846   0.47841    8.294
 6325.00    0.46613   0.47865    8.298
 6326.00    0.46120   0.47845    8.376
 6327.00    0.46049   0.47815    8.398
 6328.00    0.46311   0.47781    8.301
 6329.00    0.46010   0.47697    8.177
 6330.00    0.44703   0.47552    8.122
 6331.00    0.43067   0.47413    8.155
 6332.00    0.42152   0.47342    8.249
 6333.00    0.42820   0.47306    8.344
 6334.00    0.45207   0.47255    8.394
 6335.00    0.48558   0.47228    8.391
 6336.00    0.51824   0.47255    8.340
 6337.00    0.54109   0.47277    8.255
 6338.00    0.55272   0.47245    8.222
 6339.00    0.55974   0.47196    8.376
 6340.00    0.56569   0.47185    8.680
 6341.00    0.56728   0.47198    8.861
 6342.00    0.56080   0.47217    8.820
 6343.00    0.54572   0.47268    8.784
 6344.00    0.52738   0.47366    8.848
 6345.00    0.51501   0.47462    8.875
 6346.00    0.51028   0.47519    8.814
 6347.00    0.50507   0.47548    8.763
 6348.00    0.48956   0.47532    8.744
 6349.00    0.45894   0.47431    8.677
 6350.00    0.42523   0.47263    8.574
 6351.00    0.41249   0.47086    8.531
 6352.00    0.42897   0.46896    8.529
 6353.00    0.46283   0.46653    8.457
 6354.00    0.49693   0.46404    8.343
 6355.00    0.51740   0.46227    8.328
 6356.00    0.52409   0.46107    8.409
 6357.00    0.52636   0.46006    8.460
 6358.00    0.52445   0.45966    8.480
 6359.00    0.51068   0.46035    8.573
 6360.00    0.48520   0.46178    8.736
 6361.00    0.45437   0.46347    8.871
 6362.00    0.41768   0.46550    8.993
 6363.00    0.37321   0.46793    9.184
 6364.00    0.33610   0.47032    9.327
 6365.00    0.32851   0.47224    9.209
 6366.00    0.35025   0.47381    8.939
 6367.00    0.38345   0.47533    8.783
 6368.00    0.41414   0.47661    8.778
 6369.00    0.43645   0.47728    8.799
 6370.00    0.45205   0.47742    8.759
 6371.00    0.46632   0.47738    8.636
 6372.00    0.48192   0.47712    8.477
 6373.00    0.49710   0.47636    8.343
 6374.00    0.50520   0.47532    8.259
 6375.00    0.50270   0.47442    8.208
 6376.00    0.50107   0.47372    8.149
 6377.00    0.51718   0.47321    8.005
 6378.00    0.55625   0.47300    7.667
 6379.00    0.60833   0.47301    7.171
 6380.00    0.64830   0.47313    6.780
 6381.00    0.65633   0.47339    6.662
 6382.00    0.64352   0.47360    6.683
 6383.00    0.63407   0.47345    6.654
 6384.00    0.63878   0.47289    6.611
 6385.00    0.64822   0.47210    6.669
 6386.00    0.63126   0.47124    6.825
 6387.00    0.56976   0.47016    7.020
 6388.00    0.49356   0.46886    7.236
 6389.00    0.44086   0.46790    7.490
 6390.00    0.41470   0.46758    7.817
 6391.00    0.40178   0.46741    8.209
 6392.00    0.39528   0.46724    8.528
 6393.00    0.39614   0.46750    8.640
 6394.00    0.41084   0.46787    8.612
 6395.00    0.43810   0.46785    8.577
 6396.00    0.46013   0.46812    8.589
 6397.00    0.46742   0.46910    8.636
 6398.00    0.47612   0.47001    8.681
 6399.00    0.49609   0.47056    8.690
 6400.00    0.50872   0.47132    8.671
 6401.00    0.49755   0.47218    8.652
 6402.00    0.47031   0.47238    8.663
 6403.00    0.44569   0.47194    8.686
 6404.00    0.44043   0.47156    8.645
 6405.00    0.45215   0.47128    8.544
 6406.00    0.45506   0.47062    8.519
 6407.00    0.44134   0.46992    8.657
 6408.00    0.43894   0.46974    8.894
 6409.00    0.46287   0.46979    9.020
 6410.00    0.49239   0.46971    8.754
 6411.00    0.50712   0.46969    8.101
 6412.00    0.50570   0.46966    7.377
 6413.00    0.49440   0.46945    6.817
 6414.00    0.48068   0.46924    6.505
 6415.00    0.47298   0.46908    6.422
 6416.00    0.47771   0.46889    6.500
 6417.00    0.48572   0.46910    6.725
 6418.00    0.47490   0.47000    7.149
 6419.00    0.44784   0.47102    7.659
 6420.00    0.43558   0.47180    7.874
 6421.00    0.44640   0.47250    7.746
 6422.00    0.45618   0.47297    7.714
 6423.00    0.45321   0.47284    7.956
 6424.00    0.44894   0.47224    8.263
 6425.00    0.45253   0.47124    8.463
 6426.00    0.46281   0.47000    8.586
 6427.00    0.47387   0.46917    8.634
 6428.00    0.47987   0.46902    8.542
 6429.00    0.48376   0.46893    8.383
 6430.00    0.49393   0.46870    8.328
 6431.00    0.50627   0.46886    8.390
 6432.00    0.50683   0.46942    8.454
 6433.00    0.49457   0.46964    8.519
 6434.00    0.48225   0.46948    8.662
 6435.00    0.48129   0.46980    8.723
 6436.00    0.49431   0.47075    8.437
 6437.00    0.50772   0.47165    8.032
 6438.00    0.50158   0.47237    7.925
 6439.00    0.47656   0.47320    8.139
 6440.00    0.45108   0.47362    8.426
 6441.00    0.44050   0.47309    8.661
 6442.00    0.44897   0.47188    8.864
 6443.00    0.46339   0.47031    8.967
 6444.00    0.46528   0.46815    8.801
 6445.00    0.45610   0.46574    8.265
 6446.00    0.44854   0.46414    7.491
 6447.00    0.44133   0.46360    6.843
 6448.00    0.42532   0.46368    6.545
 6449.00    0.40218   0.46441    6.530
 6450.00    0.38271   0.46577    6.661
 6451.00    0.37827   0.46729    6.957
 6452.00    0.39245   0.46882    7.494
 6453.00    0.41140   0.47001    8.114
 6454.00    0.41918   0.47037    8.454
 6455.00    0.42132   0.47019    8.443
 6456.00    0.42700   0.46982    8.281
 6457.00    0.42137   0.46883    8.064
 6458.00    0.39137   0.46743    7.819
 6459.00    0.36207   0.46670    7.621
 6460.00    0.36130   0.46670    7.564
 6461.00    0.37298   0.46676    7.733
 6462.00    0.37353   0.46709    8.141
 6463.00    0.37828   0.46791    8.592
 6464.00    0.41029   0.46876    8.741
 6465.00    0.46166   0.46926    8.391
 6466.00    0.50907   0.46943    7.700
 6467.00    0.53452   0.46935    7.035
 6468.00    0.52731   0.46940    6.617
 6469.00    0.48526   0.46949    6.481
 6470.00    0.42660   0.46924    6.614
 6471.00    0.39545   0.46902    7.005
 6472.00    0.41047   0.46916    7.602
 6473.00    0.42744   0.46898    8.223
 6474.00    0.41051   0.46824    8.577
 6475.00    0.38696   0.46759    8.479
 6476.00    0.38894   0.46701    8.066
 6477.00    0.40890   0.46602    7.699
 6478.00    0.43201   0.46511    7.574
 6479.00    0.45996   0.46488    7.635
 6480.00    0.49310   0.46503    7.772
 6481.00    0.51960   0.46501    7.900
 6482.00    0.53375   0.46488    7.964
 6483.00    0.54488   0.46470    7.944
 6484.00    0.55426   0.46400    7.897
 6485.00    0.54591   0.46214    7.949
 6486.00    0.51840   0.45921    8.134
 6487.00    0.49634   0.45582    8.323
 6488.00    0.48841   0.45212    8.367
 6489.00    0.47310   0.44790    8.210
 6490.00    0.44707   0.44387    7.850
 6491.00    0.44046   0.44103    7.341
 6492.00    0.46566   0.43961    6.888
 6493.00    0.50015   0.43933    6.748
 6494.00    0.52582   0.44032    6.995
 6495.00    0.54215   0.44255    7.517
 6496.00    0.54209   0.44572    8.109
 6497.00    0.50920   0.44922    8.503
 6498.00    0.44929   0.45264    8.601
 6499.00    0.39432   0.45578    8.590
 6500.00    0.36698   0.45845    8.642
 6501.00    0.36910   0.46060    8.792
 6502.00    0.39082   0.46224    8.924
 6503.00    0.41768   0.46331    8.852
 6504.00    0.44231   0.46392    8.658
 6505.00    0.46420   0.46444    8.617
 6506.00    0.47640   0.46484    8.737
 6507.00    0.46840   0.46488    8.776
 6508.00    0.44724   0.46474    8.707
 6509.00    0.43406   0.46457    8.712
 6510.00    0.43656   0.46415    8.743
 6511.00    0.44490   0.46353    8.591
 6512.00    0.44243   0.46310    8.414
 6513.00    0.41752   0.46281    8.547
 6514.00    0.38446   0.46254    8.864
 6515.00    0.37287   0.46260    8.857
 6516.00    0.39092   0.46309    8.461
 6517.00    0.42764   0.46359    8.043
 6518.00    0.47727   0.46389    7.774
 6519.00    0.53419   0.46409    7.656
 6520.00    0.57135   0.46430    7.667
 6521.00    0.55995   0.46424    7.803
 6522.00    0.51573   0.46376    8.092
 6523.00    0.48066   0.46315    8.528
 6524.00    0.47202   0.46267    8.873
 6525.00    0.48176   0.46220    8.829
 6526.00    0.49257   0.46168    8.586
 6527.00    0.49111   0.46129    8.534
 6528.00    0.48414   0.46103    0.000
 6529.00    0.48582   0.46090    0.000
 6530.00    0.49429   0.46099    0.000
 6531.00    0.49594   0.46124    0.000
 6532.00    0.47774   0.46139    0.000
 6533.00    0.44077   0.46132    0.000
 6534.00    0.41441   0.46111    0.000
 6535.00    0.42451   0.46072    0.000
 6536.00    0.45172   0.45988    0.000
 6537.00    0.46320   0.45838    0.000
 6538.00    0.45742   0.45644    0.000
 6539.00    0.45037   0.45442    0.000
 6540.00    0.45297   0.45236    0.000
 6541.00    0.46736   0.45002    0.000
 6542.00    0.48623   0.44763    0.000
 6543.00    0.50231   0.44563    0.000
 6544.00    0.51727   0.44385    0.000
 6545.00    0.53035   0.44182    0.000
 6546.00    0.52833   0.43939    0.000
 6547.00    0.50387   0.43665    0.000
 6548.00    0.47150   0.43363    0.000
 6549.00    0.44923   0.43004    0.000
 6550.00    0.44127   0.42553    0.000
 6551.00    0.44047   0.42026    0.000
 6552.00    0.43503   0.41462    0.000
 6553.00    0.43848   0.40806    0.000
 6554.00    0.51094   0.39993    0.000
 6555.00    0.74435   0.39146    0.000
 6556.00    1.23650   0.38445    0.000
 6557.00    1.99275   0.37827    0.000
 6558.00    2.86826   0.37277    0.000
 6559.00    3.63532   0.37099    0.000
 6560.00    4.04972   0.37409    0.000
 6561.00    3.96894   0.37925    0.000
 6562.00    3.42099   0.38550    0.000
 6563.00    2.58374   0.39368    0.000
 6564.00    1.73798   0.40217    0.000
 6565.00    1.09184   0.40898    0.000
 6566.00    0.69554   0.41461    0.000
 6567.00    0.50475   0.41943    0.000
 6568.00    0.42912   0.42299    0.000
 6569.00    0.39469   0.42565    0.000
 6570.00    0.37165   0.42818    0.000
 6571.00    0.36282   0.43071    0.000
 6572.00    0.38690   0.43317    0.000
 6573.00    0.43390   0.43546    0.000
 6574.00    0.46240   0.43768    0.000
 6575.00    0.46632   0.43983    0.000
 6576.00    0.48731   0.44173    0.000
 6577.00    0.55589   0.44329    0.000
 6578.00    0.66925   0.44473    0.000
 6579.00    0.79675   0.44634    0.000
 6580.00    0.89181   0.44775    0.000
 6581.00    0.92399   0.44887    0.000
 6582.00    0.88895   0.44973    0.000
 6583.00    0.80431   0.45050    0.000
 6584.00    0.70059   0.45066    0.000
 6585.00    0.59913   0.44999    0.000
 6586.00    0.50917   0.44919    0.000
 6587.00    0.43857   0.44830    0.000
 6588.00    0.39446   0.44696    0.000
 6589.00    0.37627   0.44571    0.000
 6590.00    0.37738   0.44535    0.000
 6591.00    0.39367   0.44557    0.000
 6592.00    0.42302   0.44604    0.000
 6593.00    0.45907   0.44695    0.000
 6594.00    0.48987   0.44812    0.000
 6595.00    0.49840   0.44931    0.000
 6596.00    0.47273   0.45044    0.000
 6597.00    0.42608   0.45121    0.000
 6598.00    0.38702   0.45142    0.000
 6599.00    0.37195   0.45127    0.000
 6600.00    0.37987   0.45071    0.000
 6601.00    0.39360   0.44974    0.000
 6602.00    0.39273   0.44882    0.000
 6603.00    0.37536   0.44823    0.000
 6604.00    0.35450   0.44776    0.000
 6605.00    0.34536   0.44752    0.000
 6606.00    0.35614   0.44811    0.000
 6607.00    0.37791   0.44930    0.000
 6608.00    0.39721   0.45038    0.000
 6609.00    0.41619   0.45133    9.339
 6610.00    0.44145   0.45250    9.196
 6611.00    0.46512   0.45377    9.033
 6612.00    0.47317   0.45453    8.808
 6613.00    0.45984   0.45482    8.659
 6614.00    0.43032   0.45500    8.685
 6615.00    0.40090   0.45494    8.713
 6616.00    0.38510   0.45435    8.565
 6617.00    0.37870   0.45344    8.385
 6618.00    0.37394   0.45254    8.347
 6619.00    0.37561   0.45152    8.370
 6620.00    0.38713   0.45027    8.330
 6621.00    0.39565   0.44931    8.279
 6622.00    0.38805   0.44882    8.313
 6623.00    0.36735   0.44827    8.436
 6624.00    0.34490   0.44766    8.614
 6625.00    0.33158   0.44718    8.838
 6626.00    0.33570   0.44673    9.088
 6627.00    0.36124   0.44633    9.296
 6628.00    0.40354   0.44603    9.384
 6629.00    0.44754   0.44579    9.320
 6630.00    0.48162   0.44589    9.157
 6631.00    0.50656   0.44634    9.024
 6632.00    0.52033   0.44678    9.014
 6633.00    0.50983   0.44726    9.119
 6634.00    0.47606   0.44774    9.242
 6635.00    0.44708   0.44780    9.227
 6636.00    0.44390   0.44762    9.048
 6637.00    0.46037   0.44770    8.891
 6638.00    0.48075   0.44756    8.868
 6639.00    0.49200   0.44696    8.906
 6640.00    0.48664   0.44673    8.905
 6641.00    0.46485   0.44708    8.830
 6642.00    0.43844   0.44723    8.728
 6643.00    0.42808   0.44718    8.701
 6644.00    0.43825   0.44745    8.766
 6645.00    0.44961   0.44789    8.833
 6646.00    0.44523   0.44800    8.896
 6647.00    0.42369   0.44796    9.082
 6648.00    0.39770   0.44796    9.377
 6649.00    0.38717   0.44786    9.540
 6650.00    0.39410   0.44761    9.506
 6651.00    0.40001   0.44732    9.497
 6652.00    0.39967   0.44681    9.567
 6653.00    0.40780   0.44618    9.518
 6654.00    0.43103   0.44552    9.315
 6655.00    0.46041   0.44452    9.139
 6656.00    0.48451   0.44336    9.031
 6657.00    0.49567   0.44241    8.882
 6658.00    0.49399   0.44145    8.728
 6659.00    0.48670   0.44038    8.722
 6660.00    0.48187   0.43993    8.838
 6661.00    0.48426   0.44011    8.875
 6662.00    0.48955   0.44034    8.792
 6663.00    0.48821   0.44085    8.725
 6664.00    0.48123   0.44182    8.732
 6665.00    0.47770   0.44284    8.774
 6666.00    0.47687   0.44341    8.837
 6667.00    0.46976   0.44353    8.945
 6668.00    0.45545   0.44321    9.116
 6669.00    0.44195   0.44205    9.328
 6670.00    0.43837   0.43998    9.501
 6671.00    0.44942   0.43784    9.537
 6672.00    0.46776   0.43589    9.466
 6673.00    0.47818   0.43359    9.410
 6674.00    0.46988   0.43194    9.437
 6675.00    0.44053   0.43195    9.547
 6676.00    0.39893   0.43302    9.682
 6677.00    0.36336   0.43418    9.737
 6678.00    0.35708   0.43577    9.593
 6679.00    0.39111   0.43795    9.268
 6680.00    0.43739   0.43979    9.064
 6681.00    0.45714   0.44110    9.206
 6682.00    0.45396   0.44219    9.369
 6683.00    0.45171   0.44297    9.104
 6684.00    0.44765   0.44335    8.745
 6685.00    0.42917   0.44357    8.764
 6686.00    0.40779   0.44365    8.970
 6687.00    0.40082   0.44348    8.971
 6688.00    0.40056   0.44310    8.956
 6689.00    0.39461   0.44263    9.245
 6690.00    0.39620   0.44215    9.552
 6691.00    0.42232   0.44161    9.432
 6692.00    0.46339   0.44102    9.168
 6693.00    0.49903   0.44075    9.191
 6694.00    0.52060   0.44071    9.436
 6695.00    0.52885   0.44074    9.618
 6696.00    0.52812   0.44086    0.000
 6697.00    0.51997   0.44105    0.000
 6698.00    0.49834   0.44121    0.000
 6699.00    0.46093   0.44122    0.000
 6700.00    0.42003   0.44117    0.000
 6701.00    0.39347   0.44120    0.000
 6702.00    0.39434   0.44112    0.000
 6703.00    0.42176   0.44086    0.000
 6704.00    0.45585   0.44059    0.000
 6705.00    0.47758   0.44015    0.000
 6706.00    0.48503   0.43932    0.000
 6707.00    0.48938   0.43844    0.000
 6708.00    0.50991   0.43749    0.000
 6709.00    0.56743   0.43619    0.000
 6710.00    0.67759   0.43483    0.000
 6711.00    0.83598   0.43378    0.000
 6712.00    1.01003   0.43295    0.000
 6713.00    1.15176   0.43219    0.000
 6714.00    1.21087   0.43195    0.000
 6715.00    1.16106   0.43242    0.000
 6716.00    1.01494   0.43299    0.000
 6717.00    0.81743   0.43355    0.000
 6718.00    0.63359   0.43435    0.000
 6719.00    0.50631   0.43528    0.000
 6720.00    0.43712   0.43601    0.000
 6721.00    0.40717   0.43652    0.000
 6722.00    0.39465   0.43700    0.000
 6723.00    0.40224   0.43753    0.000
 6724.00    0.46011   0.43795    0.000
 6725.00    0.57941   0.43821    0.000
 6726.00    0.73523   0.43843    0.000
 6727.00    0.88764   0.43853    0.000
 6728.00    0.99450   0.43844    0.000
 6729.00    1.02366   0.43824    0.000
 6730.00    0.96265   0.43787    0.000
 6731.00    0.83542   0.43732    0.000
 6732.00    0.69646   0.43670    0.000
 6733.00    0.58775   0.43605    0.000
 6734.00    0.52323   0.43532    0.000
 6735.00    0.49108   0.43444    0.000
 6736.00    0.46689   0.43375    0.000
 6737.00    0.45085   0.43341    0.000
 6738.00    0.46422   0.43284    0.000
 6739.00    0.50311   0.43216    0.000
 6740.00    0.53719   0.43200    0.000
 6741.00    0.54598   0.43183    0.000
 6742.00    0.52732   0.43128    0.000
 6743.00    0.49127   0.43092    0.000
 6744.00    0.45462   0.43087    0.000
 6745.00    0.43148   0.43054    0.000
 6746.00    0.42890   0.43022    0.000
 6747.00    0.44240   0.43056    0.000
 6748.00    0.46024   0.43098    0.000
 6749.00    0.47491   0.43136    0.000
 6750.00    0.48344   0.43243    0.000
 6751.00    0.48241   0.43372    0.000
 6752.00    0.46911   0.43481    0.000
 6753.00    0.44579   0.43596   12.114
 6754.00    0.42167   0.43700   12.114
 6755.00    0.41452   0.43759   12.114
 6756.00    0.43545   0.43783   12.114
 6757.00    0.46315   0.43775   12.114
 6758.00    0.46552   0.43721   12.114
 6759.00    0.44185   0.43637   12.114
 6760.00    0.41439   0.43539   12.114
 6761.00    0.40392   0.43442   12.114
 6762.00    0.41868   0.43344   12.114
 6763.00    0.44479   0.43253   12.114
 6764.00    0.45981   0.43206   12.114
 6765.00    0.45369   0.43215    9.758
 6766.00    0.43159   0.43239    8.953
 6767.00    0.41256   0.43286    9.365
 6768.00    0.41160   0.43388    9.329
 6769.00    0.41947   0.43509    8.889
 6770.00    0.42716   0.43607    8.531
 6771.00    0.45445   0.43699    7.636
 6772.00    0.51654   0.43778    6.193
 6773.00    0.58648   0.43803    5.121
 6774.00    0.62589   0.43780    4.619
 6775.00    0.62083   0.43720    4.406
 6776.00    0.58302   0.43609    4.300
 6777.00    0.54450   0.43469    4.376
 6778.00    0.52610   0.43324    4.738
 6779.00    0.51309   0.43178    5.324
 6780.00    0.49617   0.43060    5.895
 6781.00    0.50310   0.42992    6.182
 6782.00    0.54469   0.42950    6.152
 6783.00    0.57603   0.42942    6.111
 6784.00    0.56130   0.42970    6.315
 6785.00    0.52098   0.42996    6.765
 6786.00    0.48629   0.43011    7.287
 6787.00    0.46584   0.43042    7.557
 6788.00    0.46386   0.43066    7.415
 6789.00    0.49054   0.43068    7.117
 6790.00    0.53667   0.43085    6.920
 6791.00    0.56415   0.43114    6.872
 6792.00    0.55384   0.43138    6.917
 6793.00    0.52705   0.43172    6.958
 6794.00    0.49497   0.43209    7.029
 6795.00    0.44008   0.43244    7.345
 6796.00    0.38093   0.43275    7.809
 6797.00    0.38692   0.43294    7.732
 6798.00    0.46807   0.43309    7.012
 6799.00    0.54167   0.43305    6.403
 6800.00    0.55231   0.43285    6.199
 6801.00    0.51871   0.43277    6.274
 6802.00    0.47181   0.43250    6.537
 6803.00    0.42774   0.43206    7.006
 6804.00    0.40009   0.43185    7.617
 6805.00    0.40257   0.43160    8.087
 6806.00    0.43647   0.43119    8.216
 6807.00    0.48735   0.43090    8.105
 6808.00    0.53272   0.43066    7.783
 6809.00    0.54966   0.43051    7.197
 6810.00    0.53066   0.43041    6.614
 6811.00    0.48779   0.43033    6.373
 6812.00    0.44676   0.43045    6.466
 6813.00    0.43322   0.43070    6.653
 6814.00    0.43738   0.43095    6.854
 6815.00    0.42295   0.43124    7.205
 6816.00    0.38696   0.43156    7.715
 6817.00    0.36052   0.43188    8.139
 6818.00    0.35971   0.43212    8.238
 6819.00    0.37725   0.43225    7.990
 6820.00    0.39878   0.43218    7.527
 6821.00    0.41250   0.43194    7.022
 6822.00    0.42158   0.43165    6.605
 6823.00    0.43666   0.43129    6.359
 6824.00    0.45166   0.43084    6.351
 6825.00    0.45057   0.43045    6.645
 6826.00    0.43480   0.43020    7.264
 6827.00    0.42119   0.43013    8.100
 6828.00    0.42471   0.43000    8.678
 6829.00    0.44926   0.42975    8.387
 6830.00    0.47795   0.42960    7.505
 6831.00    0.49245   0.42929    6.656
 6832.00    0.51061   0.42858    5.967
 6833.00    0.55914   0.42772    5.422
 6834.00    0.61542   0.42684    5.143
 6835.00    0.63384   0.42585    5.251
 6836.00    0.60524   0.42500    5.741
 6837.00    0.55057   0.42449    6.512
 6838.00    0.49519   0.42426    7.361
 6839.00    0.45632   0.42435    7.997
 6840.00    0.43132   0.42480    8.343
 6841.00    0.40878   0.42542    8.554
 6842.00    0.38575   0.42600    8.675
 6843.00    0.36420   0.42653    8.693
 6844.00    0.34356   0.42694    8.733
 6845.00    0.32521   0.42714    8.838
 6846.00    0.31857   0.42709    8.684
 6847.00    0.33443   0.42675    8.048
 6848.00    0.37578   0.42622    7.281
 6849.00    0.43064   0.42573    6.746
 6850.00    0.46808   0.42504    6.551
 6851.00    0.47108   0.42419    6.698
 6852.00    0.46695   0.42369    7.113
 6853.00    0.48217   0.42325    7.621
 6854.00    0.49934   0.42266    7.897
 6855.00    0.49717   0.42246    7.614
 6856.00    0.48766   0.42261    6.794
 6857.00    0.48224   0.42263    5.855
 6858.00    0.46411   0.42273    5.205
 6859.00    0.42933   0.42313    4.931
 6860.00    0.41439   0.42339    4.950
 6861.00    0.42993   0.42335    5.219
 6862.00    0.41993   0.42339    5.799
 6863.00    0.35736   0.42341    6.741
 6864.00    0.30316   0.42305    7.807
 6865.00    0.30754   0.42273    8.526
 6866.00    0.34737   0.42277    8.808
 6867.00    0.38628   0.42276    8.859
 6868.00    0.41439   0.42271    8.774
 6869.00    0.43310   0.42309    8.654
 6870.00    0.44428   0.42372    8.666
 6871.00    0.44927   0.42419    8.810
 6872.00    0.44871   0.42464    8.838
 6873.00    0.44257   0.42517    8.690
 6874.00    0.43069   0.42543    8.631
 6875.00    0.41508   0.42528    8.671
 6876.00    0.39983   0.42509    8.430
 6877.00    0.38513   0.42497    7.859
 6878.00    0.36797   0.42473    7.338
 6879.00    0.35892   0.42452    7.034
 6880.00    0.38109   0.42485    6.886
 6881.00    0.43316   0.42543    6.913
 6882.00    0.48428   0.42593    7.244
 6883.00    0.51859   0.42676    7.782
 6884.00    0.54537   0.42777    8.013
 6885.00    0.56689   0.42837    7.612
 6886.00    0.57224   0.42888    6.886
 6887.00    0.56053   0.42939    6.288
 6888.00    0.54580   0.42947    6.070
 6889.00    0.54452   0.42930    6.214
 6890.00    0.56343   0.42923    6.553
 6891.00    0.57599   0.42904    7.005
 6892.00    0.53856   0.42869    7.611
 6893.00    0.45925   0.42842    8.275
 6894.00    0.39171   0.42837    8.668
 6895.00    0.35958   0.42837    8.711
 6896.00    0.34934   0.42833    8.685
 6897.00    0.34946   0.42847    8.720
 6898.00    0.35774   0.42877    8.754
 6899.00    0.37229   0.42902    8.768
 6900.00    0.39114   0.42925    8.807
 6901.00    0.41639   0.42948    8.858
 6902.00    0.44908   0.42964    8.858
 6903.00    0.47597   0.42960    8.786
 6904.00    0.47818   0.42931    8.679
 6905.00    0.45480   0.42895    8.623
 6906.00    0.42108   0.42841    8.684
 6907.00    0.39504   0.42759    8.811
 6908.00    0.39128   0.42699    8.874
 6909.00    0.41470   0.42651    8.802
 6910.00    0.45675   0.42592    8.609
 6911.00    0.49185   0.42579    8.341
 6912.00    0.49676   0.42597    8.069
 6913.00    0.48185   0.42607    7.879
 6914.00    0.47150   0.42633    7.837
 6915.00    0.46662   0.42668    7.959
 6916.00    0.45864   0.42681    8.151
 6917.00    0.45737   0.42671    8.123
 6918.00    0.47300   0.42651    7.706
 6919.00    0.48743   0.42624    7.244
 6920.00    0.47945   0.42596    7.044
 6921.00    0.46081   0.42571    7.014
 6922.00    0.44999   0.42562    7.019
 6923.00    0.43646   0.42576    7.231
 6924.00    0.40576   0.42599    7.860
 6925.00    0.37197   0.42626    8.694
 6926.00    0.35494   0.42652    9.208
 6927.00    0.35249   0.42683    9.313
 6928.00    0.35166   0.42713    9.307
 6929.00    0.34415   0.42727    9.349
 6930.00    0.33483   0.42747    9.434
 6931.00    0.34553   0.42777    9.454
 6932.00    0.38564   0.42797    9.346
 6933.00    0.42800   0.42812    9.216
 6934.00    0.44307   0.42823    9.165
 6935.00    0.42974   0.42818    9.173
 6936.00    0.40835   0.42796    9.153
 6937.00    0.40877   0.42758    9.021
 6938.00    0.43740   0.42702    8.813
 6939.00    0.45872   0.42657    8.712
 6940.00    0.44595   0.42619    8.779
 6941.00    0.41448   0.42575    8.828
 6942.00    0.38654   0.42563    8.756
 6943.00    0.36736   0.42569    8.732
 6944.00    0.36036   0.42557    8.868
 6945.00    0.37471   0.42560    9.030
 6946.00    0.40471   0.42571    9.073
 6947.00    0.42234   0.42555    9.002
 6948.00    0.41001   0.42549    8.884
 6949.00    0.37663   0.42569    8.773
 6950.00    0.33918   0.42582    8.703
 6951.00    0.31127   0.42603    8.676
 6952.00    0.30005   0.42651    8.618
 6953.00    0.30555   0.42699    8.396
 6954.00    0.32411   0.42738    8.008
 6955.00    0.35099   0.42779    7.599
 6956.00    0.38433   0.42810    7.283
 6957.00    0.42334   0.42836    7.102
 6958.00    0.45364   0.42854    7.058
 6959.00    0.45049   0.42861    7.134
 6960.00    0.41708   0.42872    7.297
 6961.00    0.38744   0.42883    7.500
 6962.00    0.37849   0.42883    7.744
 6963.00    0.37919   0.42876    8.073
 6964.00    0.37903   0.42856    8.416
 6965.00    0.37760   0.42821    8.583
 6966.00    0.38054   0.42768    8.598
 6967.00    0.39478   0.42675    8.711
 6968.00    0.41868   0.42547    8.916
 6969.00    0.44136   0.42411    8.948
 6970.00    0.45026   0.42254    8.823
 6971.00    0.43962   0.42063    8.807
 6972.00    0.42663   0.41899    8.843
 6973.00    0.43845   0.41798    8.633
 6974.00    0.46688   0.41722    8.279
 6975.00    0.47885   0.41697    8.122
 6976.00    0.47192   0.41771    8.167
 6977.00    0.47076   0.41892    8.181
 6978.00    0.48592   0.42016    8.061
 6979.00    0.50877   0.42164    7.887
 6980.00    0.52286   0.42308    7.803
 6981.00    0.51309   0.42405    7.911
 6982.00    0.47908   0.42469    8.126
 6983.00    0.43578   0.42511    8.255
 6984.00    0.40844   0.42522    8.289
 6985.00    0.41379   0.42521    8.355
 6986.00    0.42881   0.42520    8.461
 6987.00    0.41802   0.42511    8.523
 6988.00    0.38969   0.42507    8.504
 6989.00    0.37750   0.42504    8.439
 6990.00    0.39427   0.42482    8.422
 6991.00    0.42807   0.42458    8.506
 6992.00    0.44938   0.42432    8.578
 6993.00    0.43497   0.42387    8.495
 6994.00    0.39949   0.42340    8.328
 6995.00    0.37047   0.42307    8.218
 6996.00    0.34882   0.42273    8.159
 6997.00    0.32926   0.42238    8.073
 6998.00    0.33156   0.42223    7.934
 6999.00    0.36953   0.42225    7.789
 7000.00    0.41121   0.42216    7.763
 7001.00    0.42117   0.42212   -2.000
 7002.00    0.41238   0.42230   -2.000
 7003.00    0.41325   0.42241   -2.000
 7004.00    0.42607   0.42232   -2.000
 7005.00    0.43761   0.42225   -2.000
 7006.00    0.43503   0.42207   -2.000
 7007.00    0.41177   0.42164   -2.000
 7008.00    0.37202   0.42107   -2.000
 7009.00    0.33294   0.42037   -2.000
 7010.00    0.32317   0.41976   -2.000
 7011.00    0.35305   0.41940   -2.000
 7012.00    0.39280   0.41907   -2.000
 7013.00    0.40884   0.41901   -2.000
 7014.00    0.39442   0.41940   -2.000
 7015.00    0.36323   0.41975   -2.000
 7016.00    0.34074   0.41993   -2.000
 7017.00    0.34891   0.42017   -2.000
 7018.00    0.39424   0.42032   -2.000
 7019.00    0.46017   0.42026   -2.000
 7020.00    0.50814   0.42020   -2.000
 7021.00    0.51573   0.42029   -2.000
 7022.00    0.49697   0.42054   -2.000
 7023.00    0.47169   0.42092   -2.000
 7024.00    0.44739   0.42141   -2.000
 7025.00    0.42847   0.42201   -2.000
 7026.00    0.42033   0.42263   -2.000
 7027.00    0.41926   0.42316   -2.000
 7028.00    0.41047   0.42350   -2.000
 7029.00    0.38722   0.42383   -2.000
 7030.00    0.35980   0.42412   -2.000
 7031.00    0.35017   0.42422   -2.000
 7032.00    0.38075   0.42445   -2.000
 7033.00    0.43778   0.42506   -2.000
 7034.00    0.47119   0.42569   -2.000
 7035.00    0.46526   0.42642   -2.000
 7036.00    0.45370   0.42761   -2.000
 7037.00    0.45572   0.42882   -2.000
 7038.00    0.45714   0.42973   -2.000
 7039.00    0.44079   0.43065   -2.000
 7040.00    0.40523   0.43140   -2.000
 7041.00    0.38712   0.43166   -2.000
 7042.00    0.43600   0.43158   -2.000
 7043.00    0.50628   0.43121   -2.000
 7044.00    0.48198   0.43043   -2.000
 7045.00    0.36812   0.42921   -2.000
 7046.00    0.28767   0.42768   -2.000
 7047.00    0.28949   0.42608   -2.000
 7048.00    0.32641   0.42441   -2.000
 7049.00    0.35992   0.42276   -2.000
 7050.00    0.38160   0.42146   -2.000
 7051.00    0.38852   0.42046   -2.000
 7052.00    0.38040   0.41961   -2.000
 7053.00    0.36922   0.41895   -2.000
 7054.00    0.37236   0.41848   -2.000
 7055.00    0.39132   0.41800   -2.000
 7056.00    0.41353   0.41739   -2.000
 7057.00    0.42758   0.41688   -2.000
 7058.00    0.42675   0.41639   -2.000
 7059.00    0.40913   0.41570   -2.000
 7060.00    0.38298   0.41520   -2.000
 7061.00    0.37600   0.41493   -2.000
 7062.00    0.40828   0.41464   -2.000
 7063.00    0.44165   0.41474   -2.000
 7064.00    0.42616   0.41532   -2.000
 7065.00    0.39367   0.41598   -2.000
 7066.00    0.40263   0.41696   -2.000
 7067.00    0.42440   0.41825   -2.000
 7068.00    0.40068   0.41938   -2.000
 7069.00    0.35803   0.42038   -2.000
 7070.00    0.35549   0.42131   -2.000
 7071.00    0.38488   0.42188   -2.000
 7072.00    0.40847   0.42206   -2.000
 7073.00    0.42879   0.42195   -2.000
 7074.00    0.46223   0.42143   -2.000
 7075.00    0.49439   0.42046   -2.000
 7076.00    0.50528   0.41911   -2.000
 7077.00    0.50559   0.41736   -2.000
 7078.00    0.51381   0.41525   -2.000
 7079.00    0.52597   0.41311   -2.000
 7080.00    0.53130   0.41091   -2.000
 7081.00    0.53192   0.40869   -2.000
 7082.00    0.52894   0.40694   -2.000
 7083.00    0.50831   0.40555   -2.000
 7084.00    0.46424   0.40431   -2.000
 7085.00    0.42045   0.40362   -2.000
 7086.00    0.39999   0.40330   -2.000
 7087.00    0.39773   0.40309   -2.000
 7088.00    0.40216   0.40319   -2.000
 7089.00    0.41529   0.40349   -2.000
 7090.00    0.44371   0.40386   -2.000
 7091.00    0.48920   0.40431   -2.000
 7092.00    0.54313   0.40486   -2.000
 7093.00    0.58504   0.40543   -2.000
 7094.00    0.60127   0.40589   -2.000
 7095.00    0.59629   0.40634   -2.000
 7096.00    0.57529   0.40673   -2.000
 7097.00    0.53409   0.40692   -2.000
 7098.00    0.47636   0.40710   -2.000
 7099.00    0.42256   0.40719   -2.000
 7100.00    0.39292   0.40710   -2.000
 7101.00    0.39607   0.40701   -2.000
 7102.00    0.42636   0.40690   -2.000
 7103.00    0.46368   0.40660   -2.000
 7104.00    0.47931   0.40631   -2.000
 7105.00    0.44751   0.40612   -2.000
 7106.00    0.38732   0.40600   -2.000
 7107.00    0.36480   0.40600   -2.000
 7108.00    0.40094   0.40617   -2.000
 7109.00    0.44457   0.40656   -2.000
 7110.00    0.45607   0.40705   -2.000
 7111.00    0.43954   0.40749   -2.000
 7112.00    0.41092   0.40790   -2.000
 7113.00    0.38455   0.40820   -2.000
 7114.00    0.37768   0.40828   -2.000
 7115.00    0.40421   0.40808   -2.000
 7116.00    0.44430   0.40762   -2.000
 7117.00    0.45055   0.40703   -2.000
 7118.00    0.41046   0.40615   -2.000
 7119.00    0.35578   0.40497   -2.000
 7120.00    0.31688   0.40381   -2.000
 7121.00    0.30595   0.40257   -2.000
 7122.00    0.31545   0.40122   -2.000
 7123.00    0.32508   0.40006   -2.000
 7124.00    0.32311   0.39912   -2.000
 7125.00    0.31037   0.39848   -2.000
 7126.00    0.29290   0.39814   -2.000
 7127.00    0.28006   0.39813   -2.000
 7128.00    0.28528   0.39852   -2.000
 7129.00    0.32143   0.39904   -2.000
 7130.00    0.38906   0.39965   -2.000
 7131.00    0.46831   0.40043   -2.000
 7132.00    0.50866   0.40099   -2.000
 7133.00    0.46438   0.40145   -2.000
 7134.00    0.37515   0.40200   -2.000
 7135.00    0.32914   0.40227   -2.000
 7136.00    0.35039   0.40239   -2.000
 7137.00    0.40186   0.40264   -2.000
 7138.00    0.43894   0.40258   -2.000
 7139.00    0.43362   0.40229   -2.000
 7140.00    0.39769   0.40211   -2.000
 7141.00    0.36261   0.40165   -2.000
 7142.00    0.33773   0.40111   -2.000
 7143.00    0.32081   0.40097   -2.000
 7144.00    0.32647   0.40083   -2.000
 7145.00    0.37491   0.40088   -2.000
 7146.00    0.46669   0.40154   -2.000
 7147.00    0.57157   0.40232   -2.000
 7148.00    0.62174   0.40311   -2.000
 7149.00    0.57752   0.40414   -2.000
 7150.00    0.51268   0.40513   -2.000
 7151.00    0.52113   0.40581   -2.000
 7152.00    0.58482   0.40628   -2.000
 7153.00    0.62767   0.40664   -2.000
 7154.00    0.60416   0.40667   -2.000
 7155.00    0.52455   0.40645   -2.000
 7156.00    0.46473   0.40620   -2.000
 7157.00    0.47588   0.40586   -2.000
 7158.00    0.49434   0.40549   -2.000
 7159.00    0.45628   0.40535   -2.000
 7160.00    0.41585   0.40539   -2.000
 7161.00    0.43697   0.40563   -2.000
 7162.00    0.48409   0.40619   -2.000
 7163.00    0.49881   0.40696   -2.000
 7164.00    0.47627   0.40783   -2.000
 7165.00    0.43299   0.40879   -2.000
 7166.00    0.37560   0.40964   -2.000
 7167.00    0.32194   0.41032   -2.000
 7168.00    0.31360   0.41084   -2.000
 7169.00    0.36142   0.41103   -2.000
 7170.00    0.41213   0.41088   -2.000
 7171.00    0.42280   0.41060   -2.000
 7172.00    0.41082   0.41010   -2.000
 7173.00    0.40763   0.40938   -2.000
 7174.00    0.42396   0.40873   -2.000
 7175.00    0.44852   0.40811   -2.000
 7176.00    0.45176   0.40752   -2.000
 7177.00    0.40649   0.40704   -2.000
 7178.00    0.31008   0.40651   -2.000
 7179.00    0.23761   0.40605   -2.000
 7180.00    0.33495   0.40549   -2.000
 7181.00    0.61662   0.40469   -2.000
 7182.00    0.89980   0.40405   -2.000
 7183.00    1.03817   0.40342   -2.000
 7184.00    1.02514   0.40286   -2.000
 7185.00    0.89219   0.40279   -2.000
 7186.00    0.67015   0.40293   -2.000
 7187.00    0.45013   0.40328   -2.000
 7188.00    0.37268   0.40397   -2.000
 7189.00    0.46191   0.40468   -2.000
 7190.00    0.59633   0.40526   -2.000
 7191.00    0.68184   0.40580   -2.000
 7192.00    0.70847   0.40628   -2.000
 7193.00    0.69071   0.40647   -2.000
 7194.00    0.64232   0.40656   -2.000
 7195.00    0.57332   0.40663   -2.000
 7196.00    0.48974   0.40651   -2.000
 7197.00    0.39620   0.40627   -2.000
 7198.00    0.31372   0.40591   -2.000
 7199.00    0.32998   0.40548   -2.000
 7200.00    0.53445   0.40487   -2.000
 7201.00    0.78580   0.40419   -2.000
 7202.00    0.80501   0.40376   -2.000
 7203.00    0.62275   0.40330   -2.000
 7204.00    0.52021   0.40307   -2.000
 7205.00    0.54214   0.40339   -2.000
 7206.00    0.51277   0.40370   -2.000
 7207.00    0.40006   0.40422   -2.000
 7208.00    0.32395   0.40514   -2.000
 7209.00    0.35762   0.40588   -2.000
 7210.00    0.48597   0.40661   -2.000
 7211.00    0.62293   0.40750   -2.000
 7212.00    0.66474   0.40826   -2.000
 7213.00    0.58984   0.40888   -2.000
 7214.00    0.45800   0.40954   -2.000
 7215.00    0.36468   0.41018   -2.000
 7216.00    0.37003   0.41070   -2.000
 7217.00    0.39226   0.41115   -2.000
 7218.00    0.33191   0.41174   -2.000
