###################################################################
## OUTPUT of StarlightChains_v04.for    [Cid@UFSC - 01/Apr/2007] ##
###################################################################

## Some input info
iPTF13dkx.txt                            [arq_obs]
Base.CB07.vall.4m                        [arq_base]
Masks.EmLines.NEW.gm                     [arq_masks]
StCv04.C11.config                        [arq_config]
   66                                    [N_base]
    0                                    [N_YAV_components = # of components with extra extinction!]
    0                                    [i_FitPowerLaw (1/0 = Yes/No)]
-9.99                                    [alpha_PowerLaw]
CCM                                      [red_law_option]
 1.458241                                [q_norm = A(l_norm)/A(V)]

## (Re)Sampling Parameters
 3741.00                                 [l_ini (A)]
 7218.00                                 [l_fin (A)]
    1.00                                 [dl    (A)]     (OBS: dl_cushion =    50.00 A)

## Normalization info
 4020.00                                 [l_norm (A) - for base]
 4010.00                                 [llow_norm (A) - window for f_obs]
 4060.00                                 [lupp_norm (A) - window for f_obs]
3.451645E-17                             [fobs_norm (in input units)]

## S/N
 3691.00                                 [llow_SN (A) - window for S/N]
 7268.00                                 [lupp_SN (A) - window for S/N]
   2.168                                 [S/N in S/N window]
   3.922                                 [S/N in norm. window]
  10.000                                 [S/N_err in S/N window]
  18.095                                 [S/N_err in norm. window]
  1.0000                                 [fscale_chi2]

## etc...
    -2007450                             [idum_orig]
  2284                                   [NOl_eff]
  1898                                   [Nl_eff]
   386    NSIGMA                         [Ntot_cliped & clip_method]
   411110                                [Nglobal_steps]
   7                                     [N_chains]
   7                                     [NEX0s_base = N_base in EX0s-fits]
 0   0   1       33   2.0   4.860E+01    [Clip-Bug, RC-Crash & Burn-In warning-flags, n_censored_weights, wei_nsig_threshold & wei_limit]
    10      9.110      8.615      0.496  [idt_all, wdt_TotTime, wdt_UsrTime & wdt_SysTime (sec)]

## Synthesis Results - Best model ##

 1.73948E+00                             [chi2/Nl_eff]
    10.74851                             [adev (%)]

    89.88398                             [sum-of-x (%)]
 1.60114E-17                             [Flux_tot (units of input spectrum!)]
 3.47105E-14                             [Mini_tot (???)]
 2.22930E-14                             [Mcor_tot (???)]

 -55.65                                  [v0_min  (km/s)]
 189.46                                  [vd_min  (km/s)]
-0.4925                                  [AV_min  (mag)]
 0.0000                                  [YAV_min (mag)]

# j     x_j(%)      Mini_j(%)     Mcor_j(%)     age_j(yr)     Z_j      (L/M)_j    YAV?  Mstars   component_j        a/Fe...       SSP_chi2r SSP_adev(%)   SSP_AV   SSP_x(%)
  1      0.0000     0.0000E+00    0.0000E+00    1.000000E+06  0.00400  1.094E-02    0   1.0000   age020_m42            0.0000     2.4351E+00    11.9236   1.6791    72.2962
  2      0.0000     0.0000E+00    0.0000E+00    3.160000E+06  0.00400  4.007E-02    0   0.9999   age045_m42            0.0000     2.0784E+00    11.4137   0.9282    78.1984
  3      0.0000     0.0000E+00    0.0000E+00    5.010000E+06  0.00400  2.539E-02    0   0.9488   age055_m42            0.0000     2.2317E+00    11.6436   1.2588    75.8917
  4      0.0000     0.0000E+00    0.0000E+00    6.610000E+06  0.00400  2.620E-02    0   0.9220   age061_m42            0.0000     2.0632E+00    11.3782   0.8514    78.5043
  5      0.0000     0.0000E+00    0.0000E+00    1.000000E+07  0.00400  1.322E-02    0   0.8862   age070_m42            0.0000     2.2168E+00    11.6440   0.5668    80.3535
  6      0.0000     0.0000E+00    0.0000E+00    1.445000E+07  0.00400  7.883E-03    0   0.8571   age078_m42            0.0000     2.2828E+00    11.7115   0.9030    77.9905
  7      0.0000     0.0000E+00    0.0000E+00    2.512000E+07  0.00400  5.251E-03    0   0.8174   age090_m42            0.0000     2.2304E+00    11.6814   0.4347    80.9026
  8      0.0000     0.0000E+00    0.0000E+00    4.000000E+07  0.00400  3.649E-03    0   0.7851   age104_m42            0.0000     2.1615E+00    11.5784   0.2027    81.7415
  9      0.0000     0.0000E+00    0.0000E+00    5.500000E+07  0.00400  3.098E-03    0   0.7629   age110_m42            0.0000     2.0205E+00    11.3226   0.3525    81.8771
 10      0.0000     0.0000E+00    0.0000E+00    1.015200E+08  0.00400  2.228E-03    0   0.7207   age116_m42            0.0000     1.9411E+00    11.1828   0.3697    82.1470
 11      0.0000     0.0000E+00    0.0000E+00    2.861200E+08  0.00400  1.093E-03    0   0.6648   age125_m42            0.0000     1.9725E+00    11.3222  -0.1965    84.6808
 12      0.0000     0.0000E+00    0.0000E+00    5.088000E+08  0.00400  6.597E-04    0   0.6365   age130_m42            0.0000     1.8759E+00    11.1156  -0.2099    85.4649
 13      0.0000     0.0000E+00    0.0000E+00    1.434000E+09  0.00400  2.132E-04    0   0.5798   age139_m42            0.0000     1.9718E+00    11.4023  -1.0000    81.1584
 14      0.0000     0.0000E+00    0.0000E+00    4.250000E+09  0.00400  5.895E-05    0   0.5377   age158_m42            0.0000     3.1086E+00    13.9281  -1.0000    64.7946
 15      0.0000     0.0000E+00    0.0000E+00    7.500000E+09  0.00400  3.510E-05    0   0.5212   age171_m42            0.0000     3.8645E+00    15.3738  -1.0000    59.2370
 16      0.0000     0.0000E+00    0.0000E+00    1.300000E+10  0.00400  2.005E-05    0   0.5034   age193_m42            0.0000     4.6473E+00    16.7541  -1.0000    54.6708
 17      0.0000     0.0000E+00    0.0000E+00    1.800000E+10  0.00400  1.525E-05    0   0.4967   age213_m42            0.0000     4.7803E+00    16.9960  -1.0000    53.8461
 18      0.0000     0.0000E+00    0.0000E+00    1.000000E+06  0.00800  1.238E-02    0   1.0000   age020_m52            0.0000     2.4337E+00    11.9234   1.6749    72.4508
 19      0.0000     0.0000E+00    0.0000E+00    3.160000E+06  0.00800  3.074E-02    0   0.9966   age045_m52            0.0000     2.3974E+00    11.8847   1.5936    73.2315
 20      0.0000     0.0000E+00    0.0000E+00    5.010000E+06  0.00800  2.668E-02    0   0.9443   age055_m52            0.0000     2.2716E+00    11.6955   1.3429    75.1545
 21      0.0000     0.0000E+00    0.0000E+00    6.610000E+06  0.00800  2.136E-02    0   0.9177   age061_m52            0.0000     2.2790E+00    11.7079   0.0771    80.8050
 22      0.0000     0.0000E+00    0.0000E+00    1.000000E+07  0.00800  1.215E-02    0   0.8827   age070_m52            0.0000     2.3222E+00    11.8283   0.7523    80.0211
 23      0.0000     0.0000E+00    0.0000E+00    1.445000E+07  0.00800  8.717E-03    0   0.8552   age078_m52            0.0000     2.2573E+00    11.6900   0.8650    79.1969
 24      0.0000     0.0000E+00    0.0000E+00    2.512000E+07  0.00800  5.592E-03    0   0.8162   age090_m52            0.0000     2.2200E+00    11.6938   0.4982    81.9297
 25      0.0000     0.0000E+00    0.0000E+00    4.000000E+07  0.00800  3.896E-03    0   0.7841   age104_m52            0.0000     2.1198E+00    11.5338   0.4086    82.6595
 26      0.0000     0.0000E+00    0.0000E+00    1.015200E+08  0.00800  2.148E-03    0   0.7226   age116_m52            0.0000     1.9880E+00    11.2746   0.3422    82.6551
 27      0.0000     0.0000E+00    0.0000E+00    2.861200E+08  0.00800  9.925E-04    0   0.6683   age125_m52            0.0000     1.8403E+00    11.0163  -0.1501    86.4609
 28      0.0000     0.0000E+00    0.0000E+00    9.047900E+08  0.00800  3.141E-04    0   0.6138   age135_m52            0.0000     1.7969E+00    10.9152  -0.9338    89.4222
 29      0.0000     0.0000E+00    0.0000E+00    1.434000E+09  0.00800  1.719E-04    0   0.5853   age139_m52            0.0000     2.7600E+00    13.2260  -1.0000    71.1680
 30      0.0000     0.0000E+00    0.0000E+00    2.500000E+09  0.00800  7.872E-05    0   0.5600   age150_m52            0.0000     3.7443E+00    15.1644  -1.0000    61.4802
 31      0.0000     0.0000E+00    0.0000E+00    4.250000E+09  0.00800  4.336E-05    0   0.5426   age158_m52            0.0000     3.8188E+00    15.2834  -1.0000    60.4669
 32      0.0000     0.0000E+00    0.0000E+00    6.250000E+09  0.00800  3.159E-05    0   0.5319   age166_m52            0.0000     4.7759E+00    16.9598  -1.0000    55.1618
 33      0.0000     0.0000E+00    0.0000E+00    1.300000E+10  0.00800  1.361E-05    0   0.5073   age193_m52            0.0000     7.4907E+00    21.2849  -1.0000    43.8446
 34      0.0000     0.0000E+00    0.0000E+00    1.800000E+10  0.00800  9.886E-06    0   0.4990   age213_m52            0.0000     8.1259E+00    22.0944  -1.0000    41.4255
 35      0.0000     0.0000E+00    0.0000E+00    1.000000E+06  0.02000  1.544E-02    0   1.0000   age020_m62            0.0000     2.4440E+00    11.9482   1.6704    72.6315
 36      0.0000     0.0000E+00    0.0000E+00    3.160000E+06  0.02000  3.762E-02    0   0.9858   age045_m62            0.0000     2.4323E+00    11.9570   1.6069    73.3487
 37      0.0000     0.0000E+00    0.0000E+00    5.010000E+06  0.02000  3.296E-02    0   0.9342   age055_m62            0.0000     2.1299E+00    11.4857   1.2091    77.1733
 38      0.0000     0.0000E+00    0.0000E+00    8.710000E+06  0.02000  1.154E-02    0   0.8861   age067_m62            0.0000     3.0905E+00    13.3162   0.2105    82.2005
 39      0.0000     0.0000E+00    0.0000E+00    1.445000E+07  0.02000  7.663E-03    0   0.8472   age078_m62            0.0000     2.5080E+00    12.2173   0.4037    81.7956
 40      0.0000     0.0000E+00    0.0000E+00    2.512000E+07  0.02000  4.532E-03    0   0.8099   age090_m62            0.0000     2.5164E+00    12.2745   0.3939    81.7026
 41      0.0000     0.0000E+00    0.0000E+00    5.500000E+07  0.02000  2.733E-03    0   0.7595   age110_m62            0.0000     2.1535E+00    11.5822   0.3923    82.0028
 42      0.0000     0.0000E+00    0.0000E+00    1.609000E+08  0.02000  1.369E-03    0   0.6985   age120_m62            0.0000     1.9067E+00    11.1336   0.2137    84.9243
 43      0.0000     0.0000E+00    0.0000E+00    2.861200E+08  0.02000  9.013E-04    0   0.6714   age125_m62            0.0000     1.8077E+00    10.9427  -0.0491    87.8274
 44     64.3302     6.5661E+01    6.5931E+01    5.088000E+08  0.02000  5.028E-04    0   0.6449   age130_m62            0.0000     1.7413E+00    10.7558  -0.4210    89.8848
 45      0.0000     0.0000E+00    0.0000E+00    9.047900E+08  0.02000  2.428E-04    0   0.6179   age135_m62            0.0000     1.7983E+00    10.9156  -0.9826    88.3297
 46      0.0000     0.0000E+00    0.0000E+00    1.434000E+09  0.02000  1.263E-04    0   0.5908   age139_m62            0.0000     2.4633E+00    12.5578  -1.0000    73.3360
 47      0.0000     0.0000E+00    0.0000E+00    2.500000E+09  0.02000  5.985E-05    0   0.5673   age150_m62            0.0000     3.7921E+00    15.2288  -1.0000    61.6766
 48      0.0000     0.0000E+00    0.0000E+00    4.250000E+09  0.02000  3.271E-05    0   0.5468   age158_m62            0.0000     5.3004E+00    17.7944  -1.0000    53.1875
 49      0.0000     0.0000E+00    0.0000E+00    1.000000E+10  0.02000  1.360E-05    0   0.5167   age181_m62            0.0000     7.3209E+00    20.8236  -1.0000    44.9008
 50      0.0000     0.0000E+00    0.0000E+00    1.800000E+10  0.02000  7.124E-06    0   0.5013   age213_m62            0.0000     8.6107E+00    22.5450  -1.0000    40.2467
 51      0.0000     0.0000E+00    0.0000E+00    1.000000E+06  0.05000  2.592E-02    0   0.9998   age020_m72            0.0000     2.4830E+00    12.0112   1.6636    72.5950
 52      0.0000     0.0000E+00    0.0000E+00    3.160000E+06  0.05000  4.845E-02    0   0.9577   age045_m72            0.0000     2.3052E+00    11.7720   1.4818    74.6070
 53      0.0000     0.0000E+00    0.0000E+00    5.010000E+06  0.05000  3.072E-02    0   0.9147   age055_m72            0.0000     2.4526E+00    12.0501   1.0089    78.0875
 54      0.0000     0.0000E+00    0.0000E+00    6.610000E+06  0.05000  1.455E-02    0   0.8877   age061_m72            0.0000     3.6578E+00    14.4468   0.2882    82.5854
 55      0.0000     0.0000E+00    0.0000E+00    1.000000E+07  0.05000  9.074E-03    0   0.8524   age070_m72            0.0000     2.4964E+00    12.2208   1.2113    77.5907
 56      0.0000     0.0000E+00    0.0000E+00    2.512000E+07  0.05000  4.250E-03    0   0.7902   age090_m72            0.0000     2.3232E+00    11.9236   0.8824    79.8447
 57      0.0000     0.0000E+00    0.0000E+00    4.000000E+07  0.05000  3.087E-03    0   0.7618   age104_m72            0.0000     2.3040E+00    11.9500   0.6459    81.5289
 58      0.0000     0.0000E+00    0.0000E+00    1.015200E+08  0.05000  1.700E-03    0   0.7096   age116_m72            0.0000     1.9792E+00    11.3158   0.3579    84.6006
 59      0.0000     0.0000E+00    0.0000E+00    2.861200E+08  0.05000  7.384E-04    0   0.6633   age125_m72            0.0000     1.7611E+00    10.8213  -0.1804    88.9793
 60     25.5537     3.4339E+01    3.4069E+01    5.088000E+08  0.05000  3.819E-04    0   0.6372   age130_m72            0.0000     1.7504E+00    10.7755  -0.6587    89.7375
 61      0.0000     0.0000E+00    0.0000E+00    9.047900E+08  0.05000  1.676E-04    0   0.6110   age135_m72            0.0000     2.2433E+00    12.0351  -1.0000    76.4538
 62      0.0000     0.0000E+00    0.0000E+00    1.434000E+09  0.05000  8.837E-05    0   0.5874   age139_m72            0.0000     3.8068E+00    15.2514  -1.0000    62.5811
 63      0.0000     0.0000E+00    0.0000E+00    2.500000E+09  0.05000  4.233E-05    0   0.5598   age150_m72            0.0000     5.3058E+00    17.7607  -1.0000    53.6481
 64      0.0000     0.0000E+00    0.0000E+00    6.250000E+09  0.05000  1.435E-05    0   0.5249   age166_m72            0.0000     7.9300E+00    21.6779  -1.0000    42.6711
 65      0.0000     0.0000E+00    0.0000E+00    1.300000E+10  0.05000  6.513E-06    0   0.5036   age193_m72            0.0000     9.7055E+00    23.9735  -1.0000    37.5571
 66      0.0000     0.0000E+00    0.0000E+00    1.800000E+10  0.05000  4.527E-06    0   0.4945   age213_m72            0.0000     1.0734E+01    25.2322  -1.0000    34.6132


## Synthesis Results - Average & Chains ##

# j      x_j: min, <> & last-chain-values for 1 ...  7 chains
  1      0.0000      0.0715      0.0000      0.0000      0.0000      0.0000      0.0000      0.0000      0.0000
  2      0.0000      0.3574      0.0000      0.0000      0.0000      0.0000      0.0000      0.0000      1.4318
  3      0.0000      0.1521      0.0000      0.0000      0.0000      0.0000      0.0000      0.0000      0.0000
  4      0.0000      0.2619      0.0000      0.5546      0.0000      0.0000      0.0000      0.7319      0.0000
  5      0.0000      0.1522      0.0000      0.0000      0.0000      0.0000      0.0000      0.0000      0.0000
  6      0.0000      0.1615      0.1277      0.2022      0.0000      0.0000      0.0000      0.0000      0.0000
  7      0.0000      0.2088      0.0000      0.0617      0.0000      0.0000      0.0000      0.0000      0.0000
  8      0.0000      0.2920      0.0000      0.0000      0.2568      0.5326      0.0000      0.1369      0.0000
  9      0.0000      0.4360      2.0253      0.1552      0.0000      0.0000      0.7864      0.0000      0.0000
 10      0.0000      0.7501      0.0000      0.5825      0.0000      0.0873      0.0000      0.0000      0.9544
 11      0.0000      0.4145      0.0000      0.0000      0.0000      0.0000      0.0000      0.0000      0.0000
 12      0.0000      0.8932      0.4638      0.0000      1.7173      3.2159      0.1056      0.0000      0.1274
 13      0.0000      0.0937      0.0000      0.0000      0.0000      0.0000      0.0000      0.0000      0.0000
 14      0.0000      0.0299      0.0000      0.0000      0.1607      0.0000      0.0000      0.0000      0.0000
 15      0.0000      0.0422      0.0000      0.1066      0.0000      0.0000      0.0000      0.0000      0.0000
 16      0.0000      0.0072      0.0000      0.0000      0.0000      0.0000      0.0000      0.0000      0.0448
 17      0.0000      0.0132      0.0000      0.0000      0.0000      0.0000      0.0000      0.0000      0.0000
 18      0.0000      0.0560      0.0000      0.0000      0.1900      0.0000      0.0000      0.0401      0.0000
 19      0.0000      0.0303      0.0000      0.0000      0.0000      0.0000      0.0000      0.0000      0.0000
 20      0.0000      0.0652      0.0000      0.0000      0.0000      0.0000      0.0000      0.0000      0.0000
 21      0.0000      0.1565      0.0000      0.0000      0.0000      0.0000      0.0000      0.0000      0.8001
 22      0.0000      0.1362      0.0000      0.0423      0.0000      0.0000      0.4331      0.0000      0.0000
 23      0.0000      0.0441      0.0000      0.0000      0.0000      0.1995      0.0000      0.0000      0.0000
 24      0.0000      0.0787      0.0000      0.0000      0.0000      0.0000      0.0000      0.0000      0.0000
 25      0.0000      0.1668      0.0000      0.8611      0.0000      0.1065      0.1453      0.0000      0.0000
 26      0.0000      0.3745      0.0000      0.0568      0.0000      0.0000      0.0000      0.0000      0.1531
 27      0.0000      1.5138      1.1887      0.0000      3.6012      1.7598      0.0000      0.0000      0.0744
 28      0.0000      0.2047      0.0000      0.0000      0.0000      0.0000      0.0000      0.0000      0.0000
 29      0.0000      0.0159      0.0000      0.0000      0.0000      0.0000      0.0000      0.0000      0.0000
 30      0.0000      0.0274      0.0000      0.0763      0.0000      0.0776      0.0000      0.0000      0.0000
 31      0.0000      0.0291      0.0000      0.0000      0.0000      0.0000      0.0000      0.0000      0.0000
 32      0.0000      0.0081      0.0000      0.0000      0.0000      0.0193      0.0000      0.0000      0.0000
 33      0.0000      0.0039      0.0000      0.0000      0.0000      0.0000      0.0000      0.0000      0.0000
 34      0.0000      0.0039      0.0000      0.0000      0.0000      0.0000      0.0000      0.0000      0.0000
 35      0.0000      0.1077      0.0000      0.0000      0.0000      0.0000      0.0000      0.4814      0.0000
 36      0.0000      0.1361      0.0000      0.0000      0.0000      0.1179      0.0000      0.2712      0.0000
 37      0.0000      0.1941      0.0000      0.0000      0.0000      0.0000      0.0000      0.0000      0.4711
 38      0.0000      0.0379      0.0000      0.0000      0.0000      0.0000      0.0000      0.0000      0.0000
 39      0.0000      0.0922      0.0000      0.0000      0.0000      0.0000      0.0000      0.0000      0.0178
 40      0.0000      0.0989      0.0000      0.3340      0.0000      0.0000      0.4196      0.0000      0.0000
 41      0.0000      0.1356      0.0000      0.0000      0.0000      0.0000      0.0000      0.2156      0.0000
 42      0.0000      0.6465      0.0000      1.3741      0.0000      0.0000      0.8046      0.0000      0.0000
 43      0.0000      1.5086      4.6437      0.0000      4.1004      3.9698      0.9264      1.1205      4.4462
 44     64.3302     52.6307     55.5719     47.8572     55.7074     54.6868     58.0670     58.7661     51.7333
 45      0.0000      0.3656      0.0000      0.0000      0.0000      0.0000      0.1190      0.0000      0.5613
 46      0.0000      0.0756      0.0000      0.0593      0.0000      0.0000      0.0000      0.0000      0.0000
 47      0.0000      0.0283      0.0000      0.0000      0.0000      0.0000      0.0000      0.0000      0.0000
 48      0.0000      0.0117      0.0000      0.0000      0.0000      0.0000      0.0000      0.0000      0.0000
 49      0.0000      0.0071      0.0000      0.0000      0.0000      0.0000      0.0000      0.0000      0.0000
 50      0.0000      0.0054      0.0000      0.0000      0.0000      0.0000      0.0000      0.0000      0.0000
 51      0.0000      0.1046      0.0000      0.0000      0.0000      0.0640      0.0000      0.0000      0.0000
 52      0.0000      0.0874      0.0000      0.0000      0.0000      0.0000      0.0528      0.0000      0.0000
 53      0.0000      0.0403      0.0000      0.0112      0.0000      0.0000      0.0000      0.0000      0.0000
 54      0.0000      0.0146      0.0000      0.0000      0.0000      0.0000      0.0000      0.0000      0.0000
 55      0.0000      0.0674      0.0000      0.0000      0.0000      0.0000      0.0000      0.0000      0.0000
 56      0.0000      0.0892      0.0000      0.0000      0.0000      0.0702      0.0000      0.0000      0.0000
 57      0.0000      0.1564      0.0098      0.0000      0.0000      0.0000      0.0000      0.0000      0.0000
 58      0.0000      0.4365      0.0000      0.0000      0.0000      0.0487      0.0000      1.0002      0.0000
 59      0.0000     11.0369     15.7907     23.3159     15.2076     15.2117     13.0050      9.4416     17.6560
 60     25.5537     12.4129      9.0323     13.0038      7.7728      8.8456     13.6736     17.0075     10.2772
 61      0.0000      0.3698      0.0000      0.0000      0.0000      0.0000      0.0000      0.0000      0.0000
 62      0.0000      0.0423      0.0000      0.0000      0.0000      0.0000      0.0000      0.0000      0.0000
 63      0.0000      0.0153      0.0000      0.0294      0.0000      0.0000      0.0000      0.0000      0.0000
 64      0.0000      0.0051      0.0000      0.0000      0.0000      0.0000      0.0000      0.0000      0.0000
 65      0.0000      0.0090      0.0000      0.0000      0.0000      0.0000      0.0000      0.0000      0.0000
 66      0.0000      0.0014      0.0000      0.0000      0.0000      0.0000      0.0000      0.0000      0.0000

# j      m_j: min, <> & last-chain-values for 1 ...  7 chains
  1  0.0000E+00  5.8736E-03  0.0000E+00  0.0000E+00  0.0000E+00  0.0000E+00  0.0000E+00  0.0000E+00  0.0000E+00
  2  0.0000E+00  8.0136E-03  0.0000E+00  0.0000E+00  0.0000E+00  0.0000E+00  0.0000E+00  0.0000E+00  3.3755E-02
  3  0.0000E+00  5.1088E-03  0.0000E+00  0.0000E+00  0.0000E+00  0.0000E+00  0.0000E+00  0.0000E+00  0.0000E+00
  4  0.0000E+00  8.2810E-03  0.0000E+00  1.8063E-02  0.0000E+00  0.0000E+00  0.0000E+00  2.2663E-02  0.0000E+00
  5  0.0000E+00  9.1667E-03  0.0000E+00  0.0000E+00  0.0000E+00  0.0000E+00  0.0000E+00  0.0000E+00  0.0000E+00
  6  0.0000E+00  1.5778E-02  1.3131E-02  2.0350E-02  0.0000E+00  0.0000E+00  0.0000E+00  0.0000E+00  0.0000E+00
  7  0.0000E+00  2.9211E-02  0.0000E+00  8.8825E-03  0.0000E+00  0.0000E+00  0.0000E+00  0.0000E+00  0.0000E+00
  8  0.0000E+00  5.6447E-02  0.0000E+00  0.0000E+00  5.1760E-02  1.0719E-01  0.0000E+00  2.5924E-02  0.0000E+00
  9  0.0000E+00  9.6477E-02  4.7161E-01  3.5370E-02  0.0000E+00  0.0000E+00  1.7477E-01  0.0000E+00  0.0000E+00
 10  0.0000E+00  2.1803E-01  0.0000E+00  1.7438E-01  0.0000E+00  2.6406E-02  0.0000E+00  0.0000E+00  2.9167E-01
 11  0.0000E+00  2.2653E-01  0.0000E+00  0.0000E+00  0.0000E+00  0.0000E+00  0.0000E+00  0.0000E+00  0.0000E+00
 12  0.0000E+00  7.7438E-01  4.2309E-01  0.0000E+00  1.5521E+00  2.9022E+00  9.1988E-02  0.0000E+00  1.1614E-01
 13  0.0000E+00  2.2900E-01  0.0000E+00  0.0000E+00  0.0000E+00  0.0000E+00  0.0000E+00  0.0000E+00  0.0000E+00
 14  0.0000E+00  2.4491E-01  0.0000E+00  0.0000E+00  1.3727E+00  0.0000E+00  0.0000E+00  0.0000E+00  0.0000E+00
 15  0.0000E+00  5.6271E-01  0.0000E+00  1.4651E+00  0.0000E+00  0.0000E+00  0.0000E+00  0.0000E+00  0.0000E+00
 16  0.0000E+00  1.6315E-01  0.0000E+00  0.0000E+00  0.0000E+00  0.0000E+00  0.0000E+00  0.0000E+00  1.0619E+00
 17  0.0000E+00  3.8672E-01  0.0000E+00  0.0000E+00  0.0000E+00  0.0000E+00  0.0000E+00  0.0000E+00  0.0000E+00
 18  0.0000E+00  4.0614E-03  0.0000E+00  0.0000E+00  1.4378E-02  0.0000E+00  0.0000E+00  2.8473E-03  0.0000E+00
 19  0.0000E+00  8.8359E-04  0.0000E+00  0.0000E+00  0.0000E+00  0.0000E+00  0.0000E+00  0.0000E+00  0.0000E+00
 20  0.0000E+00  2.0721E-03  0.0000E+00  0.0000E+00  0.0000E+00  0.0000E+00  0.0000E+00  0.0000E+00  0.0000E+00
 21  0.0000E+00  6.0430E-03  0.0000E+00  0.0000E+00  0.0000E+00  0.0000E+00  0.0000E+00  0.0000E+00  3.2476E-02
 22  0.0000E+00  8.8915E-03  0.0000E+00  2.8455E-03  0.0000E+00  0.0000E+00  2.8394E-02  0.0000E+00  0.0000E+00
 23  0.0000E+00  3.8874E-03  0.0000E+00  0.0000E+00  0.0000E+00  1.8309E-02  0.0000E+00  0.0000E+00  0.0000E+00
 24  0.0000E+00  1.0318E-02  0.0000E+00  0.0000E+00  0.0000E+00  0.0000E+00  0.0000E+00  0.0000E+00  0.0000E+00
 25  0.0000E+00  3.0161E-02  0.0000E+00  1.6039E-01  0.0000E+00  2.0050E-02  2.6385E-02  0.0000E+00  0.0000E+00
 26  0.0000E+00  1.1319E-01  0.0000E+00  1.7672E-02  0.0000E+00  0.0000E+00  0.0000E+00  0.0000E+00  4.8671E-02
 27  0.0000E+00  9.1595E-01  7.5684E-01  0.0000E+00  2.2715E+00  1.1084E+00  0.0000E+00  0.0000E+00  4.7310E-02
 28  0.0000E+00  3.5953E-01  0.0000E+00  0.0000E+00  0.0000E+00  0.0000E+00  0.0000E+00  0.0000E+00  0.0000E+00
 29  0.0000E+00  4.8609E-02  0.0000E+00  0.0000E+00  0.0000E+00  0.0000E+00  0.0000E+00  0.0000E+00  0.0000E+00
 30  0.0000E+00  1.7489E-01  0.0000E+00  5.0253E-01  0.0000E+00  5.1619E-01  0.0000E+00  0.0000E+00  0.0000E+00
 31  0.0000E+00  3.2776E-01  0.0000E+00  0.0000E+00  0.0000E+00  0.0000E+00  0.0000E+00  0.0000E+00  0.0000E+00
 32  0.0000E+00  1.2313E-01  0.0000E+00  0.0000E+00  0.0000E+00  3.0459E-01  0.0000E+00  0.0000E+00  0.0000E+00
 33  0.0000E+00  1.3201E-01  0.0000E+00  0.0000E+00  0.0000E+00  0.0000E+00  0.0000E+00  0.0000E+00  0.0000E+00
 34  0.0000E+00  1.7810E-01  0.0000E+00  0.0000E+00  0.0000E+00  0.0000E+00  0.0000E+00  0.0000E+00  0.0000E+00
 35  0.0000E+00  6.2702E-03  0.0000E+00  0.0000E+00  0.0000E+00  0.0000E+00  0.0000E+00  2.7435E-02  0.0000E+00
 36  0.0000E+00  3.2057E-03  0.0000E+00  0.0000E+00  0.0000E+00  2.8894E-03  0.0000E+00  6.2545E-03  0.0000E+00
 37  0.0000E+00  4.9436E-03  0.0000E+00  0.0000E+00  0.0000E+00  0.0000E+00  0.0000E+00  0.0000E+00  1.2614E-02
 38  0.0000E+00  2.6174E-03  0.0000E+00  0.0000E+00  0.0000E+00  0.0000E+00  0.0000E+00  0.0000E+00  0.0000E+00
 39  0.0000E+00  9.1550E-03  0.0000E+00  0.0000E+00  0.0000E+00  0.0000E+00  0.0000E+00  0.0000E+00  1.8572E-03
 40  0.0000E+00  1.5877E-02  0.0000E+00  5.5235E-02  0.0000E+00  0.0000E+00  6.7668E-02  0.0000E+00  0.0000E+00
 41  0.0000E+00  3.3860E-02  0.0000E+00  0.0000E+00  0.0000E+00  0.0000E+00  0.0000E+00  5.2722E-02  0.0000E+00
 42  0.0000E+00  2.9639E-01  0.0000E+00  6.4885E-01  0.0000E+00  0.0000E+00  3.7049E-01  0.0000E+00  0.0000E+00
 43  0.0000E+00  1.0098E+00  3.2710E+00  0.0000E+00  2.8612E+00  2.7660E+00  6.2277E-01  7.3451E-01  3.1292E+00
 44  6.5931E+01  6.0659E+01  6.7399E+01  5.6809E+01  6.6931E+01  6.5608E+01  6.7212E+01  6.6326E+01  6.2690E+01
 45  0.0000E+00  8.3605E-01  0.0000E+00  0.0000E+00  0.0000E+00  0.0000E+00  2.7322E-01  0.0000E+00  1.3495E+00
 46  0.0000E+00  3.1763E-01  0.0000E+00  2.5692E-01  0.0000E+00  0.0000E+00  0.0000E+00  0.0000E+00  0.0000E+00
 47  0.0000E+00  2.4130E-01  0.0000E+00  0.0000E+00  0.0000E+00  0.0000E+00  0.0000E+00  0.0000E+00  0.0000E+00
 48  0.0000E+00  1.7574E-01  0.0000E+00  0.0000E+00  0.0000E+00  0.0000E+00  0.0000E+00  0.0000E+00  0.0000E+00
 49  0.0000E+00  2.4275E-01  0.0000E+00  0.0000E+00  0.0000E+00  0.0000E+00  0.0000E+00  0.0000E+00  0.0000E+00
 50  0.0000E+00  3.4438E-01  0.0000E+00  0.0000E+00  0.0000E+00  0.0000E+00  0.0000E+00  0.0000E+00  0.0000E+00
 51  0.0000E+00  3.6243E-03  0.0000E+00  0.0000E+00  0.0000E+00  2.3102E-03  0.0000E+00  0.0000E+00  0.0000E+00
 52  0.0000E+00  1.5529E-03  0.0000E+00  0.0000E+00  0.0000E+00  0.0000E+00  9.4148E-04  0.0000E+00  0.0000E+00
 53  0.0000E+00  1.0794E-03  0.0000E+00  3.0809E-04  0.0000E+00  0.0000E+00  0.0000E+00  0.0000E+00  0.0000E+00
 54  0.0000E+00  7.9908E-04  0.0000E+00  0.0000E+00  0.0000E+00  0.0000E+00  0.0000E+00  0.0000E+00  0.0000E+00
 55  0.0000E+00  5.6886E-03  0.0000E+00  0.0000E+00  0.0000E+00  0.0000E+00  0.0000E+00  0.0000E+00  0.0000E+00
 56  0.0000E+00  1.4895E-02  0.0000E+00  0.0000E+00  0.0000E+00  1.2205E-02  0.0000E+00  0.0000E+00  0.0000E+00
 57  0.0000E+00  3.4681E-02  2.2983E-03  0.0000E+00  0.0000E+00  0.0000E+00  0.0000E+00  0.0000E+00  0.0000E+00
 58  0.0000E+00  1.6371E-01  0.0000E+00  0.0000E+00  0.0000E+00  1.9016E-02  0.0000E+00  3.6738E-01  0.0000E+00
 59  0.0000E+00  8.9089E+00  1.3413E+01  1.9384E+01  1.2797E+01  1.2781E+01  1.0543E+01  7.4632E+00  1.4984E+01
 60  3.4069E+01  1.8610E+01  1.4250E+01  2.0080E+01  1.2148E+01  1.3805E+01  2.0589E+01  2.4971E+01  1.6201E+01
 61  0.0000E+00  1.2115E+00  0.0000E+00  0.0000E+00  0.0000E+00  0.0000E+00  0.0000E+00  0.0000E+00  0.0000E+00
 62  0.0000E+00  2.5274E-01  0.0000E+00  0.0000E+00  0.0000E+00  0.0000E+00  0.0000E+00  0.0000E+00  0.0000E+00
 63  0.0000E+00  1.8171E-01  0.0000E+00  3.5961E-01  0.0000E+00  0.0000E+00  0.0000E+00  0.0000E+00  0.0000E+00
 64  0.0000E+00  1.6897E-01  0.0000E+00  0.0000E+00  0.0000E+00  0.0000E+00  0.0000E+00  0.0000E+00  0.0000E+00
 65  0.0000E+00  6.2660E-01  0.0000E+00  0.0000E+00  0.0000E+00  0.0000E+00  0.0000E+00  0.0000E+00  0.0000E+00
 66  0.0000E+00  1.3502E-01  0.0000E+00  0.0000E+00  0.0000E+00  0.0000E+00  0.0000E+00  0.0000E+00  0.0000E+00

# AV, chi2 & Mass for <> & i_chain = 1 ...  7 solutions
AV      -0.4925     -0.3536     -0.3534     -0.3558     -0.3571     -0.3637     -0.3786     -0.4038     -0.3452
chi2 1.7395E+00  1.7597E+00  1.7493E+00  1.7513E+00  1.7506E+00  1.7508E+00  1.7487E+00  1.7464E+00  1.7518E+00
Mass 2.2293E-14  2.3889E-14  2.2708E-14  2.3127E-14  2.2808E-14  2.2641E-14  2.3002E-14  2.2804E-14  2.2980E-14
 -55.65                                  [v0_min (km/s) before EX0s...]
 189.46                                  [vd_min (km/s) before EX0s...]


## Synthetic spectrum (Best Model) ##l_obs f_obs f_syn wei
 3478    [Nl_obs]
 3741.00    1.93807   0.45505    0.000
 3742.00    1.28668   0.44934    0.000
 3743.00    0.50637   0.43422    0.000
 3744.00   -0.02563   0.41209   -2.000
 3745.00    0.07865   0.38578   -1.000
 3746.00    0.58899   0.35880   -1.000
 3747.00    0.70280   0.33550   -1.000
 3748.00    0.31694   0.32076   31.552
 3749.00    0.14247   0.31859   -1.000
 3750.00    0.42127   0.33050   -1.000
 3751.00    0.76660   0.35454   -1.000
 3752.00    0.95774   0.38572   -1.000
 3753.00    1.05886   0.41759   -1.000
 3754.00    1.13463   0.44447   -1.000
 3755.00    1.18421   0.46312   -1.000
 3756.00    1.15779   0.47353   -1.000
 3757.00    1.01353   0.47814   -1.000
 3758.00    0.80785   0.48023   -1.000
 3759.00    0.63225   0.48199   -1.000
 3760.00    0.49580   0.48363   20.169
 3761.00    0.38192   0.48366   26.183
 3762.00    0.34191   0.47995   29.247
 3763.00    0.42730   0.47079   23.403
 3764.00    0.60226   0.45552   16.604
 3765.00    0.77949   0.43481   -1.000
 3766.00    0.87140   0.41075   -1.000
 3767.00    0.84779   0.38675   -1.000
 3768.00    0.77216   0.36704   -1.000
 3769.00    0.73340   0.35577   -1.000
 3770.00    0.78234   0.35575   -1.000
 3771.00    0.86224   0.36751   -1.000
 3772.00    0.81428   0.38929   -1.000
 3773.00    0.62762   0.41789   -1.000
 3774.00    0.49549   0.45003   20.182
 3775.00    0.45090   0.48317   22.178
 3776.00    0.31036   0.51562   -1.000
 3777.00    0.12187   0.54606   -1.000
 3778.00    0.18496   0.57326   -1.000
 3779.00    0.51688   0.59602   19.347
 3780.00    0.82037   0.61330   -1.000
 3781.00    0.92029   0.62430   -1.000
 3782.00    0.85559   0.62854   -1.000
 3783.00    0.77793   0.62586   12.855
 3784.00    0.80708   0.61676   12.390
 3785.00    0.79617   0.60254   12.560
 3786.00    0.54024   0.58522   18.510
 3787.00    0.22746   0.56681   -1.000
 3788.00    0.20325   0.54836   -1.000
 3789.00    0.48256   0.52952   20.723
 3790.00    0.82174   0.50875   -1.000
 3791.00    0.93159   0.48436   -1.000
 3792.00    0.67779   0.45557   -1.000
 3793.00    0.25951   0.42331   -1.000
 3794.00   -0.01293   0.39045   -2.000
 3795.00    0.02711   0.36137   -1.000
 3796.00    0.28234   0.34106   35.418
 3797.00    0.37489   0.33378   26.675
 3798.00    0.15806   0.34161   -1.000
 3799.00    0.00070   0.36361    0.000
 3800.00    0.16160   0.39596   -1.000
 3801.00    0.44623   0.43328   22.410
 3802.00    0.59121   0.47040   -1.000
 3803.00    0.49910   0.50388   20.036
 3804.00    0.28595   0.53270   -1.000
 3805.00    0.21291   0.55781   -1.000
 3806.00    0.35317   0.58084   -1.000
 3807.00    0.54888   0.60262   18.219
 3808.00    0.72345   0.62229   13.823
 3809.00    0.92210   0.63767   -1.000
 3810.00    1.11025   0.64671   -1.000
 3811.00    1.16063   0.64904   -1.000
 3812.00    0.97495   0.64661   -1.000
 3813.00    0.57494   0.64285   17.393
 3814.00    0.21856   0.64081   -1.000
 3815.00    0.20835   0.64161   -1.000
 3816.00    0.50441   0.64404   19.825
 3817.00    0.82885   0.64561   -1.000
 3818.00    0.94934   0.64420   -1.000
 3819.00    0.81043   0.63892   12.339
 3820.00    0.62747   0.62989   15.937
 3821.00    0.59107   0.61747   16.919
 3822.00    0.53628   0.60177   18.647
 3823.00    0.25899   0.58303   -1.000
 3824.00   -0.14066   0.56194   -2.000
 3825.00   -0.37991   0.53956   -2.000
 3826.00   -0.16908   0.51662   -2.000
 3827.00    0.46659   0.49299   21.432
 3828.00    1.04362   0.46776   -1.000
 3829.00    1.19819   0.43995   -1.000
 3830.00    1.01707   0.40944   -1.000
 3831.00    0.75124   0.37766   -1.000
 3832.00    0.61716   0.34776   -1.000
 3833.00    0.66959   0.32382   -1.000
 3834.00    0.78526   0.30966   -1.000
 3835.00    0.82658   0.30755   -1.000
 3836.00    0.72803   0.31768   -1.000
 3837.00    0.55252   0.33843   -1.000
 3838.00    0.45296   0.36724   -1.000
 3839.00    0.50634   0.40139   -1.000
 3840.00    0.67741   0.43829   -1.000
 3841.00    0.85823   0.47557   -1.000
 3842.00    0.93885   0.51107   -1.000
 3843.00    0.93233   0.54320   -1.000
 3844.00    0.93222   0.57118   -1.000
 3845.00    0.98315   0.59500   -1.000
 3846.00    1.07659   0.61521   -1.000
 3847.00    1.18473   0.63266    0.000
 3848.00    1.28410   0.64824    0.000
 3849.00    1.37792   0.66266    0.000
 3850.00    1.45936   0.67608    0.000
 3851.00    1.47427   0.68793    0.000
 3852.00    1.43107   0.69728    0.000
 3853.00    1.49328   0.70352    0.000
 3854.00    1.75640   0.70693    0.000
 3855.00    2.06709   0.70867    0.000
 3856.00    2.21014   0.71023    0.000
 3857.00    2.07422   0.71294    0.000
 3858.00    1.72930   0.71761    0.000
 3859.00    1.41440   0.72431    0.000
 3860.00    1.22814   0.73232    0.000
 3861.00    1.02778   0.74032    0.000
 3862.00    0.78258   0.74693    0.000
 3863.00    0.66880   0.75133    0.000
 3864.00    0.74643   0.75347    0.000
 3865.00    0.88206   0.75371    0.000
 3866.00    0.95991   0.75213    0.000
 3867.00    0.95717   0.74822    0.000
 3868.00    0.93438   0.74113    0.000
 3869.00    0.95976   0.73058    0.000
 3870.00    0.93413   0.71743    0.000
 3871.00    0.73121   0.70352    0.000
 3872.00    0.59003   0.69051    0.000
 3873.00    0.88849   0.67875    0.000
 3874.00    1.56343   0.66702    0.000
 3875.00    2.20090   0.65352    0.000
 3876.00    2.37745   0.63733    0.000
 3877.00    1.96933   0.61893    0.000
 3878.00    1.45945   0.59949    0.000
 3879.00    1.34249   0.57962    0.000
 3880.00    1.41089   0.55865    0.000
 3881.00    1.29946   0.53506   -1.000
 3882.00    1.09620   0.50745   -1.000
 3883.00    0.98968   0.47554   -1.000
 3884.00    0.92884   0.44067   -1.000
 3885.00    0.84153   0.40590   -1.000
 3886.00    0.80764   0.37566   -1.000
 3887.00    0.94931   0.35466   -1.000
 3888.00    1.31917   0.34657   -1.000
 3889.00    1.73009   0.35264   -1.000
 3890.00    1.78003   0.37127   -1.000
 3891.00    1.41933   0.39867   -1.000
 3892.00    1.07833   0.43033   -1.000
 3893.00    1.04302   0.46242   -1.000
 3894.00    1.25285   0.49266   -1.000
 3895.00    1.53985   0.52015   -1.000
 3896.00    1.74098   0.54494   -1.000
 3897.00    1.76110   0.56752   -1.000
 3898.00    1.60929   0.58847   -1.000
 3899.00    1.43711   0.60806   -1.000
 3900.00    1.40770   0.62614   -1.000
 3901.00    1.39579   0.64223   -1.000
 3902.00    1.14800   0.65620   -1.000
 3903.00    0.70875   0.66878   14.109
 3904.00    0.32977   0.68154   -1.000
 3905.00    0.18536   0.69616   -1.000
 3906.00    0.32357   0.71337   -1.000
 3907.00    0.66701   0.73229   14.992
 3908.00    1.05827   0.75065   -1.000
 3909.00    1.32198   0.76581   -1.000
 3910.00    1.34634   0.77591   -1.000
 3911.00    1.15636   0.78050   -1.000
 3912.00    0.86885   0.78060   11.509
 3913.00    0.63767   0.77791   15.682
 3914.00    0.59672   0.77406   16.758
 3915.00    0.80258   0.77009   12.460
 3916.00    1.12735   0.76654   -1.000
 3917.00    1.26645   0.76377   -1.000
 3918.00    1.17674   0.76217   -1.000
 3919.00    1.20702   0.76206   -1.000
 3920.00    1.49292   0.76331   -1.000
 3921.00    1.76586   0.76499   -1.000
 3922.00    1.83518   0.76541   -1.000
 3923.00    1.76080   0.76240   -1.000
 3924.00    1.70863   0.75393   -1.000
 3925.00    1.82515   0.73845   -1.000
 3926.00    2.03360   0.71507   -1.000
 3927.00    2.10653   0.68347   -1.000
 3928.00    2.01550   0.64414   -1.000
 3929.00    1.88442   0.59899   -1.000
 3930.00    1.67882   0.55227   -1.000
 3931.00    1.30443   0.51084   -1.000
 3932.00    0.92476   0.48285   -1.000
 3933.00    0.78588   0.47501   -1.000
 3934.00    0.83475   0.48959   -1.000
 3935.00    0.87510   0.52314   -1.000
 3936.00    0.87320   0.56783   -1.000
 3937.00    0.87529   0.61451   -1.000
 3938.00    0.86185   0.65570   -1.000
 3939.00    0.84877   0.68720   11.782
 3940.00    0.99135   0.70826   -1.000
 3941.00    1.37155   0.72059   -1.000
 3942.00    1.81665   0.72714   -1.000
 3943.00    2.08547   0.73075   -1.000
 3944.00    2.03835   0.73314   -1.000
 3945.00    1.70863   0.73470   -1.000
 3946.00    1.30822   0.73499   -1.000
 3947.00    1.02464   0.73360   -1.000
 3948.00    0.91007   0.73064   10.988
 3949.00    0.92921   0.72666   10.762
 3950.00    0.99930   0.72205   -1.000
 3951.00    1.04337   0.71676   -1.000
 3952.00    1.02104   0.71025   -1.000
 3953.00    0.95557   0.70179   -1.000
 3954.00    0.91416   0.69095   -1.000
 3955.00    0.91893   0.67774   -1.000
 3956.00    0.93940   0.66240   -1.000
 3957.00    0.94831   0.64489   -1.000
 3958.00    0.94023   0.62462   -1.000
 3959.00    0.93671   0.60072   -1.000
 3960.00    0.95307   0.57256    0.000
 3961.00    0.93521   0.54003    0.000
 3962.00    0.82376   0.50334    0.000
 3963.00    0.67763   0.46289    0.000
 3964.00    0.60550   0.41952    0.000
 3965.00    0.63782   0.37531    0.000
 3966.00    0.73327   0.33403    0.000
 3967.00    0.81517   0.30078    0.000
 3968.00    0.83603   0.28059    0.000
 3969.00    0.83609   0.27669    0.000
 3970.00    0.88285   0.28938    0.000
 3971.00    1.00418   0.31609    0.000
 3972.00    1.14561   0.35246    0.000
 3973.00    1.16461   0.39384    0.000
 3974.00    0.99933   0.43642    0.000
 3975.00    0.76119   0.47765    0.000
 3976.00    0.59014   0.51607    0.000
 3977.00    0.55407   0.55078    0.000
 3978.00    0.59773   0.58119    0.000
 3979.00    0.57419   0.60708    0.000
 3980.00    0.47719   0.62876    0.000
 3981.00    0.46191   0.64727   21.649
 3982.00    0.55053   0.66397   18.164
 3983.00    0.59995   0.68007   16.668
 3984.00    0.55131   0.69616   18.139
 3985.00    0.46023   0.71213   -1.000
 3986.00    0.35960   0.72751   -1.000
 3987.00    0.27390   0.74181   -1.000
 3988.00    0.33500   0.75480   -1.000
 3989.00    0.65347   0.76644   15.303
 3990.00    1.02339   0.77662   -1.000
 3991.00    1.13793   0.78491   -1.000
 3992.00    1.04406   0.79073   -1.000
 3993.00    0.98235   0.79380   10.180
 3994.00    1.04035   0.79466   -1.000
 3995.00    1.15110   0.79478   -1.000
 3996.00    1.16963   0.79603   -1.000
 3997.00    1.05107   0.79968   -1.000
 3998.00    1.00330   0.80561    9.967
 3999.00    1.17214   0.81228   -1.000
 4000.00    1.36951   0.81743   -1.000
 4001.00    1.39711   0.81940   -1.000
 4002.00    1.30192   0.81802   -1.000
 4003.00    1.19146   0.81485   -1.000
 4004.00    1.09825   0.81247   -1.000
 4005.00    1.02188   0.81317    9.786
 4006.00    0.96277   0.81778   10.387
 4007.00    0.94042   0.82531   10.634
 4008.00    0.98742   0.83364   10.127
 4009.00    1.08681   0.84074   -1.000
 4010.00    1.16804   0.84564   -1.000
 4011.00    1.19423   0.84859   -1.000
 4012.00    1.17663   0.85058   -1.000
 4013.00    1.11372   0.85263   -1.000
 4014.00    1.00000   0.85540   10.000
 4015.00    0.90266   0.85908   11.078
 4016.00    0.92165   0.86339   10.850
 4017.00    1.04893   0.86766    9.534
 4018.00    1.18201   0.87094   -1.000
 4019.00    1.22083   0.87228   -1.000
 4020.00    1.12919   0.87124    8.856
 4021.00    0.99966   0.86831   10.003
 4022.00    0.95888   0.86473   10.429
 4023.00    1.01595   0.86186    9.843
 4024.00    1.12420   0.86025   -1.000
 4025.00    1.28301   0.85913   -1.000
 4026.00    1.47060   0.85673   -1.000
 4027.00    1.56806   0.85136   -1.000
 4028.00    1.48286   0.84268   -1.000
 4029.00    1.26572   0.83219   -1.000
 4030.00    1.04266   0.82279    9.591
 4031.00    0.93191   0.81753   10.731
 4032.00    0.90797   0.81831   11.014
 4033.00    0.76718   0.82524   13.035
 4034.00    0.47612   0.83667   -1.000
 4035.00    0.30479   0.84988   -1.000
 4036.00    0.40913   0.86196   -1.000
 4037.00    0.66371   0.87060   15.067
 4038.00    0.91326   0.87456   10.950
 4039.00    1.08157   0.87356    9.246
 4040.00    1.13629   0.86802    8.801
 4041.00    1.08080   0.85880    9.252
 4042.00    0.97492   0.84739   10.257
 4043.00    0.90288   0.83605   11.076
 4044.00    0.86894   0.82756   11.508
 4045.00    0.82587   0.82415   12.108
 4046.00    0.80914   0.82634   12.359
 4047.00    0.89352   0.83249   11.192
 4048.00    1.04223   0.83960    9.595
 4049.00    1.14882   0.84469   -1.000
 4050.00    1.16461   0.84598   -1.000
 4051.00    1.10905   0.84339   -1.000
 4052.00    1.04673   0.83813    9.554
 4053.00    1.01655   0.83199    9.837
 4054.00    0.95467   0.82660   10.475
 4055.00    0.81862   0.82297   12.216
 4056.00    0.71961   0.82128   13.896
 4057.00    0.74754   0.82085   13.377
 4058.00    0.81054   0.82035   12.338
 4059.00    0.82105   0.81833   12.179
 4060.00    0.84356   0.81398   11.855
 4061.00    0.95698   0.80775   10.449
 4062.00    1.14843   0.80124   -1.000
 4063.00    1.31607   0.79634   -1.000
 4064.00    1.30638   0.79418   -1.000
 4065.00    1.07548   0.79460   -1.000
 4066.00    0.74494   0.79635   13.424
 4067.00    0.46870   0.79782   -1.000
 4068.00    0.35569   0.79773   -1.000
 4069.00    0.41694   0.79554   -1.000
 4070.00    0.57446   0.79144   17.408
 4071.00    0.75446   0.78577   13.254
 4072.00    0.91056   0.77863   10.982
 4073.00    0.99962   0.76986   10.004
 4074.00    0.99290   0.75976   10.072
 4075.00    0.91819   0.74975   10.891
 4076.00    0.83752   0.74210   11.940
 4077.00    0.78104   0.73877   12.803
 4078.00    0.74966   0.74008   13.339
 4079.00    0.74416   0.74424   13.438
 4080.00    0.76560   0.74822   13.062
 4081.00    0.80773   0.74939   12.380
 4082.00    0.85485   0.74671   11.698
 4083.00    0.88162   0.74092   11.343
 4084.00    0.86393   0.73369   11.575
 4085.00    0.79275   0.72640   12.614
 4086.00    0.68895   0.71939   14.515
 4087.00    0.60885   0.71194   16.424
 4088.00    0.57701   0.70279   17.331
 4089.00    0.54308   0.69082   18.413
 4090.00    0.48378   0.67545   -1.000
 4091.00    0.46392   0.65651   -1.000
 4092.00    0.53914   0.63407    0.000
 4093.00    0.69706   0.60824    0.000
 4094.00    0.88293   0.57916    0.000
 4095.00    1.02179   0.54717    0.000
 4096.00    1.04887   0.51303    0.000
 4097.00    0.94349   0.47818    0.000
 4098.00    0.80339   0.44506    0.000
 4099.00    0.80367   0.41711    0.000
 4100.00    0.96888   0.39821    0.000
 4101.00    1.15604   0.39146    0.000
 4102.00    1.22790   0.39799    0.000
 4103.00    1.13225   0.41632    0.000
 4104.00    0.96385   0.44288    0.000
 4105.00    0.87826   0.47325    0.000
 4106.00    0.88554   0.50368    0.000
 4107.00    0.89881   0.53192    0.000
 4108.00    0.89717   0.55738    0.000
 4109.00    0.89449   0.58063    0.000
 4110.00    0.85073   0.60258    0.000
 4111.00    0.74562   0.62381    0.000
 4112.00    0.68394   0.64423    0.000
 4113.00    0.76850   0.66305   13.012
 4114.00    0.94615   0.67928   -1.000
 4115.00    1.07791   0.69213   -1.000
 4116.00    1.03886   0.70158   -1.000
 4117.00    0.84331   0.70837   11.858
 4118.00    0.70473   0.71372   14.190
 4119.00    0.74105   0.71877   13.494
 4120.00    0.80484   0.72421   12.425
 4121.00    0.80155   0.73010   12.476
 4122.00    0.84904   0.73595   11.778
 4123.00    1.01096   0.74095   -1.000
 4124.00    1.17759   0.74424   -1.000
 4125.00    1.21237   0.74528   -1.000
 4126.00    1.04743   0.74410   -1.000
 4127.00    0.77171   0.74137   12.958
 4128.00    0.59196   0.73819   16.893
 4129.00    0.59280   0.73581   16.869
 4130.00    0.70820   0.73552   14.120
 4131.00    0.87881   0.73833   11.379
 4132.00    1.06362   0.74479   -1.000
 4133.00    1.15523   0.75464   -1.000
 4134.00    1.05655   0.76675   -1.000
 4135.00    0.88011   0.77944   11.362
 4136.00    0.83422   0.79078   11.987
 4137.00    0.94389   0.79898   10.594
 4138.00    1.09128   0.80277   -1.000
 4139.00    1.16128   0.80171   -1.000
 4140.00    1.09951   0.79655   -1.000
 4141.00    0.95333   0.78924   10.490
 4142.00    0.79562   0.78244   12.569
 4143.00    0.63739   0.77837   15.689
 4144.00    0.50150   0.77789   -1.000
 4145.00    0.49099   0.78026   -1.000
 4146.00    0.65386   0.78374   15.294
 4147.00    0.87768   0.78659   11.394
 4148.00    1.01991   0.78781    9.805
 4149.00    1.01581   0.78724    9.844
 4150.00    0.90583   0.78522   11.040
 4151.00    0.81812   0.78227   12.223
 4152.00    0.80247   0.77901   12.462
 4153.00    0.78037   0.77622   12.814
 4154.00    0.73723   0.77476   13.564
 4155.00    0.76268   0.77525   13.112
 4156.00    0.84401   0.77790   11.848
 4157.00    0.84714   0.78231   11.804
 4158.00    0.73922   0.78773   13.528
 4159.00    0.61496   0.79331   16.261
 4160.00    0.54419   0.79841   -1.000
 4161.00    0.54043   0.80260   -1.000
 4162.00    0.59878   0.80562   16.701
 4163.00    0.70248   0.80731   14.235
 4164.00    0.81531   0.80759   12.265
 4165.00    0.88287   0.80631   11.327
 4166.00    0.84075   0.80322   11.894
 4167.00    0.66975   0.79794   14.931
 4168.00    0.47455   0.79023   -1.000
 4169.00    0.39627   0.78036   -1.000
 4170.00    0.47659   0.76941   -1.000
 4171.00    0.64710   0.75906   15.453
 4172.00    0.75209   0.75098   13.296
 4173.00    0.71192   0.74605   14.047
 4174.00    0.66027   0.74416   15.145
 4175.00    0.70951   0.74457   14.094
 4176.00    0.76237   0.74648   13.117
 4177.00    0.72922   0.74946   13.713
 4178.00    0.67911   0.75343   14.725
 4179.00    0.68363   0.75828   14.628
 4180.00    0.72162   0.76357   13.858
 4181.00    0.75064   0.76866   13.322
 4182.00    0.74561   0.77280   13.412
 4183.00    0.67801   0.77558   14.749
 4184.00    0.53079   0.77713   -1.000
 4185.00    0.39881   0.77796   -1.000
 4186.00    0.44999   0.77887   -1.000
 4187.00    0.65560   0.78075   15.253
 4188.00    0.79987   0.78414   12.502
 4189.00    0.78573   0.78876   12.727
 4190.00    0.67668   0.79352   14.778
 4191.00    0.56359   0.79695   17.743
 4192.00    0.52250   0.79765   -1.000
 4193.00    0.59973   0.79473   16.674
 4194.00    0.78765   0.78826   12.696
 4195.00    0.98957   0.77946   10.105
 4196.00    1.08400   0.77017   -1.000
 4197.00    1.03661   0.76212   -1.000
 4198.00    0.89720   0.75658   11.146
 4199.00    0.76578   0.75412   13.059
 4200.00    0.72855   0.75453   13.726
 4201.00    0.78939   0.75732   12.668
 4202.00    0.89048   0.76200   11.230
 4203.00    0.94811   0.76804   10.547
 4204.00    0.91504   0.77473   10.929
 4205.00    0.82481   0.78129   12.124
 4206.00    0.72882   0.78704   -2.000
 4207.00    0.64913   0.79160   -2.000
 4208.00    0.60340   0.79482   -2.000
 4209.00    0.61136   0.79655   -2.000
 4210.00    0.62891   0.79654   -2.000
 4211.00    0.55283   0.79457   -2.000
 4212.00    0.41908   0.79112   -2.000
 4213.00    0.42209   0.78735   -2.000
 4214.00    0.60330   0.78468   -2.000
 4215.00    0.79511   0.78433   -2.000
 4216.00    0.88423   0.78668   -2.000
 4217.00    0.88081   0.79087   -2.000
 4218.00    0.83528   0.79484   -2.000
 4219.00    0.79221   0.79629   -2.000
 4220.00    0.74292   0.79332   -2.000
 4221.00    0.65872   0.78507   -2.000
 4222.00    0.58773   0.77224   17.015
 4223.00    0.61226   0.75743   16.333
 4224.00    0.72902   0.74454   13.717
 4225.00    0.85696   0.73710   11.669
 4226.00    0.89211   0.73699   11.209
 4227.00    0.79617   0.74362   12.560
 4228.00    0.69480   0.75392   14.393
 4229.00    0.71767   0.76383   13.934
 4230.00    0.80215   0.77037   12.467
 4231.00    0.82732   0.77238   12.087
 4232.00    0.77373   0.77058   12.924
 4233.00    0.69583   0.76715   14.371
 4234.00    0.67172   0.76416   14.887
 4235.00    0.70745   0.76289   14.135
 4236.00    0.69302   0.76392   14.430
 4237.00    0.58177   0.76711   17.189
 4238.00    0.47996   0.77182   -1.000
 4239.00    0.46270   0.77735   -1.000
 4240.00    0.48809   0.78300   -1.000
 4241.00    0.51053   0.78767   -1.000
 4242.00    0.53096   0.79011   -1.000
 4243.00    0.56288   0.78961   17.766
 4244.00    0.61258   0.78622   16.324
 4245.00    0.66436   0.78057   15.052
 4246.00    0.69275   0.77358   14.435
 4247.00    0.71347   0.76671   14.016
 4248.00    0.75970   0.76142   13.163
 4249.00    0.78265   0.75838   12.777
 4250.00    0.70020   0.75754   14.282
 4251.00    0.55934   0.75866   17.878
 4252.00    0.47843   0.76130   -1.000
 4253.00    0.47001   0.76460   -1.000
 4254.00    0.47884   0.76739   -1.000
 4255.00    0.49906   0.76860   -1.000
 4256.00    0.55975   0.76775   17.865
 4257.00    0.67674   0.76531   14.777
 4258.00    0.84712   0.76287   11.805
 4259.00    1.04949   0.76231   -1.000
 4260.00    1.22968   0.76495   -1.000
 4261.00    1.29573   0.77086   -1.000
 4262.00    1.21209   0.77883   -1.000
 4263.00    1.06990   0.78652   -1.000
 4264.00    0.95753   0.79137   10.444
 4265.00    0.86760   0.79153   11.526
 4266.00    0.78652   0.78618   12.714
 4267.00    0.74659   0.77566   13.394
 4268.00    0.75255   0.76172   13.288
 4269.00    0.75391   0.74719   13.264
 4270.00    0.72645   0.73487   13.766
 4271.00    0.69911   0.72680   14.304
 4272.00    0.69259   0.72428   14.438
 4273.00    0.70148   0.72742   14.256
 4274.00    0.72706   0.73489   13.754
 4275.00    0.77257   0.74443   12.944
 4276.00    0.79232   0.75367   12.621
 4277.00    0.73050   0.76065   13.689
 4278.00    0.66001   0.76430   15.151
 4279.00    0.71310   0.76459   14.023
 4280.00    0.84711   0.76230   11.805
 4281.00    0.90661   0.75851   11.030
 4282.00    0.84607   0.75398   11.819
 4283.00    0.71710   0.74902   13.945
 4284.00    0.57351   0.74335   17.437
 4285.00    0.45929   0.73640   -1.000
 4286.00    0.41329   0.72819   -1.000
 4287.00    0.45800   0.72001   -1.000
 4288.00    0.58477   0.71377   17.101
 4289.00    0.75447   0.71059   13.254
 4290.00    0.90413   0.71023   11.060
 4291.00    0.98734   0.71157   -1.000
 4292.00    1.00678   0.71309   -1.000
 4293.00    0.98069   0.71304   -1.000
 4294.00    0.91643   0.70999   10.912
 4295.00    0.82681   0.70321   12.095
 4296.00    0.73860   0.69298   13.539
 4297.00    0.67154   0.68088   14.891
 4298.00    0.62786   0.66895   15.927
 4299.00    0.60358   0.65884   16.568
 4300.00    0.59824   0.65191   16.716
 4301.00    0.62908   0.64868   15.896
 4302.00    0.71707   0.64825   13.946
 4303.00    0.81611   0.64910   12.253
 4304.00    0.83433   0.64985   11.986
 4305.00    0.77850   0.64998   12.845
 4306.00    0.74231   0.65013   13.471
 4307.00    0.75366   0.65135   13.269
 4308.00    0.77346   0.65410   12.929
 4309.00    0.78838   0.65809   12.684
 4310.00    0.80557   0.66267   12.414
 4311.00    0.80107   0.66747   12.483
 4312.00    0.75038   0.67290   13.327
 4313.00    0.69387   0.67947   14.412
 4314.00    0.68430   0.68680   14.614
 4315.00    0.69896   0.69384   14.307
 4316.00    0.69456   0.69926   14.398
 4317.00    0.68736   0.70156   14.548
 4318.00    0.70675   0.69976   14.149
 4319.00    0.73750   0.69370   13.559
 4320.00    0.74453   0.68342   13.431
 4321.00    0.70336   0.66937   14.217
 4322.00    0.61787   0.65302   16.185
 4323.00    0.52916   0.63702   18.898
 4324.00    0.49111   0.62408   20.362
 4325.00    0.54584   0.61535   18.320
 4326.00    0.68188   0.61019   14.665
 4327.00    0.82451   0.60696   -1.000
 4328.00    0.90837   0.60380   -1.000
 4329.00    0.91678   0.59899   -1.000
 4330.00    0.88688   0.59104    0.000
 4331.00    0.88813   0.57912    0.000
 4332.00    0.93903   0.56282    0.000
 4333.00    0.98976   0.54156    0.000
 4334.00    0.96794   0.51512    0.000
 4335.00    0.83525   0.48459    0.000
 4336.00    0.69290   0.45231    0.000
 4337.00    0.70698   0.42164    0.000
 4338.00    0.87428   0.39721    0.000
 4339.00    1.05806   0.38313    0.000
 4340.00    1.16928   0.38103    0.000
 4341.00    1.18690   0.39045    0.000
 4342.00    1.12781   0.40950    0.000
 4343.00    1.02193   0.43490    0.000
 4344.00    0.88597   0.46294    0.000
 4345.00    0.75638   0.49063    0.000
 4346.00    0.72659   0.51560    0.000
 4347.00    0.83828   0.53594    0.000
 4348.00    0.97284   0.55093    0.000
 4349.00    1.00563   0.56199    0.000
 4350.00    0.95133   0.57175    0.000
 4351.00    0.87610   0.58221   -1.000
 4352.00    0.81673   0.59435   -1.000
 4353.00    0.78529   0.60834   -1.000
 4354.00    0.77753   0.62332   12.861
 4355.00    0.78012   0.63775   12.819
 4356.00    0.77438   0.65065   12.914
 4357.00    0.73467   0.66216   13.611
 4358.00    0.64079   0.67282   15.606
 4359.00    0.53430   0.68296   18.716
 4360.00    0.50737   0.69270   19.710
 4361.00    0.57084   0.70197   17.518
 4362.00    0.64310   0.71011   15.550
 4363.00    0.67522   0.71597   14.810
 4364.00    0.68346   0.71870   14.631
 4365.00    0.72217   0.71855   13.847
 4366.00    0.83330   0.71662   12.001
 4367.00    0.95145   0.71410   -1.000
 4368.00    0.96440   0.71187   -1.000
 4369.00    0.87633   0.71024   11.411
 4370.00    0.77353   0.70870   12.928
 4371.00    0.70731   0.70665   14.138
 4372.00    0.68027   0.70463   14.700
 4373.00    0.65948   0.70416   15.164
 4374.00    0.62271   0.70626   16.059
 4375.00    0.60990   0.71052   16.396
 4376.00    0.65920   0.71540   15.170
 4377.00    0.73530   0.71895   13.600
 4378.00    0.78979   0.71929   12.662
 4379.00    0.82109   0.71485   12.179
 4380.00    0.83385   0.70522   11.993
 4381.00    0.80865   0.69252   12.366
 4382.00    0.75392   0.68070   13.264
 4383.00    0.73026   0.67327   13.694
 4384.00    0.76482   0.67158   13.075
 4385.00    0.81100   0.67508   12.330
 4386.00    0.81694   0.68212   12.241
 4387.00    0.76784   0.69053   13.024
 4388.00    0.70687   0.69847   14.147
 4389.00    0.71315   0.70502   14.022
 4390.00    0.78820   0.70969   12.687
 4391.00    0.85159   0.71226   11.743
 4392.00    0.86795   0.71338   11.521
 4393.00    0.86519   0.71455   11.558
 4394.00    0.86653   0.71661   11.540
 4395.00    0.87471   0.71890   11.432
 4396.00    0.88239   0.72028   11.333
 4397.00    0.89223   0.72012   11.208
 4398.00    0.94930   0.71879   10.534
 4399.00    1.07698   0.71709   -1.000
 4400.00    1.16172   0.71510   -1.000
 4401.00    1.08611   0.71236   -1.000
 4402.00    0.94731   0.70949   -1.000
 4403.00    0.89590   0.70796   11.162
 4404.00    0.89572   0.70830   11.164
 4405.00    0.85010   0.71019   11.763
 4406.00    0.77094   0.71359   12.971
 4407.00    0.72146   0.71853   13.861
 4408.00    0.74077   0.72419   13.499
 4409.00    0.81805   0.72919   12.224
 4410.00    0.88852   0.73213   11.255
 4411.00    0.92165   0.73169   10.850
 4412.00    0.96423   0.72762   10.371
 4413.00    1.01363   0.72151   -1.000
 4414.00    0.97484   0.71576   -1.000
 4415.00    0.85521   0.71231   11.693
 4416.00    0.81092   0.71233   12.332
 4417.00    0.88565   0.71563   11.291
 4418.00    0.95077   0.72051   -1.000
 4419.00    0.93882   0.72502   10.652
 4420.00    0.90008   0.72824   11.110
 4421.00    0.88116   0.73029   11.349
 4422.00    0.88783   0.73144   11.263
 4423.00    0.89985   0.73183   11.113
 4424.00    0.89297   0.73172   11.199
 4425.00    0.87934   0.73144   11.372
 4426.00    0.88782   0.73098   11.264
 4427.00    0.90429   0.72990   11.058
 4428.00    0.88860   0.72803   11.254
 4429.00    0.82660   0.72576   12.098
 4430.00    0.73530   0.72308   13.600
 4431.00    0.65486   0.71987   15.270
 4432.00    0.62181   0.71683   16.082
 4433.00    0.63704   0.71532   15.698
 4434.00    0.68421   0.71643   14.615
 4435.00    0.75342   0.71996   13.273
 4436.00    0.82442   0.72445   12.130
 4437.00    0.85295   0.72798   11.724
 4438.00    0.81695   0.72886   12.241
 4439.00    0.74993   0.72638   13.335
 4440.00    0.69064   0.72136   14.479
 4441.00    0.64902   0.71601   15.408
 4442.00    0.63486   0.71283   15.751
 4443.00    0.66905   0.71296   14.947
 4444.00    0.74150   0.71568   13.486
 4445.00    0.80072   0.71971   12.489
 4446.00    0.81094   0.72389   12.331
 4447.00    0.77638   0.72681   12.880
 4448.00    0.73005   0.72754   13.698
 4449.00    0.71835   0.72623   13.921
 4450.00    0.76638   0.72304   13.048
 4451.00    0.86525   0.71778   11.557
 4452.00    0.97076   0.71079   -1.000
 4453.00    1.02385   0.70352   -1.000
 4454.00    1.00009   0.69746   -1.000
 4455.00    0.91232   0.69294   10.961
 4456.00    0.79029   0.68967   12.654
 4457.00    0.67196   0.68764   14.882
 4458.00    0.59562   0.68683   16.789
 4459.00    0.59224   0.68698   16.885
 4460.00    0.67490   0.68830   14.817
 4461.00    0.82117   0.69081    0.000
 4462.00    0.95651   0.69353    0.000
 4463.00    1.00852   0.69558    0.000
 4464.00    0.96988   0.69670    0.000
 4465.00    0.88098   0.69683    0.000
 4466.00    0.79940   0.69630    0.000
 4467.00    0.74237   0.69615    0.000
 4468.00    0.65656   0.69766    0.000
 4469.00    0.54242   0.70132    0.000
 4470.00    0.51557   0.70686    0.000
 4471.00    0.60392   0.71354    0.000
 4472.00    0.66456   0.72015    0.000
 4473.00    0.64236   0.72533    0.000
 4474.00    0.65759   0.72826    0.000
 4475.00    0.74571   0.72837    0.000
 4476.00    0.78934   0.72478    0.000
 4477.00    0.73996   0.71714    0.000
 4478.00    0.67082   0.70671    0.000
 4479.00    0.64797   0.69662    0.000
 4480.00    0.68679   0.69051    0.000
 4481.00    0.75963   0.68995    0.000
 4482.00    0.81563   0.69393   12.260
 4483.00    0.82267   0.70037   12.156
 4484.00    0.78538   0.70696   12.733
 4485.00    0.75782   0.71146   13.196
 4486.00    0.79148   0.71269   12.634
 4487.00    0.84008   0.71130   11.904
 4488.00    0.81529   0.70896   12.266
 4489.00    0.70049   0.70708   14.276
 4490.00    0.55443   0.70628   18.036
 4491.00    0.48492   0.70635   -1.000
 4492.00    0.55312   0.70693   18.079
 4493.00    0.67775   0.70834   14.755
 4494.00    0.75515   0.71079   13.242
 4495.00    0.78317   0.71400   12.769
 4496.00    0.79950   0.71760   12.508
 4497.00    0.81834   0.72095   12.220
 4498.00    0.82857   0.72362   12.069
 4499.00    0.80377   0.72607   12.441
 4500.00    0.75206   0.72956   13.297
 4501.00    0.73238   0.73428   13.654
 4502.00    0.77045   0.73901   12.979
 4503.00    0.82418   0.74260   12.133
 4504.00    0.84277   0.74450   11.866
 4505.00    0.80079   0.74452   12.488
 4506.00    0.71651   0.74324   13.957
 4507.00    0.64584   0.74170   15.484
 4508.00    0.63802   0.74025   15.674
 4509.00    0.71087   0.73837   14.067
 4510.00    0.82669   0.73567   12.096
 4511.00    0.91302   0.73215   10.953
 4512.00    0.93141   0.72789   10.736
 4513.00    0.89097   0.72352   11.224
 4514.00    0.83772   0.71994   11.937
 4515.00    0.81654   0.71724   12.247
 4516.00    0.80904   0.71506   12.360
 4517.00    0.78056   0.71328   12.811
 4518.00    0.76808   0.71158   13.019
 4519.00    0.80802   0.70948   12.376
 4520.00    0.82806   0.70629   12.076
 4521.00    0.76301   0.70228   13.106
 4522.00    0.69464   0.69801   14.396
 4523.00    0.70962   0.69317   14.092
 4524.00    0.75360   0.68779   13.270
 4525.00    0.75898   0.68233   13.176
 4526.00    0.75660   0.67725   13.217
 4527.00    0.78120   0.67328   12.801
 4528.00    0.80202   0.67102   12.468
 4529.00    0.78100   0.67034   12.804
 4530.00    0.71434   0.67074   13.999
 4531.00    0.63632   0.67153   15.715
 4532.00    0.60709   0.67312   16.472
 4533.00    0.65146   0.67681   15.350
 4534.00    0.73889   0.68291   13.534
 4535.00    0.82144   0.69035   12.174
 4536.00    0.85799   0.69719   11.655
 4537.00    0.84016   0.70213   11.902
 4538.00    0.79261   0.70497   12.617
 4539.00    0.74697   0.70615   13.387
 4540.00    0.72282   0.70645   13.835
 4541.00    0.70147   0.70593   14.256
 4542.00    0.65000   0.70405   15.385
 4543.00    0.58620   0.70096   17.059
 4544.00    0.55478   0.69717   18.025
 4545.00    0.55779   0.69255   17.928
 4546.00    0.57512   0.68662   17.388
 4547.00    0.61628   0.67983   16.226
 4548.00    0.68852   0.67440   14.524
 4549.00    0.74541   0.67154   13.415
 4550.00    0.74176   0.67000    0.000
 4551.00    0.70275   0.66874    0.000
 4552.00    0.67533   0.66790    0.000
 4553.00    0.67203   0.66827    0.000
 4554.00    0.68665   0.67083    0.000
 4555.00    0.71192   0.67557    0.000
 4556.00    0.73101   0.68117    0.000
 4557.00    0.71689   0.68687    0.000
 4558.00    0.67749   0.69237    0.000
 4559.00    0.66886   0.69679    0.000
 4560.00    0.70147   0.69916    0.000
 4561.00    0.70928   0.69905    0.000
 4562.00    0.65856   0.69754    0.000
 4563.00    0.58554   0.69644    0.000
 4564.00    0.52972   0.69681    0.000
 4565.00    0.50775   0.69863    0.000
 4566.00    0.52389   0.70096    0.000
 4567.00    0.56869   0.70278    0.000
 4568.00    0.60385   0.70344    0.000
 4569.00    0.58885   0.70251    0.000
 4570.00    0.55820   0.70116    0.000
 4571.00    0.58486   0.70087    0.000
 4572.00    0.65795   0.70102    0.000
 4573.00    0.71078   0.70064    0.000
 4574.00    0.72480   0.69974    0.000
 4575.00    0.72653   0.69834    0.000
 4576.00    0.74857   0.69583    0.000
 4577.00    0.80378   0.69164    0.000
 4578.00    0.86105   0.68617    0.000
 4579.00    0.88148   0.68046    0.000
 4580.00    0.86447   0.67516    0.000
 4581.00    0.83112   0.67069    0.000
 4582.00    0.80042   0.66800    0.000
 4583.00    0.77754   0.66778    0.000
 4584.00    0.74935   0.66942    0.000
 4585.00    0.71716   0.67206    0.000
 4586.00    0.71336   0.67509    0.000
 4587.00    0.74107   0.67793    0.000
 4588.00    0.74744   0.67994    0.000
 4589.00    0.70488   0.68070    0.000
 4590.00    0.64788   0.68050    0.000
 4591.00    0.61969   0.68016    0.000
 4592.00    0.63833   0.67999    0.000
 4593.00    0.67144   0.67987    0.000
 4594.00    0.65548   0.68003    0.000
 4595.00    0.59699   0.68064    0.000
 4596.00    0.56958   0.68159    0.000
 4597.00    0.59466   0.68260    0.000
 4598.00    0.63371   0.68324    0.000
 4599.00    0.66557   0.68370    0.000
 4600.00    0.69390   0.68447    0.000
 4601.00    0.71695   0.68545    0.000
 4602.00    0.72366   0.68661    0.000
 4603.00    0.70061   0.68816    0.000
 4604.00    0.65310   0.69052    0.000
 4605.00    0.63391   0.69383    0.000
 4606.00    0.69028   0.69760    0.000
 4607.00    0.78611   0.70097    0.000
 4608.00    0.85372   0.70302    0.000
 4609.00    0.86996   0.70350    0.000
 4610.00    0.85460   0.70284    0.000
 4611.00    0.85308   0.70137    0.000
 4612.00    0.87526   0.69945    0.000
 4613.00    0.85473   0.69729    0.000
 4614.00    0.75691   0.69483    0.000
 4615.00    0.65226   0.69245    0.000
 4616.00    0.61761   0.69036    0.000
 4617.00    0.66700   0.68868    0.000
 4618.00    0.76000   0.68816    0.000
 4619.00    0.82318   0.68909    0.000
 4620.00    0.81922   0.69069    0.000
 4621.00    0.77020   0.69227    0.000
 4622.00    0.71078   0.69347    0.000
 4623.00    0.66661   0.69374    0.000
 4624.00    0.65157   0.69311    0.000
 4625.00    0.66810   0.69191    0.000
 4626.00    0.71075   0.68998    0.000
 4627.00    0.76724   0.68750    0.000
 4628.00    0.81841   0.68555    0.000
 4629.00    0.84597   0.68457    0.000
 4630.00    0.84920   0.68356    0.000
 4631.00    0.83689   0.68174    0.000
 4632.00    0.80530   0.67952    0.000
 4633.00    0.75382   0.67764    0.000
 4634.00    0.71561   0.67627    0.000
 4635.00    0.71574   0.67516    0.000
 4636.00    0.70927   0.67430    0.000
 4637.00    0.65255   0.67394    0.000
 4638.00    0.59484   0.67403    0.000
 4639.00    0.59638   0.67441    0.000
 4640.00    0.63541   0.67452    0.000
 4641.00    0.66623   0.67351    0.000
 4642.00    0.67916   0.67121    0.000
 4643.00    0.68349   0.66791    0.000
 4644.00    0.68829   0.66400    0.000
 4645.00    0.69065   0.66043    0.000
 4646.00    0.67414   0.65837    0.000
 4647.00    0.64143   0.65833    0.000
 4648.00    0.62288   0.66010    0.000
 4649.00    0.62306   0.66281    0.000
 4650.00    0.61025   0.66562    0.000
 4651.00    0.58749   0.66786    0.000
 4652.00    0.60010   0.66905    0.000
 4653.00    0.65038   0.66943    0.000
 4654.00    0.69343   0.66980    0.000
 4655.00    0.72310   0.67090    0.000
 4656.00    0.76757   0.67316    0.000
 4657.00    0.80511   0.67603    0.000
 4658.00    0.78353   0.67809    0.000
 4659.00    0.71600   0.67815    0.000
 4660.00    0.66155   0.67577    0.000
 4661.00    0.64350   0.67111    0.000
 4662.00    0.64840   0.66483    0.000
 4663.00    0.65322   0.65749    0.000
 4664.00    0.64651   0.64936    0.000
 4665.00    0.64965   0.64170    0.000
 4666.00    0.68002   0.63672    0.000
 4667.00    0.70499   0.63547    0.000
 4668.00    0.68897   0.63750    0.000
 4669.00    0.64721   0.64174    0.000
 4670.00    0.61803   0.64701    0.000
 4671.00    0.62917   0.65234    0.000
 4672.00    0.67642   0.65728    0.000
 4673.00    0.71653   0.66149    0.000
 4674.00    0.72396   0.66444    0.000
 4675.00    0.72091   0.66561    0.000
 4676.00    0.71876   0.66491    0.000
 4677.00    0.69463   0.66316    0.000
 4678.00    0.65458   0.66141    0.000
 4679.00    0.64884   0.66014    0.000
 4680.00    0.69494   0.65965    0.000
 4681.00    0.75430   0.66009    0.000
 4682.00    0.77345   0.66114    0.000
 4683.00    0.71906   0.66222    0.000
 4684.00    0.63497   0.66309    0.000
 4685.00    0.61247   0.66350    0.000
 4686.00    0.66336   0.66331    0.000
 4687.00    0.72078   0.66275    0.000
 4688.00    0.72408   0.66197    0.000
 4689.00    0.65543   0.66106    0.000
 4690.00    0.56883   0.66039    0.000
 4691.00    0.53960   0.66019    0.000
 4692.00    0.57059   0.66026    0.000
 4693.00    0.62322   0.66028    0.000
 4694.00    0.68553   0.65976    0.000
 4695.00    0.75870   0.65803    0.000
 4696.00    0.82855   0.65486    0.000
 4697.00    0.87962   0.65091    0.000
 4698.00    0.91284   0.64703    0.000
 4699.00    0.93173   0.64341    0.000
 4700.00    0.92883   0.63995    0.000
 4701.00    0.89582   0.63713    0.000
 4702.00    0.83374   0.63585    0.000
 4703.00    0.75928   0.63612    0.000
 4704.00    0.70275   0.63698    0.000
 4705.00    0.67165   0.63766    0.000
 4706.00    0.64007   0.63829    0.000
 4707.00    0.60630   0.63934    0.000
 4708.00    0.60625   0.64105    0.000
 4709.00    0.64009   0.64321    0.000
 4710.00    0.66077   0.64519    0.000
 4711.00    0.65410   0.64661    0.000
 4712.00    0.65007   0.64777    0.000
 4713.00    0.66005   0.64953    0.000
 4714.00    0.66742   0.65246    0.000
 4715.00    0.65962   0.65614    0.000
 4716.00    0.63804   0.65983    0.000
 4717.00    0.61880   0.66335    0.000
 4718.00    0.61780   0.66655    0.000
 4719.00    0.62183   0.66889    0.000
 4720.00    0.60699   0.66997    0.000
 4721.00    0.57956   0.66979    0.000
 4722.00    0.55972   0.66862    0.000
 4723.00    0.54766   0.66638    0.000
 4724.00    0.53633   0.66263    0.000
 4725.00    0.53301   0.65728    0.000
 4726.00    0.54587   0.65125    0.000
 4727.00    0.56731   0.64589    0.000
 4728.00    0.58581   0.64181    0.000
 4729.00    0.59902   0.63907    0.000
 4730.00    0.61485   0.63802    0.000
 4731.00    0.64900   0.63872    0.000
 4732.00    0.70758   0.64052    0.000
 4733.00    0.77611   0.64264    0.000
 4734.00    0.82756   0.64434    0.000
 4735.00    0.83267   0.64567    0.000
 4736.00    0.78549   0.64741    0.000
 4737.00    0.70986   0.64945    0.000
 4738.00    0.62981   0.65096    0.000
 4739.00    0.56008   0.65200    0.000
 4740.00    0.52212   0.65313    0.000
 4741.00    0.54140   0.65447    0.000
 4742.00    0.61889   0.65564    0.000
 4743.00    0.72596   0.65637    0.000
 4744.00    0.81738   0.65690    0.000
 4745.00    0.85113   0.65738    0.000
 4746.00    0.82550   0.65743    0.000
 4747.00    0.77151   0.65692    0.000
 4748.00    0.71947   0.65601    0.000
 4749.00    0.69014   0.65454    0.000
 4750.00    0.69161   0.65237    0.000
 4751.00    0.71738   0.64977    0.000
 4752.00    0.74545   0.64720    0.000
 4753.00    0.75683   0.64500    0.000
 4754.00    0.75783   0.64333    0.000
 4755.00    0.75905   0.64226    0.000
 4756.00    0.75054   0.64169    0.000
 4757.00    0.72183   0.64120    0.000
 4758.00    0.68227   0.64013    0.000
 4759.00    0.64690   0.63787    0.000
 4760.00    0.62335   0.63439    0.000
 4761.00    0.61244   0.63051   16.328
 4762.00    0.61014   0.62705   16.390
 4763.00    0.61277   0.62433   16.319
 4764.00    0.61962   0.62273   16.139
 4765.00    0.63054   0.62276   15.860
 4766.00    0.64512   0.62448   15.501
 4767.00    0.66565   0.62739   15.023
 4768.00    0.69584   0.63064   14.371
 4769.00    0.73096   0.63341   13.681
 4770.00    0.75689   0.63580   13.212
 4771.00    0.75989   0.63843   13.160
 4772.00    0.73683   0.64131   13.572
 4773.00    0.71350   0.64382   14.015
 4774.00    0.72116   0.64553   13.866
 4775.00    0.73020   0.64662   13.695
 4776.00    0.68590   0.64720   14.579
 4777.00    0.61329   0.64685   16.306
 4778.00    0.58094   0.64548   17.213
 4779.00    0.59906   0.64351   16.693
 4780.00    0.63363   0.64114   15.782
 4781.00    0.65641   0.63838   15.234
 4782.00    0.65418   0.63561   15.286
 4783.00    0.63005   0.63327   15.872
 4784.00    0.59490   0.63118   16.810
 4785.00    0.55784   0.62948   17.926
 4786.00    0.52995   0.62876   18.870
 4787.00    0.52722   0.62899   18.967
 4788.00    0.55518   0.63001   18.012
 4789.00    0.59739   0.63193   16.740
 4790.00    0.62756   0.63454   15.935
 4791.00    0.62235   0.63757   16.068
 4792.00    0.58165   0.64058   17.192
 4793.00    0.53584   0.64276   18.662
 4794.00    0.51844   0.64356   19.288
 4795.00    0.54862   0.64296   18.228
 4796.00    0.62044   0.64119   16.117
 4797.00    0.70479   0.63868   14.189
 4798.00    0.77398   0.63610   12.920
 4799.00    0.81037   0.63411   12.340
 4800.00    0.80173   0.63279   12.473
 4801.00    0.74613   0.63162   13.403
 4802.00    0.66970   0.63003   14.932
 4803.00    0.61187   0.62800   16.343
 4804.00    0.57787   0.62616   17.305
 4805.00    0.55155   0.62477   18.131
 4806.00    0.54560   0.62359   18.328
 4807.00    0.58180   0.62270   17.188
 4808.00    0.63802   0.62241   15.674
 4809.00    0.67357   0.62271   14.846
 4810.00    0.68224   0.62348   14.658
 4811.00    0.67847   0.62464   14.739
 4812.00    0.66872   0.62616   14.954
 4813.00    0.65877   0.62795   15.180
 4814.00    0.66385   0.62971   15.064
 4815.00    0.68102   0.63109   14.684
 4816.00    0.66741   0.63169   14.983
 4817.00    0.60055   0.63126   16.651
 4818.00    0.52287   0.62971   19.125
 4819.00    0.47423   0.62691   21.087
 4820.00    0.44715   0.62291   -1.000
 4821.00    0.43470   0.61789   -1.000
 4822.00    0.45531   0.61282   21.963
 4823.00    0.51179   0.60933   19.539
 4824.00    0.57628   0.60764   17.353
 4825.00    0.62756   0.60664   15.935
 4826.00    0.66300   0.60561   15.083
 4827.00    0.67493   0.60457   14.816
 4828.00    0.65027   0.60379   15.378
 4829.00    0.60178   0.60293   16.617
 4830.00    0.56465   0.60139   17.710
 4831.00    0.55572   0.59953   17.995
 4832.00    0.56714   0.59786   17.632
 4833.00    0.58150   0.59605   17.197
 4834.00    0.58502   0.59369   17.093
 4835.00    0.58659   0.59084   17.048
 4836.00    0.60569   0.58761   16.510
 4837.00    0.64335   0.58387   15.544
 4838.00    0.68347   0.57966   14.631
 4839.00    0.70426   0.57551   14.199
 4840.00    0.69499   0.57159   14.389
 4841.00    0.67424   0.56747   14.832
 4842.00    0.66624   0.56300   15.010
 4843.00    0.67139   0.55846   14.894
 4844.00    0.67289   0.55362   14.861
 4845.00    0.64902   0.54771   15.408
 4846.00    0.59326   0.54039   16.856
 4847.00    0.52790   0.53221   18.943
 4848.00    0.48287   0.52384    0.000
 4849.00    0.47681   0.51489    0.000
 4850.00    0.50233   0.50454    0.000
 4851.00    0.52465   0.49256    0.000
 4852.00    0.52104   0.47882    0.000
 4853.00    0.49872   0.46304    0.000
 4854.00    0.47528   0.44560    0.000
 4855.00    0.47017   0.42752    0.000
 4856.00    0.51022   0.40940    0.000
 4857.00    0.62375   0.39148    0.000
 4858.00    0.81320   0.37467    0.000
 4859.00    1.04913   0.36122    0.000
 4860.00    1.28147   0.35418    0.000
 4861.00    1.44958   0.35512    0.000
 4862.00    1.49865   0.36271    0.000
 4863.00    1.39801   0.37472    0.000
 4864.00    1.17018   0.38973    0.000
 4865.00    0.88626   0.40628    0.000
 4866.00    0.64381   0.42268    0.000
 4867.00    0.51643   0.43746    0.000
 4868.00    0.48430   0.44964    0.000
 4869.00    0.48262   0.45922    0.000
 4870.00    0.48196   0.46744    0.000
 4871.00    0.48292   0.47600    0.000
 4872.00    0.49583   0.48532    0.000
 4873.00    0.52598   0.49470    0.000
 4874.00    0.56232   0.50374    0.000
 4875.00    0.59085   0.51270   16.925
 4876.00    0.60642   0.52167   16.490
 4877.00    0.60555   0.53015   16.514
 4878.00    0.58212   0.53729   17.179
 4879.00    0.53956   0.54226   18.534
 4880.00    0.49669   0.54515   20.133
 4881.00    0.47534   0.54687   21.038
 4882.00    0.48956   0.54774   20.426
 4883.00    0.52925   0.54767   18.895
 4884.00    0.56403   0.54691   17.730
 4885.00    0.58930   0.54633   16.969
 4886.00    0.62750   0.54674   15.936
 4887.00    0.66715   0.54804   14.989
 4888.00    0.66791   0.54981   14.972
 4889.00    0.63860   0.55226   15.659
 4890.00    0.62790   0.55664   15.926
 4891.00    0.64162   0.56370   15.586
 4892.00    0.64448   0.57203   15.516
 4893.00    0.61184   0.57976   16.344
 4894.00    0.54650   0.58627   18.298
 4895.00    0.48663   0.59139   20.549
 4896.00    0.47644   0.59485   20.989
 4897.00    0.51773   0.59609   19.315
 4898.00    0.57845   0.59543   17.288
 4899.00    0.61729   0.59442   16.200
 4900.00    0.61517   0.59401   16.256
 4901.00    0.60401   0.59378   16.556
 4902.00    0.61361   0.59365   16.297
 4903.00    0.61971   0.59414   16.137
 4904.00    0.60057   0.59514   16.651
 4905.00    0.58439   0.59561   17.112
 4906.00    0.59341   0.59477   16.852
 4907.00    0.60501   0.59292   16.529
 4908.00    0.59765   0.59077   16.732
 4909.00    0.57862   0.58905   17.283
 4910.00    0.55856   0.58834   17.903
 4911.00    0.53875   0.58843   18.562
 4912.00    0.52398   0.58844   19.085
 4913.00    0.52525   0.58774   19.038
 4914.00    0.54388   0.58592   18.386
 4915.00    0.56814   0.58242   17.601
 4916.00    0.58487   0.57678   17.098
 4917.00    0.58375   0.56948   17.131
 4918.00    0.55701   0.56229   17.953
 4919.00    0.50674   0.55731   19.734
 4920.00    0.46266   0.55554   21.614
 4921.00    0.46133   0.55635   21.677
 4922.00    0.49149   0.55891   20.346
 4923.00    0.51242   0.56378   19.515
 4924.00    0.51099   0.57126   19.570
 4925.00    0.49976   0.57966   20.010
 4926.00    0.49531   0.58675   20.189
 4927.00    0.51025   0.59182   19.598
 4928.00    0.54685   0.59515   18.287
 4929.00    0.59429   0.59662   16.827
 4930.00    0.62794   0.59581   15.925
 4931.00    0.62715   0.59256   15.945
 4932.00    0.59313   0.58777   16.860
 4933.00    0.54204   0.58355   18.449
 4934.00    0.49616   0.58092   20.155
 4935.00    0.47652   0.57894   20.986
 4936.00    0.49552   0.57717   20.181
 4937.00    0.54282   0.57678   18.422
 4938.00    0.58420   0.57902   17.117
 4939.00    0.60742   0.58335   16.463
 4940.00    0.63610   0.58800    0.000
 4941.00    0.66975   0.59216    0.000
 4942.00    0.67065   0.59605    0.000
 4943.00    0.63465   0.59937    0.000
 4944.00    0.60496   0.60153    0.000
 4945.00    0.61303   0.60279    0.000
 4946.00    0.65588   0.60362    0.000
 4947.00    0.69547   0.60388    0.000
 4948.00    0.68586   0.60346    0.000
 4949.00    0.64124   0.60245    0.000
 4950.00    0.61619   0.60049    0.000
 4951.00    0.62213   0.59699    0.000
 4952.00    0.63388   0.59254    0.000
 4953.00    0.63921   0.58823    0.000
 4954.00    0.65076   0.58396    0.000
 4955.00    0.70717   0.57920    0.000
 4956.00    0.83621   0.57538    0.000
 4957.00    1.00480   0.57524    0.000
 4958.00    1.15242   0.57842    0.000
 4959.00    1.24032   0.58186    0.000
 4960.00    1.25131   0.58434    0.000
 4961.00    1.18401   0.58663    0.000
 4962.00    1.05839   0.58863    0.000
 4963.00    0.91782   0.58898    0.000
 4964.00    0.79990   0.58740    0.000
 4965.00    0.71520   0.58544    0.000
 4966.00    0.66082   0.58421    0.000
 4967.00    0.63012   0.58364    0.000
 4968.00    0.61093   0.58374    0.000
 4969.00    0.58903   0.58472    0.000
 4970.00    0.57146   0.58658    0.000
 4971.00    0.58560   0.58862    0.000
 4972.00    0.62751   0.59002    0.000
 4973.00    0.65726   0.59050    0.000
 4974.00    0.66209   0.58979    0.000
 4975.00    0.66536   0.58745    0.000
 4976.00    0.68139   0.58322    0.000
 4977.00    0.70551   0.57741    0.000
 4978.00    0.72653   0.57096    0.000
 4979.00    0.73803   0.56446    0.000
 4980.00    0.75486   0.55804    0.000
 4981.00    0.79605   0.55254    0.000
 4982.00    0.84521   0.54943    0.000
 4983.00    0.86466   0.54934    0.000
 4984.00    0.83239   0.55151    0.000
 4985.00    0.75405   0.55511    0.000
 4986.00    0.66881   0.55958    0.000
 4987.00    0.61463   0.56381    0.000
 4988.00    0.58659   0.56699    0.000
 4989.00    0.56290   0.56920    0.000
 4990.00    0.53780   0.57080    0.000
 4991.00    0.52063   0.57193    0.000
 4992.00    0.52900   0.57228    0.000
 4993.00    0.56371   0.57213    0.000
 4994.00    0.59445   0.57182    0.000
 4995.00    0.59526   0.57077    0.000
 4996.00    0.56806   0.56856    0.000
 4997.00    0.53319   0.56532    0.000
 4998.00    0.51812   0.56122    0.000
 4999.00    0.53409   0.55645    0.000
 5000.00    0.57118   0.55162    0.000
 5001.00    0.62721   0.54777    0.000
 5002.00    0.72351   0.54527    0.000
 5003.00    0.91404   0.54340    0.000
 5004.00    1.25624   0.54189    0.000
 5005.00    1.71325   0.54158    0.000
 5006.00    2.15387   0.54298    0.000
 5007.00    2.43613   0.54487    0.000
 5008.00    2.45948   0.54557    0.000
 5009.00    2.22724   0.54502    0.000
 5010.00    1.83240   0.54369    0.000
 5011.00    1.39926   0.54131    0.000
 5012.00    1.03890   0.53789    0.000
 5013.00    0.79566   0.53449    0.000
 5014.00    0.66219   0.53208    0.000
 5015.00    0.61502   0.53020    0.000
 5016.00    0.62169   0.52820    0.000
 5017.00    0.64436   0.52728    0.000
 5018.00    0.65559   0.52891    0.000
 5019.00    0.65344   0.53221    0.000
 5020.00    0.64633   0.53543    0.000
 5021.00    0.63750   0.53845    0.000
 5022.00    0.62634   0.54227    0.000
 5023.00    0.61036   0.54659    0.000
 5024.00    0.58551   0.54999    0.000
 5025.00    0.54808   0.55206    0.000
 5026.00    0.50599   0.55366    0.000
 5027.00    0.48077   0.55587    0.000
 5028.00    0.48392   0.55842    0.000
 5029.00    0.50760   0.56004   19.701
 5030.00    0.53765   0.56077   18.599
 5031.00    0.56139   0.56146   17.813
 5032.00    0.57375   0.56152   17.429
 5033.00    0.57667   0.55943   17.341
 5034.00    0.56988   0.55506   17.547
 5035.00    0.55172   0.55003   18.125
 5036.00    0.52918   0.54568   18.897
 5037.00    0.51436   0.54160   19.442
 5038.00    0.50995   0.53758   19.610
 5039.00    0.51150   0.53478   19.550
 5040.00    0.51860   0.53475   19.283
 5041.00    0.53444   0.53799   18.711
 5042.00    0.56071   0.54273   17.834
 5043.00    0.59032   0.54708   16.940
 5044.00    0.59964   0.55085   16.677
 5045.00    0.57119   0.55382   17.507
 5046.00    0.52186   0.55484   19.162
 5047.00    0.47945   0.55380   20.857
 5048.00    0.45409   0.55222   22.022
 5049.00    0.44728   0.55109   22.357
 5050.00    0.46148   0.55033   21.669
 5051.00    0.48659   0.55045   20.551
 5052.00    0.49338   0.55222   20.268
 5053.00    0.46960   0.55514   21.295
 5054.00    0.43970   0.55810   22.743
 5055.00    0.42825   0.56096   23.351
 5056.00    0.43939   0.56409   22.759
 5057.00    0.46960   0.56691   21.295
 5058.00    0.51447   0.56841   19.437
 5059.00    0.56697   0.56854   17.638
 5060.00    0.61690   0.56787   16.210
 5061.00    0.65203   0.56626   15.337
 5062.00    0.65963   0.56316   15.160
 5063.00    0.62982   0.55890   15.877
 5064.00    0.56315   0.55510   17.757
 5065.00    0.48732   0.55254   20.520
 5066.00    0.44376   0.55019   22.534
 5067.00    0.44582   0.54791   22.431
 5068.00    0.47852   0.54680   20.898
 5069.00    0.51907   0.54663   19.265
 5070.00    0.54573   0.54589   18.324
 5071.00    0.54580   0.54464   18.322
 5072.00    0.52070   0.54391   19.205
 5073.00    0.49006   0.54288   20.406
 5074.00    0.47293   0.54060   21.145
 5075.00    0.46448   0.53810   21.530
 5076.00    0.45472   0.53610   21.992
 5077.00    0.45083   0.53348   22.181
 5078.00    0.46058   0.53010   21.712
 5079.00    0.47569   0.52811   21.022
 5080.00    0.48491   0.52846   20.622
 5081.00    0.48597   0.52973   20.577
 5082.00    0.48578   0.53120   20.585
 5083.00    0.49773   0.53385   20.091
 5084.00    0.52803   0.53769   18.938
 5085.00    0.56811   0.54123   17.602
 5086.00    0.59820   0.54396   16.717
 5087.00    0.59635   0.54670   16.769
 5088.00    0.56771   0.54941   17.615
 5089.00    0.54535   0.55125   18.337
 5090.00    0.54378   0.55212   18.390
 5091.00    0.54923   0.55238   18.207
 5092.00    0.54731   0.55166   18.271
 5093.00    0.53360   0.54944   18.741
 5094.00    0.51597   0.54604   19.381
 5095.00    0.50857   0.54218   19.663
 5096.00    0.51633   0.53835   19.368
 5097.00    0.53382   0.53493   18.733
 5098.00    0.55118   0.53262   18.143
 5099.00    0.56039   0.53218   17.845
 5100.00    0.56356   0.53321   17.744
 5101.00    0.56743   0.53451   17.623
 5102.00    0.57265   0.53546   17.463
 5103.00    0.57176   0.53625   17.490
 5104.00    0.55052   0.53669   18.165
 5105.00    0.51147   0.53631   19.552
 5106.00    0.49532   0.53539   20.189
 5107.00    0.53079   0.53490   18.840
 5108.00    0.58979   0.53508   16.955
 5109.00    0.64115   0.53574   15.597
 5110.00    0.69225   0.53735   14.446
 5111.00    0.74107   0.53987   -1.000
 5112.00    0.74935   0.54254   -1.000
 5113.00    0.70505   0.54493   14.183
 5114.00    0.65037   0.54690   15.376
 5115.00    0.61898   0.54825   16.156
 5116.00    0.60608   0.54865   16.500
 5117.00    0.58961   0.54766   16.960
 5118.00    0.54868   0.54513   18.226
 5119.00    0.49320   0.54149   20.276
 5120.00    0.45987   0.53730   21.745
 5121.00    0.46167   0.53275   21.661
 5122.00    0.48183   0.52801   20.754
 5123.00    0.50547   0.52388   19.784
 5124.00    0.52931   0.52107   18.893
 5125.00    0.56195   0.51951   17.795
 5126.00    0.61101   0.51878   16.366
 5127.00    0.65779   0.51869   15.203
 5128.00    0.67743   0.51943   14.762
 5129.00    0.68265   0.52109   14.649
 5130.00    0.69994   0.52309   14.287
 5131.00    0.72243   0.52443   -1.000
 5132.00    0.72576   0.52502   -1.000
 5133.00    0.69889   0.52545   14.308
 5134.00    0.65240   0.52558   15.328
 5135.00    0.61940   0.52458   16.145
 5136.00    0.61471   0.52254   16.268
 5137.00    0.60164   0.52027   16.621
 5138.00    0.55498   0.51845   18.019
 5139.00    0.50911   0.51760   19.642
 5140.00    0.50048   0.51691   19.981
 5141.00    0.52671   0.51560   18.986
 5142.00    0.57054   0.51495   17.527
 5143.00    0.61548   0.51563   16.247
 5144.00    0.63970   0.51596   15.632
 5145.00    0.61981   0.51528   16.134
 5146.00    0.56426   0.51483   17.722
 5147.00    0.51550   0.51507   19.399
 5148.00    0.49855   0.51528   20.058
 5149.00    0.50634   0.51509   19.750
 5150.00    0.52047   0.51506   19.214
 5151.00    0.52457   0.51569   19.063
 5152.00    0.52056   0.51676   19.210
 5153.00    0.52255   0.51818   19.137
 5154.00    0.53098   0.52031   18.833
 5155.00    0.53345   0.52288   18.746
 5156.00    0.52059   0.52501   19.209
 5157.00    0.49544   0.52608   20.184
 5158.00    0.48278   0.52604   20.714
 5159.00    0.50392   0.52452   19.844
 5160.00    0.53734   0.52060   18.610
 5161.00    0.54851   0.51405   18.231
 5162.00    0.53646   0.50582   18.641
 5163.00    0.51896   0.49657   19.269
 5164.00    0.50822   0.48650   19.677
 5165.00    0.50849   0.47627   19.666
 5166.00    0.51651   0.46680   19.361
 5167.00    0.52323   0.45964   19.112
 5168.00    0.51696   0.45656   19.344
 5169.00    0.49501   0.45731   20.201
 5170.00    0.47074   0.45938   21.243
 5171.00    0.46364   0.46258   21.568
 5172.00    0.48904   0.46946   20.448
 5173.00    0.53811   0.47942   18.583
 5174.00    0.57640   0.48829   17.349
 5175.00    0.58529   0.49443   17.086
 5176.00    0.57560   0.49929   17.373
 5177.00    0.56261   0.50237   17.774
 5178.00    0.55537   0.50170   18.006
 5179.00    0.55605   0.49815   17.984
 5180.00    0.56041   0.49394   17.844
 5181.00    0.55946   0.48909   17.874
 5182.00    0.54618   0.48389   18.309
 5183.00    0.52998   0.48131   18.868
 5184.00    0.52554   0.48292   19.028
 5185.00    0.52218   0.48608   19.151
 5186.00    0.49963   0.48831   20.015
 5187.00    0.46761   0.49040   21.385
 5188.00    0.45211   0.49372   22.119
 5189.00    0.46253   0.49646   21.620
 5190.00    0.49077   0.49619    0.000
 5191.00    0.51821   0.49480    0.000
 5192.00    0.53343   0.49529    0.000
 5193.00    0.54938   0.49672    0.000
 5194.00    0.57769   0.49729    0.000
 5195.00    0.60389   0.49824    0.000
 5196.00    0.61456   0.50051    0.000
 5197.00    0.61965   0.50295    0.000
 5198.00    0.62699   0.50461    0.000
 5199.00    0.62528   0.50502    0.000
 5200.00    0.60589   0.50396    0.000
 5201.00    0.57541   0.50195    0.000
 5202.00    0.54294   0.49930    0.000
 5203.00    0.51300   0.49541    0.000
 5204.00    0.48713   0.49126    0.000
 5205.00    0.46566   0.48899    0.000
 5206.00    0.45059   0.48860    0.000
 5207.00    0.44632   0.48900    0.000
 5208.00    0.45749   0.49088    0.000
 5209.00    0.48531   0.49460    0.000
 5210.00    0.51932   0.49849    0.000
 5211.00    0.54063   0.50178   18.497
 5212.00    0.53642   0.50471   18.642
 5213.00    0.50835   0.50698   19.672
 5214.00    0.48147   0.50817   20.770
 5215.00    0.48476   0.50914   20.629
 5216.00    0.51267   0.51058   19.506
 5217.00    0.53857   0.51208   18.568
 5218.00    0.54762   0.51286   18.261
 5219.00    0.54105   0.51262   18.483
 5220.00    0.53366   0.51120   18.739
 5221.00    0.53893   0.50800   18.555
 5222.00    0.55297   0.50324   18.084
 5223.00    0.56543   0.49817   17.686
 5224.00    0.57194   0.49322   17.484
 5225.00    0.56813   0.48844   17.602
 5226.00    0.54475   0.48560   18.357
 5227.00    0.49894   0.48597   20.043
 5228.00    0.44204   0.48766   22.622
 5229.00    0.39369   0.48924   25.400
 5230.00    0.37464   0.49141   26.693
 5231.00    0.39095   0.49397   25.579
 5232.00    0.42809   0.49599   23.360
 5233.00    0.46404   0.49800   21.550
 5234.00    0.47923   0.50069   20.867
 5235.00    0.47004   0.50387   21.275
 5236.00    0.44974   0.50719   22.235
 5237.00    0.43268   0.51051   23.112
 5238.00    0.42789   0.51358   23.371
 5239.00    0.43693   0.51637   22.887
 5240.00    0.45535   0.51845   21.961
 5241.00    0.47763   0.51900   20.937
 5242.00    0.49879   0.51840   20.049
 5243.00    0.51509   0.51784   19.414
 5244.00    0.52494   0.51677   19.050
 5245.00    0.53027   0.51405   18.858
 5246.00    0.53466   0.51091   18.703
 5247.00    0.53967   0.50913   18.530
 5248.00    0.54254   0.50778   18.432
 5249.00    0.53452   0.50576   18.708
 5250.00    0.51022   0.50450   19.599
 5251.00    0.47858   0.50517   20.895
 5252.00    0.45576   0.50646   21.941
 5253.00    0.45587   0.50714   21.936
 5254.00    0.48349   0.50788   20.683
 5255.00    0.52829   0.50923   18.929
 5256.00    0.56899   0.50985   17.575
 5257.00    0.58050   0.50836   17.227
 5258.00    0.55905   0.50495   17.888
 5259.00    0.53124   0.49998   18.824
 5260.00    0.51272   0.49327   19.504
 5261.00    0.49218   0.48523   20.318
 5262.00    0.46944   0.47745   21.302
 5263.00    0.46482   0.47033   21.514
 5264.00    0.47897   0.46345   20.878
 5265.00    0.48805   0.45830   20.490
 5266.00    0.48591   0.45677   20.580
 5267.00    0.48894   0.45681   20.453
 5268.00    0.50403   0.45629   19.840
 5269.00    0.52339   0.45752   19.106
 5270.00    0.53703   0.46199   18.621
 5271.00    0.53816   0.46693   18.582
 5272.00    0.52706   0.47109   18.973
 5273.00    0.50745   0.47567   -2.000
 5274.00    0.47837   0.48037   -2.000
 5275.00    0.44485   0.48477   -2.000
 5276.00    0.43633   0.48926   -2.000
 5277.00    0.48588   0.49278   -2.000
 5278.00    0.59675   0.49436   -2.000
 5279.00    0.74045   0.49518   -2.000
 5280.00    0.86259   0.49672   -2.000
 5281.00    0.91250   0.49847   -2.000
 5282.00    0.87409   0.49970   -2.000
 5283.00    0.77151   0.50149   -2.000
 5284.00    0.66556   0.50532   -2.000
 5285.00    0.60327   0.51015   -2.000
 5286.00    0.58365   0.51401   -2.000
 5287.00    0.58943   0.51688   16.966
 5288.00    0.60852   0.51942   16.433
 5289.00    0.62503   0.52111   15.999
 5290.00    0.61841   0.52102   16.171
 5291.00    0.58703   0.51909   17.035
 5292.00    0.55348   0.51591   18.067
 5293.00    0.53755   0.51232   18.603
 5294.00    0.54408   0.50880   18.380
 5295.00    0.56217   0.50508   17.788
 5296.00    0.57159   0.50121   17.495
 5297.00    0.56244   0.49862   17.780
 5298.00    0.53936   0.49843   18.541
 5299.00    0.51618   0.49954   19.373
 5300.00    0.50716   0.50069   19.718
 5301.00    0.51153   0.50251   19.549
 5302.00    0.51928   0.50553   19.258
 5303.00    0.52864   0.50879   18.916
 5304.00    0.54021   0.51125   18.511
 5305.00    0.54243   0.51292   18.436
 5306.00    0.52602   0.51424   19.011
 5307.00    0.50636   0.51530   19.749
 5308.00    0.50305   0.51572   19.879
 5309.00    0.51243   0.51531   19.515
 5310.00    0.52243   0.51415   19.141
 5311.00    0.53083   0.51211   18.838
 5312.00    0.53746   0.50954   18.606
 5313.00    0.53606   0.50729   18.655
 5314.00    0.51931   0.50505   19.256
 5315.00    0.48536   0.50227   20.603
 5316.00    0.45123   0.50031   22.162
 5317.00    0.45341   0.49990   22.055
 5318.00    0.50013   0.49917   19.995
 5319.00    0.55392   0.49717   18.053
 5320.00    0.58351   0.49514   17.138
 5321.00    0.58664   0.49311   17.046
 5322.00    0.57275   0.48928   17.460
 5323.00    0.55301   0.48362   18.083
 5324.00    0.53304   0.47908   18.760
 5325.00    0.51177   0.47644   19.540
 5326.00    0.48618   0.47362   20.568
 5327.00    0.45669   0.47107   21.897
 5328.00    0.43673   0.47202   22.898
 5329.00    0.44497   0.47623   22.473
 5330.00    0.48207   0.48041   20.744
 5331.00    0.52944   0.48377   18.888
 5332.00    0.55835   0.48744   17.910
 5333.00    0.55041   0.49118   18.168
 5334.00    0.52670   0.49321   18.986
 5335.00    0.51887   0.49304   19.272
 5336.00    0.52219   0.49214   19.150
 5337.00    0.51662   0.49172   19.356
 5338.00    0.50076   0.49098   19.970
 5339.00    0.48548   0.48976   20.598
 5340.00    0.48161   0.48955   20.764
 5341.00    0.48737   0.49073   20.518
 5342.00    0.48216   0.49202   20.740
 5343.00    0.46216   0.49288   21.638
 5344.00    0.46112   0.49352   21.686
 5345.00    0.49503   0.49436   20.201
 5346.00    0.53150   0.49572   18.815
 5347.00    0.54020   0.49687   18.512
 5348.00    0.52144   0.49773   19.178
 5349.00    0.49356   0.49966   20.261
 5350.00    0.48019   0.50284   20.825
 5351.00    0.48726   0.50584   20.523
 5352.00    0.49909   0.50830   20.037
 5353.00    0.50040   0.51108   19.984
 5354.00    0.48619   0.51375   20.568
 5355.00    0.46551   0.51518   21.482
 5356.00    0.45635   0.51526   21.913
 5357.00    0.46910   0.51434   21.317
 5358.00    0.50231   0.51249   19.908
 5359.00    0.54378   0.50967   18.390
 5360.00    0.57642   0.50584   17.348
 5361.00    0.58905   0.50140   16.976
 5362.00    0.57647   0.49715   17.347
 5363.00    0.53628   0.49319   18.647
 5364.00    0.47793   0.48921   20.924
 5365.00    0.43451   0.48548   23.014
 5366.00    0.43350   0.48230   23.068
 5367.00    0.46000   0.48013   21.739
 5368.00    0.48082   0.47897   20.798
 5369.00    0.47611   0.47844   21.004
 5370.00    0.44530   0.47916   22.457
 5371.00    0.40769   0.48193   24.528
 5372.00    0.38620   0.48588   25.893
 5373.00    0.39341   0.48956   25.419
 5374.00    0.42717   0.49302   23.410
 5375.00    0.46941   0.49595   21.303
 5376.00    0.49368   0.49774   20.256
 5377.00    0.47696   0.49856   20.966
 5378.00    0.43553   0.49846   22.960
 5379.00    0.42104   0.49750   23.751
 5380.00    0.42597   0.49663   23.476
 5381.00    0.39324   0.49601   -2.000
 5382.00    0.40224   0.49514   -2.000
 5383.00    0.59512   0.49466   -2.000
 5384.00    0.73270   0.49465   -2.000
 5385.00    0.37767   0.49400   -2.000
 5386.00   -0.23509   0.49276   -2.000
 5387.00   -0.32820   0.49141   -2.000
 5388.00    0.55253   0.48949   -2.000
 5389.00    2.30238   0.48695   -2.000
 5390.00    4.23939   0.48454   -2.000
 5391.00    5.73660   0.48206   -2.000
 5392.00    7.23412   0.47918   -2.000
 5393.00    9.07868   0.47692   -2.000
 5394.00    9.69302   0.47564   -2.000
 5395.00    7.53481   0.47395   -2.000
 5396.00    3.78634   0.47203   -2.000
 5397.00    0.73283   0.47166   -2.000
 5398.00   -0.40884   0.47179   -2.000
 5399.00    0.17216   0.47046   -2.000
 5400.00    0.97596   0.46864   -2.000
 5401.00    0.91436   0.46747   -2.000
 5402.00    0.50937   0.46586   -2.000
 5403.00    0.42450   0.46349   -2.000
 5404.00    0.48850   0.46158   20.471
 5405.00    0.44802   0.46084   22.321
 5406.00    0.39499   0.46137   25.317
 5407.00    0.42351   0.46285   23.612
 5408.00    0.47375   0.46462   21.108
 5409.00    0.48613   0.46677   20.571
 5410.00    0.46320   0.46993   21.589
 5411.00    0.42883   0.47370   23.319
 5412.00    0.40673   0.47685   24.586
 5413.00    0.40589   0.47919   24.637
 5414.00    0.42089   0.48145   23.759
 5415.00    0.44539   0.48372   22.452
 5416.00    0.47500   0.48513   21.053
 5417.00    0.50445   0.48551   19.824
 5418.00    0.52638   0.48533   18.998
 5419.00    0.53045   0.48449   18.852
 5420.00    0.51116   0.48330   19.563
 5421.00    0.48119   0.48244   20.782
 5422.00    0.46039   0.48128   21.721
 5423.00    0.45614   0.47955   21.923
 5424.00    0.46429   0.47822   21.538
 5425.00    0.47450   0.47750   21.075
 5426.00    0.47682   0.47675   20.972
 5427.00    0.46818   0.47533   21.359
 5428.00    0.45251   0.47306   22.099
 5429.00    0.43932   0.47152   22.762
 5430.00    0.43620   0.47135   22.925
 5431.00    0.44290   0.47090   22.578
 5432.00    0.45311   0.47040   22.070
 5433.00    0.45739   0.47150   21.863
 5434.00    0.45172   0.47399   22.138
 5435.00    0.44152   0.47686   22.649
 5436.00    0.43599   0.48000   22.936
 5437.00    0.44356   0.48341   22.545
 5438.00    0.46628   0.48628   21.447
 5439.00    0.49778   0.48795   20.089
 5440.00    0.52552   0.48829   19.029
 5441.00    0.53534   0.48731   18.680
 5442.00    0.52312   0.48523   19.116
 5443.00    0.49563   0.48263   20.176
 5444.00    0.46203   0.48001   21.644
 5445.00    0.43091   0.47757   23.207
 5446.00    0.40947   0.47600   24.422
 5447.00    0.40349   0.47596   24.784
 5448.00    0.41754   0.47651   23.950
 5449.00    0.45084   0.47669   22.181
 5450.00    0.49041   0.47653   20.391
 5451.00    0.52016   0.47622   19.225
 5452.00    0.53599   0.47587   18.657
 5453.00    0.54219   0.47513   18.444
 5454.00    0.54339   0.47388   18.403
 5455.00    0.54186   0.47343   18.455
 5456.00    0.53574   0.47428   18.666
 5457.00    0.52231   0.47493   19.146
 5458.00    0.50103   0.47478   19.959
 5459.00    0.47243   0.47479   21.167
 5460.00    0.43771   0.47511   22.846
 5461.00    0.40426   0.47465   24.736
 5462.00    0.38712   0.47363   25.832
 5463.00    0.39295   0.47370   25.449
 5464.00    0.41205   0.47436   24.269
 5465.00    0.42935   0.47425   23.291
 5466.00    0.43352   0.47418   23.067
 5467.00    0.43021   0.47470   23.244
 5468.00    0.43984   0.47432   22.736
 5469.00    0.46702   0.47270   21.412
 5470.00    0.49660   0.47108   20.137
 5471.00    0.52047   0.46902   19.213
 5472.00    0.54107   0.46564   18.482
 5473.00    0.55530   0.46267   18.008
 5474.00    0.55502   0.46090   18.018
 5475.00    0.53961   0.45871   18.532
 5476.00    0.51800   0.45691   19.305
 5477.00    0.50577   0.45741   19.772
 5478.00    0.51378   0.45902   19.464
 5479.00    0.53017   0.46015   18.862
 5480.00    0.53612   0.46162   18.653
 5481.00    0.53409   0.46413   18.723
 5482.00    0.53759   0.46634   18.601
 5483.00    0.55176   0.46775   18.124
 5484.00    0.57199   0.46916   17.483
 5485.00    0.58622   0.47013   17.059
 5486.00    0.58667   0.47017   17.045
 5487.00    0.57961   0.47029   17.253
 5488.00    0.57095   0.47069   17.515
 5489.00    0.55505   0.47049   18.016
 5490.00    0.52789   0.47033   18.943
 5491.00    0.49593   0.47062   20.164
 5492.00    0.46801   0.47037   21.367
 5493.00    0.45009   0.46981   22.218
 5494.00    0.44674   0.46989   22.384
 5495.00    0.46150   0.46980   21.668
 5496.00    0.49397   0.46876   20.244
 5497.00    0.53915   0.46785   18.548
 5498.00    0.58994   0.46752   16.951
 5499.00    0.63912   0.46660   15.647
 5500.00    0.68203   0.46503   -1.000
 5501.00    0.71530   0.46365   -1.000
 5502.00    0.73052   0.46264   -1.000
 5503.00    0.71760   0.46187   -1.000
 5504.00    0.67750   0.46109   -1.000
 5505.00    0.62352   0.46011   16.038
 5506.00    0.57701   0.45970   17.331
 5507.00    0.55675   0.45989   17.961
 5508.00    0.56203   0.45963   17.793
 5509.00    0.57557   0.45936   17.374
 5510.00    0.57408   0.45978   17.419
 5511.00    0.54603   0.46033   18.314
 5512.00    0.51126   0.46103   19.559
 5513.00    0.49461   0.46244   20.218
 5514.00    0.49414   0.46432   20.237
 5515.00    0.49742   0.46613   20.104
 5516.00    0.50079   0.46788   19.969
 5517.00    0.50794   0.46963   19.687
 5518.00    0.52546   0.47085   19.031
 5519.00    0.55059   0.47115   18.162
 5520.00    0.56592   0.47069   17.670
 5521.00    0.56218   0.46963   17.788
 5522.00    0.54944   0.46793   18.200
 5523.00    0.53743   0.46556   18.607
 5524.00    0.52602   0.46292   19.011
 5525.00    0.51274   0.46073   19.503
 5526.00    0.49743   0.45893   20.103
 5527.00    0.48538   0.45731   20.602
 5528.00    0.48511   0.45679   20.614
 5529.00    0.49720   0.45734   20.113
 5530.00    0.51381   0.45774   19.462
 5531.00    0.52847   0.45820   18.922
 5532.00    0.53815   0.45931   18.582
 5533.00    0.54092   0.46028   18.487
 5534.00    0.53491   0.46084   18.695
 5535.00    0.51746   0.46203   19.325
 5536.00    0.49019   0.46346   20.400
 5537.00    0.46779   0.46434   21.377
 5538.00    0.46663   0.46510   21.430
 5539.00    0.48473   0.46593   20.630
 5540.00    0.50617   0.46642   19.756
 5541.00    0.51217   0.46642   19.525
 5542.00    0.49322   0.46618   20.275
 5543.00    0.46039   0.46628   21.721
 5544.00    0.43200   0.46668   23.148
 5545.00    0.41886   0.46698   23.875
 5546.00    0.42344   0.46750   23.616
 5547.00    0.44064   0.46842   22.694
 5548.00    0.45938   0.46906   21.769
 5549.00    0.46655   0.46921   21.434
 5550.00    0.46453   0.46912   21.527
 5551.00    0.47576   0.46879   21.019
 5552.00    0.50687   0.46810   19.729
 5553.00    0.53528   0.46702   18.682
 5554.00    0.54128   0.46603   18.475
 5555.00    0.52340   0.46530   19.106
 5556.00    0.49599   0.46435   20.162
 5557.00    0.48156   0.46323   20.766
 5558.00    0.48911   0.46222   20.445
 5559.00    0.50992   0.46115   19.611
 5560.00    0.52757   0.45991   18.955
 5561.00    0.52554   0.45841   19.028
 5562.00    0.49826   0.45689   20.070
 5563.00    0.45415   0.45579   22.019
 5564.00    0.41553   0.45462   24.066
 5565.00    0.40522   0.45317   24.678
 5566.00    0.42259   0.45249   23.663
 5567.00    0.44920   0.45230   22.262
 5568.00    0.46546   0.45151   21.484
 5569.00    0.46121   0.45121   21.682
 5570.00    0.44547   0.45212   22.448
 5571.00    0.43416   0.45244   23.033
 5572.00    0.43430   0.45249   23.026
 5573.00    0.44642   0.45391   22.400
 5574.00    0.46884   0.45527   21.329
 5575.00    0.49733   0.45575   20.107
 5576.00    0.52491   0.45668   19.051
 5577.00    0.54471   0.45758   18.359
 5578.00    0.55213   0.45742   18.112
 5579.00    0.54389   0.45689   18.386
 5580.00    0.51860   0.45591   19.283
 5581.00    0.48390   0.45379   20.665
 5582.00    0.45648   0.45105   21.907
 5583.00    0.44403   0.44806   22.521
 5584.00    0.43968   0.44473   22.744
 5585.00    0.43548   0.44134   22.963
 5586.00    0.42854   0.43860   23.335
 5587.00    0.42202   0.43690   23.696
 5588.00    0.42293   0.43618   23.645
 5589.00    0.43502   0.43634   22.987
 5590.00    0.45730   0.43725   21.867
 5591.00    0.48603   0.43886   20.575
 5592.00    0.51681   0.44064   19.350
 5593.00    0.54773   0.44181   18.257
 5594.00    0.57587   0.44280   17.365
 5595.00    0.58982   0.44397   16.954
 5596.00    0.57784   0.44429   17.306
 5597.00    0.54288   0.44367   18.420
 5598.00    0.50070   0.44355   19.972
 5599.00    0.47260   0.44395   21.159
 5600.00    0.47028   0.44438   21.264
 5601.00    0.48062   0.44543   20.807
 5602.00    0.48553   0.44741   20.596
 5603.00    0.48333   0.45015   20.690
 5604.00    0.47881   0.45299   20.885
 5605.00    0.47285   0.45558   21.148
 5606.00    0.46416   0.45784   21.544
 5607.00    0.45205   0.45931   22.122
 5608.00    0.44198   0.45978   22.626
 5609.00    0.44576   0.45933   22.433
 5610.00    0.46298   0.45776   21.599
 5611.00    0.47622   0.45523   20.999
 5612.00    0.47940   0.45270   20.859
 5613.00    0.48473   0.45008   20.630
 5614.00    0.49344   0.44705   20.266
 5615.00    0.49087   0.44505   20.372
 5616.00    0.47270   0.44445   21.155
 5617.00    0.45051   0.44393   22.197
 5618.00    0.43921   0.44365   22.768
 5619.00    0.44834   0.44398   22.305
 5620.00    0.47071   0.44417   21.245
 5621.00    0.48700   0.44427   20.534
 5622.00    0.48251   0.44454   20.725
 5623.00    0.45399   0.44449   22.027
 5624.00    0.41473   0.44477   24.112
 5625.00    0.38483   0.44595   25.986
 5626.00    0.37402   0.44718   26.737
 5627.00    0.38011   0.44830   26.308
 5628.00    0.39160   0.44978   25.536
 5629.00    0.39873   0.45092   25.080
 5630.00    0.40519   0.45128   24.680
 5631.00    0.41627   0.45123   24.023
 5632.00    0.42588   0.45054   23.481
 5633.00    0.42705   0.44915   23.416
 5634.00    0.42173   0.44772   23.712
 5635.00    0.41560   0.44632   24.062
 5636.00    0.41313   0.44471   24.205
 5637.00    0.41585   0.44341   24.047
 5638.00    0.42216   0.44287   23.688
 5639.00    0.43183   0.44254   23.157
 5640.00    0.44725   0.44225   22.359
 5641.00    0.46673   0.44260   21.425
 5642.00    0.48280   0.44329   20.712
 5643.00    0.48871   0.44392   20.462
 5644.00    0.48306   0.44464   20.702
 5645.00    0.47554   0.44537   21.029
 5646.00    0.48210   0.44589   20.743
 5647.00    0.50425   0.44617   19.831
 5648.00    0.52777   0.44616   18.948
 5649.00    0.53638   0.44574   18.643
 5650.00    0.52130   0.44481   19.183
 5651.00    0.49336   0.44349   20.269
 5652.00    0.47397   0.44204   21.099
 5653.00    0.47252   0.43996   21.163
 5654.00    0.48532   0.43721   20.605
 5655.00    0.50146   0.43522   19.942
 5656.00    0.50900   0.43373   19.646
 5657.00    0.50244   0.43166   19.903
 5658.00    0.48474   0.43041   20.630
 5659.00    0.46771   0.43078   21.381
 5660.00    0.46106   0.43139   21.689
 5661.00    0.46193   0.43190   21.648
 5662.00    0.46500   0.43321   21.506
 5663.00    0.47175   0.43505   21.197
 5664.00    0.48238   0.43658   20.731
 5665.00    0.48947   0.43792   20.430
 5666.00    0.48334   0.43934   20.689
 5667.00    0.45766   0.44071   21.851
 5668.00    0.41961   0.44207   23.832
 5669.00    0.39248   0.44352   25.479
 5670.00    0.39923   0.44483   25.048
 5671.00    0.44938   0.44599   22.253
 5672.00    0.51989   0.44724   19.235
 5673.00    0.56309   0.44813   17.759
 5674.00    0.56361   0.44822   17.743
 5675.00    0.54610   0.44804   18.312
 5676.00    0.53383   0.44770   18.733
 5677.00    0.53549   0.44663   18.674
 5678.00    0.54636   0.44492   18.303
 5679.00    0.55228   0.44333   18.107
 5680.00    0.53806   0.44183   18.585
 5681.00    0.49801   0.43997   20.080
 5682.00    0.45147   0.43832   22.150
 5683.00    0.42613   0.43734   23.467
 5684.00    0.42568   0.43664   23.492
 5685.00    0.43625   0.43625   22.922
 5686.00    0.44381   0.43643   22.532
 5687.00    0.44001   0.43700   22.727
 5688.00    0.42640   0.43797   -2.000
 5689.00    0.41549   0.43921   -2.000
 5690.00    0.42978   0.44027   -2.000
 5691.00    0.48619   0.44120   -2.000
 5692.00    0.58140   0.44204   -2.000
 5693.00    0.68817   0.44230   -2.000
 5694.00    0.75959   0.44180   -2.000
 5695.00    0.77215   0.44116   -2.000
 5696.00    0.74947   0.44021   -2.000
 5697.00    0.72701   0.43849   -2.000
 5698.00    0.72744   0.43674   -2.000
 5699.00    0.74718   0.43527   -2.000
 5700.00    0.75721   0.43355   -2.000
 5701.00    0.73328   0.43165   -2.000
 5702.00    0.67069   0.42999   -2.000
 5703.00    0.58855   0.42855   -2.000
 5704.00    0.52116   0.42680   -2.000
 5705.00    0.48698   0.42493   -2.000
 5706.00    0.48194   0.42381   -2.000
 5707.00    0.48874   0.42295   -2.000
 5708.00    0.48672   0.42220   20.545
 5709.00    0.46825   0.42276   21.356
 5710.00    0.44148   0.42409   22.651
 5711.00    0.42766   0.42552   23.383
 5712.00    0.44388   0.42794   22.529
 5713.00    0.47641   0.43077   20.990
 5714.00    0.49766   0.43318   20.094
 5715.00    0.49758   0.43579   20.097
 5716.00    0.48287   0.43827   20.710
 5717.00    0.46933   0.44010   21.307
 5718.00    0.46984   0.44187   21.284
 5719.00    0.48266   0.44328   20.719
 5720.00    0.49564   0.44406   20.176
 5721.00    0.49281   0.44472   20.292
 5722.00    0.46711   0.44497   21.408
 5723.00    0.42926   0.44455   23.296
 5724.00    0.40001   0.44413   25.000
 5725.00    0.40102   0.44363   24.936
 5726.00    0.43563   0.44273   22.955
 5727.00    0.48165   0.44197   20.762
 5728.00    0.51280   0.44154   19.501
 5729.00    0.51373   0.44124   19.465
 5730.00    0.49524   0.44098   20.192
 5731.00    0.48852   0.44092   20.470
 5732.00    0.50032   0.44116   19.987
 5733.00    0.50944   0.44130   19.629
 5734.00    0.50954   0.44131   19.626
 5735.00    0.51255   0.44136   19.510
 5736.00    0.52001   0.44128   19.230
 5737.00    0.52117   0.44103   19.188
 5738.00    0.50755   0.44075   19.703
 5739.00    0.47814   0.44043   20.914
 5740.00    0.44210   0.44011    0.000
 5741.00    0.41279   0.43980    0.000
 5742.00    0.39673   0.43947    0.000
 5743.00    0.39520   0.43904    0.000
 5744.00    0.40914   0.43847    0.000
 5745.00    0.43592   0.43789    0.000
 5746.00    0.46493   0.43716    0.000
 5747.00    0.48463   0.43609    0.000
 5748.00    0.49060   0.43509    0.000
 5749.00    0.48201   0.43411    0.000
 5750.00    0.45833   0.43300    0.000
 5751.00    0.42711   0.43224    0.000
 5752.00    0.40816   0.43177    0.000
 5753.00    0.41637   0.43138    0.000
 5754.00    0.45000   0.43143    0.000
 5755.00    0.49497   0.43164    0.000
 5756.00    0.53061   0.43168    0.000
 5757.00    0.54309   0.43178    0.000
 5758.00    0.53186   0.43170    0.000
 5759.00    0.50729   0.43144    0.000
 5760.00    0.48532   0.43156    0.000
 5761.00    0.47246   0.43181    0.000
 5762.00    0.46303   0.43209    0.000
 5763.00    0.44908   0.43305    0.000
 5764.00    0.42771   0.43426    0.000
 5765.00    0.41135   0.43508    0.000
 5766.00    0.41885   0.43599    0.000
 5767.00    0.44824   0.43678    0.000
 5768.00    0.47966   0.43683    0.000
 5769.00    0.49495   0.43672    0.000
 5770.00    0.48805   0.43646    0.000
 5771.00    0.47483   0.43568    0.000
 5772.00    0.47515   0.43495    0.000
 5773.00    0.48426   0.43414    0.000
 5774.00    0.48202   0.43284    0.000
 5775.00    0.45132   0.43147    0.000
 5776.00    0.39184   0.42980    0.000
 5777.00    0.33091   0.42754    0.000
 5778.00    0.30229   0.42526    0.000
 5779.00    0.32365   0.42309    0.000
 5780.00    0.38653   0.42082    0.000
 5781.00    0.45421   0.41895    0.000
 5782.00    0.49418   0.41804    0.000
 5783.00    0.50000   0.41773    0.000
 5784.00    0.48161   0.41778    0.000
 5785.00    0.45587   0.41873    0.000
 5786.00    0.43324   0.42015    0.000
 5787.00    0.41358   0.42131    0.000
 5788.00    0.39839   0.42286    0.000
 5789.00    0.39357   0.42446    0.000
 5790.00    0.39896   0.42545    0.000
 5791.00    0.40702   0.42666    0.000
 5792.00    0.41253   0.42789    0.000
 5793.00    0.41434   0.42853    0.000
 5794.00    0.41141   0.42928    0.000
 5795.00    0.40422   0.43028    0.000
 5796.00    0.40083   0.43091    0.000
 5797.00    0.41177   0.43134    0.000
 5798.00    0.43683   0.43204    0.000
 5799.00    0.46508   0.43251    0.000
 5800.00    0.48047   0.43241    0.000
 5801.00    0.47198   0.43237    0.000
 5802.00    0.44687   0.43220    0.000
 5803.00    0.42077   0.43159    0.000
 5804.00    0.40250   0.43114    0.000
 5805.00    0.39746   0.43077    0.000
 5806.00    0.41240   0.43040    0.000
 5807.00    0.44365   0.43036    0.000
 5808.00    0.46818   0.43032    0.000
 5809.00    0.47060   0.43020    0.000
 5810.00    0.46329   0.43029    0.000
 5811.00    0.46157   0.43020    0.000
 5812.00    0.46603   0.42988    0.000
 5813.00    0.47054   0.42982    0.000
 5814.00    0.47010   0.42992    0.000
 5815.00    0.47212   0.42996    0.000
 5816.00    0.49489   0.43031    0.000
 5817.00    0.53530   0.43100    0.000
 5818.00    0.56395   0.43161    0.000
 5819.00    0.56376   0.43219    0.000
 5820.00    0.54004   0.43281    0.000
 5821.00    0.50237   0.43326    0.000
 5822.00    0.45882   0.43346    0.000
 5823.00    0.41783   0.43357    0.000
 5824.00    0.38787   0.43361    0.000
 5825.00    0.37513   0.43352    0.000
 5826.00    0.38122   0.43341    0.000
 5827.00    0.39966   0.43319    0.000
 5828.00    0.41793   0.43292    0.000
 5829.00    0.42283   0.43270    0.000
 5830.00    0.40874   0.43229    0.000
 5831.00    0.38787   0.43174    0.000
 5832.00    0.37961   0.43147    0.000
 5833.00    0.39414   0.43118    0.000
 5834.00    0.42913   0.43068    0.000
 5835.00    0.46951   0.43063    0.000
 5836.00    0.49812   0.43080    0.000
 5837.00    0.50613   0.43072    0.000
 5838.00    0.49209   0.43082    0.000
 5839.00    0.46064   0.43109    0.000
 5840.00    0.42478   0.43097    0.000
 5841.00    0.40502   0.43063    0.000
 5842.00    0.41326   0.43024    0.000
 5843.00    0.44345   0.42944    0.000
 5844.00    0.47662   0.42836    0.000
 5845.00    0.48816   0.42725    0.000
 5846.00    0.46726   0.42587    0.000
 5847.00    0.42423   0.42435    0.000
 5848.00    0.38393   0.42291    0.000
 5849.00    0.37356   0.42120    0.000
 5850.00    0.39213   0.41936    0.000
 5851.00    0.41279   0.41776    0.000
 5852.00    0.41857   0.41603    0.000
 5853.00    0.41046   0.41422    0.000
 5854.00    0.40036   0.41302    0.000
 5855.00    0.40110   0.41215    0.000
 5856.00    0.41009   0.41137    0.000
 5857.00    0.41619   0.41139    0.000
 5858.00    0.41824   0.41194    0.000
 5859.00    0.42456   0.41254    0.000
 5860.00    0.44617   0.41366    0.000
 5861.00    0.48709   0.41497    0.000
 5862.00    0.53359   0.41604    0.000
 5863.00    0.56427   0.41727    0.000
 5864.00    0.56429   0.41849    0.000
 5865.00    0.53504   0.41937    0.000
 5866.00    0.49955   0.42020    0.000
 5867.00    0.47796   0.42104    0.000
 5868.00    0.46769   0.42164    0.000
 5869.00    0.45726   0.42196    0.000
 5870.00    0.43879   0.42220    0.000
 5871.00    0.41497   0.42231    0.000
 5872.00    0.40077   0.42198    0.000
 5873.00    0.41074   0.42144    0.000
 5874.00    0.45000   0.42092    0.000
 5875.00    0.50557   0.42003    0.000
 5876.00    0.54772   0.41880    0.000
 5877.00    0.55062   0.41765    0.000
 5878.00    0.50448   0.41636    0.000
 5879.00    0.42745   0.41453    0.000
 5880.00    0.35926   0.41247    0.000
 5881.00    0.33174   0.41026    0.000
 5882.00    0.35521   0.40702    0.000
 5883.00    0.40811   0.40287    0.000
 5884.00    0.45264   0.39852    0.000
 5885.00    0.47290   0.39300    0.000
 5886.00    0.47457   0.38664    0.000
 5887.00    0.46851   0.38137    0.000
 5888.00    0.46056   0.37616    0.000
 5889.00    0.44150   0.37105    0.000
 5890.00    0.40367   0.36865    0.000
 5891.00    0.36405   0.36734    0.000
 5892.00    0.34550   0.36619    0.000
 5893.00    0.35179   0.36781    0.000
 5894.00    0.37467   0.37050    0.000
 5895.00    0.40407   0.37289    0.000
 5896.00    0.43140   0.37728    0.000
 5897.00    0.45154   0.38245    0.000
 5898.00    0.46128   0.38683    0.000
 5899.00    0.45838   0.39180    0.000
 5900.00    0.44372   0.39673    0.000
 5901.00    0.42278   0.40045   23.653
 5902.00    0.40603   0.40359   24.628
 5903.00    0.40594   0.40628   24.634
 5904.00    0.42187   0.40804   23.704
 5905.00    0.43765   0.40921   22.849
 5906.00    0.44064   0.41005   22.694
 5907.00    0.42936   0.41041   23.290
 5908.00    0.41228   0.41043   24.256
 5909.00    0.40252   0.41017   24.843
 5910.00    0.40442   0.40957   24.727
 5911.00    0.41408   0.40900   24.150
 5912.00    0.43102   0.40832   23.201
 5913.00    0.45520   0.40760   21.968
 5914.00    0.47436   0.40736   21.081
 5915.00    0.47344   0.40726   21.122
 5916.00    0.45639   0.40732   21.911
 5917.00    0.43890   0.40786   22.784
 5918.00    0.42986   0.40834   23.264
 5919.00    0.42570   0.40884   23.491
 5920.00    0.40837   0.40952   24.488
 5921.00    0.36847   0.40982   27.139
 5922.00    0.33054   0.40998   30.254
 5923.00    0.32518   0.41017   30.752
 5924.00    0.35788   0.40996   27.942
 5925.00    0.41110   0.40960   24.325
 5926.00    0.45254   0.40922   22.098
 5927.00    0.46422   0.40872   21.542
 5928.00    0.45984   0.40827   21.747
 5929.00    0.45520   0.40796   21.968
 5930.00    0.44991   0.40776   22.227
 5931.00    0.43872   0.40781   22.794
 5932.00    0.41982   0.40809   23.820
 5933.00    0.40128   0.40836   24.920
 5934.00    0.39845   0.40867   25.097
 5935.00    0.41228   0.40915   24.255
 5936.00    0.42730   0.40935   23.403
 5937.00    0.43636   0.40931   22.917
 5938.00    0.44309   0.40937   22.569
 5939.00    0.44283   0.40918   22.582
 5940.00    0.42687   0.40877   23.426
 5941.00    0.40777   0.40846   24.524
 5942.00    0.40983   0.40806   24.401
 5943.00    0.43448   0.40760   23.016
 5944.00    0.46273   0.40715   21.611
 5945.00    0.47488   0.40659   21.058
 5946.00    0.46468   0.40609   21.520
 5947.00    0.45425   0.40562   22.014
 5948.00    0.46746   0.40503   21.392
 5949.00    0.49146   0.40460   20.348
 5950.00    0.49947   0.40442   20.021
 5951.00    0.48413   0.40418   20.656
 5952.00    0.45433   0.40403   22.010
 5953.00    0.42695   0.40422   23.422
 5954.00    0.41545   0.40447   24.070
 5955.00    0.42053   0.40472   23.779
 5956.00    0.43123   0.40527   23.190
 5957.00    0.42923   0.40597   23.297
 5958.00    0.40866   0.40666   24.470
 5959.00    0.38485   0.40743   25.984
 5960.00    0.37126   0.40819   26.935
 5961.00    0.36889   0.40885   27.108
 5962.00    0.38071   0.40935   26.267
 5963.00    0.41298   0.40976   24.214
 5964.00    0.45066   0.41010   22.190
 5965.00    0.46084   0.41023   21.699
 5966.00    0.44067   0.41042   22.693
 5967.00    0.42119   0.41059   23.742
 5968.00    0.42624   0.41049   23.461
 5969.00    0.45885   0.41038   21.794
 5970.00    0.50039   0.41009   19.984
 5971.00    0.52471   0.40940   19.058
 5972.00    0.52908   0.40859   18.901
 5973.00    0.52643   0.40763   18.996
 5974.00    0.51773   0.40648   19.315
 5975.00    0.49378   0.40534   20.252
 5976.00    0.44753   0.40436   22.345
 5977.00    0.38462   0.40340   26.000
 5978.00    0.33364   0.40251   29.972
 5979.00    0.32266   0.40183   30.993
 5980.00    0.34972   0.40107   28.595
 5981.00    0.39221   0.40032   25.497
 5982.00    0.42236   0.39984   23.676
 5983.00    0.42836   0.39932   23.345
 5984.00    0.42847   0.39898   23.339
 5985.00    0.44207   0.39907   22.621
 5986.00    0.46761   0.39929   21.386
 5987.00    0.49354   0.39957   20.262
 5988.00    0.50804   0.40012   19.683
 5989.00    0.50615   0.40078   19.757
 5990.00    0.49218   0.40113   20.318
 5991.00    0.47235   0.40142   21.171
 5992.00    0.45121   0.40181   22.163
 5993.00    0.43248   0.40173   23.122
 5994.00    0.41914   0.40144   23.858
 5995.00    0.41220   0.40131   24.260
 5996.00    0.41021   0.40081   24.378
 5997.00    0.40921   0.40022   24.437
 5998.00    0.40627   0.39984   24.614
 5999.00    0.40827   0.39916   24.494
 6000.00    0.42598   0.39858   23.475
 6001.00    0.45598   0.39805   21.931
 6002.00    0.48386   0.39723   20.667
 6003.00    0.49832   0.39666   20.067
 6004.00    0.49435   0.39602   20.229
 6005.00    0.47348   0.39528   21.120
 6006.00    0.44233   0.39494   22.608
 6007.00    0.41018   0.39457   24.379
 6008.00    0.38581   0.39429   25.919
 6009.00    0.37400   0.39430   26.738
 6010.00    0.37662   0.39420   26.552
 6011.00    0.39372   0.39409   25.399
 6012.00    0.42031   0.39398   23.792
 6013.00    0.44440   0.39369   22.502
 6014.00    0.45718   0.39341   21.873
 6015.00    0.46046   0.39302   21.718
 6016.00    0.46203   0.39250   21.644
 6017.00    0.46989   0.39220   21.281
 6018.00    0.47945   0.39195   20.857
 6019.00    0.47207   0.39170   21.183
 6020.00    0.44394   0.39175   22.525
 6021.00    0.41401   0.39212   24.154
 6022.00    0.39540   0.39264   25.291
 6023.00    0.38594   0.39326   25.911
 6024.00    0.37972   0.39425   26.335
 6025.00    0.37368   0.39542   26.761
 6026.00    0.37355   0.39637   26.770
 6027.00    0.39027   0.39748   25.623
 6028.00    0.42565   0.39866   23.493
 6029.00    0.47116   0.39952   21.224
 6030.00    0.51416   0.40026   19.449
 6031.00    0.54203   0.40096   18.449
 6032.00    0.54729   0.40144   18.272
 6033.00    0.53188   0.40162   18.801
 6034.00    0.51175   0.40172   19.541
 6035.00    0.50269   0.40173   19.893
 6036.00    0.49981   0.40145   20.008
 6037.00    0.48760   0.40123   20.508
 6038.00    0.45679   0.40100   21.892
 6039.00    0.41232   0.40067   24.253
 6040.00    0.37736   0.40060   26.500
 6041.00    0.36887   0.40050   27.110
 6042.00    0.37695   0.40044   26.529
 6043.00    0.38383   0.40062   26.053
 6044.00    0.38085   0.40062   26.257
 6045.00    0.37063   0.40055   26.981
 6046.00    0.36595   0.40055   27.326
 6047.00    0.37814   0.40026   26.445
 6048.00    0.41053   0.39979   24.359
 6049.00    0.46009   0.39925   21.735
 6050.00    0.51852   0.39858   19.286
 6051.00    0.57243   0.39785   -1.000
 6052.00    0.60550   0.39711   -1.000
 6053.00    0.60600   0.39652   -1.000
 6054.00    0.57127   0.39611   -1.000
 6055.00    0.51251   0.39574   19.512
 6056.00    0.45158   0.39551   22.145
 6057.00    0.40832   0.39546   24.490
 6058.00    0.39388   0.39530   25.389
 6059.00    0.40360   0.39501   24.777
 6060.00    0.42189   0.39485   23.703
 6061.00    0.43486   0.39456   22.996
 6062.00    0.43591   0.39422   22.941
 6063.00    0.43020   0.39431   23.245
 6064.00    0.42766   0.39446   23.383
 6065.00    0.43167   0.39482   23.166
 6066.00    0.43868   0.39575   22.796
 6067.00    0.44035   0.39661   22.709
 6068.00    0.43157   0.39747   23.171
 6069.00    0.41790   0.39843   23.929
 6070.00    0.40697   0.39902   24.572
 6071.00    0.39994   0.39920   25.004
 6072.00    0.39398   0.39905   25.382
 6073.00    0.38586   0.39849   25.916
 6074.00    0.37868   0.39755   26.408
 6075.00    0.38394   0.39628   26.046
 6076.00    0.40740   0.39496   24.546
 6077.00    0.44183   0.39358   22.633
 6078.00    0.47424   0.39208   21.086
 6079.00    0.49118   0.39100   20.359
 6080.00    0.48420   0.39008   20.652
 6081.00    0.45326   0.38909   22.063
 6082.00    0.40970   0.38865   24.408
 6083.00    0.37292   0.38839   26.816
 6084.00    0.35608   0.38799   28.084
 6085.00    0.36139   0.38794   27.671
 6086.00    0.38012   0.38796   -2.000
 6087.00    0.39986   0.38796   -2.000
 6088.00    0.42077   0.38804   -2.000
 6089.00    0.45446   0.38815   -2.000
 6090.00    0.51321   0.38842   -2.000
 6091.00    0.59493   0.38868   -2.000
 6092.00    0.66276   0.38889   -2.000
 6093.00    0.67420   0.38914   -2.000
 6094.00    0.62825   0.38924   -2.000
 6095.00    0.55515   0.38914   -2.000
 6096.00    0.49295   0.38867   -2.000
 6097.00    0.46587   0.38798   21.465
 6098.00    0.46596   0.38717   21.461
 6099.00    0.47540   0.38595   21.035
 6100.00    0.48789   0.38509   20.497
 6101.00    0.49423   0.38443   20.234
 6102.00    0.47342   0.38377   21.123
 6103.00    0.42373   0.38413   23.600
 6104.00    0.37831   0.38457   26.434
 6105.00    0.36329   0.38505   27.526
 6106.00    0.37385   0.38630   26.749
 6107.00    0.38663   0.38719   25.864
 6108.00    0.37536   0.38790   26.641
 6109.00    0.34656   0.38871   28.855
 6110.00    0.33964   0.38895   29.443
 6111.00    0.36832   0.38906   27.150
 6112.00    0.40825   0.38902   24.495
 6113.00    0.43105   0.38845   23.199
 6114.00    0.42039   0.38782   23.787
 6115.00    0.38343   0.38693   26.080
 6116.00    0.34615   0.38572   28.889
 6117.00    0.33459   0.38465   29.888
 6118.00    0.36409   0.38335   27.466
 6119.00    0.42726   0.38211   23.405
 6120.00    0.49931   0.38139   20.028
 6121.00    0.55190   0.38065   -1.000
 6122.00    0.56486   0.38026   -1.000
 6123.00    0.53919   0.38049   -1.000
 6124.00    0.49138   0.38056   20.351
 6125.00    0.44265   0.38085   22.591
 6126.00    0.40905   0.38144   24.447
 6127.00    0.39225   0.38160   25.494
 6128.00    0.38420   0.38149   26.028
 6129.00    0.37330   0.38126   26.788
 6130.00    0.35233   0.38051   28.383
 6131.00    0.32471   0.37923   30.796
 6132.00    0.30548   0.37779   32.735
 6133.00    0.31686   0.37612   31.560
 6134.00    0.35961   0.37436   27.808
 6135.00    0.40308   0.37297   24.809
 6136.00    0.42486   0.37193   23.537
 6137.00    0.42832   0.37153   23.347
 6138.00    0.42482   0.37186   23.539
 6139.00    0.42309   0.37254   23.636
 6140.00    0.42191   0.37362   23.701
 6141.00    0.41393   0.37503   24.159
 6142.00    0.40644   0.37645   24.604
 6143.00    0.41760   0.37747   23.946
 6144.00    0.44658   0.37812   22.393
 6145.00    0.47403   0.37876   21.096
 6146.00    0.48392   0.37905   20.665
 6147.00    0.47008   0.37890   21.273
 6148.00    0.43820   0.37874   22.821
 6149.00    0.40365   0.37850   24.774
 6150.00    0.38653   0.37812   25.871
 6151.00    0.40059   0.37767   24.963
 6152.00    0.43858   0.37702   22.801
 6153.00    0.47939   0.37623   20.860
 6154.00    0.50094   0.37509   19.962
 6155.00    0.48987   0.37362   20.414
 6156.00    0.45005   0.37197   22.220
 6157.00    0.39734   0.36992   25.167
 6158.00    0.35251   0.36793   28.368
 6159.00    0.33219   0.36616   30.104
 6160.00    0.34155   0.36438   29.278
 6161.00    0.37309   0.36319   26.803
 6162.00    0.40800   0.36268   24.510
 6163.00    0.42855   0.36242   23.334
 6164.00    0.42661   0.36257   23.440
 6165.00    0.40746   0.36319   24.542
 6166.00    0.38768   0.36398   25.795
 6167.00    0.37752   0.36481   26.489
 6168.00    0.37374   0.36560   26.757
 6169.00    0.36386   0.36647   27.483
 6170.00    0.33633   0.36754   29.732
 6171.00    0.30710   0.36853   32.562
 6172.00    0.31018   0.36940   32.240
 6173.00    0.34643   0.37055   28.865
 6174.00    0.38625   0.37172   25.890
 6175.00    0.41203   0.37255   24.270
 6176.00    0.42326   0.37341   23.626
 6177.00    0.42452   0.37426   23.556
 6178.00    0.42043   0.37492   23.785
 6179.00    0.41152   0.37537   24.300
 6180.00    0.39637   0.37572   25.229
 6181.00    0.37612   0.37590   26.587
 6182.00    0.35399   0.37558   28.250
 6183.00    0.33373   0.37504   29.965
 6184.00    0.32068   0.37444   31.184
 6185.00    0.32228   0.37329   31.029
 6186.00    0.33979   0.37211   29.430
 6187.00    0.36155   0.37115   27.659
 6188.00    0.37739   0.37009   26.498
 6189.00    0.38960   0.36947   25.668
 6190.00    0.39955   0.36915   25.028
 6191.00    0.39922   0.36917   25.049
 6192.00    0.38333   0.36987   26.087
 6193.00    0.35663   0.37043   28.040
 6194.00    0.32887   0.37106   30.407
 6195.00    0.31063   0.37212   32.192
 6196.00    0.30734   0.37282   32.538
 6197.00    0.31709   0.37331   31.537
 6198.00    0.33305   0.37380   30.026
 6199.00    0.34665   0.37417   28.848
 6200.00    0.35496   0.37462   28.172
 6201.00    0.36132   0.37497   27.676
 6202.00    0.36993   0.37520   27.032
 6203.00    0.38284   0.37555   26.121
 6204.00    0.39678   0.37567   25.203
 6205.00    0.40527   0.37546   24.675
 6206.00    0.40479   0.37505   24.704
 6207.00    0.39691   0.37417   25.194
 6208.00    0.38931   0.37305   25.686
 6209.00    0.38757   0.37166   25.802
 6210.00    0.38307   0.36993   26.105
 6211.00    0.36575   0.36830   27.341
 6212.00    0.34293   0.36666   29.160
 6213.00    0.32978   0.36510   30.323
 6214.00    0.33488   0.36400   29.862
 6215.00    0.35377   0.36311   28.267
 6216.00    0.36649   0.36254   27.286
 6217.00    0.35910   0.36244   27.847
 6218.00    0.34017   0.36241   29.397
 6219.00    0.32339   0.36265   30.922
 6220.00    0.31371   0.36310   31.877
 6221.00    0.30683   0.36323   32.591
 6222.00    0.29245   0.36342   34.194
 6223.00    0.26956   0.36351   -1.000
 6224.00    0.25115   0.36317   -1.000
 6225.00    0.24706   0.36284   -1.000
 6226.00    0.25734   0.36223   -1.000
 6227.00    0.27930   0.36135   35.804
 6228.00    0.30831   0.36083   32.434
 6229.00    0.33055   0.36026   30.253
 6230.00    0.32876   0.35986   30.417
 6231.00    0.30584   0.36005   32.697
 6232.00    0.28381   0.36007   35.235
 6233.00    0.28361   0.36025   35.260
 6234.00    0.31299   0.36065   31.950
 6235.00    0.35317   0.36064   28.315
 6236.00    0.37501   0.36043   26.666
 6237.00    0.37334   0.35996   26.785
 6238.00    0.36300   0.35927   27.548
 6239.00    0.36149   0.35838   27.663
 6240.00    0.37586   0.35742   26.606
 6241.00    0.38994   0.35673   25.645
 6242.00    0.38233   0.35600   26.155
 6243.00    0.34943   0.35550   28.618
 6244.00    0.30510   0.35542   32.777
 6245.00    0.27548   0.35518   36.300
 6246.00    0.27722   0.35499   36.073
 6247.00    0.30108   0.35509   33.214
 6248.00    0.33011   0.35484   30.293
 6249.00    0.35415   0.35432   28.236
 6250.00    0.36889   0.35391   27.108
 6251.00    0.37449   0.35318   26.703
 6252.00    0.37471   0.35239   26.687
 6253.00    0.37576   0.35183   26.613
 6254.00    0.38314   0.35138   26.100
 6255.00    0.39904   0.35126   25.060
 6256.00    0.41778   0.35158   23.936
 6257.00    0.42697   0.35236   23.421
 6258.00    0.41784   0.35336   23.933
 6259.00    0.39143   0.35457   25.548
 6260.00    0.36553   0.35593   27.358
 6261.00    0.36481   0.35720   27.412
 6262.00    0.39143   0.35848   25.547
 6263.00    0.42691   0.35954   23.424
 6264.00    0.45284   0.36019   22.083
 6265.00    0.45828   0.36089   21.821
 6266.00    0.44438   0.36148   22.503
 6267.00    0.41824   0.36168   23.910
 6268.00    0.38214   0.36197   26.168
 6269.00    0.33999   0.36241   29.412
 6270.00    0.30751   0.36270   32.519
 6271.00    0.29757   0.36285   33.606
 6272.00    0.30263   0.36304   33.044
 6273.00    0.31001   0.36315   32.257
 6274.00    0.31855   0.36296   31.393
 6275.00    0.32802   0.36288   30.486
 6276.00    0.33027   0.36256   30.278
 6277.00    0.32322   0.36213   30.939
 6278.00    0.31915   0.36204   31.333
 6279.00    0.32572   0.36176   30.701
 6280.00    0.33640   0.36179    0.000
 6281.00    0.34960   0.36215    0.000
 6282.00    0.37535   0.36240    0.000
 6283.00    0.41415   0.36301    0.000
 6284.00    0.44955   0.36350    0.000
 6285.00    0.46071   0.36385    0.000
 6286.00    0.43450   0.36428    0.000
 6287.00    0.38772   0.36419    0.000
 6288.00    0.35964   0.36400    0.000
 6289.00    0.36651   0.36365    0.000
 6290.00    0.39569   0.36290    0.000
 6291.00    0.42667   0.36221    0.000
 6292.00    0.44185   0.36124    0.000
 6293.00    0.43733   0.36020    0.000
 6294.00    0.42231   0.35936    0.000
 6295.00    0.41295   0.35822    0.000
 6296.00    0.42209   0.35724    0.000
 6297.00    0.44510   0.35661    0.000
 6298.00    0.46715   0.35594    0.000
 6299.00    0.47668   0.35550    0.000
 6300.00    0.46858   0.35540    0.000
 6301.00    0.44552   0.35560    0.000
 6302.00    0.41354   0.35611    0.000
 6303.00    0.37761   0.35670    0.000
 6304.00    0.34262   0.35723    0.000
 6305.00    0.31428   0.35786    0.000
 6306.00    0.29643   0.35836    0.000
 6307.00    0.28882   0.35850    0.000
 6308.00    0.28741   0.35821    0.000
 6309.00    0.28584   0.35760    0.000
 6310.00    0.28282   0.35688    0.000
 6311.00    0.28511   0.35578    0.000
 6312.00    0.30155   0.35448    0.000
 6313.00    0.33759   0.35336    0.000
 6314.00    0.38585   0.35234    0.000
 6315.00    0.42734   0.35170    0.000
 6316.00    0.44970   0.35133    0.000
 6317.00    0.45080   0.35117    0.000
 6318.00    0.42970   0.35170    0.000
 6319.00    0.38816   0.35255    0.000
 6320.00    0.34186   0.35342    0.000
 6321.00    0.31258   0.35453   31.992
 6322.00    0.30474   0.35571   32.815
 6323.00    0.30780   0.35684   32.489
 6324.00    0.31126   0.35760   32.128
 6325.00    0.31097   0.35806   32.158
 6326.00    0.31411   0.35843   31.836
 6327.00    0.32962   0.35841   30.338
 6328.00    0.35402   0.35807   28.247
 6329.00    0.37597   0.35740   26.598
 6330.00    0.38484   0.35652   25.985
 6331.00    0.37830   0.35564   26.434
 6332.00    0.36775   0.35465   27.192
 6333.00    0.36380   0.35349   27.487
 6334.00    0.36423   0.35255   27.455
 6335.00    0.36690   0.35192   27.255
 6336.00    0.37836   0.35130   26.430
 6337.00    0.39797   0.35084   25.128
 6338.00    0.40929   0.35054   24.432
 6339.00    0.39489   0.35041   25.324
 6340.00    0.34799   0.35040   28.737
 6341.00    0.28556   0.35013   35.019
 6342.00    0.24570   0.34999   -1.000
 6343.00    0.25110   0.35004   -1.000
 6344.00    0.29684   0.34998   33.689
 6345.00    0.36388   0.35011   27.482
 6346.00    0.42632   0.35034   23.456
 6347.00    0.45802   0.35079   21.833
 6348.00    0.44346   0.35125   22.550
 6349.00    0.39977   0.35139   25.015
 6350.00    0.36499   0.35163   27.398
 6351.00    0.35872   0.35162   27.877
 6352.00    0.37446   0.35106   26.705
 6353.00    0.38394   0.35031   26.045
 6354.00    0.36087   0.34938   27.711
 6355.00    0.31766   0.34821   31.481
 6356.00    0.29012   0.34690   34.468
 6357.00    0.30578   0.34563   32.704
 6358.00    0.36670   0.34461   27.270
 6359.00    0.43700   0.34385   22.883
 6360.00    0.47711   0.34329   20.960
 6361.00    0.48041   0.34308   -1.000
 6362.00    0.46019   0.34333   21.730
 6363.00    0.43367   0.34394   23.059
 6364.00    0.41583   0.34457   24.048
 6365.00    0.41503   0.34541   24.095
 6366.00    0.42963   0.34656   23.276
 6367.00    0.44750   0.34756   22.346
 6368.00    0.45560   0.34851   21.949
 6369.00    0.44652   0.34944   22.396
 6370.00    0.42273   0.35027   23.656
 6371.00    0.39509   0.35114   25.310
 6372.00    0.36801   0.35174   27.173
 6373.00    0.33761   0.35215   29.620
 6374.00    0.30856   0.35253   32.409
 6375.00    0.29422   0.35271   33.988
 6376.00    0.29766   0.35269   33.595
 6377.00    0.30909   0.35245   32.353
 6378.00    0.31527   0.35214   31.719
 6379.00    0.30754   0.35191   32.516
 6380.00    0.29348   0.35164   34.074
 6381.00    0.29003   0.35152   34.479
 6382.00    0.30475   0.35142   32.814
 6383.00    0.33107   0.35136   30.205
 6384.00    0.34770   0.35150   28.760
 6385.00    0.33622   0.35154   29.742
 6386.00    0.30545   0.35143   32.739
 6387.00    0.27820   0.35115   35.946
 6388.00    0.26992   0.35083   37.047
 6389.00    0.28081   0.35049   35.612
 6390.00    0.29245   0.34985   34.193
 6391.00    0.29195   0.34922   34.252
 6392.00    0.29147   0.34870   34.309
 6393.00    0.30302   0.34814   33.001
 6394.00    0.31914   0.34771   31.334
 6395.00    0.32838   0.34742   30.453
 6396.00    0.32667   0.34723   30.612
 6397.00    0.31588   0.34721   31.658
 6398.00    0.30140   0.34729   33.179
 6399.00    0.28705   0.34739   34.837
 6400.00    0.27318   0.34765   36.606
 6401.00    0.25989   0.34787   -1.000
 6402.00    0.24800   0.34782   -1.000
 6403.00    0.23734   0.34799   -1.000
 6404.00    0.22661   0.34810   -1.000
 6405.00    0.21519   0.34770   -1.000
 6406.00    0.20372   0.34741   -1.000
 6407.00    0.19378   0.34707   -1.000
 6408.00    0.18748   0.34658   -1.000
 6409.00    0.18633   0.34630   -1.000
 6410.00    0.19188   0.34590   -1.000
 6411.00    0.20727   0.34568   -1.000
 6412.00    0.23494   0.34572   -1.000
 6413.00    0.27217   0.34539   36.742
 6414.00    0.30998   0.34516   32.260
 6415.00    0.33338   0.34515   29.995
 6416.00    0.33241   0.34506   30.084
 6417.00    0.31508   0.34513   31.738
 6418.00    0.29801   0.34528   33.556
 6419.00    0.29400   0.34554   34.013
 6420.00    0.30766   0.34616   32.503
 6421.00    0.33282   0.34686   30.047
 6422.00    0.35541   0.34747   28.137
 6423.00    0.35815   0.34805   27.921
 6424.00    0.33544   0.34842   29.812
 6425.00    0.30115   0.34860   33.206
 6426.00    0.27441   0.34854   36.442
 6427.00    0.26897   0.34802   37.179
 6428.00    0.28523   0.34740   35.059
 6429.00    0.30983   0.34678   32.276
 6430.00    0.33033   0.34615   30.273
 6431.00    0.34117   0.34570   29.311
 6432.00    0.34067   0.34524   29.354
 6433.00    0.32983   0.34487   30.319
 6434.00    0.31238   0.34489   32.013
 6435.00    0.29452   0.34500   33.954
 6436.00    0.28405   0.34508   35.205
 6437.00    0.28627   0.34542   34.932
 6438.00    0.29540   0.34579   33.852
 6439.00    0.29942   0.34634   33.398
 6440.00    0.29370   0.34691   34.048
 6441.00    0.28054   0.34717   35.645
 6442.00    0.26355   0.34746   37.944
 6443.00    0.24685   0.34742   -1.000
 6444.00    0.23535   0.34685   -1.000
 6445.00    0.23345   0.34614   -1.000
 6446.00    0.24318   0.34499   -1.000
 6447.00    0.26141   0.34366   38.254
 6448.00    0.27817   0.34246   35.949
 6449.00    0.28811   0.34124   34.709
 6450.00    0.29957   0.34031   33.382
 6451.00    0.31695   0.33958   31.551
 6452.00    0.32839   0.33900   30.451
 6453.00    0.32548   0.33879   30.724
 6454.00    0.31625   0.33882   31.621
 6455.00    0.31515   0.33889   31.731
 6456.00    0.33303   0.33901   30.027
 6457.00    0.36021   0.33918   27.762
 6458.00    0.36708   0.33933   27.242
 6459.00    0.34483   0.33946   29.000
 6460.00    0.31460   0.33971   31.786
 6461.00    0.29277   0.34001   34.156
 6462.00    0.28037   0.34027   35.668
 6463.00    0.27361   0.34069   36.548
 6464.00    0.26894   0.34101   37.183
 6465.00    0.26661   0.34135   37.508
 6466.00    0.26744   0.34183   37.391
 6467.00    0.26305   0.34218   38.015
 6468.00    0.24313   0.34232   -1.000
 6469.00    0.21443   0.34235   -1.000
 6470.00    0.19478   0.34240   -1.000
 6471.00    0.19558   0.34232   -1.000
 6472.00    0.21604   0.34225   -1.000
 6473.00    0.24024   0.34209   -1.000
 6474.00    0.25104   0.34188   -1.000
 6475.00    0.24812   0.34161   -1.000
 6476.00    0.24161   0.34122   -1.000
 6477.00    0.24186   0.34074   -1.000
 6478.00    0.25267   0.34012   -1.000
 6479.00    0.26622   0.33954   37.563
 6480.00    0.26725   0.33893   37.418
 6481.00    0.24073   0.33840   -1.000
 6482.00    0.19994   0.33800   -1.000
 6483.00    0.19573   0.33752   -1.000
 6484.00    0.25128   0.33695   -1.000
 6485.00    0.33059   0.33622   30.249
 6486.00    0.38763   0.33523   25.798
 6487.00    0.39545   0.33378   25.288
 6488.00    0.35403   0.33177   28.246
 6489.00    0.28974   0.32943   34.514
 6490.00    0.24095   0.32686   -1.000
 6491.00    0.23961   0.32413   -1.000
 6492.00    0.27157   0.32173   36.823
 6493.00    0.28740   0.31970   34.795
 6494.00    0.26890   0.31846   37.188
 6495.00    0.23635   0.31825   -1.000
 6496.00    0.21897   0.31857   -1.000
 6497.00    0.23579   0.31985   -1.000
 6498.00    0.27279   0.32178   36.658
 6499.00    0.29993   0.32397   33.341
 6500.00    0.30909   0.32652   32.353
 6501.00    0.30921   0.32875   32.341
 6502.00    0.30834   0.33076   32.432
 6503.00    0.30955   0.33255   32.305
 6504.00    0.30937   0.33387   32.324
 6505.00    0.30147   0.33481   33.171
 6506.00    0.28151   0.33531   35.523
 6507.00    0.25344   0.33551   39.457
 6508.00    0.23333   0.33542   -1.000
 6509.00    0.23358   0.33505   -1.000
 6510.00    0.25075   0.33445   -1.000
 6511.00    0.27592   0.33367   36.243
 6512.00    0.30252   0.33283   33.055
 6513.00    0.32348   0.33193   30.914
 6514.00    0.33063   0.33113   30.245
 6515.00    0.32278   0.33044   30.981
 6516.00    0.30809   0.32996   32.458
 6517.00    0.29517   0.32973   33.879
 6518.00    0.28837   0.32964   34.678
 6519.00    0.28610   0.32977   34.952
 6520.00    0.28230   0.32988   35.423
 6521.00    0.27307   0.32998   36.621
 6522.00    0.25919   0.33004   38.582
 6523.00    0.24652   0.32991   -1.000
 6524.00    0.24413   0.32963   -1.000
 6525.00    0.25940   0.32916   38.550
 6526.00    0.29220   0.32863   34.223
 6527.00    0.32578   0.32811   30.696
 6528.00    0.33682   0.32750    0.000
 6529.00    0.31658   0.32689    0.000
 6530.00    0.27410   0.32631    0.000
 6531.00    0.23390   0.32579    0.000
 6532.00    0.21930   0.32540    0.000
 6533.00    0.23141   0.32500    0.000
 6534.00    0.25727   0.32450    0.000
 6535.00    0.28297   0.32397    0.000
 6536.00    0.30211   0.32337    0.000
 6537.00    0.32110   0.32263    0.000
 6538.00    0.34405   0.32168    0.000
 6539.00    0.36125   0.32037    0.000
 6540.00    0.36169   0.31882    0.000
 6541.00    0.34315   0.31716    0.000
 6542.00    0.31315   0.31526    0.000
 6543.00    0.28684   0.31316    0.000
 6544.00    0.27454   0.31099    0.000
 6545.00    0.27621   0.30876    0.000
 6546.00    0.28685   0.30655    0.000
 6547.00    0.29991   0.30417    0.000
 6548.00    0.30997   0.30156    0.000
 6549.00    0.31430   0.29868    0.000
 6550.00    0.31433   0.29552    0.000
 6551.00    0.31270   0.29190    0.000
 6552.00    0.30374   0.28769    0.000
 6553.00    0.27739   0.28293    0.000
 6554.00    0.23572   0.27748    0.000
 6555.00    0.19678   0.27157    0.000
 6556.00    0.19328   0.26532    0.000
 6557.00    0.26390   0.25896    0.000
 6558.00    0.43826   0.25308    0.000
 6559.00    0.73462   0.24764    0.000
 6560.00    1.15900   0.24346    0.000
 6561.00    1.67630   0.24136    0.000
 6562.00    2.17586   0.24115    0.000
 6563.00    2.51740   0.24302    0.000
 6564.00    2.59279   0.24634    0.000
 6565.00    2.36389   0.25088    0.000
 6566.00    1.89045   0.25660    0.000
 6567.00    1.30624   0.26270    0.000
 6568.00    0.78384   0.26862    0.000
 6569.00    0.44143   0.27407    0.000
 6570.00    0.28233   0.27899    0.000
 6571.00    0.24354   0.28335    0.000
 6572.00    0.24079   0.28727    0.000
 6573.00    0.23003   0.29083    0.000
 6574.00    0.22785   0.29407    0.000
 6575.00    0.25214   0.29696    0.000
 6576.00    0.29534   0.29963    0.000
 6577.00    0.33378   0.30198    0.000
 6578.00    0.34240   0.30406    0.000
 6579.00    0.32942   0.30602    0.000
 6580.00    0.33199   0.30759    0.000
 6581.00    0.36891   0.30902    0.000
 6582.00    0.43118   0.31018    0.000
 6583.00    0.49511   0.31110    0.000
 6584.00    0.53532   0.31189    0.000
 6585.00    0.54456   0.31245    0.000
 6586.00    0.52868   0.31287    0.000
 6587.00    0.49001   0.31303    0.000
 6588.00    0.43285   0.31308    0.000
 6589.00    0.37632   0.31291    0.000
 6590.00    0.34079   0.31262    0.000
 6591.00    0.32699   0.31255    0.000
 6592.00    0.32174   0.31259    0.000
 6593.00    0.30882   0.31289    0.000
 6594.00    0.28012   0.31338    0.000
 6595.00    0.24449   0.31391    0.000
 6596.00    0.21795   0.31476    0.000
 6597.00    0.21347   0.31570    0.000
 6598.00    0.23434   0.31666    0.000
 6599.00    0.27157   0.31746    0.000
 6600.00    0.31510   0.31800    0.000
 6601.00    0.35985   0.31837    0.000
 6602.00    0.39832   0.31851    0.000
 6603.00    0.41948   0.31859    0.000
 6604.00    0.42401   0.31851    0.000
 6605.00    0.42701   0.31836    0.000
 6606.00    0.43880   0.31821    0.000
 6607.00    0.45696   0.31821    0.000
 6608.00    0.46730   0.31841    0.000
 6609.00    0.45060   0.31877   -1.000
 6610.00    0.40097   0.31917   24.940
 6611.00    0.33091   0.31963   30.220
 6612.00    0.26920   0.32026   37.147
 6613.00    0.24354   0.32087   41.061
 6614.00    0.24576   0.32145   40.691
 6615.00    0.24819   0.32188   40.292
 6616.00    0.24791   0.32213   40.337
 6617.00    0.25748   0.32237   38.838
 6618.00    0.27700   0.32240   36.101
 6619.00    0.29560   0.32227   33.830
 6620.00    0.30059   0.32202   33.268
 6621.00    0.29049   0.32153   34.425
 6622.00    0.28620   0.32105   34.940
 6623.00    0.30096   0.32053   33.227
 6624.00    0.31189   0.31995   32.063
 6625.00    0.29619   0.31939   33.762
 6626.00    0.26339   0.31872   37.967
 6627.00    0.23873   0.31809   -1.000
 6628.00    0.24380   0.31752   41.017
 6629.00    0.26675   0.31697   37.488
 6630.00    0.25578   0.31644   39.096
 6631.00    0.18896   0.31597   -1.000
 6632.00    0.10701   0.31572   -1.000
 6633.00    0.07801   0.31564   -1.000
 6634.00    0.16240   0.31574   -1.000
 6635.00    0.34670   0.31588   28.844
 6636.00    0.54182   0.31607   -1.000
 6637.00    0.67258   0.31632   -1.000
 6638.00    0.70682   0.31664   -1.000
 6639.00    0.64450   0.31689   -1.000
 6640.00    0.51771   0.31695   -1.000
 6641.00    0.39835   0.31708   25.104
 6642.00    0.35855   0.31713   27.890
 6643.00    0.38265   0.31728   26.134
 6644.00    0.40109   0.31747   24.932
 6645.00    0.39059   0.31754   25.602
 6646.00    0.36764   0.31776   27.200
 6647.00    0.34649   0.31793   28.861
 6648.00    0.33165   0.31807   30.153
 6649.00    0.31797   0.31822   31.450
 6650.00    0.30302   0.31824   33.001
 6651.00    0.30015   0.31823   33.316
 6652.00    0.31851   0.31814   31.397
 6653.00    0.34303   0.31792   29.152
 6654.00    0.35697   0.31764   28.013
 6655.00    0.36266   0.31723   27.574
 6656.00    0.37248   0.31673   26.847
 6657.00    0.39844   0.31617   25.098
 6658.00    0.43759   0.31550   22.853
 6659.00    0.46791   0.31483   -1.000
 6660.00    0.47805   0.31411   -1.000
 6661.00    0.47911   0.31357   -1.000
 6662.00    0.47860   0.31322   -1.000
 6663.00    0.47165   0.31296   -1.000
 6664.00    0.45939   0.31299   -1.000
 6665.00    0.45167   0.31306   -1.000
 6666.00    0.44853   0.31341   -1.000
 6667.00    0.43763   0.31387   22.850
 6668.00    0.40738   0.31424   24.547
 6669.00    0.36035   0.31457   27.751
 6670.00    0.33534   0.31462   29.820
 6671.00    0.37853   0.31463   26.418
 6672.00    0.46806   0.31447   -1.000
 6673.00    0.53446   0.31407   -1.000
 6674.00    0.53297   0.31359   -1.000
 6675.00    0.46405   0.31292   -1.000
 6676.00    0.38075   0.31260   26.264
 6677.00    0.34153   0.31248   29.280
 6678.00    0.34436   0.31246   29.040
 6679.00    0.35680   0.31277   28.027
 6680.00    0.36347   0.31307   27.513
 6681.00    0.36419   0.31368   27.458
 6682.00    0.36590   0.31431   27.330
 6683.00    0.37953   0.31488   26.349
 6684.00    0.41538   0.31540   24.074
 6685.00    0.46353   0.31574   -1.000
 6686.00    0.48525   0.31594   -1.000
 6687.00    0.45824   0.31597   -1.000
 6688.00    0.40205   0.31588   24.872
 6689.00    0.34634   0.31556   28.873
 6690.00    0.31197   0.31528   32.054
 6691.00    0.31405   0.31477   31.842
 6692.00    0.35957   0.31428   27.811
 6693.00    0.43008   0.31372   23.252
 6694.00    0.48502   0.31317   -1.000
 6695.00    0.49948   0.31279   -1.000
 6696.00    0.47574   0.31239    0.000
 6697.00    0.43482   0.31218    0.000
 6698.00    0.40384   0.31199    0.000
 6699.00    0.39070   0.31186    0.000
 6700.00    0.38471   0.31174    0.000
 6701.00    0.37370   0.31161    0.000
 6702.00    0.35212   0.31147    0.000
 6703.00    0.32849   0.31139    0.000
 6704.00    0.31845   0.31116    0.000
 6705.00    0.33104   0.31090    0.000
 6706.00    0.36820   0.31059    0.000
 6707.00    0.42708   0.31013    0.000
 6708.00    0.49533   0.30970    0.000
 6709.00    0.54651   0.30911    0.000
 6710.00    0.55853   0.30845    0.000
 6711.00    0.53403   0.30780    0.000
 6712.00    0.50013   0.30707    0.000
 6713.00    0.50154   0.30642    0.000
 6714.00    0.56031   0.30583    0.000
 6715.00    0.65020   0.30546    0.000
 6716.00    0.73810   0.30542    0.000
 6717.00    0.81141   0.30555    0.000
 6718.00    0.86405   0.30582    0.000
 6719.00    0.88561   0.30621    0.000
 6720.00    0.85296   0.30675    0.000
 6721.00    0.74056   0.30737    0.000
 6722.00    0.57959   0.30795    0.000
 6723.00    0.45456   0.30838    0.000
 6724.00    0.39866   0.30878    0.000
 6725.00    0.38135   0.30907    0.000
 6726.00    0.39159   0.30933    0.000
 6727.00    0.44280   0.30949    0.000
 6728.00    0.51500   0.30956    0.000
 6729.00    0.56491   0.30955    0.000
 6730.00    0.58445   0.30942    0.000
 6731.00    0.59178   0.30922    0.000
 6732.00    0.58723   0.30897    0.000
 6733.00    0.55878   0.30869    0.000
 6734.00    0.50612   0.30830    0.000
 6735.00    0.44013   0.30783    0.000
 6736.00    0.37587   0.30737    0.000
 6737.00    0.32688   0.30696    0.000
 6738.00    0.29904   0.30660    0.000
 6739.00    0.28569   0.30626    0.000
 6740.00    0.26586   0.30586    0.000
 6741.00    0.23135   0.30557    0.000
 6742.00    0.20868   0.30532    0.000
 6743.00    0.23008   0.30507    0.000
 6744.00    0.30723   0.30489    0.000
 6745.00    0.42061   0.30462    0.000
 6746.00    0.52061   0.30443    0.000
 6747.00    0.56912   0.30428    0.000
 6748.00    0.56245   0.30420    0.000
 6749.00    0.52057   0.30425    0.000
 6750.00    0.47422   0.30427    0.000
 6751.00    0.43698   0.30450    0.000
 6752.00    0.40177   0.30477    0.000
 6753.00    0.37272   0.30512   26.829
 6754.00    0.36738   0.30555   27.220
 6755.00    0.38583   0.30604   25.918
 6756.00    0.40914   0.30654   24.442
 6757.00    0.42251   0.30698   23.668
 6758.00    0.42111   0.30732   23.747
 6759.00    0.40811   0.30747   24.503
 6760.00    0.38911   0.30757   25.700
 6761.00    0.36261   0.30749   27.578
 6762.00    0.32868   0.30728   30.425
 6763.00    0.30571   0.30693   32.711
 6764.00    0.31033   0.30644   32.224
 6765.00    0.32520   0.30603   30.750
 6766.00    0.32183   0.30571   31.073
 6767.00    0.29505   0.30549   33.892
 6768.00    0.26233   0.30534   38.120
 6769.00    0.25480   0.30534   39.246
 6770.00    0.28263   0.30551   35.381
 6771.00    0.30960   0.30583   32.300
 6772.00    0.30728   0.30620   32.544
 6773.00    0.29487   0.30654   33.913
 6774.00    0.29608   0.30680   33.775
 6775.00    0.31043   0.30688   32.213
 6776.00    0.33609   0.30692   29.754
 6777.00    0.37985   0.30672   26.326
 6778.00    0.43288   0.30634   -1.000
 6779.00    0.46657   0.30583   -1.000
 6780.00    0.47034   0.30517   -1.000
 6781.00    0.45936   0.30451   -1.000
 6782.00    0.43962   0.30396   -1.000
 6783.00    0.40213   0.30347   24.867
 6784.00    0.34760   0.30316   28.769
 6785.00    0.29039   0.30302   34.436
 6786.00    0.24669   0.30290   40.537
 6787.00    0.22877   0.30294   -1.000
 6788.00    0.23982   0.30295   41.697
 6789.00    0.27096   0.30303   36.906
 6790.00    0.29845   0.30301   33.507
 6791.00    0.30245   0.30293   33.064
 6792.00    0.29841   0.30287   33.511
 6793.00    0.30922   0.30275   32.340
 6794.00    0.31789   0.30267   31.457
 6795.00    0.29739   0.30258   33.626
 6796.00    0.25634   0.30254   39.011
 6797.00    0.22329   0.30255   -1.000
 6798.00    0.22233   0.30256   -1.000
 6799.00    0.26509   0.30261   37.723
 6800.00    0.34477   0.30260   29.005
 6801.00    0.42924   0.30254   -1.000
 6802.00    0.46298   0.30250   -1.000
 6803.00    0.41890   0.30242   23.872
 6804.00    0.32905   0.30225   30.390
 6805.00    0.24719   0.30212   40.454
 6806.00    0.21883   0.30194   -1.000
 6807.00    0.25167   0.30172   39.734
 6808.00    0.30985   0.30163   32.273
 6809.00    0.35421   0.30151   28.232
 6810.00    0.36392   0.30148   27.478
 6811.00    0.34724   0.30141   28.799
 6812.00    0.33524   0.30137   29.829
 6813.00    0.34935   0.30151   28.625
 6814.00    0.39118   0.30169   25.563
 6815.00    0.44521   0.30186   -1.000
 6816.00    0.48485   0.30206   -1.000
 6817.00    0.48511   0.30218   -1.000
 6818.00    0.43440   0.30240   -1.000
 6819.00    0.35113   0.30262   28.479
 6820.00    0.27156   0.30277   36.824
 6821.00    0.22205   0.30288   -1.000
 6822.00    0.20652   0.30285   -1.000
 6823.00    0.19721   0.30281   -1.000
 6824.00    0.16899   0.30266   -1.000
 6825.00    0.14300   0.30248   -1.000
 6826.00    0.15382   0.30232   -1.000
 6827.00    0.20676   0.30221   -1.000
 6828.00    0.27868   0.30204   35.884
 6829.00    0.32770   0.30187   30.516
 6830.00    0.33290   0.30163   30.039
 6831.00    0.32032   0.30139   31.219
 6832.00    0.31622   0.30107   31.623
 6833.00    0.31656   0.30056   31.589
 6834.00    0.31635   0.29998   31.611
 6835.00    0.32467   0.29925   30.801
 6836.00    0.34192   0.29841   29.246
 6837.00    0.35291   0.29764   28.336
 6838.00    0.35200   0.29690   28.409
 6839.00    0.34939   0.29633   28.621
 6840.00    0.35018   0.29604   28.557
 6841.00    0.35615   0.29599   28.078
 6842.00    0.39770   0.29620   25.145
 6843.00    0.48890   0.29654   -1.000
 6844.00    0.47873   0.29701   -1.000
 6845.00    0.19990   0.29754   -1.000
 6846.00   -0.08797   0.29801   -2.000
 6847.00    0.03479   0.29843   -1.000
 6848.00    0.39471   0.29863   25.335
 6849.00    0.51386   0.29868   -1.000
 6850.00    0.38866   0.29855   25.729
 6851.00    0.29643   0.29822   33.735
 6852.00    0.29425   0.29768   33.985
 6853.00    0.30200   0.29720   33.113
 6854.00    0.30821   0.29678   32.445
 6855.00    0.33009   0.29631   30.295
 6856.00    0.34180   0.29599   29.257
 6857.00    0.31060   0.29570   32.196
 6858.00    0.23881   0.29546   41.874
 6859.00    0.15598   0.29533   -1.000
 6860.00    0.10448   0.29535   -1.000
 6861.00    0.10564   0.29552   -1.000
 6862.00    0.14059   0.29554   -1.000
 6863.00    0.18068   0.29553   -1.000
 6864.00    0.20877   0.29550   -1.000
 6865.00    0.22574   0.29538   44.299
 6866.00    0.24688   0.29537   40.506
 6867.00    0.27232   0.29536   36.722
 6868.00    0.28183   0.29534   35.482
 6869.00    0.26772   0.29517   37.353
 6870.00    0.24248   0.29511   41.240
 6871.00    0.22006   0.29509   -1.000
 6872.00    0.21295   0.29500   -1.000
 6873.00    0.24199   0.29502   41.325
 6874.00    0.31459   0.29500   31.787
 6875.00    0.36777   0.29500   27.191
 6876.00    0.32977   0.29489   30.324
 6877.00    0.27235   0.29481   36.717
 6878.00    0.31626   0.29476   31.620
 6879.00    0.41063   0.29467   24.353
 6880.00    0.43175   0.29472   -1.000
 6881.00    0.39168   0.29488   25.531
 6882.00    0.36653   0.29513   27.283
 6883.00    0.36158   0.29548   27.656
 6884.00    0.35223   0.29581   28.391
 6885.00    0.34859   0.29642   28.687
 6886.00    0.36824   0.29689   27.156
 6887.00    0.40356   0.29740   24.780
 6888.00    0.43336   0.29795   -1.000
 6889.00    0.43716   0.29830   -1.000
 6890.00    0.40924   0.29856   24.436
 6891.00    0.36570   0.29875   27.345
 6892.00    0.32795   0.29881   30.493
 6893.00    0.30985   0.29885   32.274
 6894.00    0.30710   0.29879   32.563
 6895.00    0.30148   0.29883   33.170
 6896.00    0.30466   0.29882   32.823
 6897.00    0.35578   0.29869   28.107
 6898.00    0.43242   0.29877   -1.000
 6899.00    0.45382   0.29874   -1.000
 6900.00    0.41119   0.29880   24.320
 6901.00    0.37249   0.29880   26.847
 6902.00    0.36612   0.29880   27.313
 6903.00    0.36865   0.29881   27.126
 6904.00    0.36078   0.29875   27.718
 6905.00    0.33994   0.29862   29.417
 6906.00    0.31576   0.29847   31.670
 6907.00    0.30454   0.29814   32.836
 6908.00    0.32074   0.29784   31.178
 6909.00    0.36652   0.29736   27.284
 6910.00    0.41920   0.29693   23.855
 6911.00    0.44956   0.29645   -1.000
 6912.00    0.44837   0.29598   -1.000
 6913.00    0.41743   0.29570   23.956
 6914.00    0.35748   0.29534   27.973
 6915.00    0.29246   0.29521   34.192
 6916.00    0.28518   0.29503   35.065
 6917.00    0.34520   0.29500   28.969
 6918.00    0.36880   0.29490   27.115
 6919.00    0.30000   0.29483   33.333
 6920.00    0.22881   0.29468   43.705
 6921.00    0.22564   0.29445   44.317
 6922.00    0.24951   0.29420   40.079
 6923.00    0.25283   0.29395   39.552
 6924.00    0.23573   0.29379   42.421
 6925.00    0.21298   0.29360   -2.000
 6926.00    0.19658   0.29350   -2.000
 6927.00    0.19438   0.29337   -2.000
 6928.00    0.20905   0.29336   -2.000
 6929.00    0.23636   0.29334   -2.000
 6930.00    0.26638   0.29342   -2.000
 6931.00    0.28876   0.29350   -2.000
 6932.00    0.29487   0.29368   -2.000
 6933.00    0.27908   0.29377   -2.000
 6934.00    0.24406   0.29387   -2.000
 6935.00    0.21063   0.29389   -2.000
 6936.00    0.20355   0.29396   -2.000
 6937.00    0.22233   0.29389   -2.000
 6938.00    0.25325   0.29378   -2.000
 6939.00    0.29571   0.29358   -2.000
 6940.00    0.34475   0.29320   -2.000
 6941.00    0.36445   0.29287   -2.000
 6942.00    0.32537   0.29236   -2.000
 6943.00    0.24984   0.29208   -2.000
 6944.00    0.18003   0.29175   -2.000
 6945.00    0.13992   0.29149   -2.000
 6946.00    0.13201   0.29130   -2.000
 6947.00    0.13905   0.29109   -2.000
 6948.00    0.13650   0.29100   -2.000
 6949.00    0.10551   0.29092   -2.000
 6950.00    0.05701   0.29100   -2.000
 6951.00    0.03556   0.29110   -2.000
 6952.00    0.05738   0.29126   -2.000
 6953.00    0.09019   0.29145   -2.000
 6954.00    0.12367   0.29173   -2.000
 6955.00    0.17860   0.29194   -2.000
 6956.00    0.20623   0.29227   -2.000
 6957.00    0.12668   0.29256   -2.000
 6958.00    0.09817   0.29285   -2.000
 6959.00    0.34947   0.29311   -2.000
 6960.00    0.42889   0.29329   -2.000
 6961.00   -0.35331   0.29349   -2.000
 6962.00   -1.28040   0.29358   -2.000
 6963.00   -0.97101   0.29366   -2.000
 6964.00    0.14407   0.29369   -2.000
 6965.00    0.59725   0.29373   -2.000
 6966.00    0.32080   0.29357   -2.000
 6967.00    0.13382   0.29340   -2.000
 6968.00    0.19641   0.29302   -2.000
 6969.00    0.24147   0.29257   -2.000
 6970.00    0.23026   0.29198   -2.000
 6971.00    0.24724   0.29127   -2.000
 6972.00    0.27534   0.29043   -2.000
 6973.00    0.26817   0.28954   -2.000
 6974.00    0.24502   0.28867   -2.000
 6975.00    0.24060   0.28792   -2.000
 6976.00    0.25518   0.28740   -2.000
 6977.00    0.27736   0.28727   -2.000
 6978.00    0.30396   0.28739   -2.000
 6979.00    0.33564   0.28768   -2.000
 6980.00    0.37087   0.28821   -2.000
 6981.00    0.39342   0.28886   -2.000
 6982.00    0.37490   0.28953   -2.000
 6983.00    0.31948   0.29019   -2.000
 6984.00    0.27118   0.29079   -2.000
 6985.00    0.25454   0.29127   -2.000
 6986.00    0.25891   0.29156   -2.000
 6987.00    0.27189   0.29169   -2.000
 6988.00    0.28705   0.29183   -2.000
 6989.00    0.28999   0.29176   -2.000
 6990.00    0.26559   0.29170   -2.000
 6991.00    0.22686   0.29149   -2.000
 6992.00    0.20649   0.29129   -2.000
 6993.00    0.22187   0.29098   -2.000
 6994.00    0.26896   0.29058   -2.000
 6995.00    0.32692   0.29015   -2.000
 6996.00    0.37676   0.28958   -2.000
 6997.00    0.42857   0.28903   -2.000
 6998.00    0.49981   0.28846   -2.000
 6999.00    0.58004   0.28797   -2.000
 7000.00    0.64744   0.28753   -2.000
 7001.00    0.69386   0.28713   -2.000
 7002.00    0.71726   0.28685   -2.000
 7003.00    0.71170   0.28667   -2.000
 7004.00    0.67564   0.28657   -2.000
 7005.00    0.61809   0.28658   -2.000
 7006.00    0.54120   0.28663   -2.000
 7007.00    0.43168   0.28661   -2.000
 7008.00    0.29556   0.28654   -2.000
 7009.00    0.17633   0.28640   -2.000
 7010.00    0.12229   0.28626   -2.000
 7011.00    0.15943   0.28597   -2.000
 7012.00    0.25566   0.28567   -2.000
 7013.00    0.32685   0.28537   -2.000
 7014.00    0.33118   0.28508   -2.000
 7015.00    0.29459   0.28498   -2.000
 7016.00    0.25684   0.28488   -2.000
 7017.00    0.24636   0.28487   -2.000
 7018.00    0.26619   0.28488   -2.000
 7019.00    0.29705   0.28485   -2.000
 7020.00    0.31640   0.28488   -2.000
 7021.00    0.31103   0.28488   -2.000
 7022.00    0.29242   0.28506   -2.000
 7023.00    0.28234   0.28520   -2.000
 7024.00    0.27956   0.28536   -2.000
 7025.00    0.26649   0.28556   -2.000
 7026.00    0.23195   0.28576   -2.000
 7027.00    0.18969   0.28600   -2.000
 7028.00    0.19446   0.28622   -2.000
 7029.00    0.27474   0.28646   -2.000
 7030.00    0.35773   0.28665   -2.000
 7031.00    0.37948   0.28679   -2.000
 7032.00    0.39727   0.28692   -2.000
 7033.00    0.46459   0.28699   -2.000
 7034.00    0.52250   0.28715   -2.000
 7035.00    0.52432   0.28732   -2.000
 7036.00    0.52247   0.28761   -2.000
 7037.00    0.54363   0.28810   -2.000
 7038.00    0.52238   0.28859   -2.000
 7039.00    0.42953   0.28918   -2.000
 7040.00    0.33022   0.28969   -2.000
 7041.00    0.28816   0.29021   -2.000
 7042.00    0.31695   0.29056   -2.000
 7043.00    0.38602   0.29085   -2.000
 7044.00    0.43938   0.29107   -2.000
 7045.00    0.44909   0.29101   -2.000
 7046.00    0.42452   0.29078   -2.000
 7047.00    0.37977   0.29022   -2.000
 7048.00    0.32670   0.28949   -2.000
 7049.00    0.28438   0.28854   -2.000
 7050.00    0.27478   0.28747   -2.000
 7051.00    0.30707   0.28641   -2.000
 7052.00    0.36293   0.28532   -2.000
 7053.00    0.37840   0.28430   -2.000
 7054.00    0.30377   0.28332   -2.000
 7055.00    0.20315   0.28248   -2.000
 7056.00    0.16828   0.28171   -2.000
 7057.00    0.17718   0.28112   -2.000
 7058.00    0.17219   0.28064   -2.000
 7059.00    0.17560   0.28034   -2.000
 7060.00    0.22228   0.28007   -2.000
 7061.00    0.27992   0.27982   -2.000
 7062.00    0.31491   0.27960   -2.000
 7063.00    0.35192   0.27928   -2.000
 7064.00    0.40443   0.27907   -2.000
 7065.00    0.42681   0.27887   -2.000
 7066.00    0.39256   0.27882   -2.000
 7067.00    0.33856   0.27886   -2.000
 7068.00    0.29491   0.27896   -2.000
 7069.00    0.25101   0.27920   -2.000
 7070.00    0.20147   0.27941   -2.000
 7071.00    0.16394   0.27971   -2.000
 7072.00    0.15164   0.27997   -2.000
 7073.00    0.16499   0.28021   -2.000
 7074.00    0.20543   0.28039   -2.000
 7075.00    0.27299   0.28042   -2.000
 7076.00    0.34270   0.28026   -2.000
 7077.00    0.37865   0.27987   -2.000
 7078.00    0.38980   0.27931   -2.000
 7079.00    0.39900   0.27846   -2.000
 7080.00    0.34261   0.27750   -2.000
 7081.00    0.17613   0.27638   -2.000
 7082.00    0.10995   0.27525   -2.000
 7083.00    0.27572   0.27411   -2.000
 7084.00    0.13458   0.27303   -2.000
 7085.00   -0.70639   0.27204   -2.000
 7086.00   -1.26447   0.27117   -2.000
 7087.00   -0.57831   0.27049   -2.000
 7088.00    0.45855   0.26991   -2.000
 7089.00    0.65903   0.26959   -2.000
 7090.00    0.35324   0.26938   -2.000
 7091.00    0.26129   0.26933   -2.000
 7092.00    0.33610   0.26941   -2.000
 7093.00    0.32809   0.26954   -2.000
 7094.00    0.28482   0.26984   -2.000
 7095.00    0.31119   0.27012   -2.000
 7096.00    0.39434   0.27053   -2.000
 7097.00    0.49868   0.27089   -2.000
 7098.00    0.61767   0.27124   -2.000
 7099.00    0.71663   0.27156   -2.000
 7100.00    0.72514   0.27181   -2.000
 7101.00    0.63552   0.27197   -2.000
 7102.00    0.51994   0.27201   -2.000
 7103.00    0.43214   0.27191   -2.000
 7104.00    0.37837   0.27173   -2.000
 7105.00    0.34609   0.27141   -2.000
 7106.00    0.31919   0.27102   -2.000
 7107.00    0.29180   0.27060   -2.000
 7108.00    0.26689   0.27017   -2.000
 7109.00    0.24422   0.26979   -2.000
 7110.00    0.22216   0.26947   -2.000
 7111.00    0.20671   0.26919   -2.000
 7112.00    0.20302   0.26902   -2.000
 7113.00    0.19923   0.26889   -2.000
 7114.00    0.18914   0.26882   -2.000
 7115.00    0.20599   0.26879   -2.000
 7116.00    0.27224   0.26875   -2.000
 7117.00    0.33591   0.26872   -2.000
 7118.00    0.34614   0.26870   -2.000
 7119.00    0.33667   0.26864   -2.000
 7120.00    0.34762   0.26858   -2.000
 7121.00    0.35268   0.26847   -2.000
 7122.00    0.33597   0.26833   -2.000
 7123.00    0.34738   0.26823   -2.000
 7124.00    0.41376   0.26803   -2.000
 7125.00    0.48687   0.26794   -2.000
 7126.00    0.52414   0.26775   -2.000
 7127.00    0.52986   0.26775   -2.000
 7128.00    0.50510   0.26775   -2.000
 7129.00    0.43198   0.26793   -2.000
 7130.00    0.32408   0.26820   -2.000
 7131.00    0.23475   0.26851   -2.000
 7132.00    0.20315   0.26904   -2.000
 7133.00    0.22830   0.26946   -2.000
 7134.00    0.25585   0.26999   -2.000
 7135.00    0.22753   0.27038   -2.000
 7136.00    0.22123   0.27077   -2.000
 7137.00    0.34044   0.27102   -2.000
 7138.00    0.37716   0.27113   -2.000
 7139.00    0.06208   0.27113   -2.000
 7140.00   -0.29331   0.27090   -2.000
 7141.00   -0.18995   0.27066   -2.000
 7142.00    0.17735   0.27025   -2.000
 7143.00    0.31941   0.26978   -2.000
 7144.00    0.25613   0.26940   -2.000
 7145.00    0.24822   0.26900   -2.000
 7146.00    0.31153   0.26880   -2.000
 7147.00    0.34535   0.26867   -2.000
 7148.00    0.33774   0.26875   -2.000
 7149.00    0.32937   0.26888   -2.000
 7150.00    0.35493   0.26917   -2.000
 7151.00    0.41035   0.26947   -2.000
 7152.00    0.43983   0.26981   -2.000
 7153.00    0.40747   0.27012   -2.000
 7154.00    0.34289   0.27030   -2.000
 7155.00    0.30289   0.27040   -2.000
 7156.00    0.33694   0.27030   -2.000
 7157.00    0.44153   0.27014   -2.000
 7158.00    0.54974   0.26977   -2.000
 7159.00    0.58908   0.26934   -2.000
 7160.00    0.52171   0.26884   -2.000
 7161.00    0.39232   0.26843   -2.000
 7162.00    0.30475   0.26814   -2.000
 7163.00    0.28963   0.26800   -2.000
 7164.00    0.29524   0.26801   -2.000
 7165.00    0.28471   0.26823   -2.000
 7166.00    0.25647   0.26850   -2.000
 7167.00    0.22487   0.26901   -2.000
 7168.00    0.20996   0.26941   -2.000
 7169.00    0.22639   0.26986   -2.000
 7170.00    0.27200   0.27022   -2.000
 7171.00    0.31378   0.27035   -2.000
 7172.00    0.31711   0.27048   -2.000
 7173.00    0.29187   0.27031   -2.000
 7174.00    0.27056   0.27014   -2.000
 7175.00    0.27056   0.26965   -2.000
 7176.00    0.29056   0.26919   -2.000
 7177.00    0.31302   0.26861   -2.000
 7178.00    0.31768   0.26810   -2.000
 7179.00    0.29534   0.26759   -2.000
 7180.00    0.25687   0.26702   -2.000
 7181.00    0.23470   0.26660   -2.000
 7182.00    0.24609   0.26601   -2.000
 7183.00    0.27309   0.26563   -2.000
 7184.00    0.30393   0.26516   -2.000
 7185.00    0.34971   0.26484   -2.000
 7186.00    0.39326   0.26458   -2.000
 7187.00    0.38002   0.26434   -2.000
 7188.00    0.30186   0.26430   -2.000
 7189.00    0.21691   0.26418   -2.000
 7190.00    0.17665   0.26439   -2.000
 7191.00    0.19638   0.26446   -2.000
 7192.00    0.25560   0.26473   -2.000
 7193.00    0.31356   0.26498   -2.000
 7194.00    0.35043   0.26531   -2.000
 7195.00    0.37057   0.26563   -2.000
 7196.00    0.38155   0.26586   -2.000
 7197.00    0.38950   0.26609   -2.000
 7198.00    0.40025   0.26621   -2.000
 7199.00    0.40815   0.26632   -2.000
 7200.00    0.37969   0.26632   -2.000
 7201.00    0.32197   0.26621   -2.000
 7202.00    0.37419   0.26594   -2.000
 7203.00    0.53841   0.26572   -2.000
 7204.00    0.36374   0.26546   -2.000
 7205.00   -0.33795   0.26528   -2.000
 7206.00   -0.75117   0.26513   -2.000
 7207.00   -0.28375   0.26504   -2.000
 7208.00    0.30574   0.26503   -2.000
 7209.00    0.27879   0.26504   -2.000
 7210.00    0.02653   0.26517   -2.000
 7211.00    0.03640   0.26529   -2.000
 7212.00    0.16407   0.26550   -2.000
 7213.00    0.19224   0.26570   -2.000
 7214.00    0.16680   0.26588   -2.000
 7215.00    0.15670   0.26606   -2.000
 7216.00    0.13721   0.26616   -2.000
 7217.00    0.09558   0.26625   -2.000
 7218.00    0.06680   0.26634   -2.000
