###################################################################
## OUTPUT of StarlightChains_v04.for    [Cid@UFSC - 01/Apr/2007] ##
###################################################################

## Some input info
KUG0210-078._35_32.txt                   [arq_obs]
Base.CB07.vall.4m                        [arq_base]
Masks.EmLines.NEW.gm                     [arq_masks]
StCv04.C11.config                        [arq_config]
   66                                    [N_base]
    0                                    [N_YAV_components = # of components with extra extinction!]
    0                                    [i_FitPowerLaw (1/0 = Yes/No)]
-9.99                                    [alpha_PowerLaw]
CCM                                      [red_law_option]
 1.458241                                [q_norm = A(l_norm)/A(V)]

## (Re)Sampling Parameters
 3741.00                                 [l_ini (A)]
 7218.00                                 [l_fin (A)]
    1.00                                 [dl    (A)]     (OBS: dl_cushion =    50.00 A)

## Normalization info
 4020.00                                 [l_norm (A) - for base]
 4010.00                                 [llow_norm (A) - window for f_obs]
 4060.00                                 [lupp_norm (A) - window for f_obs]
4.542506E-17                             [fobs_norm (in input units)]

## S/N
 3691.00                                 [llow_SN (A) - window for S/N]
 7268.00                                 [lupp_SN (A) - window for S/N]
   3.925                                 [S/N in S/N window]
   2.668                                 [S/N in norm. window]
   0.100                                 [S/N_err in S/N window]
   0.068                                 [S/N_err in norm. window]
  1.0000                                 [fscale_chi2]

## etc...
    -2007567                             [idum_orig]
  2432                                   [NOl_eff]
  2364                                   [Nl_eff]
    68    NSIGMA                         [Ntot_cliped & clip_method]
 10360000                                [Nglobal_steps]
   7                                     [N_chains]
   7                                     [NEX0s_base = N_base in EX0s-fits]
 0   0   1       68   2.0   1.600E+04    [Clip-Bug, RC-Crash & Burn-In warning-flags, n_censored_weights, wei_nsig_threshold & wei_limit]
    68     67.282     66.728      0.554  [idt_all, wdt_TotTime, wdt_UsrTime & wdt_SysTime (sec)]

## Synthesis Results - Best model ##

 5.34972E-05                             [chi2/Nl_eff]
     5.84030                             [adev (%)]

   125.32965                             [sum-of-x (%)]
 1.69192E-17                             [Flux_tot (units of input spectrum!)]
 3.73739E-12                             [Mini_tot (???)]
 1.84814E-12                             [Mcor_tot (???)]

 -72.68                                  [v0_min  (km/s)]
 163.11                                  [vd_min  (km/s)]
-0.9034                                  [AV_min  (mag)]
 0.0000                                  [YAV_min (mag)]

# j     x_j(%)      Mini_j(%)     Mcor_j(%)     age_j(yr)     Z_j      (L/M)_j    YAV?  Mstars   component_j        a/Fe...       SSP_chi2r SSP_adev(%)   SSP_AV   SSP_x(%)
  1      0.0000     0.0000E+00    0.0000E+00    1.000000E+06  0.00400  1.094E-02    0   1.0000   age020_m42            0.0000     3.2602E-04    15.3437   3.7547   105.5770
  2      0.0000     0.0000E+00    0.0000E+00    3.160000E+06  0.00400  4.007E-02    0   0.9999   age045_m42            0.0000     3.1574E-04    15.3618   3.0404   111.9540
  3      0.0000     0.0000E+00    0.0000E+00    5.010000E+06  0.00400  2.539E-02    0   0.9488   age055_m42            0.0000     3.2468E-04    15.4580   3.3591   109.3817
  4      0.0000     0.0000E+00    0.0000E+00    6.610000E+06  0.00400  2.620E-02    0   0.9220   age061_m42            0.0000     3.2465E-04    15.5609   2.9681   112.0068
  5      0.0000     0.0000E+00    0.0000E+00    1.000000E+07  0.00400  1.322E-02    0   0.8862   age070_m42            0.0000     3.8896E-04    17.2388   2.6762   114.2481
  6      0.0000     0.0000E+00    0.0000E+00    1.445000E+07  0.00400  7.883E-03    0   0.8571   age078_m42            0.0000     3.8565E-04    17.0848   2.9992   111.6665
  7      0.0000     0.0000E+00    0.0000E+00    2.512000E+07  0.00400  5.251E-03    0   0.8174   age090_m42            0.0000     4.0205E-04    17.5694   2.5447   114.8441
  8      0.0000     0.0000E+00    0.0000E+00    4.000000E+07  0.00400  3.649E-03    0   0.7851   age104_m42            0.0000     3.8810E-04    17.3018   2.3186   115.8054
  9      0.0000     0.0000E+00    0.0000E+00    5.500000E+07  0.00400  3.098E-03    0   0.7629   age110_m42            0.0000     3.5914E-04    16.5654   2.4789   115.6734
 10      0.0000     0.0000E+00    0.0000E+00    1.015200E+08  0.00400  2.228E-03    0   0.7207   age116_m42            0.0000     3.4205E-04    16.0784   2.5026   115.8191
 11      0.0000     0.0000E+00    0.0000E+00    2.861200E+08  0.00400  1.093E-03    0   0.6648   age125_m42            0.0000     3.7038E-04    16.7768   1.9171   119.3744
 12      0.0000     0.0000E+00    0.0000E+00    5.088000E+08  0.00400  6.597E-04    0   0.6365   age130_m42            0.0000     3.2918E-04    15.7446   1.9129   120.4647
 13      0.0000     0.0000E+00    0.0000E+00    1.434000E+09  0.00400  2.132E-04    0   0.5798   age139_m42            0.0000     2.6814E-04    14.3993   0.9432   123.3685
 14      0.0000     0.0000E+00    0.0000E+00    4.250000E+09  0.00400  5.895E-05    0   0.5377   age158_m42            0.0000     2.0134E-04    12.4681   0.4962   119.7147
 15      0.0000     0.0000E+00    0.0000E+00    7.500000E+09  0.00400  3.510E-05    0   0.5212   age171_m42            0.0000     1.7899E-04    11.6621   0.3030   119.3331
 16      0.0000     0.0000E+00    0.0000E+00    1.300000E+10  0.00400  2.005E-05    0   0.5034   age193_m42            0.0000     1.6177E-04    10.9745   0.1313   119.1007
 17      0.0000     0.0000E+00    0.0000E+00    1.800000E+10  0.00400  1.525E-05    0   0.4967   age213_m42            0.0000     1.6580E-04    11.1173   0.1083   118.5533
 18      0.0000     0.0000E+00    0.0000E+00    1.000000E+06  0.00800  1.238E-02    0   1.0000   age020_m52            0.0000     3.2575E-04    15.3388   3.7524   105.7331
 19      0.0000     0.0000E+00    0.0000E+00    3.160000E+06  0.00800  3.074E-02    0   0.9966   age045_m52            0.0000     3.2316E-04    15.2984   3.6795   106.5364
 20      0.0000     0.0000E+00    0.0000E+00    5.010000E+06  0.00800  2.668E-02    0   0.9443   age055_m52            0.0000     3.2759E-04    15.5140   3.4391   108.5436
 21      0.0000     0.0000E+00    0.0000E+00    6.610000E+06  0.00800  2.136E-02    0   0.9177   age061_m52            0.0000     3.5086E-04    16.5312   2.1706   116.2357
 22      0.0000     0.0000E+00    0.0000E+00    1.000000E+07  0.00800  1.215E-02    0   0.8827   age070_m52            0.0000     4.1494E-04    17.7970   2.8448   114.2279
 23      0.0000     0.0000E+00    0.0000E+00    1.445000E+07  0.00800  8.717E-03    0   0.8552   age078_m52            0.0000     3.8595E-04    17.1358   2.9667   113.0874
 24      0.0000     0.0000E+00    0.0000E+00    2.512000E+07  0.00800  5.592E-03    0   0.8162   age090_m52            0.0000     4.0812E-04    17.6964   2.6054   116.1944
 25      0.0000     0.0000E+00    0.0000E+00    4.000000E+07  0.00800  3.896E-03    0   0.7841   age104_m52            0.0000     3.9174E-04    17.3356   2.5173   117.1200
 26      0.0000     0.0000E+00    0.0000E+00    1.015200E+08  0.00800  2.148E-03    0   0.7226   age116_m52            0.0000     3.5595E-04    16.4677   2.4648   116.7899
 27      0.0000     0.0000E+00    0.0000E+00    2.861200E+08  0.00800  9.925E-04    0   0.6683   age125_m52            0.0000     3.2998E-04    15.7227   1.9778   121.5435
 28      0.0000     0.0000E+00    0.0000E+00    9.047900E+08  0.00800  3.141E-04    0   0.6138   age135_m52            0.0000     2.5225E-04    13.7480   1.1684   127.6836
 29      0.0000     0.0000E+00    0.0000E+00    1.434000E+09  0.00800  1.719E-04    0   0.5853   age139_m52            0.0000     2.3065E-04    13.2646   0.5809   125.6110
 30      0.0000     0.0000E+00    0.0000E+00    2.500000E+09  0.00800  7.872E-05    0   0.5600   age150_m52            0.0000     1.6905E-04    11.3909   0.3192   122.8064
 31      0.0000     0.0000E+00    0.0000E+00    4.250000E+09  0.00800  4.336E-05    0   0.5426   age158_m52            0.0000     1.6495E-04    11.2041   0.3020   121.8418
 32      0.0000     0.0000E+00    0.0000E+00    6.250000E+09  0.00800  3.159E-05    0   0.5319   age166_m52            0.0000     1.3885E-04    10.2040   0.0979   122.1889
 33      0.0000     0.0000E+00    0.0000E+00    1.300000E+10  0.00800  1.361E-05    0   0.5073   age193_m52            0.0000     1.0928E-04     8.9501  -0.3734   121.8955
 34      0.0000     0.0000E+00    0.0000E+00    1.800000E+10  0.00800  9.886E-06    0   0.4990   age213_m52            0.0000     9.0692E-05     8.0463  -0.4832   121.6159
 35      0.0000     0.0000E+00    0.0000E+00    1.000000E+06  0.02000  1.544E-02    0   1.0000   age020_m62            0.0000     3.2646E-04    15.3502   3.7487   105.9739
 36      0.0000     0.0000E+00    0.0000E+00    3.160000E+06  0.02000  3.762E-02    0   0.9858   age045_m62            0.0000     3.2534E-04    15.3299   3.6890   106.8556
 37      0.0000     0.0000E+00    0.0000E+00    5.010000E+06  0.02000  3.296E-02    0   0.9342   age055_m62            0.0000     3.1646E-04    15.2588   3.3230   110.5517
 38      0.0000     0.0000E+00    0.0000E+00    8.710000E+06  0.02000  1.154E-02    0   0.8861   age067_m62            0.0000     5.8675E-04    21.2968   2.2624   117.6466
 39      0.0000     0.0000E+00    0.0000E+00    1.445000E+07  0.02000  7.663E-03    0   0.8472   age078_m62            0.0000     4.6092E-04    18.8550   2.4730   117.1201
 40      0.0000     0.0000E+00    0.0000E+00    2.512000E+07  0.02000  4.532E-03    0   0.8099   age090_m62            0.0000     4.7817E-04    19.1566   2.4642   116.6096
 41      0.0000     0.0000E+00    0.0000E+00    5.500000E+07  0.02000  2.733E-03    0   0.7595   age110_m62            0.0000     3.8951E-04    17.2747   2.5012   116.2766
 42      0.0000     0.0000E+00    0.0000E+00    1.609000E+08  0.02000  1.369E-03    0   0.6985   age120_m62            0.0000     3.5058E-04    16.2705   2.3496   119.1693
 43      0.0000     0.0000E+00    0.0000E+00    2.861200E+08  0.02000  9.013E-04    0   0.6714   age125_m62            0.0000     3.2389E-04    15.6233   2.1020   122.6256
 44      0.0000     0.0000E+00    0.0000E+00    5.088000E+08  0.02000  5.028E-04    0   0.6449   age130_m62            0.0000     2.6079E-04    13.9918   1.7206   126.5765
 45      0.0000     0.0000E+00    0.0000E+00    9.047900E+08  0.02000  2.428E-04    0   0.6179   age135_m62            0.0000     2.0858E-04    12.6262   1.1222   126.8660
 46      0.0000     0.0000E+00    0.0000E+00    1.434000E+09  0.02000  1.263E-04    0   0.5908   age139_m62            0.0000     1.8103E-04    11.7955   0.6746   125.5163
 47      0.0000     0.0000E+00    0.0000E+00    2.500000E+09  0.02000  5.985E-05    0   0.5673   age150_m62            0.0000     1.3979E-04    10.2965   0.3051   124.4894
 48      0.0000     0.0000E+00    0.0000E+00    4.250000E+09  0.02000  3.271E-05    0   0.5468   age158_m62            0.0000     1.0382E-04     8.7884  -0.0028   124.0072
 49      0.0000     0.0000E+00    0.0000E+00    1.000000E+10  0.02000  1.360E-05    0   0.5167   age181_m62            0.0000     7.6834E-05     7.4198  -0.3571   124.1469
 50      0.0000     0.0000E+00    0.0000E+00    1.800000E+10  0.02000  7.124E-06    0   0.5013   age213_m62            0.0000     6.2436E-05     6.5769  -0.5716   123.6107
 51      0.0000     0.0000E+00    0.0000E+00    1.000000E+06  0.05000  2.592E-02    0   0.9998   age020_m72            0.0000     3.3074E-04    15.4363   3.7406   106.0086
 52      0.0000     0.0000E+00    0.0000E+00    3.160000E+06  0.05000  4.845E-02    0   0.9577   age045_m72            0.0000     3.1842E-04    15.2011   3.5802   107.8729
 53      0.0000     0.0000E+00    0.0000E+00    5.010000E+06  0.05000  3.072E-02    0   0.9147   age055_m72            0.0000     4.2307E-04    17.7676   3.0528   113.1668
 54      0.0000     0.0000E+00    0.0000E+00    6.610000E+06  0.05000  1.455E-02    0   0.8877   age061_m72            0.0000     7.5693E-04    24.1603   2.2423   119.4996
 55      0.0000     0.0000E+00    0.0000E+00    1.000000E+07  0.05000  9.074E-03    0   0.8524   age070_m72            0.0000     4.7241E-04    18.3159   3.1953   113.5888
 56      0.0000     0.0000E+00    0.0000E+00    2.512000E+07  0.05000  4.250E-03    0   0.7902   age090_m72            0.0000     4.4704E-04    18.1452   2.9298   114.6380
 57      0.0000     0.0000E+00    0.0000E+00    4.000000E+07  0.05000  3.087E-03    0   0.7618   age104_m72            0.0000     4.6018E-04    18.4509   2.7036   116.2924
 58      0.0000     0.0000E+00    0.0000E+00    1.015200E+08  0.05000  1.700E-03    0   0.7096   age116_m72            0.0000     3.8392E-04    17.0046   2.4834   118.6927
 59      0.0000     0.0000E+00    0.0000E+00    2.861200E+08  0.05000  7.384E-04    0   0.6633   age125_m72            0.0000     2.8960E-04    14.7762   1.9682   124.6613
 60      0.0000     0.0000E+00    0.0000E+00    5.088000E+08  0.05000  3.819E-04    0   0.6372   age130_m72            0.0000     2.2052E-04    12.9927   1.4744   127.4919
 61      0.0000     0.0000E+00    0.0000E+00    9.047900E+08  0.05000  1.676E-04    0   0.6110   age135_m72            0.0000     1.4654E-04    10.6947   0.7737   126.3893
 62      0.0000     0.0000E+00    0.0000E+00    1.434000E+09  0.05000  8.837E-05    0   0.5874   age139_m72            0.0000     1.3589E-04    10.1301   0.3000   126.5335
 63      0.0000     0.0000E+00    0.0000E+00    2.500000E+09  0.05000  4.233E-05    0   0.5598   age150_m72            0.0000     9.4241E-05     8.3564  -0.0071   125.3921
 64      0.0000     0.0000E+00    0.0000E+00    6.250000E+09  0.05000  1.435E-05    0   0.5249   age166_m72            0.0000     7.0356E-05     7.0542  -0.4571   123.8913
 65      0.0000     0.0000E+00    0.0000E+00    1.300000E+10  0.05000  6.513E-06    0   0.5036   age193_m72            0.0000     5.7299E-05     6.1945  -0.7407   125.4627
 66    125.3297     1.0000E+02    1.0000E+02    1.800000E+10  0.05000  4.527E-06    0   0.4945   age213_m72            0.0000     5.3489E-05     5.8431  -0.9041   125.4057


## Synthesis Results - Average & Chains ##

# j      x_j: min, <> & last-chain-values for 1 ...  7 chains
  1      0.0000      0.1130      0.0068      0.0000      0.0031      0.0000      0.0518      0.0000      0.0000
  2      0.0000      0.1250      0.0430      0.0175      0.0000      0.0790      0.0005      0.0000      0.0654
  3      0.0000      0.0982      0.0264      0.0223      0.0054      0.0169      0.0072      0.0198      0.0291
  4      0.0000      0.1142      0.0000      0.0491      0.0165      0.0558      0.0087      0.0398      0.0000
  5      0.0000      0.1024      0.0000      0.0057      0.0000      0.0677      0.0000      0.0206      0.0325
  6      0.0000      0.0984      0.0000      0.0228      0.0115      0.0516      0.0021      0.0000      0.0389
  7      0.0000      0.0939      0.0077      0.0276      0.0179      0.0093      0.0052      0.0120      0.0349
  8      0.0000      0.1340      0.0142      0.0099      0.0016      0.0548      0.0133      0.0000      0.0000
  9      0.0000      0.1311      0.0000      0.0676      0.0553      0.0708      0.0098      0.0096      0.0000
 10      0.0000      0.1246      0.0764      0.0364      0.0119      0.0151      0.0021      0.0249      0.1163
 11      0.0000      0.0904      0.0327      0.0600      0.0137      0.0000      0.0000      0.0000      0.0000
 12      0.0000      0.1097      0.0041      0.0529      0.0051      0.0881      0.0000      0.0105      0.0102
 13      0.0000      0.1281      0.0000      0.0363      0.0000      0.0215      0.0311      0.0101      0.0000
 14      0.0000      0.1327      0.0000      0.0130      0.0057      0.0373      0.0324      0.0506      0.0108
 15      0.0000      0.1395      0.0179      0.0084      0.0140      0.0698      0.0175      0.0110      0.0494
 16      0.0000     23.6586     24.2386     25.0051     26.2618     25.4771     24.7228     24.5792     29.8201
 17      0.0000     23.1005     23.2066     23.3067     31.8611     23.4162     23.5044     22.4258     20.9034
 18      0.0000      0.1187      0.0056      0.0177      0.0019      0.0025      0.0367      0.0412      0.0000
 19      0.0000      0.1276      0.0000      0.0000      0.0197      0.0402      0.0000      0.0133      0.0118
 20      0.0000      0.0894      0.0263      0.0048      0.0000      0.0568      0.0145      0.0000      0.0158
 21      0.0000      0.1193      0.0078      0.0000      0.0000      0.0324      0.0018      0.0018      0.0000
 22      0.0000      0.1286      0.0000      0.0200      0.0228      0.0180      0.0039      0.0055      0.0280
 23      0.0000      0.1226      0.0276      0.0253      0.0347      0.0000      0.0409      0.0011      0.0106
 24      0.0000      0.1132      0.0262      0.0213      0.0000      0.0000      0.0061      0.0245      0.0486
 25      0.0000      0.1337      0.0634      0.0222      0.0088      0.0000      0.0230      0.0000      0.0157
 26      0.0000      0.1502      0.0000      0.0303      0.0013      0.0989      0.0000      0.0703      0.0157
 27      0.0000      0.0717      0.0013      0.0001      0.0093      0.0322      0.0000      0.0213      0.0008
 28      0.0000      0.1097      0.0070      0.0326      0.0035      0.0276      0.0300      0.0107      0.0000
 29      0.0000      0.1218      0.0370      0.0733      0.0005      0.0211      0.0149      0.0142      0.0588
 30      0.0000      0.1261      0.0000      0.0174      0.0037      0.0172      0.0122      0.0000      0.0111
 31      0.0000      0.1038      0.0000      0.0258      0.0304      0.0379      0.0251      0.0000      0.0171
 32      0.0000      6.8215      9.1812      8.7010      0.3523      8.5950      8.7899     11.7747      5.0997
 33      0.0000      0.1125      0.0645      0.0334      0.0046      0.0063      0.0408      0.0012      0.0000
 34      0.0000     17.9480     20.0674     19.5544     17.6275     18.8371     19.7660     18.8181     20.9379
 35      0.0000      0.1404      0.0000      0.0763      0.0315      0.0096      0.0000      0.0342      0.0000
 36      0.0000      0.0750      0.0157      0.0255      0.0152      0.0047      0.0000      0.0000      0.0000
 37      0.0000      0.1135      0.0000      0.0104      0.0000      0.0263      0.0381      0.0000      0.0000
 38      0.0000      0.0886      0.0000      0.0000      0.0029      0.0244      0.0130      0.0000      0.0278
 39      0.0000      0.1192      0.0058      0.0194      0.0024      0.0443      0.0264      0.0119      0.0000
 40      0.0000      0.1615      0.0894      0.0152      0.0050      0.0939      0.0076      0.0101      0.0803
 41      0.0000      0.1176      0.0000      0.0157      0.0211      0.0203      0.0189      0.0000      0.1410
 42      0.0000      0.0951      0.0736      0.0000      0.0212      0.0549      0.0000      0.0222      0.0390
 43      0.0000      0.1049      0.0007      0.0187      0.0000      0.0959      0.0000      0.0000      0.0009
 44      0.0000      0.1497      0.0190      0.0056      0.0000      0.0000      0.0000      0.0273      0.0376
 45      0.0000      0.1239      0.0000      0.0076      0.0148      0.0176      0.1052      0.0023      0.0313
 46      0.0000      0.1498      0.0367      0.0132      0.0000      0.0000      0.0217      0.0000      0.0000
 47      0.0000      0.1593      0.0129      0.0152      0.0061      0.0220      0.0470      0.0064      0.0588
 48      0.0000      0.1000      0.0276      0.0738      0.0000      0.0204      0.0339      0.0000      0.0000
 49      0.0000      0.1133      0.0736      0.0402      0.0062      0.0460      0.0000      0.0000      0.0689
 50      0.0000      0.1241      0.0000      0.0707      0.0172      0.0517      0.0383      0.0004      0.0000
 51      0.0000      2.5482      2.9210      2.8164      2.1081      2.8725      2.8393      2.9335      2.8470
 52      0.0000      0.1521      0.0561      0.0238      0.0015      0.0223      0.0000      0.0097      0.0705
 53      0.0000      0.1724      0.0000      0.0005      0.0000      0.0000      0.0000      0.0000      0.0064
 54      0.0000      0.1411      0.1392      0.0000      0.0015      0.0300      0.0651      0.0430      0.0526
 55      0.0000      0.1128      0.0000      0.0327      0.0258      0.0056      0.0141      0.0000      0.0204
 56      0.0000      0.1084      0.0000      0.0843      0.0068      0.0010      0.0163      0.0242      0.0365
 57      0.0000      0.1083      0.0124      0.0106      0.0000      0.0417      0.0439      0.0048      0.0147
 58      0.0000      0.0811      0.0163      0.0007      0.0014      0.0000      0.0157      0.0117      0.0055
 59      0.0000      0.1547      0.0280      0.0076      0.0182      0.0000      0.0833      0.0000      0.0026
 60      0.0000      0.1496      0.0101      0.0228      0.0014      0.0224      0.0645      0.0043      0.0000
 61      0.0000      0.1432      0.0397      0.0269      0.0026      0.0000      0.0251      0.0161      0.0188
 62      0.0000      0.1071      0.0928      0.0464      0.0162      0.0393      0.0448      0.0117      0.0801
 63      0.0000      0.1179      0.0986      0.0638      0.0109      0.0280      0.0507      0.0207      0.0080
 64      0.0000      0.0999      0.0087      0.0105      0.0030      0.0145      0.0207      0.0201      0.0110
 65      0.0000      4.1829      4.4190      4.3937      4.4045      4.4217      4.4443      4.4643      4.3722
 66    125.3297      6.3926      6.3114      6.4372      8.6354      6.3016      6.4084      5.9690      6.2899

# j      m_j: min, <> & last-chain-values for 1 ...  7 chains
  1  0.0000E+00  3.0172E-04  1.7337E-05  0.0000E+00  7.2233E-06  0.0000E+00  1.3206E-04  0.0000E+00  0.0000E+00
  2  0.0000E+00  9.1094E-05  3.0013E-05  1.2185E-05  0.0000E+00  5.5726E-05  3.2830E-07  0.0000E+00  4.5261E-05
  3  0.0000E+00  1.0715E-04  2.7648E-05  2.3295E-05  5.2324E-06  1.7863E-05  7.5180E-06  2.1131E-05  3.0182E-05
  4  0.0000E+00  1.1734E-04  0.0000E+00  4.8318E-05  1.4978E-05  5.5513E-05  8.5900E-06  4.0065E-05  0.0000E+00
  5  0.0000E+00  2.0035E-04  0.0000E+00  1.0648E-05  0.0000E+00  1.2826E-04  0.0000E+00  3.9582E-05  6.0523E-05
  6  0.0000E+00  3.1234E-04  0.0000E+00  6.9193E-05  3.2352E-05  1.5866E-04  6.3322E-06  0.0000E+00  1.1731E-04
  7  0.0000E+00  4.2661E-04  3.3655E-05  1.2036E-04  7.1693E-05  4.1095E-05  2.2451E-05  5.3319E-05  1.5079E-04
  8  0.0000E+00  8.4162E-04  8.5696E-05  5.9757E-05  9.0372E-06  3.3343E-04  7.9883E-05  0.0000E+00  0.0000E+00
  9  0.0000E+00  9.4273E-04  0.0000E+00  4.6556E-04  3.5132E-04  4.9302E-04  6.7478E-05  6.7429E-05  0.0000E+00
 10  0.0000E+00  1.1773E-03  6.9211E-04  3.2930E-04  9.9411E-05  1.3837E-04  1.9230E-05  2.3014E-04  1.0437E-03
 11  0.0000E+00  1.6055E-03  5.5689E-04  1.0210E-03  2.1496E-04  0.0000E+00  0.0000E+00  0.0000E+00  0.0000E+00
 12  0.0000E+00  3.0894E-03  1.0981E-04  1.4287E-03  1.2773E-04  2.4026E-03  0.0000E+00  2.8934E-04  2.7184E-04
 13  0.0000E+00  1.0168E-02  0.0000E+00  2.7604E-03  0.0000E+00  1.6519E-03  2.3585E-03  7.8367E-04  0.0000E+00
 14  0.0000E+00  3.5333E-02  0.0000E+00  3.3200E-03  1.3465E-03  9.6256E-03  8.2526E-03  1.3206E-02  2.7257E-03
 15  0.0000E+00  6.0467E-02  7.4226E-03  3.4718E-03  5.3507E-03  2.9280E-02  7.2494E-03  4.6615E-03  2.0372E-02
 16  0.0000E+00  1.7344E+01  1.7037E+01  1.7558E+01  1.6996E+01  1.8079E+01  1.7317E+01  1.7657E+01  2.0778E+01
 17  0.0000E+00  2.1969E+01  2.1160E+01  2.1230E+01  2.6749E+01  2.1556E+01  2.1357E+01  2.0898E+01  1.8894E+01
 18  0.0000E+00  2.8001E-04  1.2720E-05  3.9881E-05  3.9683E-06  5.7428E-06  8.2784E-05  9.5138E-05  0.0000E+00
 19  0.0000E+00  1.2078E-04  0.0000E+00  0.0000E+00  1.6445E-05  3.6813E-05  0.0000E+00  1.2372E-05  1.0585E-05
 20  0.0000E+00  9.2379E-05  2.6075E-05  4.7325E-06  0.0000E+00  5.6851E-05  1.4294E-05  0.0000E+00  1.5506E-05
 21  0.0000E+00  1.4965E-04  9.4242E-06  0.0000E+00  0.0000E+00  3.9379E-05  2.2030E-06  2.2605E-06  0.0000E+00
 22  0.0000E+00  2.7271E-04  0.0000E+00  4.0670E-05  4.2707E-05  3.6886E-05  7.8431E-06  1.1375E-05  5.6462E-05
 23  0.0000E+00  3.5116E-04  7.5812E-05  6.9475E-05  8.7785E-05  0.0000E+00  1.1195E-04  3.1734E-06  2.8824E-05
 24  0.0000E+00  4.8233E-04  1.0725E-04  8.7057E-05  0.0000E+00  0.0000E+00  2.4692E-05  1.0251E-04  1.9689E-04
 25  0.0000E+00  7.8592E-04  3.5724E-04  1.2521E-04  4.5575E-05  0.0000E+00  1.2909E-04  0.0000E+00  8.7919E-05
 26  0.0000E+00  1.4749E-03  0.0000E+00  2.8521E-04  1.1169E-05  9.4027E-04  0.0000E+00  6.7629E-04  1.4621E-04
 27  0.0000E+00  1.4102E-03  2.5282E-05  1.0647E-06  1.6199E-04  6.1206E-04  0.0000E+00  4.1078E-04  1.5639E-05
 28  0.0000E+00  6.2591E-03  3.8333E-04  1.7814E-03  1.7637E-04  1.5221E-03  1.6345E-03  5.9583E-04  0.0000E+00
 29  0.0000E+00  1.2106E-02  3.5274E-03  6.9780E-03  4.3961E-05  2.0287E-03  1.4150E-03  1.3807E-03  5.5564E-03
 30  0.0000E+00  2.6203E-02  0.0000E+00  3.4600E-03  6.7950E-04  3.4582E-03  2.4236E-03  0.0000E+00  2.1883E-03
 31  0.0000E+00  3.7941E-02  0.0000E+00  9.0312E-03  9.8031E-03  1.3401E-02  8.7797E-03  0.0000E+00  5.9268E-03
 32  0.0000E+00  3.3538E+00  4.3277E+00  4.0973E+00  1.5292E-01  4.0903E+00  4.1289E+00  5.6724E+00  2.3829E+00
 33  0.0000E+00  1.2249E-01  6.7330E-02  3.4863E-02  4.4091E-03  6.5940E-03  4.2376E-02  1.2882E-03  0.0000E+00
 34  0.0000E+00  2.6452E+01  2.8356E+01  2.7604E+01  2.2935E+01  2.6873E+01  2.7833E+01  2.7177E+01  2.9329E+01
 35  0.0000E+00  2.6556E-04  0.0000E+00  1.3825E-04  5.2583E-05  1.7583E-05  0.0000E+00  6.3292E-05  0.0000E+00
 36  0.0000E+00  5.7390E-05  1.1553E-05  1.8678E-05  1.0255E-05  3.5175E-06  0.0000E+00  0.0000E+00  0.0000E+00
 37  0.0000E+00  9.3932E-05  0.0000E+00  8.2304E-06  0.0000E+00  2.1054E-05  3.0118E-05  0.0000E+00  0.0000E+00
 38  0.0000E+00  1.9873E-04  6.7874E-08  0.0000E+00  5.7147E-06  5.2946E-05  2.7832E-05  0.0000E+00  5.9338E-05
 39  0.0000E+00  3.8465E-04  1.7818E-05  6.0117E-05  6.8701E-06  1.3829E-04  8.1540E-05  3.7699E-05  0.0000E+00
 40  0.0000E+00  8.4267E-04  4.4711E-04  7.6075E-05  2.3035E-05  4.7434E-04  3.7682E-05  5.1731E-05  3.9833E-04
 41  0.0000E+00  9.5397E-04  0.0000E+00  1.2165E-04  1.5112E-04  1.5939E-04  1.4620E-04  0.0000E+00  1.0871E-03
 42  0.0000E+00  1.4169E-03  1.0516E-03  0.0000E+00  2.7842E-04  7.9192E-04  0.0000E+00  3.2460E-04  5.5188E-04
 43  0.0000E+00  2.2818E-03  1.5026E-05  3.8940E-04  0.0000E+00  2.0195E-03  0.0000E+00  0.0000E+00  1.9490E-05
 44  0.0000E+00  5.6076E-03  6.8110E-04  2.0195E-04  0.0000E+00  0.0000E+00  0.0000E+00  1.0023E-03  1.3384E-03
 45  0.0000E+00  9.2067E-03  0.0000E+00  5.4205E-04  9.7080E-04  1.2658E-03  7.4668E-03  1.6738E-04  2.2106E-03
 46  0.0000E+00  2.0459E-02  4.8048E-03  1.7319E-03  0.0000E+00  0.0000E+00  2.8346E-03  0.0000E+00  0.0000E+00
 47  0.0000E+00  4.4078E-02  3.4104E-03  4.0289E-03  1.4891E-03  5.8941E-03  1.2434E-02  1.7325E-03  1.5468E-02
 48  0.0000E+00  4.8797E-02  1.2900E-02  3.4509E-02  0.0000E+00  9.6339E-03  1.5796E-02  0.0000E+00  0.0000E+00
 49  0.0000E+00  1.2574E-01  7.8254E-02  4.2738E-02  6.0311E-03  4.9346E-02  0.0000E+00  0.0000E+00  7.2688E-02
 50  0.0000E+00  2.5500E-01  0.0000E+00  1.3911E-01  3.1141E-02  1.0274E-01  7.5169E-02  7.7264E-04  0.0000E+00
 51  0.0000E+00  2.8700E-03  3.1542E-03  3.0382E-03  2.0960E-03  3.1315E-03  3.0553E-03  3.2375E-03  3.0476E-03
 52  0.0000E+00  8.7761E-05  3.1024E-05  1.3143E-05  7.4164E-07  1.2448E-05  0.0000E+00  5.4767E-06  3.8691E-05
 53  0.0000E+00  1.4991E-04  0.0000E+00  4.1961E-07  0.0000E+00  0.0000E+00  0.0000E+00  0.0000E+00  5.2692E-06
 54  0.0000E+00  2.5141E-04  2.3778E-04  0.0000E+00  2.3475E-06  5.1670E-05  1.1075E-04  7.5005E-05  8.8997E-05
 55  0.0000E+00  3.0937E-04  0.0000E+00  8.5797E-05  6.2573E-05  1.4836E-05  3.7007E-05  0.0000E+00  5.3179E-05
 56  0.0000E+00  5.8842E-04  0.0000E+00  4.3852E-04  3.2661E-05  5.0057E-06  8.4739E-05  1.2857E-04  1.8845E-04
 57  0.0000E+00  7.8028E-04  8.5481E-05  7.3253E-05  0.0000E+00  2.9119E-04  3.0201E-04  3.3964E-05  1.0087E-04
 58  0.0000E+00  9.8832E-04  1.9008E-04  8.2195E-06  1.4656E-05  0.0000E+00  1.8247E-04  1.4024E-04  6.4047E-05
 59  0.0000E+00  4.0587E-03  7.0463E-04  1.9210E-04  4.2215E-04  0.0000E+00  2.0879E-03  0.0000E+00  6.6008E-05
 60  0.0000E+00  7.2860E-03  4.7118E-04  1.0619E-03  6.0070E-05  1.0568E-03  3.0003E-03  2.0495E-04  0.0000E+00
 61  0.0000E+00  1.5244E-02  4.0472E-03  2.7414E-03  2.4371E-04  0.0000E+00  2.5489E-03  1.6841E-03  1.9053E-03
 62  0.0000E+00  2.0791E-02  1.7268E-02  8.6295E-03  2.7704E-03  7.3844E-03  8.3066E-03  2.2223E-03  1.4774E-02
 63  0.0000E+00  4.5543E-02  3.6503E-02  2.3614E-02  3.7253E-03  1.0463E-02  1.8690E-02  7.8340E-03  2.9372E-03
 64  0.0000E+00  1.0674E-01  8.8883E-03  1.0789E-02  2.8229E-03  1.4952E-02  2.1114E-02  2.1023E-02  1.1190E-02
 65  0.0000E+00  9.4440E+00  9.5654E+00  9.5013E+00  8.7785E+00  9.6632E+00  9.5868E+00  9.8763E+00  9.3819E+00
 66  1.0000E+02  2.0389E+01  1.9300E+01  1.9665E+01  2.4314E+01  1.9455E+01  1.9529E+01  1.8655E+01  1.9067E+01

# AV, chi2 & Mass for <> & i_chain = 1 ...  7 solutions
AV      -0.9034      0.4440      0.4430      0.4446      0.4082      0.4565      0.4413      0.4530      0.4400
chi2 5.3497E-05  3.4492E-04  3.2250E-04  3.2232E-04  3.1463E-04  3.2455E-04  3.2171E-04  3.2324E-04  3.2202E-04
Mass 1.8481E-12  2.8244E-12  2.9419E-12  2.9511E-12  3.0491E-12  2.9672E-12  2.9452E-12  2.9174E-12  2.9555E-12
 -72.68                                  [v0_min (km/s) before EX0s...]
 163.11                                  [vd_min (km/s) before EX0s...]


## Synthetic spectrum (Best Model) ##l_obs f_obs f_syn wei
 3478    [Nl_obs]
 3741.00    0.42048   0.45822    0.000
 3742.00    0.42762   0.42454    0.000
 3743.00    0.42886   0.38305    0.000
 3744.00    0.41795   0.34495    0.000
 3745.00    0.39995   0.31702   -1.000
 3746.00    0.39388   0.30302   -1.000
 3747.00    0.39387   0.30484   -1.000
 3748.00    0.36564   0.32497   -1.000
 3749.00    0.32501   0.36593   -1.000
 3750.00    0.33266   0.42398   -1.000
 3751.00    0.35853   0.48704   -1.000
 3752.00    0.44021   0.54096   -1.000
 3753.00    0.53977   0.57492   -1.000
 3754.00    0.61182   0.58138   -1.000
 3755.00    0.67651   0.55868   -1.000
 3756.00    0.63872   0.51639   -1.000
 3757.00    0.57843   0.47368   -1.000
 3758.00    0.51756   0.44750   -1.000
 3759.00    0.45658   0.44136   -1.000
 3760.00    0.38081   0.44640   -1.000
 3761.00    0.30307   0.45152   -1.000
 3762.00    0.34295   0.45230   -1.000
 3763.00    0.39389   0.45268   -1.000
 3764.00    0.44437   0.45890   -1.000
 3765.00    0.49483   0.47382   -1.000
 3766.00    0.54407   0.49964   -1.000
 3767.00    0.59298   0.53882   -1.000
 3768.00    0.60439   0.58714   -1.000
 3769.00    0.61305   0.63350   -1.000
 3770.00    0.55493   0.66950   -1.000
 3771.00    0.50235   0.69260   -1.000
 3772.00    0.52224   0.70236   -1.000
 3773.00    0.54596   0.70058   -1.000
 3774.00    0.60335   0.69348   -1.000
 3775.00    0.65110   0.68890   -1.000
 3776.00    0.63638   0.69095   -1.000
 3777.00    0.62397   0.69942   -1.000
 3778.00    0.62331   0.71267   -1.000
 3779.00    0.62287   0.72721   -1.000
 3780.00    0.62329   0.73700   -1.000
 3781.00    0.61622   0.73685   -1.000
 3782.00    0.58373   0.72385   -1.000
 3783.00    0.55234   0.69534   -1.000
 3784.00    0.52412   0.65023   -1.000
 3785.00    0.52036   0.59428   -1.000
 3786.00    0.57636   0.54120   -1.000
 3787.00    0.60312   0.50347   -1.000
 3788.00    0.56821   0.48502   -1.000
 3789.00    0.56472   0.48266   -1.000
 3790.00    0.61878   0.48846   -1.000
 3791.00    0.64691   0.49199   -1.000
 3792.00    0.63353   0.48651   -1.000
 3793.00    0.61707   0.47360   -1.000
 3794.00    0.59625   0.45954   -1.000
 3795.00    0.57224   0.44928   -1.000
 3796.00    0.54428   0.44438   -1.000
 3797.00    0.46653   0.44659   -1.000
 3798.00    0.33455   0.46065   -1.000
 3799.00    0.32670   0.48901   -1.000
 3800.00    0.43813   0.52641   -1.000
 3801.00    0.53761   0.56262   -1.000
 3802.00    0.62698   0.58882   -1.000
 3803.00    0.63025   0.60027   -1.000
 3804.00    0.56927   0.59713   -1.000
 3805.00    0.52796   0.58511   -1.000
 3806.00    0.49954   0.57360   -1.000
 3807.00    0.50558   0.56990    0.316
 3808.00    0.53141   0.57260    0.123
 3809.00    0.54000   0.57260    0.104
 3810.00    0.53997   0.56079    0.107
 3811.00    0.49555   0.53390    0.107
 3812.00    0.43192   0.49572    0.107
 3813.00    0.46588   0.45491    0.107
 3814.00    0.53601   0.41957    0.107
 3815.00    0.51192   0.39338    0.108
 3816.00    0.45821   0.37540    0.108
 3817.00    0.36552   0.36102    0.107
 3818.00    0.26260   0.34605    0.105
 3819.00    0.29343   0.33152    0.105
 3820.00    0.35292   0.32142    0.104
 3821.00    0.40388   0.31603    0.104
 3822.00    0.45340   0.31079    0.104
 3823.00    0.39360   0.30236    0.103
 3824.00    0.31977   0.29337    0.103
 3825.00    0.30486   0.28911    0.104
 3826.00    0.29522   0.29199    0.104
 3827.00    0.24856   0.30011    0.104
 3828.00    0.19991   0.30936    0.103
 3829.00    0.25529   0.31580    0.105
 3830.00    0.31266   0.31746    0.106
 3831.00    0.36219   0.31568    0.107
 3832.00    0.40598   0.31484    0.108
 3833.00    0.32228   0.31849    0.106
 3834.00    0.24699   0.32565    0.105
 3835.00    0.27631   0.33124    0.103
 3836.00    0.30790   0.33084    0.103
 3837.00    0.35877   0.32611    0.103
 3838.00    0.40539   0.32412    0.104
 3839.00    0.42530   0.33175    0.104
 3840.00    0.45093   0.35175    0.105
 3841.00    0.50477   0.38146    0.107
 3842.00    0.55057   0.41285    0.109
 3843.00    0.56421   0.43749    0.109
 3844.00    0.56606   0.45141    0.109
 3845.00    0.52867   0.45519    0.108
 3846.00    0.50822   0.45151    0.107
 3847.00    0.53531   0.44298    0.000
 3848.00    0.56282   0.43241    0.000
 3849.00    0.59134   0.42392    0.000
 3850.00    0.57410   0.42032    0.000
 3851.00    0.46194   0.41903    0.000
 3852.00    0.38879   0.41422    0.000
 3853.00    0.38599   0.40303    0.000
 3854.00    0.38046   0.38654    0.000
 3855.00    0.37062   0.36726    0.000
 3856.00    0.37779   0.34876    0.000
 3857.00    0.40849   0.33484    0.000
 3858.00    0.40648   0.32937    0.000
 3859.00    0.36463   0.33623    0.000
 3860.00    0.35578   0.35603    0.000
 3861.00    0.38237   0.38315    0.000
 3862.00    0.39719   0.40795    0.000
 3863.00    0.40085   0.42305    0.000
 3864.00    0.39721   0.42744    0.000
 3865.00    0.38746   0.42427    0.000
 3866.00    0.42103   0.41642    0.000
 3867.00    0.48647   0.40533    0.000
 3868.00    0.46815   0.39296    0.000
 3869.00    0.39574   0.38307    0.000
 3870.00    0.36995   0.38055    0.000
 3871.00    0.37052   0.38894    0.000
 3872.00    0.41172   0.40737    0.000
 3873.00    0.47291   0.42941    0.000
 3874.00    0.48867   0.44500    0.000
 3875.00    0.48511   0.44685    0.000
 3876.00    0.49734   0.43618    0.000
 3877.00    0.51531   0.42152    0.000
 3878.00    0.48885   0.41253    0.000
 3879.00    0.44869   0.41319    0.000
 3880.00    0.42845   0.42125    0.000
 3881.00    0.41331   0.43377    0.099
 3882.00    0.43748   0.44828    0.099
 3883.00    0.46986   0.45923    0.099
 3884.00    0.45401   0.46180    0.100
 3885.00    0.43020   0.46127    0.101
 3886.00    0.39924   0.47088    0.101
 3887.00    0.36740   0.49862    0.101
 3888.00    0.43843   0.54213    0.101
 3889.00    0.51828   0.59286    0.101
 3890.00    0.50698   0.63971    0.100
 3891.00    0.49115   0.67234    0.099
 3892.00    0.47004   0.68532    0.099
 3893.00    0.44997   0.68085    0.100
 3894.00    0.50205   0.66697    0.100
 3895.00    0.55307   0.65264    0.100
 3896.00    0.58231   0.64198    0.099
 3897.00    0.60256   0.63372    0.098
 3898.00    0.51644   0.62728    0.095
 3899.00    0.43905   0.62442    0.091
 3900.00    0.43282   0.62442    0.089
 3901.00    0.42997   0.62250    0.087
 3902.00    0.44778   0.61667    0.086
 3903.00    0.46158   0.61128    0.085
 3904.00    0.45614   0.61188    0.084
 3905.00    0.45663   0.62372    0.084
 3906.00    0.48032   0.65020    0.085
 3907.00    0.51185   0.68729    0.086
 3908.00    0.56892   0.72569    0.088
 3909.00    0.63453   0.75779    0.090
 3910.00    0.72368   0.78068    0.092
 3911.00    0.78928   0.79394    0.094
 3912.00    0.79929   0.79680    0.095
 3913.00    0.80115   0.78878    0.096
 3914.00    0.78637   0.77030    0.097
 3915.00    0.76707   0.74185    0.098
 3916.00    0.73973   0.70526    0.100
 3917.00    0.70269   0.66352    0.101
 3918.00    0.65060   0.61988    0.099
 3919.00    0.62658   0.57990    0.098
 3920.00    0.64087   0.55053    0.099
 3921.00    0.63037   0.53481    0.100
 3922.00    0.59010   0.52895    0.101
 3923.00    0.56790   0.52445    0.102
 3924.00    0.56483   0.51184    0.101
 3925.00    0.55730   0.48562    0.101
 3926.00    0.54560   0.44677    0.102
 3927.00    0.53554   0.40080    0.102
 3928.00    0.52683   0.35473    0.104
 3929.00    0.45520   0.31437    0.102
 3930.00    0.33797   0.28317    0.098
 3931.00    0.27955   0.26295    0.097
 3932.00    0.25854   0.25447    0.099
 3933.00    0.27324   0.25795    0.099
 3934.00    0.30781   0.27379    0.099
 3935.00    0.33974   0.30223    0.098
 3936.00    0.37040   0.34083    0.097
 3937.00    0.39970   0.38384    0.097
 3938.00    0.42845   0.42398    0.098
 3939.00    0.43807   0.45512    0.097
 3940.00    0.44086   0.47543    0.097
 3941.00    0.51089   0.48891    0.097
 3942.00    0.60124   0.50288    0.098
 3943.00    0.61687   0.52471    0.099
 3944.00    0.61374   0.55856    0.099
 3945.00    0.62126   0.60092    0.099
 3946.00    0.63094   0.64338    0.099
 3947.00    0.67457   0.68141    0.100
 3948.00    0.72363   0.71573    0.101
 3949.00    0.73084   0.74607    0.101
 3950.00    0.73306   0.76914    0.101
 3951.00    0.74568   0.78260    0.100
 3952.00    0.75914   0.78878    0.099
 3953.00    0.76172   0.78952    0.099
 3954.00    0.76380   0.78164    0.099
 3955.00    0.72740   0.76294    0.100
 3956.00    0.69059   0.73601    0.101
 3957.00    0.65758   0.70223    0.101
 3958.00    0.62125   0.65909    0.100
 3959.00    0.52213   0.60490    0.099
 3960.00    0.43438   0.54435    0.000
 3961.00    0.47492   0.48724    0.000
 3962.00    0.52129   0.43993    0.000
 3963.00    0.61358   0.40087    0.000
 3964.00    0.67354   0.36573    0.000
 3965.00    0.54158   0.33366    0.000
 3966.00    0.42311   0.30853    0.000
 3967.00    0.36798   0.29594    0.000
 3968.00    0.34943   0.29980    0.000
 3969.00    0.47106   0.32118    0.000
 3970.00    0.55556   0.35842    0.000
 3971.00    0.52136   0.40815    0.000
 3972.00    0.46583   0.46663    0.000
 3973.00    0.35257   0.53075    0.000
 3974.00    0.31830   0.59743    0.000
 3975.00    0.46744   0.66324    0.000
 3976.00    0.60270   0.72562    0.000
 3977.00    0.71009   0.78219    0.000
 3978.00    0.81486   0.82933    0.000
 3979.00    0.91506   0.86360    0.000
 3980.00    0.96540   0.88433    0.000
 3981.00    0.93944   0.89602    0.105
 3982.00    0.92562   0.90634    0.106
 3983.00    0.92816   0.92089    0.107
 3984.00    0.92031   0.94102    0.107
 3985.00    0.90016   0.96361    0.105
 3986.00    0.94154   0.98441    0.105
 3987.00    1.04717   1.00048    0.106
 3988.00    1.08297   1.00971    0.106
 3989.00    1.05447   1.01462    0.104
 3990.00    1.00782   1.02021    0.102
 3991.00    0.94641   1.02626    0.099
 3992.00    0.91290   1.02855    0.098
 3993.00    0.89932   1.02412    0.098
 3994.00    0.87330   1.01508    0.098
 3995.00    0.83948   1.00797    0.098
 3996.00    0.82844   1.01059    0.098
 3997.00    0.82988   1.02835    0.097
 3998.00    0.84080   1.05971    0.096
 3999.00    0.85623   1.09349    0.096
 4000.00    0.91428   1.11561    0.097
 4001.00    0.98986   1.11819    0.098
 4002.00    1.06791   1.09998    0.100
 4003.00    1.14683   1.06625    0.102
 4004.00    1.15196   1.03188    0.103
 4005.00    1.13524   1.01566    0.103
 4006.00    1.04912   1.02549    0.101
 4007.00    0.94595   1.05352    0.099
 4008.00    0.89829   1.08675    0.099
 4009.00    0.86166   1.11652    0.098
 4010.00    0.88871   1.14003    0.099
 4011.00    0.92565   1.15851    0.100
 4012.00    1.02347   1.17399    0.101
 4013.00    1.12830   1.18682    0.103
 4014.00    1.15789   1.19666    0.102
 4015.00    1.18166   1.20251    0.102
 4016.00    1.14348   1.20445    0.103
 4017.00    1.10271   1.20586    0.103
 4018.00    1.07863   1.20764    0.103
 4019.00    1.05448   1.20563    0.103
 4020.00    1.02060   1.19777    0.103
 4021.00    0.99268   1.18701    0.103
 4022.00    1.06981   1.17752    0.104
 4023.00    1.13774   1.17281    0.106
 4024.00    1.10660   1.17550    0.106
 4025.00    1.07525   1.18209    0.106
 4026.00    1.04234   1.18104    0.106
 4027.00    1.00864   1.15909    0.107
 4028.00    0.97039   1.10862    0.107
 4029.00    0.93719   1.03544    0.107
 4030.00    0.92714   0.96087    0.108
 4031.00    0.91386   0.90856    0.108
 4032.00    0.88845   0.89260    0.104
 4033.00    0.88856   0.91780    0.102
 4034.00    0.96866   0.97818    0.104
 4035.00    1.02762   1.05676    0.106
 4036.00    1.03030   1.13111    0.105
 4037.00    1.02854   1.18210    0.105
 4038.00    1.01665   1.20120    0.103
 4039.00    1.00646   1.18988    0.102
 4040.00    0.99963   1.15386    0.103
 4041.00    0.97757   1.09808    0.103
 4042.00    0.92928   1.02638    0.103
 4043.00    0.89242   0.95045    0.102
 4044.00    0.87282   0.89379    0.100
 4045.00    0.86709   0.88027    0.100
 4046.00    0.87977   0.91703    0.101
 4047.00    0.91017   0.98791    0.102
 4048.00    0.96128   1.06616    0.102
 4049.00    1.03486   1.12965    0.102
 4050.00    1.13160   1.16552    0.103
 4051.00    1.12723   1.17111    0.102
 4052.00    1.03106   1.15271    0.101
 4053.00    0.95064   1.12013    0.100
 4054.00    0.88282   1.08384    0.099
 4055.00    0.90850   1.05264    0.099
 4056.00    1.00000   1.03006    0.100
 4057.00    1.00755   1.01680    0.100
 4058.00    0.96324   1.01012    0.100
 4059.00    0.96629   1.00047    0.100
 4060.00    0.99491   0.97793    0.100
 4061.00    0.96652   0.94295    0.100
 4062.00    0.91142   0.90993    0.100
 4063.00    0.86879   0.89835    0.099
 4064.00    0.83119   0.91582    0.097
 4065.00    0.89997   0.95185    0.098
 4066.00    1.00542   0.99132    0.100
 4067.00    0.99079   1.02361    0.100
 4068.00    0.94129   1.04044    0.100
 4069.00    0.87263   1.03802    0.098
 4070.00    0.79937   1.02381    0.096
 4071.00    0.81407   1.01329    0.096
 4072.00    0.84581   1.01313    0.096
 4073.00    0.93782   1.01409    0.098
 4074.00    1.03892   1.00688    0.100
 4075.00    1.00084   0.99536    0.100
 4076.00    0.94738   0.99374    0.099
 4077.00    0.93199   1.01529    0.099
 4078.00    0.91938   1.06027    0.098
 4079.00    0.96386   1.11564    0.099
 4080.00    1.01052   1.16375    0.101
 4081.00    1.03014   1.19260    0.101
 4082.00    1.05070   1.20418    0.101
 4083.00    1.11236   1.21161    0.101
 4084.00    1.16906   1.22696    0.101
 4085.00    1.14395   1.25493    0.103
 4086.00    1.12459   1.29109    0.105
 4087.00    1.16441   1.32363    0.105
 4088.00    1.18591   1.34103    0.105
 4089.00    1.07296   1.33920    0.103
 4090.00    0.99059   1.32181    0.102
 4091.00    1.07981   1.29427    0.103
 4092.00    1.14590   1.26087    0.000
 4093.00    1.10849   1.22220    0.000
 4094.00    1.07600   1.17785    0.000
 4095.00    1.06154   1.13369    0.000
 4096.00    1.02882   1.09660    0.000
 4097.00    0.93995   1.06757    0.000
 4098.00    0.89165   1.04451    0.000
 4099.00    0.94939   1.02677    0.000
 4100.00    0.98017   1.01863    0.000
 4101.00    0.95043   1.02689    0.000
 4102.00    0.95572   1.05216    0.000
 4103.00    1.02917   1.08804    0.000
 4104.00    1.06143   1.12633    0.000
 4105.00    1.02381   1.15751    0.000
 4106.00    1.00762   1.17265    0.000
 4107.00    1.02331   1.16999    0.000
 4108.00    1.02996   1.15521    0.000
 4109.00    1.02480   1.13781    0.000
 4110.00    1.02749   1.12728    0.000
 4111.00    1.03923   1.12883    0.000
 4112.00    1.04570   1.14114    0.000
 4113.00    1.04681   1.15663    0.101
 4114.00    1.07030   1.16695    0.100
 4115.00    1.11383   1.16747    0.100
 4116.00    1.13260   1.15704    0.100
 4117.00    1.13183   1.13873    0.099
 4118.00    1.10792   1.12101    0.098
 4119.00    1.06796   1.11144    0.097
 4120.00    1.08877   1.11039    0.097
 4121.00    1.14655   1.11578    0.096
 4122.00    1.16649   1.12607    0.097
 4123.00    1.16633   1.13791    0.097
 4124.00    1.16055   1.14474    0.097
 4125.00    1.15218   1.14004    0.096
 4126.00    1.15321   1.12263    0.097
 4127.00    1.15799   1.09510    0.099
 4128.00    1.09397   1.06088    0.097
 4129.00    1.00666   1.02414    0.095
 4130.00    1.05180   0.99092    0.095
 4131.00    1.13462   0.96971    0.096
 4132.00    1.13415   0.96893    0.096
 4133.00    1.11413   0.99018    0.095
 4134.00    1.07190   1.02771    0.094
 4135.00    1.02548   1.06953    0.092
 4136.00    1.04409   1.10216    0.094
 4137.00    1.07220   1.11751    0.096
 4138.00    1.07892   1.11108    0.096
 4139.00    1.08337   1.08151    0.096
 4140.00    1.07792   1.03324    0.097
 4141.00    1.07177   0.97774    0.097
 4142.00    1.02049   0.93329    0.096
 4143.00    0.96764   0.91634    0.096
 4144.00    0.99715   0.92840    0.096
 4145.00    1.02609   0.95545    0.097
 4146.00    1.03076   0.98088    0.098
 4147.00    1.03765   0.99448    0.098
 4148.00    1.07889   0.99426    0.099
 4149.00    1.11895   0.98507    0.099
 4150.00    1.14730   0.97377    0.098
 4151.00    1.16817   0.96436    0.098
 4152.00    1.13594   0.95864    0.099
 4153.00    1.10228   0.95782    0.100
 4154.00    1.06077   0.96409    0.099
 4155.00    1.02833   0.97948    0.099
 4156.00    1.03551   1.00511    0.098
 4157.00    1.03453   1.03957    0.098
 4158.00    1.00417   1.07705    0.098
 4159.00    0.99352   1.11037    0.098
 4160.00    1.04229   1.13468    0.095
 4161.00    1.07681   1.14712    0.094
 4162.00    1.07470   1.14481    0.097
 4163.00    1.07330   1.12819    0.098
 4164.00    1.07349   1.10388    0.097
 4165.00    1.07275   1.07981    0.097
 4166.00    1.07026   1.06138    0.098
 4167.00    1.04633   1.05062    0.098
 4168.00    0.98657   1.04293    0.098
 4169.00    0.96551   1.02981    0.098
 4170.00    1.00112   1.00704    0.097
 4171.00    1.05387   0.97883    0.098
 4172.00    1.12868   0.95531    0.099
 4173.00    1.11845   0.94362    0.099
 4174.00    1.01170   0.94347    0.099
 4175.00    0.97336   0.95086    0.099
 4176.00    1.00349   0.96185    0.099
 4177.00    1.03990   0.97442    0.098
 4178.00    1.08188   0.98759    0.097
 4179.00    1.09525   1.00045    0.097
 4180.00    1.08637   1.01395    0.097
 4181.00    1.05241   1.03033    0.096
 4182.00    1.00132   1.04893    0.095
 4183.00    0.96219   1.06465    0.094
 4184.00    0.93024   1.07129    0.094
 4185.00    0.95069   1.06671    0.094
 4186.00    0.99856   1.05758    0.095
 4187.00    1.03380   1.05483    0.095
 4188.00    1.06330   1.06213    0.095
 4189.00    1.11201   1.07513    0.096
 4190.00    1.16822   1.08825    0.097
 4191.00    1.16189   1.09660    0.096
 4192.00    1.13481   1.09345    0.095
 4193.00    1.07387   1.07328    0.094
 4194.00    1.00349   1.03842    0.093
 4195.00    0.97833   0.99830    0.093
 4196.00    0.96353   0.96315    0.093
 4197.00    0.94686   0.93962    0.093
 4198.00    0.92985   0.93005    0.093
 4199.00    0.93224   0.93302    0.092
 4200.00    0.93738   0.94618    0.090
 4201.00    1.00859   0.97025    0.090
 4202.00    1.08654   1.00587    0.091
 4203.00    1.05847   1.04904    0.091
 4204.00    1.02350   1.09359    0.090
 4205.00    1.00459   1.13308    0.090
 4206.00    0.98625   1.16174    0.090
 4207.00    1.01311   1.17640    0.090
 4208.00    1.03952   1.17721    0.091
 4209.00    1.05269   1.16755    0.091
 4210.00    1.06748   1.15134    0.091
 4211.00    1.10601   1.13001    0.090
 4212.00    1.14176   1.10632    0.090
 4213.00    1.15122   1.08898    0.090
 4214.00    1.15841   1.09074    0.090
 4215.00    1.15004   1.12020    0.089
 4216.00    1.14806   1.17212    0.088
 4217.00    1.18004   1.22770    0.089
 4218.00    1.20289   1.26613    0.090
 4219.00    1.18676   1.27212    0.090
 4220.00    1.15235   1.23742    0.089
 4221.00    1.05352   1.16267    0.088
 4222.00    0.97893   1.05897    0.087
 4223.00    0.97616   0.94581    0.087
 4224.00    0.97531   0.84775    0.086
 4225.00    0.97930   0.79021    0.087
 4226.00    0.99354   0.79025    0.088
 4227.00    1.03006   0.84585    0.088
 4228.00    1.08124   0.93461    0.087
 4229.00    1.16007   1.02625    0.088
 4230.00    1.19353   1.09586    0.087
 4231.00    1.15232   1.13178    0.086
 4232.00    1.13412   1.13855    0.086
 4233.00    1.14914   1.13000    0.086
 4234.00    1.13903   1.11898    0.086
 4235.00    1.09701   1.11533    0.086
 4236.00    1.08366   1.12493    0.086
 4237.00    1.10238   1.14781    0.085
 4238.00    1.13875   1.18176    0.085
 4239.00    1.19254   1.22472    0.086
 4240.00    1.20792   1.27286    0.086
 4241.00    1.18987   1.32016    0.086
 4242.00    1.17424   1.35982    0.086
 4243.00    1.16044   1.38303    0.085
 4244.00    1.18640   1.37999    0.086
 4245.00    1.23914   1.34727    0.088
 4246.00    1.24189   1.29146    0.090
 4247.00    1.21511   1.22536    0.092
 4248.00    1.18388   1.16234    0.093
 4249.00    1.15036   1.11319    0.093
 4250.00    1.12736   1.08370    0.093
 4251.00    1.10905   1.07168    0.092
 4252.00    1.09777   1.07153    0.092
 4253.00    1.08917   1.08188    0.091
 4254.00    1.06836   1.10273    0.089
 4255.00    1.04357   1.12753    0.087
 4256.00    1.09669   1.14397    0.088
 4257.00    1.17109   1.14564    0.089
 4258.00    1.16633   1.13988    0.090
 4259.00    1.14384   1.14354    0.091
 4260.00    1.12844   1.17139    0.091
 4261.00    1.11432   1.22482    0.091
 4262.00    1.11390   1.28977    0.091
 4263.00    1.11536   1.34594    0.091
 4264.00    1.13553   1.37602    0.092
 4265.00    1.15753   1.36955    0.092
 4266.00    1.18788   1.32494    0.092
 4267.00    1.21874   1.24943    0.092
 4268.00    1.18913   1.15542    0.091
 4269.00    1.15756   1.05864    0.090
 4270.00    1.06130   0.97793    0.093
 4271.00    0.96932   0.93003    0.097
 4272.00    0.99062   0.92219    0.096
 4273.00    1.01208   0.95288    0.096
 4274.00    1.03568   1.01502    0.097
 4275.00    1.06234   1.09434    0.097
 4276.00    1.11675   1.17094    0.095
 4277.00    1.16419   1.22715    0.092
 4278.00    1.16524   1.25497    0.091
 4279.00    1.16904   1.25920    0.091
 4280.00    1.18703   1.25130    0.091
 4281.00    1.20273   1.24032    0.092
 4282.00    1.20879   1.22925   -2.000
 4283.00    1.19595   1.21569   -2.000
 4284.00    1.11782   1.19590   -2.000
 4285.00    1.06598   1.16799   -2.000
 4286.00    1.09056   1.13193   -2.000
 4287.00    1.11047   1.09161   -2.000
 4288.00    1.11878   1.05760   -2.000
 4289.00    1.13912   1.04216   -2.000
 4290.00    1.18518   1.05001   -2.000
 4291.00    1.20233   1.07425   -2.000
 4292.00    1.16583   1.10061   -2.000
 4293.00    1.13273   1.11615   -2.000
 4294.00    1.10515   1.11282   -2.000
 4295.00    1.11292   1.08684   -2.000
 4296.00    1.17098   1.04047   -2.000
 4297.00    1.16759   0.98272   -2.000
 4298.00    1.08730   0.92729    0.091
 4299.00    1.00524   0.88646    0.089
 4300.00    0.92124   0.86401    0.088
 4301.00    0.90014   0.85525    0.088
 4302.00    0.94023   0.85131    0.088
 4303.00    0.94857   0.84269    0.088
 4304.00    0.92967   0.82461    0.089
 4305.00    0.91067   0.80049    0.088
 4306.00    0.89161   0.78080    0.088
 4307.00    0.86735   0.77880    0.087
 4308.00    0.83963   0.80414    0.087
 4309.00    0.88945   0.85879    0.087
 4310.00    0.98437   0.93849    0.088
 4311.00    1.07666   1.03648    0.087
 4312.00    1.16762   1.14633    0.087
 4313.00    1.18616   1.26301    0.086
 4314.00    1.17293   1.37919    0.085
 4315.00    1.21649   1.48106    0.086
 4316.00    1.28143   1.55322    0.087
 4317.00    1.34707   1.58656    0.088
 4318.00    1.41293   1.57924    0.089
 4319.00    1.37246   1.53481    0.088
 4320.00    1.30358   1.46045    0.087
 4321.00    1.28956   1.36545    0.086
 4322.00    1.28754   1.26497    0.086
 4323.00    1.18905   1.18212    0.086
 4324.00    1.07378   1.14201    0.086
 4325.00    1.12050   1.15953    0.087
 4326.00    1.18865   1.22855    0.088
 4327.00    1.24641   1.32468    0.087
 4328.00    1.30321   1.42013    0.086
 4329.00    1.31648   1.49815    0.086
 4330.00    1.32725   1.55457    0.000
 4331.00    1.33562   1.59100    0.000
 4332.00    1.34373   1.60843    0.000
 4333.00    1.32935   1.60336    0.000
 4334.00    1.31703   1.56906    0.000
 4335.00    1.35412   1.50438    0.000
 4336.00    1.38775   1.42194    0.000
 4337.00    1.37639   1.34286    0.000
 4338.00    1.35834   1.28708    0.000
 4339.00    1.28191   1.26796    0.000
 4340.00    1.21951   1.28647    0.000
 4341.00    1.24769   1.33076    0.000
 4342.00    1.27658   1.38614    0.000
 4343.00    1.30908   1.44224    0.000
 4344.00    1.33404   1.49133    0.000
 4345.00    1.32824   1.52875    0.000
 4346.00    1.31740   1.55205    0.000
 4347.00    1.28954   1.55570    0.000
 4348.00    1.25707   1.53292    0.000
 4349.00    1.21142   1.48606    0.000
 4350.00    1.20276   1.43182    0.000
 4351.00    1.28430   1.39145    0.085
 4352.00    1.35264   1.37782    0.086
 4353.00    1.39325   1.39139    0.086
 4354.00    1.39657   1.42313    0.086
 4355.00    1.33174   1.45884    0.084
 4356.00    1.29776   1.48685    0.083
 4357.00    1.31304   1.50565    0.084
 4358.00    1.35649   1.52245    0.085
 4359.00    1.43940   1.54425    0.084
 4360.00    1.49114   1.57233    0.085
 4361.00    1.50441   1.60304    0.086
 4362.00    1.49911   1.63002    0.086
 4363.00    1.47361   1.64489    0.086
 4364.00    1.44309   1.64081    0.085
 4365.00    1.40776   1.61816    0.084
 4366.00    1.40704   1.58486    0.084
 4367.00    1.43560   1.55047    0.085
 4368.00    1.42885   1.52035    0.086
 4369.00    1.39582   1.49417    0.086
 4370.00    1.34961   1.46739    0.085
 4371.00    1.29478   1.43599    0.084
 4372.00    1.27200   1.40254    0.084
 4373.00    1.26758   1.37667    0.085
 4374.00    1.27934   1.36836    0.085
 4375.00    1.29915   1.37882    0.085
 4376.00    1.29622   1.39651    0.086
 4377.00    1.28347   1.40262    0.086
 4378.00    1.25151   1.38016    0.086
 4379.00    1.21245   1.32177    0.085
 4380.00    1.19782   1.23422    0.085
 4381.00    1.19085   1.13892    0.084
 4382.00    1.16869   1.06532    0.084
 4383.00    1.14256   1.03581    0.083
 4384.00    1.15466   1.05397    0.082
 4385.00    1.17494   1.10524    0.083
 4386.00    1.19684   1.16768    0.083
 4387.00    1.21902   1.22347    0.084
 4388.00    1.24766   1.26558    0.083
 4389.00    1.27713   1.29672    0.082
 4390.00    1.30377   1.32307    0.083
 4391.00    1.33017   1.34940    0.085
 4392.00    1.33172   1.37860    0.084
 4393.00    1.33195   1.41258    0.082
 4394.00    1.35286   1.45038    0.083
 4395.00    1.37418   1.48570    0.084
 4396.00    1.39626   1.50902    0.084
 4397.00    1.41485   1.51262    0.085
 4398.00    1.35671   1.49458    0.085
 4399.00    1.29986   1.45826    0.086
 4400.00    1.25885   1.40720    0.084
 4401.00    1.22319   1.34442    0.083
 4402.00    1.23263   1.27766    0.083
 4403.00    1.24058   1.22068    0.084
 4404.00    1.23923   1.18753    0.084
 4405.00    1.24058   1.18759    0.084
 4406.00    1.25522   1.22330    0.085
 4407.00    1.27508   1.28818    0.085
 4408.00    1.31578   1.36727    0.085
 4409.00    1.36961   1.44161    0.086
 4410.00    1.46699   1.49342    0.085
 4411.00    1.52374   1.51158    0.085
 4412.00    1.46668   1.49820    0.085
 4413.00    1.42365   1.46997    0.084
 4414.00    1.41425   1.44848    0.085
 4415.00    1.40425   1.44916    0.086
 4416.00    1.39300   1.47386    0.085
 4417.00    1.40348   1.51064    0.085
 4418.00    1.45307   1.54135    0.086
 4419.00    1.50248   1.55302    0.087
 4420.00    1.55160   1.54465    0.087
 4421.00    1.55415   1.52499    0.086
 4422.00    1.49234   1.50502    0.086
 4423.00    1.46070   1.49248    0.086
 4424.00    1.46576   1.48956    0.087
 4425.00    1.46637   1.49348    0.087
 4426.00    1.46220   1.49892    0.087
 4427.00    1.43971   1.50137    0.086
 4428.00    1.39990   1.49939    0.086
 4429.00    1.40007   1.49222    0.086
 4430.00    1.43358   1.47825    0.086
 4431.00    1.44776   1.45771    0.086
 4432.00    1.44776   1.43553    0.086
 4433.00    1.44183   1.42156    0.086
 4434.00    1.43210   1.42628    0.086
 4435.00    1.46554   1.45357    0.086
 4436.00    1.52334   1.49629    0.087
 4437.00    1.50012   1.53811    0.088
 4438.00    1.43713   1.56283    0.088
 4439.00    1.43390   1.56470    0.087
 4440.00    1.45605   1.55166    0.087
 4441.00    1.48685   1.54014    0.088
 4442.00    1.52079   1.54450    0.089
 4443.00    1.50360   1.56867    0.089
 4444.00    1.47067   1.60586    0.088
 4445.00    1.51923   1.64408    0.087
 4446.00    1.58864   1.67209    0.087
 4447.00    1.57780   1.68392    0.087
 4448.00    1.55022   1.67869    0.088
 4449.00    1.53148   1.65718    0.087
 4450.00    1.51420   1.62030    0.087
 4451.00    1.50788   1.57020    0.086
 4452.00    1.50291   1.51202    0.086
 4453.00    1.44655   1.45373    0.085
 4454.00    1.38582   1.40324    0.085
 4455.00    1.41392   1.36543    0.085
 4456.00    1.44640   1.34077    0.084
 4457.00    1.41675   1.32663    0.084
 4458.00    1.38701   1.32141    0.084
 4459.00    1.41391   1.32703    0.084
 4460.00    1.43847   1.34624    0.084
 4461.00    1.41559   1.37876    0.000
 4462.00    1.39890   1.41979    0.000
 4463.00    1.45491   1.46093    0.000
 4464.00    1.50717   1.49404    0.000
 4465.00    1.52899   1.51536    0.000
 4466.00    1.54230   1.52734    0.000
 4467.00    1.50380   1.53649    0.000
 4468.00    1.48578   1.55011    0.000
 4469.00    1.56608   1.57327    0.000
 4470.00    1.62953   1.60669    0.000
 4471.00    1.62718   1.64689    0.000
 4472.00    1.62658   1.68844    0.000
 4473.00    1.63165   1.72581    0.000
 4474.00    1.63772   1.75384    0.000
 4475.00    1.64654   1.76762    0.000
 4476.00    1.65083   1.76294    0.000
 4477.00    1.64443   1.73883    0.000
 4478.00    1.62863   1.70085    0.000
 4479.00    1.59370   1.66201    0.000
 4480.00    1.56326   1.63783    0.000
 4481.00    1.54080   1.63883    0.000
 4482.00    1.53459   1.66410    0.084
 4483.00    1.55359   1.70131    0.084
 4484.00    1.59118   1.73277    0.084
 4485.00    1.65409   1.74458    0.085
 4486.00    1.68429   1.73304    0.085
 4487.00    1.67529   1.70504    0.084
 4488.00    1.63759   1.67252    0.084
 4489.00    1.56955   1.64495    0.084
 4490.00    1.54106   1.62468    0.083
 4491.00    1.54945   1.60844    0.083
 4492.00    1.55513   1.59318    0.083
 4493.00    1.55860   1.58110    0.084
 4494.00    1.59316   1.57904    0.084
 4495.00    1.65021   1.59318    0.085
 4496.00    1.65641   1.62376    0.084
 4497.00    1.63029   1.66496    0.083
 4498.00    1.59852   1.70925    0.083
 4499.00    1.56360   1.75215    0.082
 4500.00    1.60814   1.79346    0.082
 4501.00    1.69106   1.83390    0.082
 4502.00    1.75385   1.87127    0.083
 4503.00    1.80825   1.90034    0.084
 4504.00    1.76091   1.91633    0.084
 4505.00    1.67725   1.91878    0.083
 4506.00    1.73711   1.91146    0.083
 4507.00    1.84024   1.89910    0.083
 4508.00    1.82178   1.88382    0.083
 4509.00    1.77286   1.86458    0.082
 4510.00    1.73716   1.83986    0.082
 4511.00    1.70415   1.81080    0.083
 4512.00    1.68895   1.78187    0.083
 4513.00    1.67660   1.75885    0.083
 4514.00    1.69616   1.74601    0.083
 4515.00    1.71951   1.74463    0.082
 4516.00    1.65907   1.75352    0.082
 4517.00    1.59186   1.76936    0.082
 4518.00    1.63359   1.78666    0.081
 4519.00    1.68027   1.79789    0.080
 4520.00    1.68044   1.79518    0.081
 4521.00    1.67950   1.77306    0.082
 4522.00    1.65151   1.73065    0.081
 4523.00    1.62542   1.67182    0.081
 4524.00    1.63511   1.60417    0.081
 4525.00    1.64063   1.53748    0.081
 4526.00    1.59943   1.48186    0.081
 4527.00    1.56140   1.44520    0.081
 4528.00    1.54816   1.43048    0.081
 4529.00    1.53358   1.43464    0.081
 4530.00    1.51105   1.45060    0.080
 4531.00    1.49695   1.47136    0.080
 4532.00    1.52234   1.49431    0.080
 4533.00    1.54295   1.52185    0.081
 4534.00    1.54537   1.55743    0.081
 4535.00    1.55807   1.60047    0.081
 4536.00    1.60360   1.64413    0.082
 4537.00    1.63230   1.67902    0.082
 4538.00    1.61549   1.69913    0.081
 4539.00    1.61738   1.70530    0.081
 4540.00    1.66258   1.70314    0.080
 4541.00    1.69006   1.69805    0.080
 4542.00    1.68205   1.69244    0.081
 4543.00    1.67129   1.68620    0.081
 4544.00    1.65576   1.67888    0.081
 4545.00    1.63645   1.67098    0.081
 4546.00    1.61138   1.66350    0.081
 4547.00    1.59446   1.65720    0.081
 4548.00    1.58849   1.65220    0.080
 4549.00    1.57751   1.64807    0.080
 4550.00    1.56063   1.64458    0.000
 4551.00    1.57668   1.64294    0.000
 4552.00    1.62707   1.64662    0.000
 4553.00    1.64483   1.66041    0.000
 4554.00    1.63258   1.68744    0.000
 4555.00    1.64600   1.72621    0.000
 4556.00    1.68023   1.76991    0.000
 4557.00    1.69926   1.80888    0.000
 4558.00    1.70745   1.83440    0.000
 4559.00    1.72695   1.84182    0.000
 4560.00    1.75353   1.83168    0.000
 4561.00    1.75455   1.80939    0.000
 4562.00    1.74159   1.78410    0.000
 4563.00    1.71972   1.76599    0.000
 4564.00    1.69362   1.76227    0.000
 4565.00    1.72457   1.77333    0.000
 4566.00    1.77892   1.79226    0.000
 4567.00    1.78855   1.80903    0.000
 4568.00    1.78251   1.81683    0.000
 4569.00    1.78960   1.81585    0.000
 4570.00    1.80057   1.81192    0.000
 4571.00    1.81839   1.81100    0.000
 4572.00    1.83788   1.81445    0.000
 4573.00    1.82543   1.81804    0.000
 4574.00    1.80666   1.81510    0.000
 4575.00    1.79949   1.80063    0.000
 4576.00    1.79413   1.77431    0.000
 4577.00    1.79098   1.74072    0.000
 4578.00    1.78809   1.70764    0.000
 4579.00    1.69184   1.68267    0.000
 4580.00    1.58843   1.66994    0.000
 4581.00    1.64196   1.66876    0.000
 4582.00    1.70201   1.67559    0.000
 4583.00    1.67635   1.68749    0.000
 4584.00    1.65114   1.70391    0.000
 4585.00    1.67743   1.72521    0.000
 4586.00    1.70159   1.74943    0.000
 4587.00    1.68855   1.77085    0.000
 4588.00    1.67865   1.78197    0.000
 4589.00    1.70251   1.77783    0.000
 4590.00    1.72904   1.75904    0.000
 4591.00    1.77573   1.73135    0.000
 4592.00    1.80788   1.70259    0.000
 4593.00    1.75640   1.67929    0.000
 4594.00    1.70728   1.66488    0.000
 4595.00    1.66891   1.65951    0.000
 4596.00    1.64035   1.66099    0.000
 4597.00    1.64841   1.66607    0.000
 4598.00    1.65813   1.67174    0.000
 4599.00    1.67301   1.67636    0.000
 4600.00    1.69667   1.67995    0.000
 4601.00    1.74367   1.68421    0.000
 4602.00    1.76959   1.69222    0.000
 4603.00    1.74747   1.70788    0.000
 4604.00    1.74412   1.73453    0.000
 4605.00    1.77779   1.77251    0.000
 4606.00    1.80549   1.81713    0.000
 4607.00    1.82292   1.85949    0.000
 4608.00    1.83980   1.89015    0.000
 4609.00    1.85584   1.90425    0.000
 4610.00    1.88334   1.90398    0.000
 4611.00    1.92597   1.89691    0.000
 4612.00    1.91558   1.89144    0.000
 4613.00    1.84340   1.89234    0.000
 4614.00    1.82167   1.89926    0.000
 4615.00    1.85178   1.90843    0.000
 4616.00    1.85603   1.91590    0.000
 4617.00    1.83685   1.91975    0.000
 4618.00    1.83473   1.92042    0.000
 4619.00    1.84625   1.91923    0.000
 4620.00    1.84229   1.91685    0.000
 4621.00    1.82745   1.91293    0.000
 4622.00    1.83069   1.90695    0.000
 4623.00    1.84509   1.89916    0.000
 4624.00    1.84191   1.89083    0.000
 4625.00    1.82928   1.88362    0.000
 4626.00    1.83020   1.87869    0.000
 4627.00    1.83746   1.87601    0.000
 4628.00    1.83378   1.87412    0.000
 4629.00    1.82569   1.87046    0.000
 4630.00    1.84044   1.86227    0.000
 4631.00    1.86305   1.84772    0.000
 4632.00    1.84021   1.82669    0.000
 4633.00    1.80420   1.80072    0.000
 4634.00    1.78242   1.77219    0.000
 4635.00    1.76405   1.74359    0.000
 4636.00    1.75045   1.71763    0.000
 4637.00    1.73776   1.69721    0.000
 4638.00    1.72163   1.68441    0.000
 4639.00    1.70499   1.67860    0.000
 4640.00    1.72103   1.67548    0.000
 4641.00    1.74068   1.66845    0.000
 4642.00    1.70424   1.65205    0.000
 4643.00    1.66373   1.62579    0.000
 4644.00    1.64222   1.59558    0.000
 4645.00    1.62142   1.57141    0.000
 4646.00    1.61841   1.56287    0.000
 4647.00    1.61639   1.57440    0.000
 4648.00    1.64824   1.60319    0.000
 4649.00    1.67965   1.64048    0.000
 4650.00    1.70401   1.67561    0.000
 4651.00    1.72820   1.70082    0.000
 4652.00    1.75057   1.71456    0.000
 4653.00    1.76563   1.72189    0.000
 4654.00    1.72718   1.73159    0.000
 4655.00    1.70124   1.75088    0.000
 4656.00    1.74519   1.78085    0.000
 4657.00    1.79553   1.81480    0.000
 4658.00    1.87437   1.84115    0.000
 4659.00    1.92236   1.84894    0.000
 4660.00    1.85737   1.83265    0.000
 4661.00    1.79921   1.79369    0.000
 4662.00    1.76204   1.73861    0.000
 4663.00    1.73302   1.67616    0.000
 4664.00    1.72524   1.61588    0.000
 4665.00    1.70752   1.56753    0.000
 4666.00    1.66751   1.54014    0.000
 4667.00    1.64668   1.53884    0.000
 4668.00    1.66313   1.56196    0.000
 4669.00    1.67250   1.60084    0.000
 4670.00    1.66989   1.64352    0.000
 4671.00    1.68017   1.68027    0.000
 4672.00    1.70958   1.70666    0.000
 4673.00    1.73604   1.72277    0.000
 4674.00    1.75865   1.73007    0.000
 4675.00    1.75809   1.72910    0.000
 4676.00    1.73089   1.71979    0.000
 4677.00    1.72705   1.70360    0.000
 4678.00    1.74689   1.68484    0.000
 4679.00    1.75094   1.66963    0.000
 4680.00    1.74089   1.66304    0.000
 4681.00    1.72757   1.66655    0.000
 4682.00    1.71166   1.67728    0.000
 4683.00    1.71533   1.68976    0.000
 4684.00    1.73255   1.69884    0.000
 4685.00    1.74104   1.70196    0.000
 4686.00    1.74422   1.69966    0.000
 4687.00    1.75188   1.69460    0.000
 4688.00    1.76192   1.68993    0.000
 4689.00    1.75324   1.68833    0.000
 4690.00    1.73595   1.69137    0.000
 4691.00    1.74811   1.69926    0.000
 4692.00    1.77194   1.71019    0.000
 4693.00    1.75242   1.72005    0.000
 4694.00    1.71827   1.72362    0.000
 4695.00    1.71011   1.71669    0.000
 4696.00    1.70931   1.69860    0.000
 4697.00    1.72505   1.67291    0.000
 4698.00    1.74466   1.64582    0.000
 4699.00    1.75247   1.62341    0.000
 4700.00    1.75806   1.60935    0.000
 4701.00    1.73766   1.60423    0.000
 4702.00    1.71350   1.60613    0.000
 4703.00    1.65925   1.61179    0.000
 4704.00    1.60183   1.61803    0.000
 4705.00    1.62834   1.62321    0.000
 4706.00    1.66061   1.62805    0.000
 4707.00    1.64933   1.63481    0.000
 4708.00    1.63658   1.64508    0.000
 4709.00    1.67239   1.65808    0.000
 4710.00    1.70773   1.67118    0.000
 4711.00    1.72508   1.68244    0.000
 4712.00    1.74085   1.69299    0.000
 4713.00    1.73222   1.70716    0.000
 4714.00    1.73150   1.72957    0.000
 4715.00    1.80835   1.76167    0.000
 4716.00    1.87434   1.80019    0.000
 4717.00    1.86353   1.83848    0.000
 4718.00    1.85911   1.86985    0.000
 4719.00    1.88939   1.89019    0.000
 4720.00    1.90677   1.89865    0.000
 4721.00    1.86792   1.89625    0.000
 4722.00    1.83180   1.88374    0.000
 4723.00    1.80549   1.86039    0.000
 4724.00    1.79756   1.82509    0.000
 4725.00    1.84498   1.77926    0.000
 4726.00    1.87462   1.72897    0.000
 4727.00    1.85869   1.68409    0.000
 4728.00    1.83935   1.65415    0.000
 4729.00    1.81250   1.64406    0.000
 4730.00    1.80026   1.65227    0.000
 4731.00    1.81596   1.67235    0.000
 4732.00    1.81509   1.69662    0.000
 4733.00    1.78657   1.71947    0.000
 4734.00    1.77713   1.73885    0.000
 4735.00    1.79556   1.75557    0.000
 4736.00    1.81338   1.77113    0.000
 4737.00    1.83041   1.78603    0.000
 4738.00    1.84978   1.79946    0.000
 4739.00    1.87179   1.81035    0.000
 4740.00    1.87449   1.81879    0.000
 4741.00    1.85790   1.82624    0.000
 4742.00    1.87248   1.83447    0.000
 4743.00    1.91453   1.84438    0.000
 4744.00    1.89637   1.85577    0.000
 4745.00    1.83148   1.86712    0.000
 4746.00    1.82161   1.87596    0.000
 4747.00    1.84929   1.87961    0.000
 4748.00    1.88396   1.87611    0.000
 4749.00    1.92280   1.86499    0.000
 4750.00    1.90152   1.84750    0.000
 4751.00    1.84886   1.82656    0.000
 4752.00    1.83684   1.80614    0.000
 4753.00    1.84322   1.78999    0.000
 4754.00    1.86702   1.78018    0.000
 4755.00    1.89758   1.77647    0.000
 4756.00    1.88515   1.77632    0.000
 4757.00    1.85846   1.77555    0.000
 4758.00    1.85984   1.76973    0.000
 4759.00    1.86903   1.75571    0.000
 4760.00    1.85420   1.73295    0.000
 4761.00    1.83388   1.70405    0.073
 4762.00    1.80373   1.67424    0.073
 4763.00    1.77179   1.65000    0.074
 4764.00    1.79245   1.63723    0.074
 4765.00    1.82052   1.63934    0.074
 4766.00    1.80542   1.65592    0.074
 4767.00    1.78595   1.68252    0.074
 4768.00    1.83051   1.71277    0.074
 4769.00    1.87922   1.74137    0.073
 4770.00    1.87788   1.76618    0.074
 4771.00    1.87511   1.78796    0.074
 4772.00    1.91358   1.80861    0.074
 4773.00    1.95038   1.82869    0.074
 4774.00    1.93870   1.84657    0.075
 4775.00    1.92887   1.85937    0.075
 4776.00    1.94571   1.86434    0.075
 4777.00    1.95868   1.85982    0.075
 4778.00    1.93522   1.84578    0.074
 4779.00    1.90938   1.82406    0.073
 4780.00    1.86720   1.79792    0.073
 4781.00    1.83168   1.77118    0.073
 4782.00    1.83141   1.74763    0.072
 4783.00    1.83009   1.73015    0.072
 4784.00    1.82431   1.71976    0.072
 4785.00    1.81939   1.71608    0.072
 4786.00    1.81749   1.71864    0.072
 4787.00    1.81456   1.72753    0.073
 4788.00    1.80860   1.74336    0.073
 4789.00    1.81393   1.76692    0.073
 4790.00    1.84770   1.79792    0.074
 4791.00    1.87211   1.83315    0.074
 4792.00    1.87622   1.86664    0.073
 4793.00    1.88042   1.89145    0.073
 4794.00    1.88477   1.90216    0.073
 4795.00    1.90089   1.89757    0.074
 4796.00    1.93631   1.88205    0.074
 4797.00    1.94220   1.86354    0.074
 4798.00    1.90551   1.85010    0.074
 4799.00    1.91208   1.84603    0.075
 4800.00    1.97348   1.84998    0.075
 4801.00    1.98704   1.85585    0.076
 4802.00    1.94717   1.85674    0.076
 4803.00    1.91398   1.84873    0.076
 4804.00    1.88738   1.83282    0.075
 4805.00    1.87964   1.81404    0.074
 4806.00    1.88828   1.79870    0.074
 4807.00    1.87275   1.79140    0.074
 4808.00    1.83871   1.79316    0.074
 4809.00    1.85536   1.80180    0.075
 4810.00    1.90611   1.81398    0.075
 4811.00    1.92403   1.82741    0.075
 4812.00    1.92260   1.84143    0.075
 4813.00    1.90883   1.85660    0.075
 4814.00    1.88872   1.87354    0.075
 4815.00    1.90819   1.89143    0.075
 4816.00    1.94529   1.90734    0.076
 4817.00    1.96863   1.91698    0.076
 4818.00    1.98670   1.91646    0.076
 4819.00    2.00856   1.90418    0.076
 4820.00    2.03164   1.88205    0.076
 4821.00    1.98008   1.85541    0.075
 4822.00    1.90819   1.83092    0.075
 4823.00    1.85566   1.81380    0.075
 4824.00    1.80746   1.80543    0.074
 4825.00    1.83112   1.80325    0.074
 4826.00    1.86758   1.80292    0.074
 4827.00    1.85015   1.80079    0.074
 4828.00    1.82538   1.79556    0.074
 4829.00    1.85378   1.78903    0.074
 4830.00    1.88736   1.78476    0.074
 4831.00    1.89600   1.78559    0.074
 4832.00    1.90314   1.79180    0.074
 4833.00    1.88979   1.80083    0.074
 4834.00    1.87580   1.80865    0.074
 4835.00    1.84505   1.81151    0.074
 4836.00    1.81592   1.80714    0.074
 4837.00    1.82933   1.79634    0.073
 4838.00    1.84250   1.78298    0.073
 4839.00    1.85249   1.77198    0.074
 4840.00    1.86294   1.76694    0.074
 4841.00    1.87745   1.76928    0.074
 4842.00    1.89130   1.77822    0.073
 4843.00    1.90069   1.79070    0.073
 4844.00    1.90438   1.80234    0.073
 4845.00    1.87860   1.80970    0.073
 4846.00    1.86458   1.81175    0.073
 4847.00    1.89954   1.80925    0.074
 4848.00    1.90664   1.80352    0.000
 4849.00    1.81783   1.79547    0.000
 4850.00    1.76395   1.78451    0.000
 4851.00    1.81137   1.76896    0.000
 4852.00    1.83300   1.74756    0.000
 4853.00    1.79084   1.72062    0.000
 4854.00    1.75352   1.69040    0.000
 4855.00    1.72655   1.65887    0.000
 4856.00    1.70224   1.62605    0.000
 4857.00    1.68283   1.59203    0.000
 4858.00    1.66821   1.55931    0.000
 4859.00    1.66132   1.53275    0.000
 4860.00    1.64300   1.51844    0.000
 4861.00    1.60848   1.52137    0.000
 4862.00    1.60983   1.54141    0.000
 4863.00    1.65601   1.57242    0.000
 4864.00    1.69219   1.60489    0.000
 4865.00    1.71734   1.62912    0.000
 4866.00    1.72575   1.63884    0.000
 4867.00    1.71791   1.63368    0.000
 4868.00    1.70532   1.61762    0.000
 4869.00    1.68867   1.59762    0.000
 4870.00    1.69340   1.58271    0.000
 4871.00    1.71424   1.58047    0.000
 4872.00    1.71756   1.59372    0.000
 4873.00    1.70926   1.62077    0.000
 4874.00    1.74290   1.65689    0.000
 4875.00    1.80089   1.69495    0.073
 4876.00    1.81101   1.72787    0.073
 4877.00    1.79693   1.75160    0.072
 4878.00    1.82559   1.76432    0.072
 4879.00    1.87296   1.76489    0.072
 4880.00    1.89043   1.75395    0.072
 4881.00    1.89666   1.73420    0.072
 4882.00    1.82980   1.70843    0.071
 4883.00    1.73962   1.67991    0.071
 4884.00    1.74156   1.65224    0.071
 4885.00    1.76806   1.62730    0.072
 4886.00    1.75229   1.60651    0.072
 4887.00    1.72731   1.59291    0.072
 4888.00    1.76971   1.59077    0.072
 4889.00    1.82381   1.60406    0.073
 4890.00    1.85727   1.63553    0.075
 4891.00    1.88802   1.68506    0.077
 4892.00    1.92335   1.74747    0.078
 4893.00    1.95911   1.81286    0.078
 4894.00    1.98497   1.86914    0.078
 4895.00    2.01027   1.90601    0.079
 4896.00    2.01479   1.91979    0.078
 4897.00    2.01863   1.91414    0.077
 4898.00    2.00044   1.89642    0.075
 4899.00    1.98190   1.87483    0.074
 4900.00    1.95503   1.85614    0.073
 4901.00    1.93042   1.84427    0.072
 4902.00    1.93504   1.84023    0.073
 4903.00    1.93838   1.84153    0.073
 4904.00    1.93058   1.84259    0.073
 4905.00    1.92079   1.83835    0.072
 4906.00    1.89820   1.82645    0.073
 4907.00    1.87282   1.80783    0.073
 4908.00    1.83345   1.78733    0.072
 4909.00    1.81391   1.77210    0.072
 4910.00    1.87511   1.76757    0.073
 4911.00    1.92436   1.77339    0.073
 4912.00    1.93331   1.78291    0.073
 4913.00    1.93193   1.78596    0.073
 4914.00    1.90111   1.77287    0.072
 4915.00    1.86651   1.73908    0.072
 4916.00    1.82271   1.68806    0.072
 4917.00    1.78391   1.63028    0.072
 4918.00    1.75559   1.57992    0.072
 4919.00    1.75066   1.55003    0.071
 4920.00    1.78841   1.54775    0.071
 4921.00    1.80322   1.57221    0.071
 4922.00    1.78146   1.61606    0.071
 4923.00    1.77160   1.66973    0.071
 4924.00    1.77839   1.72519    0.072
 4925.00    1.81378   1.77763    0.072
 4926.00    1.88441   1.82437    0.072
 4927.00    1.92236   1.86226    0.072
 4928.00    1.92485   1.88660    0.073
 4929.00    1.93900   1.89371    0.073
 4930.00    1.96430   1.88375    0.072
 4931.00    1.95863   1.85978    0.072
 4932.00    1.92682   1.82660    0.072
 4933.00    1.88131   1.78960    0.072
 4934.00    1.82562   1.75339    0.072
 4935.00    1.81063   1.72242    0.072
 4936.00    1.82221   1.70151    0.071
 4937.00    1.84111   1.69445    0.071
 4938.00    1.86421   1.70390    0.072
 4939.00    1.88232   1.73055    0.073
 4940.00    1.89795   1.77057    0.000
 4941.00    1.89096   1.81557    0.000
 4942.00    1.87424   1.85610    0.000
 4943.00    1.89326   1.88648    0.000
 4944.00    1.92548   1.90702    0.000
 4945.00    1.95379   1.92128    0.000
 4946.00    1.98089   1.93215    0.000
 4947.00    2.02708   1.94082    0.000
 4948.00    2.07824   1.94618    0.000
 4949.00    2.07684   1.94428    0.000
 4950.00    2.06425   1.93050    0.000
 4951.00    2.01236   1.90228    0.000
 4952.00    1.95384   1.85993    0.000
 4953.00    1.94638   1.80702    0.000
 4954.00    1.94540   1.75121    0.000
 4955.00    1.95039   1.70333    0.000
 4956.00    1.95590   1.67349    0.000
 4957.00    1.93024   1.66693    0.000
 4958.00    1.90295   1.68213    0.000
 4959.00    1.90844   1.71167    0.000
 4960.00    1.91469   1.74327    0.000
 4961.00    1.93042   1.76376    0.000
 4962.00    1.94347   1.76666    0.000
 4963.00    1.89841   1.75522    0.000
 4964.00    1.85718   1.73760    0.000
 4965.00    1.86288   1.72168    0.000
 4966.00    1.86928   1.71357    0.000
 4967.00    1.88154   1.71722    0.000
 4968.00    1.89058   1.73257    0.000
 4969.00    1.87943   1.75548    0.000
 4970.00    1.87156   1.78050    0.000
 4971.00    1.87978   1.80236    0.000
 4972.00    1.88914   1.81636    0.000
 4973.00    1.90304   1.81904    0.000
 4974.00    1.90941   1.80843    0.000
 4975.00    1.89089   1.78459    0.000
 4976.00    1.87140   1.74941    0.000
 4977.00    1.84917   1.70604    0.000
 4978.00    1.82900   1.65875    0.000
 4979.00    1.81376   1.61245    0.000
 4980.00    1.79406   1.57292    0.000
 4981.00    1.76513   1.54603    0.000
 4982.00    1.73929   1.53567    0.000
 4983.00    1.71897   1.54342    0.000
 4984.00    1.70478   1.56796    0.000
 4985.00    1.70021   1.60344    0.000
 4986.00    1.70988   1.64062    0.000
 4987.00    1.73919   1.67200    0.000
 4988.00    1.78316   1.69434    0.000
 4989.00    1.84492   1.70760    0.000
 4990.00    1.86781   1.71422    0.000
 4991.00    1.84911   1.71752    0.000
 4992.00    1.85042   1.71931    0.000
 4993.00    1.87062   1.71923    0.000
 4994.00    1.86738   1.71486    0.000
 4995.00    1.84463   1.70385    0.000
 4996.00    1.82598   1.68596    0.000
 4997.00    1.81034   1.66161    0.000
 4998.00    1.80612   1.63229    0.000
 4999.00    1.80925   1.60136    0.000
 5000.00    1.79770   1.57201    0.000
 5001.00    1.77789   1.54693    0.000
 5002.00    1.79540   1.52796    0.000
 5003.00    1.83118   1.51572    0.000
 5004.00    1.83776   1.51090    0.000
 5005.00    1.83199   1.51378    0.000
 5006.00    1.82370   1.52269    0.000
 5007.00    1.81451   1.53365    0.000
 5008.00    1.79474   1.54108    0.000
 5009.00    1.77173   1.53922    0.000
 5010.00    1.77381   1.52550    0.000
 5011.00    1.78230   1.50401    0.000
 5012.00    1.77360   1.48287    0.000
 5013.00    1.76132   1.46910    0.000
 5014.00    1.70697   1.46630    0.000
 5015.00    1.64574   1.47383    0.000
 5016.00    1.63139   1.48778    0.000
 5017.00    1.62280   1.50319    0.000
 5018.00    1.65705   1.51649    0.000
 5019.00    1.69493   1.52763    0.000
 5020.00    1.69765   1.53842    0.000
 5021.00    1.69864   1.54963    0.000
 5022.00    1.69172   1.56137    0.000
 5023.00    1.68462   1.57401    0.000
 5024.00    1.67352   1.58818    0.000
 5025.00    1.66466   1.60371    0.000
 5026.00    1.70082   1.62054    0.000
 5027.00    1.73668   1.64014    0.000
 5028.00    1.76912   1.66325    0.000
 5029.00    1.79947   1.68827    0.071
 5030.00    1.81302   1.71042    0.071
 5031.00    1.82218   1.72231    0.071
 5032.00    1.80465   1.71897    0.071
 5033.00    1.79155   1.69951    0.071
 5034.00    1.79956   1.66551    0.071
 5035.00    1.79656   1.62104    0.071
 5036.00    1.75067   1.57280    0.070
 5037.00    1.70728   1.52955    0.070
 5038.00    1.67194   1.49952    0.070
 5039.00    1.64432   1.48739    0.070
 5040.00    1.63788   1.49599    0.069
 5041.00    1.64971   1.52607    0.070
 5042.00    1.70452   1.57239    0.071
 5043.00    1.74695   1.62369    0.071
 5044.00    1.76420   1.66511    0.071
 5045.00    1.76935   1.68562    0.070
 5046.00    1.75310   1.68429    0.070
 5047.00    1.74183   1.66760    0.070
 5048.00    1.73827   1.64524    0.070
 5049.00    1.74816   1.62802    0.071
 5050.00    1.77632   1.62444    0.071
 5051.00    1.79581   1.63667    0.072
 5052.00    1.80492   1.66081    0.072
 5053.00    1.81438   1.69106    0.072
 5054.00    1.82422   1.72263    0.072
 5055.00    1.82551   1.75143    0.071
 5056.00    1.81885   1.77438    0.071
 5057.00    1.84342   1.78995    0.071
 5058.00    1.89361   1.79750    0.072
 5059.00    1.90234   1.79577    0.072
 5060.00    1.88112   1.78305    0.071
 5061.00    1.86330   1.75959    0.070
 5062.00    1.84763   1.72814    0.070
 5063.00    1.82645   1.69306    0.070
 5064.00    1.80221   1.66028    0.071
 5065.00    1.77869   1.63551    0.071
 5066.00    1.75552   1.62252    0.070
 5067.00    1.75835   1.62062    0.070
 5068.00    1.77201   1.62439    0.069
 5069.00    1.77068   1.62956    0.069
 5070.00    1.76402   1.63494    0.068
 5071.00    1.76423   1.63885    0.069
 5072.00    1.76651   1.63844    0.069
 5073.00    1.74991   1.63256    0.069
 5074.00    1.72858   1.62155    0.069
 5075.00    1.72555   1.60383    0.069
 5076.00    1.72622   1.57841    0.069
 5077.00    1.72465   1.54925    0.069
 5078.00    1.72272   1.52274    0.069
 5079.00    1.67703   1.50362    0.068
 5080.00    1.62617   1.49593    0.067
 5081.00    1.62840   1.50362    0.067
 5082.00    1.63491   1.52551    0.066
 5083.00    1.68187   1.55471    0.066
 5084.00    1.73065   1.58532    0.067
 5085.00    1.74855   1.61515    0.066
 5086.00    1.76605   1.64276    0.066
 5087.00    1.78161   1.66656    0.066
 5088.00    1.79738   1.68633    0.066
 5089.00    1.81727   1.70239    0.066
 5090.00    1.83444   1.71366    0.065
 5091.00    1.82126   1.71756    0.066
 5092.00    1.80730   1.71187    0.067
 5093.00    1.78716   1.69612    0.067
 5094.00    1.76830   1.67140    0.067
 5095.00    1.75706   1.64100    0.067
 5096.00    1.74636   1.61124    0.068
 5097.00    1.73824   1.58903    0.067
 5098.00    1.72765   1.57791    0.066
 5099.00    1.70767   1.57730    0.066
 5100.00    1.69825   1.58406    0.066
 5101.00    1.72242   1.59335    0.066
 5102.00    1.73621   1.59836    0.066
 5103.00    1.72202   1.59467    0.066
 5104.00    1.70226   1.58354    0.067
 5105.00    1.66962   1.56969    0.068
 5106.00    1.65568   1.55781    0.068
 5107.00    1.67914   1.55114    0.068
 5108.00    1.70368   1.55197    0.068
 5109.00    1.73013   1.56231    0.068
 5110.00    1.75703   1.58166    0.068
 5111.00    1.78463   1.60721    0.070
 5112.00    1.78459   1.63653    0.070
 5113.00    1.74754   1.66553    0.070
 5114.00    1.74231   1.68946    0.070
 5115.00    1.77465   1.70571    0.070
 5116.00    1.79789   1.71153    0.071
 5117.00    1.81167   1.70462    0.071
 5118.00    1.80382   1.68487    0.072
 5119.00    1.77612   1.65340    0.072
 5120.00    1.75675   1.61383    0.071
 5121.00    1.74414   1.57219    0.070
 5122.00    1.70861   1.53455    0.069
 5123.00    1.65678   1.50530    0.069
 5124.00    1.63151   1.48656    0.069
 5125.00    1.62284   1.47970    0.069
 5126.00    1.61087   1.48414    0.069
 5127.00    1.59709   1.49660    0.069
 5128.00    1.63265   1.51450    0.070
 5129.00    1.69161   1.53677    0.071
 5130.00    1.60706   1.56128    0.070
 5131.00    1.46377   1.58451    0.069
 5132.00    1.53978   1.60258    0.069
 5133.00    1.69246   1.61179    0.069
 5134.00    1.73505   1.61078    0.070
 5135.00    1.74519   1.60159    0.071
 5136.00    1.71975   1.58716    0.070
 5137.00    1.68562   1.56941    0.069
 5138.00    1.70819   1.55198    0.070
 5139.00    1.74195   1.53865    0.071
 5140.00    1.69483   1.52974    0.070
 5141.00    1.63524   1.52433    0.069
 5142.00    1.63992   1.51922    0.069
 5143.00    1.65192   1.51218    0.069
 5144.00    1.66257   1.50631    0.069
 5145.00    1.67311   1.50254    0.068
 5146.00    1.64974   1.49811    0.068
 5147.00    1.62499   1.49363    0.068
 5148.00    1.64489   1.49149    0.068
 5149.00    1.66352   1.49254    0.068
 5150.00    1.61347   1.49710    0.067
 5151.00    1.56734   1.50576    0.067
 5152.00    1.58903   1.52068    0.067
 5153.00    1.61378   1.54338    0.067
 5154.00    1.67114   1.57190    0.067
 5155.00    1.72092   1.60200    0.067
 5156.00    1.71370   1.62844    0.067
 5157.00    1.70648   1.64506    0.068
 5158.00    1.69922   1.64659    0.068
 5159.00    1.68830   1.62968    0.067
 5160.00    1.66070   1.59315    0.067
 5161.00    1.63079   1.53882    0.067
 5162.00    1.59227   1.46910    0.066
 5163.00    1.55656   1.38858    0.066
 5164.00    1.52958   1.30623    0.067
 5165.00    1.49115   1.23018    0.066
 5166.00    1.42236   1.16623    0.065
 5167.00    1.35468   1.12000    0.064
 5168.00    1.28955   1.09475    0.064
 5169.00    1.25045   1.09034    0.064
 5170.00    1.26259   1.10321    0.064
 5171.00    1.28562   1.12877    0.064
 5172.00    1.32734   1.16501    0.065
 5173.00    1.35653   1.21324    0.064
 5174.00    1.36688   1.27159    0.064
 5175.00    1.39730   1.32793    0.064
 5176.00    1.45426   1.36519    0.065
 5177.00    1.49801   1.37407    0.066
 5178.00    1.52640   1.35727    0.066
 5179.00    1.50981   1.32289    0.066
 5180.00    1.44708   1.28164    0.065
 5181.00    1.41094   1.24728    0.064
 5182.00    1.39885   1.23276    0.065
 5183.00    1.41418   1.24507    0.065
 5184.00    1.45138   1.28418    0.065
 5185.00    1.49156   1.34364    0.066
 5186.00    1.53382   1.40841    0.067
 5187.00    1.56744   1.45983    0.067
 5188.00    1.59574   1.48838    0.067
 5189.00    1.61214   1.49657    0.068
 5190.00    1.62215   1.49311    0.000
 5191.00    1.61316   1.48595    0.000
 5192.00    1.59531   1.48103    0.000
 5193.00    1.61820   1.48653    0.000
 5194.00    1.65748   1.50669    0.000
 5195.00    1.68166   1.53504    0.000
 5196.00    1.70067   1.56248    0.000
 5197.00    1.69829   1.58439    0.000
 5198.00    1.68973   1.59584    0.000
 5199.00    1.68898   1.59148    0.000
 5200.00    1.69011   1.56977    0.000
 5201.00    1.67961   1.53234    0.000
 5202.00    1.66688   1.48374    0.000
 5203.00    1.65553   1.43155    0.000
 5204.00    1.64439   1.38439    0.000
 5205.00    1.61457   1.34983    0.000
 5206.00    1.58271   1.33532    0.000
 5207.00    1.59663   1.34557    0.000
 5208.00    1.61386   1.37697    0.000
 5209.00    1.60574   1.42141    0.000
 5210.00    1.59669   1.47294    0.000
 5211.00    1.62700   1.52412    0.068
 5212.00    1.65831   1.56696    0.068
 5213.00    1.71937   1.59822    0.068
 5214.00    1.77565   1.61913    0.068
 5215.00    1.75441   1.63379    0.068
 5216.00    1.73645   1.64645    0.068
 5217.00    1.75184   1.65913    0.068
 5218.00    1.76709   1.66876    0.068
 5219.00    1.78132   1.66846    0.068
 5220.00    1.79129   1.65281    0.067
 5221.00    1.77749   1.62201    0.068
 5222.00    1.75945   1.58173    0.068
 5223.00    1.72253   1.53985    0.067
 5224.00    1.68911   1.50565    0.067
 5225.00    1.66851   1.48743    0.067
 5226.00    1.65375   1.48920    0.067
 5227.00    1.65685   1.50916    0.067
 5228.00    1.66368   1.54142    0.066
 5229.00    1.68022   1.57785    0.067
 5230.00    1.69393   1.60861    0.067
 5231.00    1.70132   1.63007    0.066
 5232.00    1.72098   1.64685    0.066
 5233.00    1.76443   1.66353    0.066
 5234.00    1.80696   1.68393    0.067
 5235.00    1.84793   1.70944    0.067
 5236.00    1.85338   1.73578    0.067
 5237.00    1.80619   1.75826    0.067
 5238.00    1.79440   1.77377    0.067
 5239.00    1.82867   1.78081    0.066
 5240.00    1.85553   1.78038    0.066
 5241.00    1.87389   1.77415    0.066
 5242.00    1.87214   1.76182    0.066
 5243.00    1.85006   1.74196    0.067
 5244.00    1.83095   1.71570    0.067
 5245.00    1.81449   1.68603    0.067
 5246.00    1.79120   1.65510    0.067
 5247.00    1.76253   1.62634    0.067
 5248.00    1.75388   1.60662    0.067
 5249.00    1.75906   1.60042    0.067
 5250.00    1.76547   1.60440    0.067
 5251.00    1.77263   1.61535    0.068
 5252.00    1.76377   1.63482    0.068
 5253.00    1.74645   1.66088    0.068
 5254.00    1.76693   1.68730    0.068
 5255.00    1.80477   1.70889    0.069
 5256.00    1.83928   1.72232    0.069
 5257.00    1.87248   1.72376    0.069
 5258.00    1.86805   1.70602    0.070
 5259.00    1.85096   1.66527    0.071
 5260.00    1.81672   1.60645    0.071
 5261.00    1.77764   1.53829    0.071
 5262.00    1.71438   1.46913    0.071
 5263.00    1.64547   1.40647    0.071
 5264.00    1.58014   1.35690    0.071
 5265.00    1.51549   1.32383    0.070
 5266.00    1.50222   1.30756    0.071
 5267.00    1.49639   1.30819    0.071
 5268.00    1.52316   1.32450    0.071
 5269.00    1.55337   1.35184    0.071
 5270.00    1.52943   1.38965    0.071
 5271.00    1.50179   1.44216    0.070
 5272.00    1.59461   1.50498    0.071
 5273.00    1.69146   1.56472    0.072
 5274.00    1.73883   1.61413    0.071
 5275.00    1.78468   1.65368    0.071
 5276.00    1.78349   1.68337    0.070
 5277.00    1.78359   1.70302    0.070
 5278.00    1.80341   1.71231    0.070
 5279.00    1.82160   1.71121    0.070
 5280.00    1.82397   1.70488    0.069
 5281.00    1.82900   1.70199    0.068
 5282.00    1.85277   1.70952    0.068
 5283.00    1.86641   1.72995    0.068
 5284.00    1.82514   1.76101    0.068
 5285.00    1.80177   1.79805    0.067
 5286.00    1.85613   1.83459    0.067
 5287.00    1.90671   1.86232    0.067
 5288.00    1.94371   1.87659    0.067
 5289.00    1.97366   1.87835    0.067
 5290.00    1.98241   1.86928    0.067
 5291.00    1.98171   1.84881    0.067
 5292.00    1.95683   1.81670    0.067
 5293.00    1.92972   1.77621    0.067
 5294.00    1.89770   1.73329    0.067
 5295.00    1.87198   1.69422    0.067
 5296.00    1.85826   1.66386    0.067
 5297.00    1.84117   1.64678    0.067
 5298.00    1.81845   1.64816    0.067
 5299.00    1.80913   1.66989    0.068
 5300.00    1.81939   1.70645    0.067
 5301.00    1.83437   1.74747    0.067
 5302.00    1.85541   1.78713    0.068
 5303.00    1.88722   1.82518    0.068
 5304.00    1.93119   1.85928    0.067
 5305.00    1.96288   1.88516    0.067
 5306.00    1.98232   1.90096    0.068
 5307.00    1.98983   1.90822    0.068
 5308.00    1.98687   1.91027    0.068
 5309.00    1.99867   1.90946    0.069
 5310.00    2.02192   1.90507    0.070
 5311.00    2.04030   1.89577    0.071
 5312.00    2.05536   1.88267    0.072
 5313.00    2.05651   1.86813    0.073
 5314.00    2.04935   1.85402    0.073
 5315.00    2.04838   1.84115    0.073
 5316.00    2.05065   1.82856    0.073
 5317.00    2.02727   1.81464    0.072
 5318.00    1.99229   1.79856    0.070
 5319.00    1.94326   1.77921    0.069
 5320.00    1.88878   1.75408    0.069
 5321.00    1.86822   1.72118    0.069
 5322.00    1.85887   1.68050    0.068
 5323.00    1.86821   1.63512    0.069
 5324.00    1.88272   1.59074    0.070
 5325.00    1.81288   1.55446    0.069
 5326.00    1.72379   1.53239    0.068
 5327.00    1.68221   1.52595    0.067
 5328.00    1.64929   1.53666    0.067
 5329.00    1.67921   1.56852    0.067
 5330.00    1.71794   1.61985    0.067
 5331.00    1.75073   1.67692    0.067
 5332.00    1.78293   1.72484    0.067
 5333.00    1.78793   1.75776    0.067
 5334.00    1.79119   1.77622    0.066
 5335.00    1.84552   1.78173    0.067
 5336.00    1.90111   1.77507    0.068
 5337.00    1.85224   1.75955    0.067
 5338.00    1.80576   1.74169    0.067
 5339.00    1.82772   1.72656    0.066
 5340.00    1.84651   1.71649    0.066
 5341.00    1.81994   1.71412    0.065
 5342.00    1.79789   1.72006    0.065
 5343.00    1.81801   1.72891    0.065
 5344.00    1.83693   1.73442    0.066
 5345.00    1.84763   1.73687    0.065
 5346.00    1.85373   1.74029    0.065
 5347.00    1.83555   1.74902    0.064
 5348.00    1.82399   1.76548    0.064
 5349.00    1.84056   1.78889    0.064
 5350.00    1.85779   1.81932    0.065
 5351.00    1.87727   1.85559    0.065
 5352.00    1.90127   1.89191    0.065
 5353.00    1.93857   1.92235    0.066
 5354.00    1.96748   1.94502    0.066
 5355.00    1.97529   1.95955    0.066
 5356.00    1.99048   1.96430    0.066
 5357.00    2.02163   1.95862    0.066
 5358.00    2.03481   1.94431    0.067
 5359.00    2.01422   1.92320    0.067
 5360.00    1.99392   1.89734    0.067
 5361.00    1.97411   1.86863    0.067
 5362.00    1.95623   1.83867    0.066
 5363.00    1.94113   1.80871    0.066
 5364.00    1.90484   1.77792    0.066
 5365.00    1.84173   1.74512    0.066
 5366.00    1.80127   1.71308    0.067
 5367.00    1.78606   1.68679    0.067
 5368.00    1.77304   1.66895   -2.000
 5369.00    1.76219   1.66209   -2.000
 5370.00    1.73131   1.66794   -2.000
 5371.00    1.68308   1.68759   -2.000
 5372.00    1.70153   1.72162   -2.000
 5373.00    1.77092   1.76476   -2.000
 5374.00    1.84420   1.80557   -2.000
 5375.00    1.92008   1.83482   -2.000
 5376.00    1.94004   1.85119   -2.000
 5377.00    1.92709   1.85707   -2.000
 5378.00    1.93077   1.85691   -2.000
 5379.00    1.94297   1.85424   -2.000
 5380.00    1.92379   1.84898   -2.000
 5381.00    1.89067   1.84153   -2.000
 5382.00    1.89661   1.83400   -2.000
 5383.00    1.91746   1.82657    0.068
 5384.00    1.91691   1.81814    0.068
 5385.00    1.90941   1.80792    0.068
 5386.00    1.88570   1.79379    0.068
 5387.00    1.85759   1.77450    0.066
 5388.00    1.85149   1.75188    0.066
 5389.00    1.85030   1.72835    0.066
 5390.00    1.84512   1.70462    0.066
 5391.00    1.83923   1.68180    0.067
 5392.00    1.80188   1.66270    0.066
 5393.00    1.76027   1.64852    0.066
 5394.00    1.77189   1.63869    0.065
 5395.00    1.78865   1.63388    0.065
 5396.00    1.78103   1.63462    0.065
 5397.00    1.77195   1.63915    0.065
 5398.00    1.75677   1.64601    0.065
 5399.00    1.74177   1.65200    0.064
 5400.00    1.78114   1.64956    0.064
 5401.00    1.81717   1.63609    0.064
 5402.00    1.76708   1.61650    0.064
 5403.00    1.72074   1.59451    0.064
 5404.00    1.72527   1.57276    0.064
 5405.00    1.72774   1.55860    0.064
 5406.00    1.71166   1.55991    0.063
 5407.00    1.69658   1.57802    0.063
 5408.00    1.68810   1.60717    0.063
 5409.00    1.68738   1.63977    0.063
 5410.00    1.72657   1.67370    0.064
 5411.00    1.76049   1.71107    0.065
 5412.00    1.77254   1.75000    0.065
 5413.00    1.78683   1.78332    0.065
 5414.00    1.80887   1.80644    0.065
 5415.00    1.83454   1.82072    0.065
 5416.00    1.87071   1.82934    0.065
 5417.00    1.90135   1.83242    0.065
 5418.00    1.91833   1.82800    0.067
 5419.00    1.92445   1.81780    0.067
 5420.00    1.90742   1.80699    0.066
 5421.00    1.89917   1.79943    0.066
 5422.00    1.90714   1.79502    0.066
 5423.00    1.89569   1.78890    0.066
 5424.00    1.85286   1.77780    0.066
 5425.00    1.83266   1.76502    0.066
 5426.00    1.84454   1.75247    0.066
 5427.00    1.84508   1.73572    0.067
 5428.00    1.83147   1.71198    0.067
 5429.00    1.82327   1.68438    0.067
 5430.00    1.82103   1.66154    0.067
 5431.00    1.79041   1.65179    0.066
 5432.00    1.73228   1.65397    0.065
 5433.00    1.74925   1.66325    0.065
 5434.00    1.83042   1.68159    0.065
 5435.00    1.87104   1.71170    0.066
 5436.00    1.88113   1.75077    0.065
 5437.00    1.88844   1.79282    0.065
 5438.00    1.89391   1.83028    0.066
 5439.00    1.90696   1.85574    0.066
 5440.00    1.92441   1.86324    0.065
 5441.00    1.92110   1.85197    0.065
 5442.00    1.90731   1.82723    0.065
 5443.00    1.89771   1.79637    0.064
 5444.00    1.88993   1.76522    0.064
 5445.00    1.87492   1.73779    0.064
 5446.00    1.85720   1.71825    0.064
 5447.00    1.86556   1.70970    0.064
 5448.00    1.88221   1.71186    0.064
 5449.00    1.86202   1.71739    0.063
 5450.00    1.83204   1.71682    0.062
 5451.00    1.80049   1.70873    0.063
 5452.00    1.76860   1.69814    0.063
 5453.00    1.75429   1.68942    0.063
 5454.00    1.74302   1.68469    0.063
 5455.00    1.76834   1.68507    0.063
 5456.00    1.79847   1.69193    0.064
 5457.00    1.80454   1.70460    0.064
 5458.00    1.80840   1.71750    0.064
 5459.00    1.80180   1.72477    0.064
 5460.00    1.79460   1.72540    0.064
 5461.00    1.80052   1.72264    0.064
 5462.00    1.80680   1.72100    0.064
 5463.00    1.81937   1.72230    0.063
 5464.00    1.83111   1.72634    0.063
 5465.00    1.82357   1.73190    0.064
 5466.00    1.81709   1.73508    0.064
 5467.00    1.82418   1.73278    0.064
 5468.00    1.83017   1.72547    0.064
 5469.00    1.82675   1.71373    0.065
 5470.00    1.82486   1.69684    0.065
 5471.00    1.83280   1.67619    0.066
 5472.00    1.82922   1.65618    0.066
 5473.00    1.76795   1.63970    0.066
 5474.00    1.71986   1.62733    0.066
 5475.00    1.72534   1.61955    0.066
 5476.00    1.72624   1.61560    0.067
 5477.00    1.71175   1.61669    0.067
 5478.00    1.70212   1.62698   -2.000
 5479.00    1.70629   1.64481   -2.000
 5480.00    1.71092   1.66217   -2.000
 5481.00    1.71668   1.67495   -2.000
 5482.00    1.72489   1.68643   -2.000
 5483.00    1.73824   1.70012   -2.000
 5484.00    1.72176   1.71360   -2.000
 5485.00    1.65096   1.72275   -2.000
 5486.00    1.59183   1.72653   -2.000
 5487.00    1.55128   1.72586   -2.000
 5488.00    1.54357   1.72422   -2.000
 5489.00    1.58173   1.72581   -2.000
 5490.00    1.68815   1.72972   -2.000
 5491.00    1.87847   1.73223   -2.000
 5492.00    1.96035   1.73279   -2.000
 5493.00    1.92470   1.73257   -2.000
 5494.00    1.94710   1.73262   -2.000
 5495.00    2.02499   1.73316   -2.000
 5496.00    2.05102   1.73213   -2.000
 5497.00    2.03334   1.72803   -2.000
 5498.00    1.95201   1.72313   -2.000
 5499.00    1.82343   1.71924   -2.000
 5500.00    1.78126   1.71266   -2.000
 5501.00    1.79543   1.70049   -2.000
 5502.00    1.79978   1.68808    0.063
 5503.00    1.79854   1.68111    0.064
 5504.00    1.78584   1.67824    0.064
 5505.00    1.76746   1.67586    0.064
 5506.00    1.76185   1.67199    0.063
 5507.00    1.76174   1.66718    0.063
 5508.00    1.76018   1.66353    0.063
 5509.00    1.75808   1.65922    0.063
 5510.00    1.74010   1.65229    0.063
 5511.00    1.71717   1.64595    0.063
 5512.00    1.71917   1.64479    0.064
 5513.00    1.72766   1.65258    0.064
 5514.00    1.74953   1.67002    0.064
 5515.00    1.77423   1.69333    0.065
 5516.00    1.76692   1.71840    0.065
 5517.00    1.75423   1.74240    0.064
 5518.00    1.74451   1.76276    0.064
 5519.00    1.73515   1.77653    0.064
 5520.00    1.75956   1.78089    0.065
 5521.00    1.78694   1.77616    0.067
 5522.00    1.81889   1.76449    0.066
 5523.00    1.85108   1.74814    0.066
 5524.00    1.86965   1.73098    0.066
 5525.00    1.88693   1.71631    0.066
 5526.00    1.82578   1.70507    0.065
 5527.00    1.76770   1.69793    0.064
 5528.00    1.77552   1.69610    0.064
 5529.00    1.78336   1.70073    0.065
 5530.00    1.79149   1.71029    0.065
 5531.00    1.79803   1.71992    0.064
 5532.00    1.79130   1.72582    0.064
 5533.00    1.78947   1.72903    0.065
 5534.00    1.81814   1.73295    0.064
 5535.00    1.84095   1.73892    0.064
 5536.00    1.83506   1.74694    0.064
 5537.00    1.83308   1.75595    0.063
 5538.00    1.84658   1.76384    0.063
 5539.00    1.85953   1.77092    0.071
 5540.00    1.87070   1.77746    0.168
 5541.00    1.87303   1.78148   -1.000
 5542.00    1.85073   1.78314   -1.000
 5543.00    1.83550   1.78513   -1.000
 5544.00    1.83715   1.78974   -1.000
 5545.00    1.84095   1.79744   -1.000
 5546.00    1.84921   1.80623   -1.000
 5547.00    1.86549   1.81429    0.347
 5548.00    1.89615   1.82089    0.091
 5549.00    1.91110   1.82369    0.063
 5550.00    1.90139   1.82125    0.062
 5551.00    1.89560   1.81492    0.062
 5552.00    1.89522   1.80593    0.061
 5553.00    1.89391   1.79556    0.062
 5554.00    1.89147   1.78613    0.063
 5555.00    1.87655   1.77898    0.063
 5556.00    1.84829   1.77346    0.063
 5557.00    1.83016   1.76730    0.063
 5558.00    1.82157   1.75983    0.064
 5559.00    1.81985   1.75264    0.064
 5560.00    1.82384   1.74486    0.063
 5561.00    1.81342   1.73485    0.064
 5562.00    1.79244   1.72414    0.065
 5563.00    1.79872   1.71473    0.065
 5564.00    1.82251   1.70721    0.064
 5565.00    1.81491   1.70183    0.064
 5566.00    1.78968   1.69852    0.064
 5567.00    1.78289   1.69636    0.064
 5568.00    1.78513   1.69616    0.063
 5569.00    1.78779   1.69938    0.063
 5570.00    1.79064   1.70502    0.064
 5571.00    1.79721   1.71213    0.064
 5572.00    1.80513   1.71983    0.064
 5573.00    1.78584   1.72669    0.064
 5574.00    1.75823   1.73499    0.063
 5575.00    1.76092   1.74500    0.063
 5576.00    1.77132   1.75151    0.063
 5577.00    1.78292   1.75320    0.063
 5578.00    1.79477   1.75174    0.063
 5579.00    1.80932   1.74539    0.062
 5580.00    1.82432   1.73297    0.061
 5581.00    1.82019   1.71384    0.062
 5582.00    1.81372   1.68754    0.063
 5583.00    1.77691   1.65783    0.062
 5584.00    1.73755   1.62875    0.062
 5585.00    1.72255   1.60284    0.062
 5586.00    1.70874   1.58297    0.062
 5587.00    1.70482   1.57144    0.061
 5588.00    1.70076   1.56995    0.061
 5589.00    1.67986   1.57821    0.061
 5590.00    1.66095   1.59469    0.061
 5591.00    1.68145   1.61674    0.062
 5592.00    1.69963   1.63761    0.062
 5593.00    1.69101   1.65208    0.063
 5594.00    1.68249   1.66111    0.063
 5595.00    1.67472   1.66634    0.062
 5596.00    1.67464   1.66737    0.062
 5597.00    1.72108   1.66230    0.063
 5598.00    1.75448   1.65249    0.064
 5599.00    1.72572   1.64651    0.064
 5600.00    1.70567   1.65028    0.064
 5601.00    1.71951   1.66268    0.064
 5602.00    1.73170   1.68163    0.064
 5603.00    1.73854   1.70628    0.064
 5604.00    1.75223   1.73463    0.064
 5605.00    1.78466   1.76212    0.064
 5606.00    1.80723   1.78359    0.064
 5607.00    1.80666   1.79665    0.064
 5608.00    1.81174   1.80046    0.063
 5609.00    1.82825   1.79340    0.063
 5610.00    1.82368   1.77507    0.063
 5611.00    1.78188   1.75070    0.062
 5612.00    1.76199   1.72650    0.062
 5613.00    1.77594   1.70332    0.063
 5614.00    1.76624   1.68010    0.063
 5615.00    1.72447   1.65996    0.062
 5616.00    1.69181   1.65043    0.061
 5617.00    1.67004   1.65395    0.060
 5618.00    1.67953   1.66130    0.060
 5619.00    1.72194   1.66284    0.060
 5620.00    1.74355   1.65973    0.060
 5621.00    1.74582   1.65785    0.060
 5622.00    1.73457   1.65825    0.059
 5623.00    1.71223   1.65860    0.059
 5624.00    1.70776   1.66018    0.059
 5625.00    1.71615   1.66783    0.059
 5626.00    1.72627   1.68405    0.059
 5627.00    1.73746   1.70445    0.059
 5628.00    1.74240   1.72244    0.058
 5629.00    1.74387   1.73536    0.058
 5630.00    1.76151   1.74252    0.058
 5631.00    1.78693   1.74241    0.059
 5632.00    1.80464   1.73514    0.059
 5633.00    1.81915   1.72361    0.059
 5634.00    1.79593   1.71113    0.059
 5635.00    1.75932   1.69920    0.059
 5636.00    1.72284   1.68799    0.059
 5637.00    1.68639   1.67898    0.060
 5638.00    1.68935   1.67423    0.060
 5639.00    1.70212   1.67362    0.060
 5640.00    1.69647   1.67512    0.060
 5641.00    1.68711   1.67736    0.060
 5642.00    1.73120   1.68172    0.061
 5643.00    1.78375   1.68908    0.061
 5644.00    1.78380   1.69711    0.061
 5645.00    1.77767   1.70430    0.060
 5646.00    1.76848   1.71159    0.060
 5647.00    1.75905   1.71907    0.060
 5648.00    1.74921   1.72496    0.061
 5649.00    1.73934   1.72678    0.062
 5650.00    1.77404   1.72479    0.062
 5651.00    1.80814   1.72166    0.061
 5652.00    1.78841   1.71584    0.061
 5653.00    1.76799   1.70238    0.061
 5654.00    1.73501   1.68253    0.061
 5655.00    1.70381   1.66413    0.061
 5656.00    1.69248   1.65132    0.060
 5657.00    1.67914   1.64089    0.059
 5658.00    1.65022   1.63126    0.059
 5659.00    1.62766   1.62890    0.058
 5660.00    1.64241   1.63840    0.058
 5661.00    1.65834   1.65297    0.058
 5662.00    1.67974   1.66449    0.058
 5663.00    1.69753   1.67408    0.059
 5664.00    1.70158   1.68534    0.058
 5665.00    1.70848   1.69663    0.057
 5666.00    1.72443   1.70479    0.057
 5667.00    1.73722   1.71097    0.057
 5668.00    1.74153   1.71932    0.057
 5669.00    1.74184   1.73141    0.057
 5670.00    1.73295   1.74485    0.057
 5671.00    1.74133   1.75812    0.058
 5672.00    1.78423   1.77157    0.058
 5673.00    1.81393   1.78331    0.059
 5674.00    1.82070   1.78943    0.059
 5675.00    1.81851   1.78912    0.059
 5676.00    1.80269   1.78481    0.059
 5677.00    1.80192   1.77704    0.059
 5678.00    1.82126   1.76476    0.060
 5679.00    1.81970   1.75044    0.060
 5680.00    1.79350   1.73783    0.061
 5681.00    1.76952   1.72663    0.061
 5682.00    1.74782   1.71486    0.060
 5683.00    1.74864   1.70476    0.060
 5684.00    1.77008   1.70072    0.061
 5685.00    1.76639   1.70270    0.061
 5686.00    1.74240   1.70736    0.061
 5687.00    1.73050   1.71418    0.060
 5688.00    1.72720   1.72511    0.059
 5689.00    1.73916   1.73944    0.059
 5690.00    1.76063   1.75365    0.060
 5691.00    1.78005   1.76465    0.060
 5692.00    1.79836   1.77076    0.059
 5693.00    1.81153   1.77020    0.059
 5694.00    1.82227   1.76228    0.060
 5695.00    1.80934   1.74941    0.060
 5696.00    1.78676   1.73384    0.061
 5697.00    1.79080   1.71606    0.061
 5698.00    1.80412   1.69764    0.061
 5699.00    1.79119   1.68193    0.060
 5700.00    1.77055   1.67009    0.060
 5701.00    1.74937   1.65888    0.059
 5702.00    1.72807   1.64688    0.058
 5703.00    1.71087   1.63578    0.058
 5704.00    1.69447   1.62538    0.058
 5705.00    1.70080   1.61435    0.057
 5706.00    1.71062   1.60316    0.056
 5707.00    1.68248   1.59438    0.056
 5708.00    1.65003   1.59240    0.056
 5709.00    1.65237   1.59987    0.056
 5710.00    1.65735   1.61601    0.056
 5711.00    1.69402   1.63805    0.057
 5712.00    1.73199   1.66313    0.057
 5713.00    1.76246   1.69040    0.057
 5714.00    1.79203   1.71815    0.058
 5715.00    1.78636   1.74277    0.058
 5716.00    1.78083   1.76319    0.059
 5717.00    1.77775   1.78044    0.059
 5718.00    1.77766   1.79493    0.059
 5719.00    1.80922   1.80676    0.060
 5720.00    1.83924   1.81539    0.060
 5721.00    1.85783   1.81973    0.059
 5722.00    1.87179   1.81895    0.059
 5723.00    1.85935   1.81394    0.059
 5724.00    1.84821   1.80742    0.060
 5725.00    1.84299   1.80047    0.060
 5726.00    1.83914   1.79139    0.061
 5727.00    1.84037   1.78105    0.061
 5728.00    1.83829   1.77534    0.060
 5729.00    1.82589   1.77677    0.059
 5730.00    1.81863   1.78012    0.059
 5731.00    1.82495   1.78138    0.059
 5732.00    1.83446   1.78282    0.060
 5733.00    1.85122   1.78712    0.060
 5734.00    1.85352   1.79195    0.060
 5735.00    1.82740   1.79390    0.059
 5736.00    1.81564   1.79313    0.058
 5737.00    1.82850   1.79121    0.058
 5738.00    1.84093   1.78906    0.058
 5739.00    1.85270   1.78755    0.057
 5740.00    1.84832   1.78776    0.000
 5741.00    1.82264   1.78958    0.000
 5742.00    1.80424   1.79051    0.000
 5743.00    1.79431   1.78855    0.000
 5744.00    1.79608   1.78550    0.000
 5745.00    1.80983   1.78425    0.000
 5746.00    1.82203   1.78283    0.000
 5747.00    1.83282   1.77681    0.000
 5748.00    1.83403   1.76613    0.000
 5749.00    1.82760   1.75584    0.000
 5750.00    1.82661   1.75009    0.000
 5751.00    1.82944   1.74799    0.000
 5752.00    1.82051   1.74688    0.000
 5753.00    1.80436   1.74639    0.000
 5754.00    1.78629   1.74825    0.000
 5755.00    1.76719   1.75255    0.000
 5756.00    1.77229   1.75616    0.000
 5757.00    1.78867   1.75514    0.000
 5758.00    1.80815   1.74953    0.000
 5759.00    1.82888   1.74366    0.000
 5760.00    1.81167   1.74155    0.000
 5761.00    1.78148   1.74379    0.000
 5762.00    1.77212   1.75032    0.000
 5763.00    1.76878   1.76218    0.000
 5764.00    1.79048   1.77846    0.000
 5765.00    1.81815   1.79416    0.000
 5766.00    1.85111   1.80445    0.000
 5767.00    1.88509   1.80877    0.000
 5768.00    1.89020   1.80872    0.000
 5769.00    1.89101   1.80553    0.000
 5770.00    1.88087   1.79983    0.000
 5771.00    1.86953   1.79307    0.000
 5772.00    1.85716   1.78658    0.000
 5773.00    1.84471   1.78008    0.000
 5774.00    1.82096   1.77212    0.000
 5775.00    1.79679   1.76038    0.000
 5776.00    1.78981   1.74280    0.000
 5777.00    1.78309   1.71998    0.000
 5778.00    1.78325   1.69540    0.000
 5779.00    1.78336   1.67125    0.000
 5780.00    1.78249   1.64683    0.000
 5781.00    1.78051   1.62489    0.000
 5782.00    1.76721   1.61388    0.000
 5783.00    1.75407   1.61685    0.000
 5784.00    1.74208   1.62759    0.000
 5785.00    1.73243   1.64127    0.000
 5786.00    1.73573   1.65821    0.000
 5787.00    1.74072   1.67925    0.000
 5788.00    1.75319   1.70170    0.000
 5789.00    1.75886   1.72135    0.000
 5790.00    1.73975   1.73723    0.000
 5791.00    1.73196   1.75067   -2.000
 5792.00    1.75868   1.76246   -2.000
 5793.00    1.77813   1.77177   -2.000
 5794.00    1.77867   1.77923   -2.000
 5795.00    1.77867   1.78785   -2.000
 5796.00    1.77745   1.79666   -2.000
 5797.00    1.78183   1.80311   -2.000
 5798.00    1.79704   1.80865   -2.000
 5799.00    1.80990   1.81482   -2.000
 5800.00    1.81878   1.81907   -2.000
 5801.00    1.84000   1.81900   -2.000
 5802.00    1.87942   1.81540   -2.000
 5803.00    1.89303   1.80973   -2.000
 5804.00    1.87308   1.80285   -2.000
 5805.00    1.85476   1.79727   -2.000
 5806.00    1.83829   1.79551   -2.000
 5807.00    1.82070   1.79638   -2.000
 5808.00    1.80196   1.79743   -2.000
 5809.00    1.78892   1.79797   -2.000
 5810.00    1.78097   1.79746   -2.000
 5811.00    1.78279   1.79470    0.000
 5812.00    1.79227   1.79022    0.000
 5813.00    1.80361   1.78735    0.000
 5814.00    1.81623   1.78804    0.000
 5815.00    1.81625   1.79087    0.000
 5816.00    1.80864   1.79558    0.000
 5817.00    1.82121   1.80349    0.000
 5818.00    1.84444   1.81370    0.000
 5819.00    1.85576   1.82303    0.000
 5820.00    1.86162   1.82953    0.000
 5821.00    1.87362   1.83368    0.000
 5822.00    1.88802   1.83577    0.000
 5823.00    1.88835   1.83638    0.000
 5824.00    1.88395   1.83691    0.000
 5825.00    1.86214   1.83826    0.000
 5826.00    1.83541   1.83917    0.000
 5827.00    1.82895   1.83838    0.000
 5828.00    1.82722   1.83688    0.000
 5829.00    1.83708   1.83490    0.000
 5830.00    1.84911   1.83079    0.000
 5831.00    1.82500   1.82504    0.000
 5832.00    1.79568   1.82067    0.000
 5833.00    1.81191   1.81736    0.000
 5834.00    1.83291   1.81326    0.000
 5835.00    1.83781   1.81110    0.000
 5836.00    1.84161   1.81403    0.000
 5837.00    1.83849   1.81965    0.000
 5838.00    1.83514   1.82413    0.000
 5839.00    1.80866   1.82775    0.000
 5840.00    1.78385   1.83123    0.000
 5841.00    1.81219   1.83214    0.000
 5842.00    1.83879   1.82817    0.000
 5843.00    1.83910   1.81954    0.000
 5844.00    1.83829   1.80838    0.000
 5845.00    1.82662   1.79594    0.000
 5846.00    1.81728   1.78288    0.000
 5847.00    1.82435   1.76928    0.000
 5848.00    1.82868   1.75487    0.000
 5849.00    1.81816   1.74030    0.000
 5850.00    1.80632   1.72745    0.000
 5851.00    1.78873   1.71590    0.000
 5852.00    1.77048   1.70232    0.000
 5853.00    1.74986   1.68644    0.000
 5854.00    1.73328   1.67402    0.000
 5855.00    1.72880   1.66892    0.000
 5856.00    1.72860   1.66778    0.000
 5857.00    1.73929   1.66756    0.000
 5858.00    1.74887   1.66925    0.000
 5859.00    1.75601   1.67602    0.000
 5860.00    1.76189   1.68721    0.000
 5861.00    1.76538   1.69790    0.000
 5862.00    1.76991   1.70425    0.000
 5863.00    1.77615   1.70870    0.000
 5864.00    1.78025   1.71612    0.000
 5865.00    1.78122   1.72530    0.000
 5866.00    1.77595   1.73267    0.000
 5867.00    1.76269   1.73823    0.000
 5868.00    1.76101   1.74423    0.000
 5869.00    1.77242   1.75000    0.000
 5870.00    1.77382   1.75398    0.000
 5871.00    1.76527   1.75491    0.000
 5872.00    1.74681   1.75151    0.000
 5873.00    1.71964   1.74478    0.000
 5874.00    1.71441   1.73679    0.000
 5875.00    1.72616   1.72719    0.000
 5876.00    1.73421   1.71411    0.000
 5877.00    1.73974   1.70007    0.000
 5878.00    1.74325   1.68791    0.000
 5879.00    1.74557   1.67473    0.000
 5880.00    1.72791   1.65729    0.000
 5881.00    1.69989   1.63661    0.000
 5882.00    1.66833   1.61230    0.000
 5883.00    1.63519   1.57866    0.000
 5884.00    1.60045   1.52978    0.000
 5885.00    1.56509   1.46586    0.000
 5886.00    1.53360   1.39745    0.000
 5887.00    1.50337   1.33762    0.000
 5888.00    1.46350   1.28785    0.000
 5889.00    1.42095   1.24593    0.000
 5890.00    1.39350   1.21749    0.000
 5891.00    1.36949   1.20636    0.000
 5892.00    1.35653   1.21199    0.000
 5893.00    1.34559   1.23465    0.000
 5894.00    1.34963   1.26807    0.000
 5895.00    1.35576   1.30367    0.000
 5896.00    1.39480   1.34480    0.000
 5897.00    1.43713   1.39894    0.000
 5898.00    1.46275   1.46006    0.000
 5899.00    1.48731   1.51526    0.000
 5900.00    1.53939   1.56054    0.000
 5901.00    1.59220   1.59763    0.055
 5902.00    1.62249   1.62685    0.055
 5903.00    1.65191   1.64837    0.056
 5904.00    1.65689   1.66359    0.055
 5905.00    1.66231   1.67351    0.055
 5906.00    1.67405   1.67951    0.055
 5907.00    1.68557   1.68436    0.055
 5908.00    1.69490   1.68795    0.055
 5909.00    1.70223   1.68723    0.054
 5910.00    1.69588   1.68187    0.054
 5911.00    1.68789   1.67568    0.054
 5912.00    1.67122   1.67044    0.053
 5913.00    1.65805   1.66594    0.053
 5914.00    1.65971   1.66262    0.053
 5915.00    1.66632   1.66248    0.053
 5916.00    1.69020   1.66702    0.053
 5917.00    1.71008   1.67397    0.053
 5918.00    1.71818   1.68079    0.053
 5919.00    1.71979   1.68740    0.053
 5920.00    1.70509   1.69402    0.053
 5921.00    1.69776   1.69909    0.053
 5922.00    1.70635   1.70202    0.053
 5923.00    1.71822   1.70362    0.053
 5924.00    1.73625   1.70416    0.053
 5925.00    1.74435   1.70261    0.053
 5926.00    1.73620   1.69911    0.053
 5927.00    1.72161   1.69655    0.053
 5928.00    1.69777   1.69559    0.054
 5929.00    1.68012   1.69360    0.054
 5930.00    1.67029   1.68998    0.054
 5931.00    1.67964   1.68867    0.054
 5932.00    1.71035   1.69183    0.055
 5933.00    1.72223   1.69482    0.055
 5934.00    1.71565   1.69521    0.055
 5935.00    1.71667   1.69654    0.055
 5936.00    1.72425   1.69980    0.056
 5937.00    1.71691   1.70159    0.055
 5938.00    1.69818   1.70179    0.054
 5939.00    1.69339   1.70307    0.054
 5940.00    1.69792   1.70495    0.054
 5941.00    1.70299   1.70606    0.054
 5942.00    1.70837   1.70786    0.054
 5943.00    1.70725   1.71076    0.053
 5944.00    1.70279   1.71169    0.052
 5945.00    1.69811   1.70953    0.052
 5946.00    1.69333   1.70729    0.052
 5947.00    1.70331   1.70502    0.052
 5948.00    1.71890   1.69868    0.052
 5949.00    1.72624   1.68956    0.052
 5950.00    1.73090   1.68467    0.052
 5951.00    1.71610   1.68417    0.053
 5952.00    1.69602   1.68168    0.053
 5953.00    1.68207   1.67729    0.053
 5954.00    1.66950   1.67749    0.052
 5955.00    1.66733   1.68313    0.053
 5956.00    1.66701   1.68969    0.053
 5957.00    1.67636   1.69605    0.053
 5958.00    1.68702   1.70421    0.053
 5959.00    1.70660   1.71408    0.054
 5960.00    1.72704   1.72346    0.054
 5961.00    1.73018   1.73007    0.054
 5962.00    1.73228   1.73398    0.054
 5963.00    1.72281   1.73770    0.054
 5964.00    1.71309   1.74174    0.055
 5965.00    1.71128   1.74502    0.055
 5966.00    1.70988   1.74809    0.055
 5967.00    1.71880   1.75238    0.055
 5968.00    1.72869   1.75618    0.055
 5969.00    1.75174   1.75728    0.055
 5970.00    1.77194   1.75529    0.055
 5971.00    1.76671   1.74983    0.055
 5972.00    1.76236   1.74066    0.054
 5973.00    1.76381   1.72958    0.054
 5974.00    1.76326   1.71872    0.054
 5975.00    1.75241   1.70869    0.054
 5976.00    1.73903   1.70025    0.053
 5977.00    1.71515   1.69426    0.053
 5978.00    1.69619   1.69023    0.052
 5979.00    1.69409   1.68590    0.052
 5980.00    1.69693   1.68050    0.052
 5981.00    1.71409   1.67658    0.052
 5982.00    1.72251   1.67526    0.052
 5983.00    1.70938   1.67421    0.052
 5984.00    1.69753   1.67382    0.052
 5985.00    1.68839   1.67849    0.052
 5986.00    1.68758   1.68818    0.052
 5987.00    1.70213   1.69708    0.052
 5988.00    1.71413   1.70359    0.052
 5989.00    1.72201   1.71107    0.052
 5990.00    1.72999   1.71868    0.053
 5991.00    1.73808   1.72228    0.053
 5992.00    1.74225   1.72162    0.053
 5993.00    1.74153   1.71941    0.053
 5994.00    1.73433   1.71607    0.054
 5995.00    1.72002   1.71096    0.054
 5996.00    1.71059   1.70514    0.054
 5997.00    1.70587   1.69962    0.054
 5998.00    1.70470   1.69390    0.054
 5999.00    1.70655   1.68842    0.054
 6000.00    1.69041   1.68496    0.054
 6001.00    1.66073   1.68248    0.053
 6002.00    1.64798   1.67784    0.053
 6003.00    1.64640   1.67095    0.054
 6004.00    1.65050   1.66460    0.054
 6005.00    1.65790   1.66130    0.054
 6006.00    1.65567   1.66090    0.053
 6007.00    1.64860   1.66098    0.052
 6008.00    1.64726   1.65969    0.051
 6009.00    1.64842   1.65910    0.051
 6010.00    1.64726   1.66159    0.051
 6011.00    1.64524   1.66403    0.050
 6012.00    1.64683   1.66160    0.051
 6013.00    1.64956   1.65610    0.052
 6014.00    1.64641   1.65321    0.052
 6015.00    1.64172   1.65257    0.051
 6016.00    1.62600   1.64994    0.051
 6017.00    1.60788   1.64705    0.051
 6018.00    1.60833   1.64815    0.051
 6019.00    1.61198   1.65209    0.052
 6020.00    1.61850   1.65641    0.052
 6021.00    1.62540   1.66331    0.052
 6022.00    1.63668   1.67377    0.053
 6023.00    1.64836   1.68480    0.054
 6024.00    1.65884   1.69598    0.053
 6025.00    1.66927   1.70880    0.053
 6026.00    1.68974   1.72126    0.053
 6027.00    1.71027   1.73084    0.053
 6028.00    1.71436   1.73965    0.053
 6029.00    1.71850   1.74901    0.053
 6030.00    1.72396   1.75641    0.054
 6031.00    1.73039   1.76082    0.054
 6032.00    1.74909   1.76432    0.053
 6033.00    1.76670   1.76760    0.053
 6034.00    1.77482   1.76915    0.053
 6035.00    1.78086   1.76865    0.054
 6036.00    1.77356   1.76730    0.053
 6037.00    1.76587   1.76630    0.053
 6038.00    1.75620   1.76585    0.053
 6039.00    1.74514   1.76644    0.052
 6040.00    1.72852   1.76866    0.052
 6041.00    1.71736   1.77222    0.051
 6042.00    1.72453   1.77688    0.052
 6043.00    1.73042   1.78247    0.052
 6044.00    1.73272   1.78748    0.051
 6045.00    1.73682   1.79002    0.051
 6046.00    1.74528   1.79123    0.052
 6047.00    1.75472   1.79143    0.052
 6048.00    1.76624   1.78847    0.052
 6049.00    1.77154   1.78188    0.052
 6050.00    1.76552   1.77467    0.052
 6051.00    1.75223   1.76765    0.052
 6052.00    1.72738   1.75911    0.052
 6053.00    1.70875   1.74997    0.053
 6054.00    1.69879   1.74327    0.053
 6055.00    1.69349   1.73962    0.053
 6056.00    1.69391   1.73709    0.053
 6057.00    1.70065   1.73455    0.054
 6058.00    1.71422   1.73218    0.055
 6059.00    1.72664   1.73007    0.055
 6060.00    1.73794   1.72719    0.055
 6061.00    1.72933   1.72263    0.054
 6062.00    1.70396   1.71928    0.054
 6063.00    1.68695   1.72157    0.053
 6064.00    1.67613   1.72874    0.053
 6065.00    1.68194   1.73765    0.053
 6066.00    1.69857   1.74954    0.054
 6067.00    1.70089   1.76564    0.053
 6068.00    1.69508   1.78135    0.052
 6069.00    1.70246   1.79228    0.052
 6070.00    1.71638   1.79863    0.051
 6071.00    1.72432   1.80116    0.051
 6072.00    1.72969   1.79929    0.051
 6073.00    1.73495   1.79271    0.051
 6074.00    1.74016   1.78159    0.052
 6075.00    1.73424   1.76753    0.052
 6076.00    1.72486   1.75371    0.051
 6077.00    1.70748   1.74026    0.051
 6078.00    1.68802   1.72563    0.051
 6079.00    1.67229   1.71334    0.051
 6080.00    1.65736   1.70715    0.052
 6081.00    1.65890   1.70317    0.052
 6082.00    1.66320   1.69827    0.052
 6083.00    1.68147   1.69628    0.052
 6084.00    1.70149   1.69828    0.052
 6085.00    1.70708   1.69892    0.053
 6086.00    1.71140   1.69613    0.054
 6087.00    1.68884   1.69418    0.053
 6088.00    1.66488   1.69491    0.052
 6089.00    1.66410   1.69507    0.053
 6090.00    1.66345   1.69448    0.054
 6091.00    1.64167   1.69753    0.054
 6092.00    1.62116   1.70383    0.053
 6093.00    1.62773   1.70860    0.053
 6094.00    1.63515   1.71124    0.053
 6095.00    1.65279   1.71339    0.053
 6096.00    1.66840   1.71348    0.053
 6097.00    1.66715   1.70902    0.052
 6098.00    1.66715   1.69893    0.052
 6099.00    1.67491   1.68622    0.052
 6100.00    1.67781   1.67775    0.052
 6101.00    1.65702   1.67475    0.052
 6102.00    1.63664   1.67239    0.052
 6103.00    1.61789   1.67197    0.051
 6104.00    1.60811   1.67921    0.050
 6105.00    1.62787   1.69266    0.051
 6106.00    1.64815   1.70575    0.051
 6107.00    1.66987   1.71489    0.051
 6108.00    1.67943   1.72179    0.051
 6109.00    1.66000   1.72985    0.051
 6110.00    1.64437   1.73782    0.051
 6111.00    1.63653   1.74088    0.051
 6112.00    1.64323   1.73876    0.051
 6113.00    1.67597   1.73528    0.052
 6114.00    1.69813   1.73078    0.052
 6115.00    1.70375   1.72132    0.052
 6116.00    1.69354   1.70651    0.052
 6117.00    1.66157   1.69065    0.052
 6118.00    1.63625   1.67567    0.052
 6119.00    1.61899   1.66253    0.052
 6120.00    1.61370   1.65507    0.053
 6121.00    1.62116   1.65285    0.053
 6122.00    1.63145   1.65267    0.052
 6123.00    1.64440   1.65718    0.052
 6124.00    1.65416   1.66728    0.052
 6125.00    1.66128   1.67688    0.053
 6126.00    1.67336   1.68395    0.053
 6127.00    1.68905   1.69049    0.052
 6128.00    1.69411   1.69445    0.052
 6129.00    1.69237   1.69303    0.052
 6130.00    1.68199   1.68668    0.051
 6131.00    1.66677   1.67563    0.051
 6132.00    1.63754   1.65889    0.051
 6133.00    1.60148   1.63782    0.051
 6134.00    1.57976   1.61877    0.052
 6135.00    1.56409   1.60896    0.053
 6136.00    1.57265   1.60799    0.053
 6137.00    1.58997   1.61132    0.053
 6138.00    1.60588   1.62156    0.053
 6139.00    1.62135   1.64259    0.052
 6140.00    1.63818   1.66748    0.053
 6141.00    1.65535   1.68605    0.053
 6142.00    1.65175   1.69846    0.053
 6143.00    1.64386   1.70952    0.052
 6144.00    1.63414   1.71713    0.052
 6145.00    1.62412   1.71715    0.052
 6146.00    1.62910   1.71143    0.052
 6147.00    1.63590   1.70435    0.053
 6148.00    1.62560   1.69765    0.053
 6149.00    1.61387   1.69096    0.053
 6150.00    1.60336   1.68332    0.053
 6151.00    1.59290   1.67499    0.052
 6152.00    1.59059   1.66764    0.052
 6153.00    1.58831   1.65908    0.052
 6154.00    1.58177   1.64430    0.052
 6155.00    1.57559   1.62432    0.052
 6156.00    1.57648   1.60262    0.052
 6157.00    1.57679   1.57651    0.052
 6158.00    1.57051   1.54531    0.052
 6159.00    1.56270   1.51733    0.052
 6160.00    1.54271   1.49842    0.052
 6161.00    1.52216   1.48550    0.051
 6162.00    1.49822   1.47731    0.050
 6163.00    1.47770   1.47895    0.050
 6164.00    1.47346   1.49072    0.050
 6165.00    1.47145   1.50241    0.050
 6166.00    1.47810   1.50907    0.050
 6167.00    1.48669   1.51873    0.050
 6168.00    1.50154   1.53317    0.051
 6169.00    1.51254   1.54317    0.052
 6170.00    1.51304   1.54979    0.051
 6171.00    1.50419   1.56275    0.052
 6172.00    1.47345   1.57873    0.054
 6173.00    1.45020   1.58904    0.055
 6174.00    1.44213   1.59763    0.056
 6175.00    1.43341   1.60930    0.056
 6176.00    1.42357   1.61864    0.056
 6177.00    1.43161   1.62371    0.055
 6178.00    1.46723   1.62976    0.054
 6179.00    1.50151   1.63538    0.053
 6180.00    1.53397   1.63571    0.052
 6181.00    1.55175   1.63298    0.052
 6182.00    1.55204   1.62864    0.051
 6183.00    1.55149   1.61884    0.051
 6184.00    1.55005   1.60392    0.051
 6185.00    1.54484   1.58891    0.051
 6186.00    1.53613   1.57482    0.051
 6187.00    1.52967   1.55930    0.051
 6188.00    1.52505   1.54528    0.051
 6189.00    1.51526   1.54048    0.051
 6190.00    1.50173   1.54433    0.051
 6191.00    1.48967   1.54912    0.051
 6192.00    1.47853   1.55591    0.050
 6193.00    1.47824   1.56944    0.050
 6194.00    1.48394   1.58428    0.051
 6195.00    1.48503   1.59273    0.053
 6196.00    1.48389   1.59652   -2.000
 6197.00    1.44316   1.60116   -2.000
 6198.00    1.38601   1.60681   -2.000
 6199.00    1.36817   1.61056   -2.000
 6200.00    1.36426   1.61346   -2.000
 6201.00    1.41379   1.61908   -2.000
 6202.00    1.47931   1.62665   -2.000
 6203.00    1.55639   1.63202   -2.000
 6204.00    1.63634   1.63367   -2.000
 6205.00    1.62783   1.63260   -2.000
 6206.00    1.60150   1.62790   -2.000
 6207.00    1.56084   1.61792   -2.000
 6208.00    1.51791   1.60374    0.054
 6209.00    1.49785   1.58641    0.053
 6210.00    1.48047   1.56578    0.052
 6211.00    1.48790   1.54457    0.051
 6212.00    1.49730   1.52583    0.051
 6213.00    1.49399   1.51002    0.051
 6214.00    1.49011   1.49862    0.050
 6215.00    1.47471   1.49237    0.050
 6216.00    1.45954   1.48940    0.049
 6217.00    1.46129   1.48986    0.049
 6218.00    1.46384   1.49461    0.049
 6219.00    1.48087   1.50070    0.050
 6220.00    1.49629   1.50543    0.050
 6221.00    1.49389   1.51023    0.050
 6222.00    1.48944   1.51598    0.050
 6223.00    1.46912   1.51892    0.050
 6224.00    1.45297   1.51719    0.049
 6225.00    1.46125   1.51363    0.050
 6226.00    1.46715   1.50782    0.051
 6227.00    1.46201   1.49920    0.051
 6228.00    1.45668   1.49304    0.051
 6229.00    1.45062   1.49178    0.052
 6230.00    1.44861   1.49291    0.052
 6231.00    1.45947   1.49866    0.051
 6232.00    1.46767   1.50969    0.051
 6233.00    1.46872   1.51990    0.052
 6234.00    1.46984   1.52710    0.052
 6235.00    1.47111   1.53086    0.051
 6236.00    1.47452   1.52755    0.051
 6237.00    1.48217   1.51880    0.050
 6238.00    1.48726   1.50976    0.050
 6239.00    1.48789   1.49846    0.051
 6240.00    1.48853   1.48587    0.051
 6241.00    1.48920   1.48047    0.051
 6242.00    1.48585   1.48078    0.051
 6243.00    1.47714   1.48126    0.050
 6244.00    1.47577   1.48637    0.049
 6245.00    1.48301   1.49585    0.049
 6246.00    1.48925   1.50187    0.049
 6247.00    1.49444   1.50424    0.050
 6248.00    1.49182   1.50426    0.050
 6249.00    1.48204   1.49775    0.050
 6250.00    1.47271   1.48601    0.050
 6251.00    1.46374   1.47323    0.051
 6252.00    1.45279   1.45949    0.051
 6253.00    1.44045   1.44617    0.051
 6254.00    1.42869   1.43632    0.050
 6255.00    1.41731   1.43186    0.050
 6256.00    1.41256   1.43456    0.051
 6257.00    1.41141   1.44334    0.051
 6258.00    1.42680   1.45474    0.052
 6259.00    1.44999   1.47104    0.054
 6260.00    1.45257   1.49236    0.056
 6261.00    1.44674   1.50962    0.059
 6262.00    1.45667   1.52094    0.061
 6263.00    1.47209   1.53291    0.063
 6264.00    1.50180   1.54349    0.062
 6265.00    1.53571   1.54708    0.060
 6266.00    1.55444   1.54866    0.058
 6267.00    1.56947   1.55314    0.055
 6268.00    1.55031   1.55732    0.053
 6269.00    1.52443   1.55991    0.052
 6270.00    1.52144   1.56318    0.051
 6271.00    1.52195   1.56684    0.050
 6272.00    1.53086   1.56974    0.049
 6273.00    1.54072   1.57127    0.049
 6274.00    1.54084   1.57098    0.049
 6275.00    1.54023   1.56986    0.049
 6276.00    1.53877   1.56824    0.049
 6277.00    1.53728   1.56550    0.049
 6278.00    1.53637   1.56357    0.050
 6279.00    1.53554   1.56446    0.050
 6280.00    1.53768   1.56752    0.000
 6281.00    1.53976   1.57256    0.000
 6282.00    1.54053   1.57972    0.000
 6283.00    1.54129   1.58868    0.000
 6284.00    1.54186   1.59804    0.000
 6285.00    1.54404   1.60552    0.000
 6286.00    1.55830   1.61046    0.000
 6287.00    1.57132   1.61279    0.000
 6288.00    1.57739   1.61196    0.000
 6289.00    1.58388   1.60724    0.000
 6290.00    1.59228   1.59926    0.000
 6291.00    1.59901   1.59070    0.000
 6292.00    1.59955   1.58175    0.000
 6293.00    1.59493   1.57067    0.000
 6294.00    1.57427   1.55981    0.000
 6295.00    1.55353   1.55213    0.000
 6296.00    1.53258   1.54644    0.000
 6297.00    1.51998   1.54100    0.000
 6298.00    1.52627   1.53705    0.000
 6299.00    1.53250   1.53718    0.000
 6300.00    1.53857   1.54170    0.000
 6301.00    1.54926   1.54744    0.000
 6302.00    1.56782   1.55346    0.000
 6303.00    1.58154   1.56269    0.000
 6304.00    1.58801   1.57447    0.000
 6305.00    1.58726   1.58355    0.000
 6306.00    1.57700   1.58889    0.000
 6307.00    1.57214   1.59181    0.000
 6308.00    1.57352   1.59067    0.000
 6309.00    1.57363   1.58577    0.000
 6310.00    1.57244   1.57857    0.000
 6311.00    1.56349   1.56737    0.000
 6312.00    1.54756   1.55461    0.000
 6313.00    1.52830   1.54650    0.000
 6314.00    1.50641   1.53965    0.000
 6315.00    1.50137   1.53052    0.000
 6316.00    1.50811   1.52769    0.000
 6317.00    1.51207   1.53333    0.000
 6318.00    1.51431   1.53893    0.000
 6319.00    1.50896   1.54516    0.000
 6320.00    1.49955   1.55738    0.000
 6321.00    1.51212   1.57201    0.050
 6322.00    1.53493   1.58361    0.050
 6323.00    1.55111   1.59342    0.050
 6324.00    1.56465   1.60279    0.050
 6325.00    1.56493   1.61081    0.050
 6326.00    1.56068   1.61625    0.050
 6327.00    1.57163   1.61717    0.049
 6328.00    1.58695   1.61562    0.049
 6329.00    1.59096   1.61351    0.050
 6330.00    1.59229   1.60893    0.051
 6331.00    1.56837   1.60059    0.050
 6332.00    1.53962   1.58969    0.050
 6333.00    1.53285   1.58049    0.050
 6334.00    1.52934   1.57479    0.050
 6335.00    1.53037   1.56926    0.050
 6336.00    1.53189   1.56407    0.050
 6337.00    1.53458   1.56427    0.051
 6338.00    1.53736   1.56824    0.051
 6339.00    1.53522   1.56977    0.051
 6340.00    1.53290   1.56987    0.052
 6341.00    1.52222   1.57230    0.051
 6342.00    1.51180   1.57674    0.051
 6343.00    1.51141   1.58032    0.051
 6344.00    1.51142   1.58360    0.051
 6345.00    1.51765   1.58995    0.050
 6346.00    1.52360   1.59749    0.050
 6347.00    1.52683   1.60167    0.050
 6348.00    1.53150   1.60323    0.049
 6349.00    1.54656   1.60398    0.049
 6350.00    1.55987   1.60072    0.049
 6351.00    1.56356   1.59092    0.050
 6352.00    1.56657   1.57819    0.050
 6353.00    1.56663   1.56573    0.050
 6354.00    1.56354   1.55032    0.050
 6355.00    1.54901   1.53081    0.050
 6356.00    1.53354   1.51381    0.050
 6357.00    1.51521   1.50181    0.050
 6358.00    1.50117   1.49022    0.050
 6359.00    1.49824   1.48083    0.050
 6360.00    1.49453   1.47997    0.051
 6361.00    1.48909   1.48637    0.051
 6362.00    1.48855   1.49594    0.051
 6363.00    1.49746   1.50947    0.052
 6364.00    1.50742   1.52815    0.053
 6365.00    1.51913   1.54941    0.052
 6366.00    1.52723   1.56920    0.052
 6367.00    1.52997   1.58651    0.053
 6368.00    1.54085   1.60298    0.053
 6369.00    1.56229   1.61804    0.052
 6370.00    1.57895   1.62892    0.052
 6371.00    1.59014   1.63528    0.052
 6372.00    1.59502   1.63957    0.052
 6373.00    1.59353   1.64263    0.052
 6374.00    1.58548   1.64187    0.051
 6375.00    1.57160   1.63735    0.049
 6376.00    1.55698   1.63333    0.049
 6377.00    1.54179   1.63017    0.049
 6378.00    1.53428   1.62546    0.049
 6379.00    1.53207   1.62234    0.049
 6380.00    1.52693   1.62244    0.049
 6381.00    1.52002   1.62236    0.049
 6382.00    1.52545   1.62314    0.049
 6383.00    1.53739   1.62661    0.049
 6384.00    1.54738   1.62928    0.050
 6385.00    1.55647   1.62922    0.050
 6386.00    1.54902   1.62833    0.051
 6387.00    1.53506   1.62644    0.051
 6388.00    1.54415   1.62189    0.051
 6389.00    1.56098   1.61440    0.052
 6390.00    1.57269   1.60546    0.052
 6391.00    1.58295   1.59953    0.052
 6392.00    1.58019   1.59635    0.052
 6393.00    1.57441   1.59151    0.052
 6394.00    1.56564   1.58890    0.052
 6395.00    1.55631   1.59172    0.052
 6396.00    1.54063   1.59230    0.052
 6397.00    1.52404   1.58965    0.052
 6398.00    1.51365   1.59385    0.052
 6399.00    1.50391   1.60162    0.052
 6400.00    1.51482   1.60451    0.051
 6401.00    1.52712   1.60848    0.051
 6402.00    1.54643   1.61636    0.051
 6403.00    1.56598   1.62113    0.051
 6404.00    1.57070   1.61955    0.050
 6405.00    1.57497   1.61641    0.050
 6406.00    1.56524   1.61624    0.050
 6407.00    1.55585   1.61381    0.049
 6408.00    1.55184   1.60650    0.050
 6409.00    1.54790   1.60341    0.050
 6410.00    1.54459   1.60525    0.050
 6411.00    1.54110   1.60372    0.050
 6412.00    1.53632   1.60183    0.051
 6413.00    1.53395   1.60404    0.051
 6414.00    1.54447   1.60427    0.051
 6415.00    1.55406   1.60128    0.052
 6416.00    1.55968   1.59973    0.052
 6417.00    1.56278   1.59812    0.053
 6418.00    1.55691   1.59585    0.053
 6419.00    1.55087   1.59794    0.053
 6420.00    1.54431   1.60432    0.052
 6421.00    1.53906   1.60991    0.051
 6422.00    1.53717   1.61612    0.051
 6423.00    1.54548   1.62465    0.050
 6424.00    1.57613   1.63013    0.051
 6425.00    1.59313   1.63088    0.051
 6426.00    1.58418   1.62958    0.051
 6427.00    1.57191   1.62522    0.051
 6428.00    1.55414   1.61842    0.051
 6429.00    1.54117   1.61424    0.051
 6430.00    1.53519   1.61199    0.051
 6431.00    1.53182   1.60958    0.051
 6432.00    1.53179   1.60941    0.050
 6433.00    1.53497   1.61213    0.050
 6434.00    1.54177   1.61518    0.050
 6435.00    1.55175   1.61577    0.050
 6436.00    1.56488   1.61684    0.050
 6437.00    1.56251   1.62303    0.050
 6438.00    1.54654   1.63049    0.051
 6439.00    1.54078   1.63585    0.052
 6440.00    1.54292   1.64293    0.053
 6441.00    1.55269   1.65098    0.053
 6442.00    1.56763   1.65383    0.053
 6443.00    1.57095   1.65049    0.053
 6444.00    1.56735   1.64415    0.054
 6445.00    1.55578   1.63362    0.053
 6446.00    1.54009   1.61654    0.053
 6447.00    1.52254   1.59981    0.052
 6448.00    1.50415   1.59044    0.052
 6449.00    1.50393   1.58406    0.052
 6450.00    1.51074   1.58128    0.053
 6451.00    1.52139   1.58711    0.052
 6452.00    1.53332   1.59615    0.051
 6453.00    1.53249   1.60526    0.051
 6454.00    1.52814   1.61698    0.050
 6455.00    1.52224   1.62711    0.049
 6456.00    1.51599   1.63190    0.049
 6457.00    1.52671   1.63554    0.049
 6458.00    1.54050   1.63715    0.050
 6459.00    1.54595   1.63186    0.050
 6460.00    1.55025   1.62641    0.050
 6461.00    1.54853   1.62673    0.051
 6462.00    1.54621   1.62625    0.052
 6463.00    1.55789   1.62530    0.052
 6464.00    1.57045   1.62995    0.052
 6465.00    1.56796   1.63603    0.052
 6466.00    1.56502   1.63921    0.052
 6467.00    1.55651   1.64229    0.052
 6468.00    1.54816   1.64445    0.052
 6469.00    1.54397   1.64446    0.053
 6470.00    1.53923   1.64571    0.053
 6471.00    1.52659   1.64552    0.052
 6472.00    1.51567   1.64255    0.052
 6473.00    1.52067   1.64222    0.051
 6474.00    1.52606   1.64268    0.051
 6475.00    1.53412   1.63797    0.051
 6476.00    1.54260   1.63188    0.051
 6477.00    1.55331   1.62818    0.051
 6478.00    1.56199   1.62113    0.051
 6479.00    1.56210   1.61103    0.050
 6480.00    1.55858   1.60497    0.050
 6481.00    1.54242   1.60244    0.049
 6482.00    1.53115   1.59961    0.049
 6483.00    1.53424   1.59783    0.050
 6484.00    1.54292   1.59798    0.050
 6485.00    1.56556   1.59711    0.050
 6486.00    1.58150   1.59149    0.050
 6487.00    1.58297   1.57980    0.050
 6488.00    1.57252   1.56307    0.051
 6489.00    1.53978   1.54270    0.051
 6490.00    1.51091   1.51715    0.051
 6491.00    1.48837   1.48735    0.052
 6492.00    1.46929   1.46203    0.052
 6493.00    1.45520   1.44444    0.052
 6494.00    1.44226   1.43240    0.052
 6495.00    1.43075   1.42941    0.052
 6496.00    1.42893   1.43640    0.052
 6497.00    1.43786   1.45191    0.052
 6498.00    1.46487   1.47330    0.052
 6499.00    1.50959   1.49636    0.052
 6500.00    1.53742   1.52062    0.052
 6501.00    1.55066   1.54426    0.052
 6502.00    1.55198   1.56391    0.051
 6503.00    1.54421   1.58004    0.050
 6504.00    1.53995   1.59291    0.050
 6505.00    1.53801   1.60101    0.050
 6506.00    1.53831   1.60623    0.050
 6507.00    1.53991   1.61107    0.051
 6508.00    1.54358   1.61363    0.051
 6509.00    1.54831   1.61324    0.050
 6510.00    1.54652   1.61333    0.050
 6511.00    1.54185   1.61326    0.050
 6512.00    1.54453   1.60975    0.051
 6513.00    1.55001   1.60587    0.053
 6514.00    1.55402   1.60431    0.053
 6515.00    1.55755   1.60164    0.053
 6516.00    1.55492   1.59917    0.052
 6517.00    1.55062   1.60137    0.052
 6518.00    1.54638   1.60535    0.052
 6519.00    1.54215   1.60865    0.052
 6520.00    1.55436   1.61261    0.052
 6521.00    1.56947   1.61753    0.052
 6522.00    1.56406   1.62149    0.052
 6523.00    1.55588   1.62194    0.052
 6524.00    1.55619   1.62077    0.052
 6525.00    1.55732   1.62048    0.051
 6526.00    1.56053   1.61902    0.051
 6527.00    1.56385   1.61628    0.051
 6528.00    1.55780   1.61487    0.000
 6529.00    1.55169   1.61416    0.000
 6530.00    1.57172   1.61374    0.000
 6531.00    1.59132   1.61517    0.000
 6532.00    1.60011   1.61873    0.000
 6533.00    1.60845   1.62259    0.000
 6534.00    1.61068   1.62600    0.000
 6535.00    1.61166   1.62974    0.000
 6536.00    1.60151   1.63353    0.000
 6537.00    1.59044   1.63476    0.000
 6538.00    1.57326   1.63264    0.000
 6539.00    1.55821   1.62823    0.000
 6540.00    1.55400   1.62123    0.000
 6541.00    1.55123   1.61259    0.000
 6542.00    1.55447   1.60287    0.000
 6543.00    1.56145   1.59180    0.000
 6544.00    1.58121   1.58291    0.000
 6545.00    1.59823   1.57688    0.000
 6546.00    1.60740   1.57113    0.000
 6547.00    1.61424   1.56591    0.000
 6548.00    1.61540   1.56116    0.000
 6549.00    1.60714   1.55615    0.000
 6550.00    1.57891   1.55017    0.000
 6551.00    1.55200   1.54226    0.000
 6552.00    1.52749   1.53261    0.000
 6553.00    1.51177   1.52214    0.000
 6554.00    1.51018   1.51115    0.000
 6555.00    1.50473   1.49736    0.000
 6556.00    1.49383   1.47834    0.000
 6557.00    1.48661   1.45867    0.000
 6558.00    1.48397   1.44174    0.000
 6559.00    1.48305   1.41982    0.000
 6560.00    1.48403   1.39907    0.000
 6561.00    1.48343   1.39660    0.000
 6562.00    1.48131   1.40232    0.000
 6563.00    1.47080   1.40755    0.000
 6564.00    1.45316   1.42560    0.000
 6565.00    1.44718   1.45125    0.000
 6566.00    1.44995   1.46894    0.000
 6567.00    1.45723   1.48374    0.000
 6568.00    1.46750   1.49898    0.000
 6569.00    1.47482   1.50635    0.000
 6570.00    1.48045   1.50862    0.000
 6571.00    1.49359   1.51229    0.000
 6572.00    1.51051   1.51553    0.000
 6573.00    1.51753   1.51962    0.000
 6574.00    1.52025   1.52622    0.000
 6575.00    1.51424   1.53325    0.000
 6576.00    1.50498   1.54089    0.000
 6577.00    1.52389   1.54807    0.000
 6578.00    1.55172   1.55334    0.000
 6579.00    1.58567   1.55847    0.000
 6580.00    1.62125   1.56296    0.000
 6581.00    1.64892   1.56638    0.000
 6582.00    1.67489   1.56995    0.000
 6583.00    1.69515   1.57228    0.000
 6584.00    1.71443   1.57429    0.000
 6585.00    1.71221   1.57568    0.000
 6586.00    1.70719   1.57243    0.000
 6587.00    1.67238   1.56634    0.000
 6588.00    1.63485   1.56002    0.000
 6589.00    1.59814   1.55014    0.000
 6590.00    1.56147   1.53741    0.000
 6591.00    1.53501   1.52902    0.000
 6592.00    1.50877   1.52481    0.000
 6593.00    1.48298   1.52114    0.000
 6594.00    1.45898   1.52212    0.000
 6595.00    1.47593   1.52823    0.000
 6596.00    1.49290   1.53493    0.000
 6597.00    1.51008   1.54263    0.000
 6598.00    1.52583   1.55074    0.000
 6599.00    1.52932   1.55575    0.000
 6600.00    1.53055   1.55815    0.000
 6601.00    1.51744   1.55853    0.000
 6602.00    1.50937   1.55504    0.000
 6603.00    1.52644   1.54898    0.000
 6604.00    1.54098   1.54348    0.000
 6605.00    1.54527   1.53849    0.000
 6606.00    1.54405   1.53360    0.000
 6607.00    1.52436   1.53233    0.000
 6608.00    1.51347   1.53598    0.000
 6609.00    1.52748   1.54146    0.053
 6610.00    1.53702   1.54744    0.053
 6611.00    1.53577   1.55539    0.053
 6612.00    1.53470   1.56501    0.053
 6613.00    1.53403   1.57247    0.054
 6614.00    1.53558   1.57711    0.054
 6615.00    1.54115   1.58146    0.055
 6616.00    1.54185   1.58431    0.054
 6617.00    1.53483   1.58372    0.052
 6618.00    1.52822   1.58064    0.052
 6619.00    1.52218   1.57629    0.052
 6620.00    1.52061   1.57079    0.052
 6621.00    1.52452   1.56283    0.051
 6622.00    1.52589   1.55417    0.051
 6623.00    1.52450   1.54799    0.051
 6624.00    1.51525   1.54166    0.051
 6625.00    1.49851   1.53461    0.052
 6626.00    1.48745   1.52968    0.052
 6627.00    1.48119   1.52481    0.052
 6628.00    1.47981   1.51908    0.052
 6629.00    1.48205   1.51455    0.052
 6630.00    1.48669   1.51025    0.052
 6631.00    1.49289   1.50668    0.053
 6632.00    1.49190   1.50642    0.053
 6633.00    1.48682   1.50763    0.054
 6634.00    1.48401   1.50941    0.054
 6635.00    1.48231   1.51401    0.055
 6636.00    1.48582   1.51843    0.055
 6637.00    1.49157   1.52012    0.055
 6638.00    1.48910   1.52273    0.055
 6639.00    1.48361   1.52526    0.055
 6640.00    1.47911   1.52368    0.054
 6641.00    1.47493   1.52208    0.053
 6642.00    1.46178   1.52329    0.052
 6643.00    1.44630   1.52321    0.051
 6644.00    1.45586   1.52194    0.051
 6645.00    1.47069   1.52275    0.051
 6646.00    1.47765   1.52461    0.052
 6647.00    1.48329   1.52492    0.052
 6648.00    1.47938   1.52445    0.053
 6649.00    1.47428   1.52507    0.053
 6650.00    1.48011   1.52491    0.053
 6651.00    1.48689   1.52319    0.053
 6652.00    1.47963   1.52240    0.053
 6653.00    1.47164   1.52101    0.052
 6654.00    1.48117   1.51755    0.053
 6655.00    1.49095   1.51468    0.055
 6656.00    1.49608   1.51106    0.055
 6657.00    1.50036   1.50414    0.055
 6658.00    1.48670   1.49768    0.054
 6659.00    1.47122   1.49238    0.054
 6660.00    1.43390   1.48473    0.054
 6661.00    1.40219   1.47854    0.054
 6662.00    1.41667   1.47671    0.054
 6663.00    1.42939   1.47571    0.054
 6664.00    1.43124   1.47657    0.053
 6665.00    1.43403   1.48138    0.053
 6666.00    1.44141   1.48788    0.053
 6667.00    1.44965   1.49465    0.053
 6668.00    1.46134   1.50127    0.053
 6669.00    1.46928   1.50676    0.052
 6670.00    1.46497   1.51041    0.052
 6671.00    1.46021   1.51039    0.051
 6672.00    1.45422   1.50663    0.052
 6673.00    1.44897   1.50245    0.052
 6674.00    1.44546   1.49645    0.052
 6675.00    1.43503   1.48747    0.052
 6676.00    1.41040   1.48221    0.053
 6677.00    1.39766   1.48085    0.053
 6678.00    1.40614   1.47876    0.054
 6679.00    1.41463   1.48005    0.054
 6680.00    1.42312   1.48605    0.056
 6681.00    1.43240   1.49136    0.056
 6682.00    1.44276   1.49581    0.055
 6683.00    1.44757   1.50141    0.055
 6684.00    1.44569   1.50591    0.055
 6685.00    1.44359   1.50796    0.055
 6686.00    1.44125   1.50927    0.054
 6687.00    1.45003   1.50980    0.054
 6688.00    1.46925   1.50872    0.054
 6689.00    1.46926   1.50626    0.054
 6690.00    1.45336   1.50247    0.052
 6691.00    1.44899   1.49838    0.052
 6692.00    1.45303   1.49355    0.052
 6693.00    1.45157   1.48782    0.052
 6694.00    1.44661   1.48398    0.052
 6695.00    1.43763   1.48153    0.052
 6696.00    1.42640   1.47950    0.000
 6697.00    1.42564   1.47987    0.000
 6698.00    1.42996   1.48131    0.000
 6699.00    1.42858   1.48270    0.000
 6700.00    1.42479   1.48478    0.000
 6701.00    1.43539   1.48584    0.000
 6702.00    1.45117   1.48627    0.000
 6703.00    1.46647   1.48714    0.000
 6704.00    1.48162   1.48623    0.000
 6705.00    1.45400   1.48462    0.000
 6706.00    1.41555   1.48353    0.000
 6707.00    1.41549   1.47981    0.000
 6708.00    1.42333   1.47427    0.000
 6709.00    1.42898   1.46866    0.000
 6710.00    1.43427   1.46080    0.000
 6711.00    1.42542   1.45133    0.000
 6712.00    1.41486   1.44295    0.000
 6713.00    1.44426   1.43596    0.000
 6714.00    1.47698   1.43000    0.000
 6715.00    1.48873   1.42674    0.000
 6716.00    1.49948   1.42764    0.000
 6717.00    1.47459   1.43116    0.000
 6718.00    1.44921   1.43627    0.000
 6719.00    1.42492   1.44288    0.000
 6720.00    1.40171   1.45003    0.000
 6721.00    1.39972   1.45685    0.000
 6722.00    1.39820   1.46215    0.000
 6723.00    1.40211   1.46601    0.000
 6724.00    1.40712   1.47001    0.000
 6725.00    1.42096   1.47319    0.000
 6726.00    1.42952   1.47487    0.000
 6727.00    1.40642   1.47689    0.000
 6728.00    1.39170   1.47892    0.000
 6729.00    1.41668   1.47959    0.000
 6730.00    1.44245   1.47961    0.000
 6731.00    1.47126   1.47896    0.000
 6732.00    1.48915   1.47699    0.000
 6733.00    1.47186   1.47430    0.000
 6734.00    1.45891   1.47098    0.000
 6735.00    1.45778   1.46710    0.000
 6736.00    1.45177   1.46304    0.000
 6737.00    1.43436   1.45903    0.000
 6738.00    1.42669   1.45585    0.000
 6739.00    1.43870   1.45297    0.000
 6740.00    1.44118   1.44978    0.000
 6741.00    1.42688   1.44779    0.000
 6742.00    1.40436   1.44650    0.000
 6743.00    1.36920   1.44401    0.000
 6744.00    1.35894   1.44149    0.000
 6745.00    1.38236   1.44050    0.000
 6746.00    1.40896   1.43906    0.000
 6747.00    1.43936   1.43664    0.000
 6748.00    1.44422   1.43705    0.000
 6749.00    1.42230   1.43895    0.000
 6750.00    1.39557   1.44002    0.000
 6751.00    1.36439   1.44460    0.000
 6752.00    1.34645   1.45149    0.000
 6753.00    1.33930   1.45735    0.060
 6754.00    1.32642   1.46539    0.061
 6755.00    1.30942   1.47419    0.062
 6756.00    1.30746   1.48045    0.062
 6757.00    1.31498   1.48624    0.062
 6758.00    1.35996   1.49061    0.063
 6759.00    1.42558   1.49149    0.065
 6760.00    1.49056   1.49073    0.065
 6761.00    1.55523   1.48817    0.066
 6762.00    1.61756   1.48340    0.067
 6763.00    1.67893   1.47830    0.068
 6764.00    1.68823   1.47275    0.068
 6765.00    1.67911   1.46735    0.068
 6766.00    1.65510   1.46426    0.068
 6767.00    1.62664   1.46279    0.068
 6768.00    1.62143   1.46269    0.067
 6769.00    1.62197   1.46585    0.066
 6770.00    1.59593   1.47145    0.065
 6771.00    1.56456   1.47728    0.065
 6772.00    1.54907   1.48398    0.065
 6773.00    1.53608   1.49125    0.064
 6774.00    1.51666   1.49626    0.064
 6775.00    1.49649   1.49875    0.063
 6776.00    1.45770   1.49942    0.062
 6777.00    1.41745   1.49634    0.062
 6778.00    1.43894   1.48990    0.063
 6779.00    1.46312   1.48212    0.065
 6780.00    1.45630   1.47254    0.065
 6781.00    1.44955   1.46260    0.065
 6782.00    1.46078   1.45506    0.065
 6783.00    1.47078   1.44925    0.064
 6784.00    1.45831   1.44558    0.063
 6785.00    1.44864   1.44596    0.063
 6786.00    1.46945   1.44780    0.063
 6787.00    1.48604   1.44953    0.063
 6788.00    1.47016   1.45294    0.062
 6789.00    1.45718   1.45592    0.062
 6790.00    1.46107   1.45638    0.063
 6791.00    1.46189   1.45725    0.064
 6792.00    1.44846   1.45862    0.063
 6793.00    1.44375   1.45841    0.062
 6794.00    1.47205   1.45908    0.064
 6795.00    1.48965   1.46139    0.066
 6796.00    1.47344   1.46328    0.065
 6797.00    1.46270   1.46546    0.064
 6798.00    1.46661   1.46804    0.064
 6799.00    1.46709   1.47039    0.065
 6800.00    1.45966   1.47188    0.064
 6801.00    1.45410   1.47196    0.064
 6802.00    1.45227   1.47245    0.064
 6803.00    1.45653   1.47233    0.064
 6804.00    1.47135   1.47013    0.063
 6805.00    1.47132   1.46917    0.062
 6806.00    1.44879   1.46865    0.062
 6807.00    1.43351   1.46643    0.061
 6808.00    1.42789   1.46545    0.061
 6809.00    1.42968   1.46525    0.061
 6810.00    1.44016   1.46441    0.060
 6811.00    1.43169   1.46458    0.061
 6812.00    1.40361   1.46515    0.064
 6813.00    1.39083   1.46617    0.065
 6814.00    1.39203   1.46818    0.065
 6815.00    1.39230   1.47009    0.065
 6816.00    1.39181   1.47260    0.064
 6817.00    1.40224   1.47574    0.064
 6818.00    1.42038   1.47850    0.064
 6819.00    1.41871   1.48133    0.064
 6820.00    1.40473   1.48408    0.064
 6821.00    1.41604   1.48599    0.064
 6822.00    1.44108   1.48701    0.064
 6823.00    1.46231   1.48735    0.064
 6824.00    1.48173   1.48685    0.063
 6825.00    1.48231   1.48544    0.063
 6826.00    1.47522   1.48405    0.064
 6827.00    1.46014   1.48307    0.063
 6828.00    1.44229   1.48236    0.063
 6829.00    1.45576   1.48221    0.062
 6830.00    1.47839   1.48201    0.062
 6831.00    1.49660   1.48138    0.064
 6832.00    1.51373   1.48018    0.065
 6833.00    1.49164   1.47686    0.064
 6834.00    1.46189   1.47153    0.063
 6835.00    1.43578   1.46544    0.064
 6836.00    1.41023   1.45785    0.065
 6837.00    1.43887   1.44981    0.067
 6838.00    1.47360   1.44368    0.069
 6839.00    1.41674   1.43944    0.070
 6840.00    1.35302   1.43767    0.070
 6841.00    1.38860   1.43941    0.069
 6842.00    1.42812   1.44377    0.068
 6843.00    1.42099   1.44940    0.067
 6844.00    1.41386   1.45581    0.066
 6845.00    1.41998   1.46206    0.065
 6846.00    1.42421   1.46621    0.065
 6847.00    1.39637   1.46836    0.064
 6848.00    1.37551   1.46876    0.063
 6849.00    1.42773   1.46598    0.064
 6850.00    1.47190   1.46171    0.065
 6851.00    1.45637   1.45687    0.065
 6852.00    1.44144   1.44973    0.064
 6853.00    1.42989   1.44342    0.064
 6854.00    1.41863   1.43897    0.063
 6855.00    1.40866   1.43350    0.063
 6856.00    1.38968   1.43012    0.063
 6857.00    1.33740   1.42990    0.064
 6858.00    1.31004   1.42923    0.065
 6859.00    1.35988   1.42957    0.066
 6860.00    1.38474   1.43243    0.067
 6861.00    1.34389   1.43468    0.067
 6862.00    1.32285   1.43549    0.068
 6863.00    1.34659   1.43706    0.067
 6864.00    1.36463   1.43820    0.067
 6865.00    1.37151   1.43682    0.067
 6866.00    1.38054   1.43562    0.068
 6867.00    1.39324   1.43562    0.069
 6868.00    1.40304   1.43469    0.070
 6869.00    1.40850   1.43426    0.069
 6870.00    1.41208   1.43583    0.069
 6871.00    1.41318   1.43808    0.067
 6872.00    1.41532   1.44058    0.066
 6873.00    1.41866   1.44361    0.065
 6874.00    1.39559   1.44720    0.064
 6875.00    1.34557   1.45047    0.064
 6876.00    1.33372   1.45234    0.064
 6877.00    1.35625   1.45365    0.064
 6878.00    1.38270   1.45491    0.064
 6879.00    1.41226   1.45529    0.065
 6880.00    1.41084   1.45541    0.065
 6881.00    1.38780   1.45716    0.065
 6882.00    1.37427   1.46046    0.066
 6883.00    1.36657   1.46391    0.068
 6884.00    1.37905   1.46901    0.069
 6885.00    1.40231   1.47614    0.069
 6886.00    1.40158   1.48195    0.069
 6887.00    1.38973   1.48697    0.068
 6888.00    1.38670   1.49279    0.068
 6889.00    1.38721   1.49618    0.069
 6890.00    1.39625   1.49724    0.068
 6891.00    1.40820   1.49882    0.067
 6892.00    1.40515   1.49901    0.066
 6893.00    1.39780   1.49770    0.065
 6894.00    1.40105   1.49736    0.066
 6895.00    1.40680   1.49733    0.067
 6896.00    1.39375   1.49722    0.066
 6897.00    1.37711   1.49771    0.065
 6898.00    1.37853   1.49894    0.065
 6899.00    1.38262   1.50080    0.065
 6900.00    1.37202   1.50245    0.065
 6901.00    1.35984   1.50435    0.065
 6902.00    1.38827   1.50667    0.066
 6903.00    1.41957   1.50830    0.067
 6904.00    1.40426   1.50966    0.067
 6905.00    1.38727   1.51031    0.068
 6906.00    1.40585   1.50977    0.069
 6907.00    1.42275   1.50875    0.070
 6908.00    1.37758   1.50602    0.070
 6909.00    1.33532   1.50230    0.069
 6910.00    1.33890   1.49910    0.068
 6911.00    1.34257   1.49485    0.068
 6912.00    1.34717   1.49131    0.067
 6913.00    1.35342   1.49007    0.067
 6914.00    1.37161   1.48870    0.069
 6915.00    1.38397   1.48864    0.070
 6916.00    1.36421   1.49033    0.068
 6917.00    1.34907   1.49095    0.067
 6918.00    1.35427   1.49097    0.067
 6919.00    1.36296   1.49047    0.067
 6920.00    1.38425   1.48827    0.066
 6921.00    1.39667   1.48483    0.066
 6922.00    1.38212   1.48104    0.066
 6923.00    1.37242   1.47748    0.066
 6924.00    1.37524   1.47454    0.067
 6925.00    1.37700   1.47283    0.067
 6926.00    1.37636   1.47251    0.069
 6927.00    1.37279   1.47310    0.070
 6928.00    1.36355   1.47443    0.069
 6929.00    1.34294   1.47643    0.069
 6930.00    1.30323   1.47823    0.068
 6931.00    1.28924   1.48013    0.068
 6932.00    1.31314   1.48284    0.069
 6933.00    1.32514   1.48504    0.069
 6934.00    1.32171   1.48711    0.069
 6935.00    1.31687   1.48984    0.068
 6936.00    1.31041   1.49144    0.067
 6937.00    1.31214   1.49179    0.067
 6938.00    1.32213   1.49183    0.067
 6939.00    1.32708   1.49015    0.067
 6940.00    1.32756   1.48709    0.065
 6941.00    1.33069   1.48455    0.065
 6942.00    1.33589   1.48135    0.065
 6943.00    1.32774   1.47837    0.066
 6944.00    1.31041   1.47763    0.066
 6945.00    1.29502   1.47672    0.066
 6946.00    1.28081   1.47603    0.067
 6947.00    1.29078   1.47712    0.068
 6948.00    1.31346   1.47690    0.070
 6949.00    1.33052   1.47622    0.070
 6950.00    1.34502   1.47713    0.070
 6951.00    1.33519   1.47731    0.070
 6952.00    1.31581   1.47810    0.071
 6953.00    1.34526   1.48119    0.071
 6954.00    1.39104   1.48452    0.072
 6955.00    1.39031   1.48852    0.072
 6956.00    1.37652   1.49385    0.071
 6957.00    1.37067   1.49868    0.070
 6958.00    1.36664   1.50310    0.068
 6959.00    1.35811   1.50754    0.067
 6960.00    1.34874   1.51075    0.066
 6961.00    1.36588   1.51348    0.067
 6962.00    1.38682   1.51615    0.068
 6963.00    1.37643   1.51750    0.067
 6964.00    1.36280   1.51888    0.067
 6965.00    1.35983   1.52032    0.067
 6966.00    1.35756   1.52005    0.068
 6967.00    1.39186   1.51947    0.068
 6968.00    1.42730   1.51815    0.068
 6969.00    1.37635   1.51416    0.069
 6970.00    1.32676   1.50891    0.070
 6971.00    1.31898   1.50223    0.070
 6972.00    1.31215   1.49295    0.070
 6973.00    1.31944   1.48319    0.071
 6974.00    1.32174   1.47447    0.071
 6975.00    1.27610   1.46628    0.071
 6976.00    1.24258   1.46080    0.071
 6977.00    1.29340   1.46059    0.070
 6978.00    1.33800   1.46363    0.070
 6979.00    1.34920   1.46956    0.071
 6980.00    1.35484   1.47970    0.072
 6981.00    1.33654   1.49036    0.070
 6982.00    1.32249   1.49977    0.069
 6983.00    1.32353   1.50864    0.068
 6984.00    1.32429   1.51488    0.068
 6985.00    1.32418   1.51858    0.068
 6986.00    1.32222   1.52059    0.068
 6987.00    1.31559   1.52100    0.068
 6988.00    1.31892   1.52104    0.068
 6989.00    1.34402   1.52049    0.068
 6990.00    1.37192   1.51968    0.069
 6991.00    1.40512   1.51905    0.071
 6992.00    1.41208   1.51762    0.072
 6993.00    1.37560   1.51569    0.071
 6994.00    1.34347   1.51299    0.071
 6995.00    1.31765   1.50942    0.072
 6996.00    1.32171   1.50570    0.072
 6997.00    1.36392   1.50153    0.073
 6998.00    1.37812   1.49765    0.073
 6999.00    1.36079   1.49458    0.073
 7000.00    1.34841   1.49193    0.072
 7001.00    1.34094   1.49026    0.072
 7002.00    1.32710   1.48961    0.072
 7003.00    1.30770   1.48959    0.071
 7004.00    1.32505   1.49018    0.071
 7005.00    1.37074   1.49109    0.070
 7006.00    1.37280   1.49213    0.072
 7007.00    1.34528   1.49285    0.075
 7008.00    1.31644   1.49228    0.075
 7009.00    1.28680   1.49104    0.074
 7010.00    1.31053   1.48899    0.074
 7011.00    1.36190   1.48524    0.075
 7012.00    1.33311   1.48201    0.076
 7013.00    1.26833   1.47951    0.076
 7014.00    1.26848   1.47732    0.076
 7015.00    1.29368   1.47770    0.075
 7016.00    1.30015   1.47929    0.076
 7017.00    1.30047   1.48122    0.077
 7018.00    1.33860   1.48460    0.078
 7019.00    1.38714   1.48707    0.079
 7020.00    1.36814   1.48828    0.078
 7021.00    1.33387   1.48963    0.077
 7022.00    1.33242   1.49044    0.077
 7023.00    1.33690   1.49124    0.077
 7024.00    1.32163   1.49298    0.076
 7025.00    1.30362   1.49567    0.075
 7026.00    1.30630   1.49930    0.075
 7027.00    1.31103   1.50301    0.074
 7028.00    1.30996   1.50685    0.074
 7029.00    1.30854   1.51042    0.074
 7030.00    1.29293   1.51260    0.075
 7031.00    1.27696   1.51458    0.075
 7032.00    1.27335   1.51586    0.075
 7033.00    1.27148   1.51625    0.076
 7034.00    1.31722   1.51812    0.077
 7035.00    1.36190   1.52039    0.078
 7036.00    1.39189   1.52337    0.079
 7037.00    1.41494   1.52931    0.079
 7038.00    1.37402   1.53577    0.079
 7039.00    1.33892   1.54239    0.079
 7040.00    1.34301   1.55059    0.078
 7041.00    1.35732   1.55762    0.078
 7042.00    1.42511   1.56234    0.079
 7043.00    1.47316   1.56644    0.080
 7044.00    1.43810   1.56806    0.078
 7045.00    1.40592   1.56584    0.076
 7046.00    1.38372   1.56151    0.076
 7047.00    1.36373   1.55341    0.076
 7048.00    1.35022   1.54125    0.077
 7049.00    1.33870   1.52659    0.077
 7050.00    1.33210   1.50895   -2.000
 7051.00    1.33300   1.49040   -2.000
 7052.00    1.35000   1.47198   -2.000
 7053.00    1.36097   1.45428   -2.000
 7054.00    1.36068   1.43914   -2.000
 7055.00    1.36368   1.42600   -2.000
 7056.00    1.37206   1.41531   -2.000
 7057.00    1.37698   1.40688   -2.000
 7058.00    1.37695   1.39990   -2.000
 7059.00    1.38889   1.39502   -2.000
 7060.00    1.41588   1.39058   -2.000
 7061.00    1.43288   1.38704   -2.000
 7062.00    1.43880   1.38520   -2.000
 7063.00    1.45181   1.38276   -2.000
 7064.00    1.47175   1.38158   -2.000
 7065.00    1.46987   1.38261   -2.000
 7066.00    1.44915   1.38392   -2.000
 7067.00    1.42286   1.38742   -2.000
 7068.00    1.39234   1.39326   -2.000
 7069.00    1.38479   1.39951   -2.000
 7070.00    1.39257   1.40698   -2.000
 7071.00    1.42401   1.41467   -2.000
 7072.00    1.46928   1.42116   -2.000
 7073.00    1.50345   1.42687   -2.000
 7074.00    1.53195   1.43099   -2.000
 7075.00    1.49892   1.43318   -2.000
 7076.00    1.43873   1.43304   -2.000
 7077.00    1.44139   1.43025   -2.000
 7078.00    1.46790   1.42540   -2.000
 7079.00    1.49232   1.41682   -2.000
 7080.00    1.51608   1.40568   -2.000
 7081.00    1.50146   1.39374   -2.000
 7082.00    1.47650   1.37911   -2.000
 7083.00    1.42660   1.36485   -2.000
 7084.00    1.37120   1.35218   -2.000
 7085.00    1.37310   1.33919   -2.000
 7086.00    1.38508   1.32961   -2.000
 7087.00    1.36208   1.32221   -2.000
 7088.00    1.33440   1.31535   -2.000
 7089.00    1.30913   1.31258   -2.000
 7090.00    1.28410   1.31098   -2.000
 7091.00    1.27989   1.31027   -2.000
 7092.00    1.27691   1.31260   -2.000
 7093.00    1.26748   1.31498   -2.000
 7094.00    1.25810   1.31822   -2.000
 7095.00    1.27730   1.32249   -2.000
 7096.00    1.29510   1.32597   -2.000
 7097.00    1.27809   1.32956   -2.000
 7098.00    1.25681   1.33247   -2.000
 7099.00    1.17877   1.33434   -2.000
 7100.00    1.11152   1.33578   -2.000
 7101.00    1.13986   1.33616   -2.000
 7102.00    1.16408   1.33569   -2.000
 7103.00    1.16141   1.33470   -2.000
 7104.00    1.16145   1.33311   -2.000
 7105.00    1.17534   1.33123   -2.000
 7106.00    1.18500   1.32909   -2.000
 7107.00    1.17725   1.32702   -2.000
 7108.00    1.16748   1.32582   -2.000
 7109.00    1.15078   1.32537   -2.000
 7110.00    1.15624   1.32547   -2.000
 7111.00    1.22534   1.32662   -2.000
 7112.00    1.26921   1.32842   -2.000
 7113.00    1.25118   1.33039   -2.000
 7114.00    1.24771   1.33182   -2.000
 7115.00    1.27508   1.33241   -2.000
 7116.00    1.27483   1.33267   -2.000
 7117.00    1.22379   1.33109   -2.000
 7118.00    1.22980   1.32818   -2.000
 7119.00    1.32745   1.32482   -2.000
 7120.00    1.39231   1.31979   -2.000
 7121.00    1.41096   1.31419   -2.000
 7122.00    1.38476   1.30766   -2.000
 7123.00    1.30296   1.30050   -2.000
 7124.00    1.24244   1.29410   -2.000
 7125.00    1.20521   1.28706   -2.000
 7126.00    1.17528   1.28114   -2.000
 7127.00    1.15239   1.27730   -2.000
 7128.00    1.14508   1.27448   -2.000
 7129.00    1.15103   1.27456   -2.000
 7130.00    1.15035   1.27647   -2.000
 7131.00    1.14472   1.27946   -2.000
 7132.00    1.15440   1.28520   -2.000
 7133.00    1.17416   1.29076   -2.000
 7134.00    1.22018   1.29544   -2.000
 7135.00    1.28134   1.30090   -2.000
 7136.00    1.32749   1.30483   -2.000
 7137.00    1.36611   1.30714   -2.000
 7138.00    1.30390   1.30945   -2.000
 7139.00    1.19790   1.31002   -2.000
 7140.00    1.21441   1.30895   -2.000
 7141.00    1.27656   1.30876   -2.000
 7142.00    1.26725   1.30696   -2.000
 7143.00    1.23537   1.30341   -2.000
 7144.00    1.20195   1.30212   -2.000
 7145.00    1.16812   1.30059   -2.000
 7146.00    1.17823   1.29905   -2.000
 7147.00    1.19781   1.30047   -2.000
 7148.00    1.19185   1.30269   -2.000
 7149.00    1.18152   1.30676   -2.000
 7150.00    1.21750   1.31215   -2.000
 7151.00    1.25947   1.31688   -2.000
 7152.00    1.22587   1.32233   -2.000
 7153.00    1.18540   1.32658   -2.000
 7154.00    1.21066   1.32932   -2.000
 7155.00    1.23951   1.33060   -2.000
 7156.00    1.24217   1.32959   -2.000
 7157.00    1.24388   1.32838   -2.000
 7158.00    1.20991   1.32556   -2.000
 7159.00    1.17661   1.32146   -2.000
 7160.00    1.15845   1.31886   -2.000
 7161.00    1.14184   1.31651   -2.000
 7162.00    1.14478   1.31505   -2.000
 7163.00    1.15960   1.31628   -2.000
 7164.00    1.27576   1.31916   -2.000
 7165.00    1.37259   1.32356   -2.000
 7166.00    1.34687   1.33003   -2.000
 7167.00    1.32833   1.33684   -2.000
 7168.00    1.34542   1.34282   -2.000
 7169.00    1.34286   1.34856   -2.000
 7170.00    1.26120   1.35308   -2.000
 7171.00    1.21357   1.35499   -2.000
 7172.00    1.27962   1.35530   -2.000
 7173.00    1.31893   1.35414   -2.000
 7174.00    1.28283   1.35119   -2.000
 7175.00    1.26551   1.34822   -2.000
 7176.00    1.29350   1.34430   -2.000
 7177.00    1.30159   1.34013   -2.000
 7178.00    1.26825   1.33792   -2.000
 7179.00    1.25646   1.33473   -2.000
 7180.00    1.28369   1.33191   -2.000
 7181.00    1.26958   1.33077   -2.000
 7182.00    1.19002   1.32806   -2.000
 7183.00    1.16601   1.32565   -2.000
 7184.00    1.21916   1.32284   -2.000
 7185.00    1.24613   1.31883   -2.000
 7186.00    1.24109   1.31694   -2.000
 7187.00    1.22816   1.31495   -2.000
 7188.00    1.20670   1.31319   -2.000
 7189.00    1.20401   1.31399   -2.000
 7190.00    1.21916   1.31560   -2.000
 7191.00    1.24323   1.31809   -2.000
 7192.00    1.27479   1.32115   -2.000
 7193.00    1.26618   1.32440   -2.000
 7194.00    1.22793   1.32769   -2.000
 7195.00    1.22354   1.33070   -2.000
 7196.00    1.24110   1.33325   -2.000
 7197.00    1.24724   1.33484   -2.000
 7198.00    1.24690   1.33652   -2.000
 7199.00    1.15800   1.33726   -2.000
 7200.00    1.02536   1.33680   -2.000
 7201.00    1.02074   1.33583   -2.000
 7202.00    1.07078   1.33324   -2.000
 7203.00    1.15723   1.33111   -2.000
 7204.00    1.25699   1.32850   -2.000
 7205.00    1.29306   1.32550   -2.000
 7206.00    1.30939   1.32511   -2.000
 7207.00    1.28583   1.32495   -2.000
 7208.00    1.25198   1.32628   -2.000
 7209.00    1.22586   1.32996   -2.000
 7210.00    1.20137   1.33319   -2.000
 7211.00    1.15063   1.33747   -2.000
 7212.00    1.09554   1.34239   -2.000
 7213.00    1.05948   1.34655   -2.000
 7214.00    1.02580   1.35071   -2.000
 7215.00    1.03727   1.35449   -2.000
 7216.00    1.05266   1.35746   -2.000
 7217.00    1.04890   1.36056   -2.000
 7218.00    1.04416   1.36340   -2.000
