###################################################################
## OUTPUT of StarlightChains_v04.for    [Cid@UFSC - 01/Apr/2007] ##
###################################################################

## Some input info
KUG0210-078._34_30.txt                   [arq_obs]
Base.CB07.vall.4m                        [arq_base]
Masks.EmLines.NEW.gm                     [arq_masks]
StCv04.C11.config                        [arq_config]
   66                                    [N_base]
    0                                    [N_YAV_components = # of components with extra extinction!]
    0                                    [i_FitPowerLaw (1/0 = Yes/No)]
-9.99                                    [alpha_PowerLaw]
CCM                                      [red_law_option]
 1.458241                                [q_norm = A(l_norm)/A(V)]

## (Re)Sampling Parameters
 3741.00                                 [l_ini (A)]
 7218.00                                 [l_fin (A)]
    1.00                                 [dl    (A)]     (OBS: dl_cushion =    50.00 A)

## Normalization info
 4020.00                                 [l_norm (A) - for base]
 4010.00                                 [llow_norm (A) - window for f_obs]
 4060.00                                 [lupp_norm (A) - window for f_obs]
5.651144E-17                             [fobs_norm (in input units)]

## S/N
 3691.00                                 [llow_SN (A) - window for S/N]
 7268.00                                 [lupp_SN (A) - window for S/N]
   3.575                                 [S/N in S/N window]
   4.076                                 [S/N in norm. window]
   0.072                                 [S/N_err in S/N window]
   0.082                                 [S/N_err in norm. window]
  1.0000                                 [fscale_chi2]

## etc...
    -2007535                             [idum_orig]
  2428                                   [NOl_eff]
  2227                                   [Nl_eff]
   201    NSIGMA                         [Ntot_cliped & clip_method]
  5457690                                [Nglobal_steps]
   7                                     [N_chains]
  22                                     [NEX0s_base = N_base in EX0s-fits]
 0   0   1      201   2.0   3.527E+04    [Clip-Bug, RC-Crash & Burn-In warning-flags, n_censored_weights, wei_nsig_threshold & wei_limit]
    45     44.587     43.958      0.629  [idt_all, wdt_TotTime, wdt_UsrTime & wdt_SysTime (sec)]

## Synthesis Results - Best model ##

 4.16703E-05                             [chi2/Nl_eff]
     6.57478                             [adev (%)]

   115.82124                             [sum-of-x (%)]
 1.70855E-17                             [Flux_tot (units of input spectrum!)]
 4.11953E-13                             [Mini_tot (???)]
 2.27338E-13                             [Mcor_tot (???)]

-190.64                                  [v0_min  (km/s)]
 190.02                                  [vd_min  (km/s)]
-1.0000                                  [AV_min  (mag)]
 0.0000                                  [YAV_min (mag)]

# j     x_j(%)      Mini_j(%)     Mcor_j(%)     age_j(yr)     Z_j      (L/M)_j    YAV?  Mstars   component_j        a/Fe...       SSP_chi2r SSP_adev(%)   SSP_AV   SSP_x(%)
  1      0.0000     0.0000E+00    0.0000E+00    1.000000E+06  0.00400  1.094E-02    0   1.0000   age020_m42            0.0000     9.6745E-05     8.0593   2.4524   107.6188
  2      0.0000     0.0000E+00    0.0000E+00    3.160000E+06  0.00400  4.007E-02    0   0.9999   age045_m42            0.0000     1.1103E-04     9.0396   1.8079   110.8973
  3      0.0000     0.0000E+00    0.0000E+00    5.010000E+06  0.00400  2.539E-02    0   0.9488   age055_m42            0.0000     1.0306E-04     8.6234   2.0924   109.9579
  4      0.0000     0.0000E+00    0.0000E+00    6.610000E+06  0.00400  2.620E-02    0   0.9220   age061_m42            0.0000     1.1135E-04     9.2147   1.7398   110.8753
  5      0.0000     0.0000E+00    0.0000E+00    1.000000E+07  0.00400  1.322E-02    0   0.8862   age070_m42            0.0000     1.2878E-04    10.6658   1.4758   112.5894
  6      0.0000     0.0000E+00    0.0000E+00    1.445000E+07  0.00400  7.883E-03    0   0.8571   age078_m42            0.0000     1.2209E-04    10.1891   1.7740   111.1123
  7      0.0000     0.0000E+00    0.0000E+00    2.512000E+07  0.00400  5.251E-03    0   0.8174   age090_m42            0.0000     1.3443E-04    11.0732   1.3556   112.7806
  8      0.0000     0.0000E+00    0.0000E+00    4.000000E+07  0.00400  3.649E-03    0   0.7851   age104_m42            0.0000     1.3384E-04    11.0663   1.1414   113.0415
  9      0.0000     0.0000E+00    0.0000E+00    5.500000E+07  0.00400  3.098E-03    0   0.7629   age110_m42            0.0000     1.3014E-04    10.5514   1.2986   112.7399
 10      0.0000     0.0000E+00    0.0000E+00    1.015200E+08  0.00400  2.228E-03    0   0.7207   age116_m42            0.0000     1.2718E-04    10.2576   1.3251   112.5697
 11      0.0000     0.0000E+00    0.0000E+00    2.861200E+08  0.00400  1.093E-03    0   0.6648   age125_m42            0.0000     1.3938E-04    11.2729   0.7825   114.2587
 12      0.0000     0.0000E+00    0.0000E+00    5.088000E+08  0.00400  6.597E-04    0   0.6365   age130_m42            0.0000     1.3047E-04    10.6116   0.7802   114.7877
 13      0.0000     0.0000E+00    0.0000E+00    1.434000E+09  0.00400  2.132E-04    0   0.5798   age139_m42            0.0000     1.0648E-04    10.0357  -0.1629   115.7242
 14      0.0000     0.0000E+00    0.0000E+00    4.250000E+09  0.00400  5.895E-05    0   0.5377   age158_m42            0.0000     6.9912E-05     8.1763  -0.6398   112.9055
 15      0.0000     0.0000E+00    0.0000E+00    7.500000E+09  0.00400  3.510E-05    0   0.5212   age171_m42            0.0000     6.1636E-05     7.6413  -0.8333   112.2785
 16      2.1886     3.9088E+00    3.5656E+00    1.300000E+10  0.00400  2.005E-05    0   0.5034   age193_m42            0.0000     5.7236E-05     7.2595  -1.0000   111.6620
 17      0.0000     0.0000E+00    0.0000E+00    1.800000E+10  0.00400  1.525E-05    0   0.4967   age213_m42            0.0000     5.7217E-05     7.5642  -1.0000   110.7060
 18      0.0000     0.0000E+00    0.0000E+00    1.000000E+06  0.00800  1.238E-02    0   1.0000   age020_m52            0.0000     9.6542E-05     8.0344   2.4479   107.8759
 19      0.0000     0.0000E+00    0.0000E+00    3.160000E+06  0.00800  3.074E-02    0   0.9966   age045_m52            0.0000     9.5595E-05     7.9958   2.3747   108.6782
 20      0.0000     0.0000E+00    0.0000E+00    5.010000E+06  0.00800  2.668E-02    0   0.9443   age055_m52            0.0000     1.0073E-04     8.4743   2.1619   109.6024
 21      0.0000     0.0000E+00    0.0000E+00    6.610000E+06  0.00800  2.136E-02    0   0.9177   age061_m52            0.0000     1.1279E-04    10.1498   0.9751   113.9868
 22      0.0000     0.0000E+00    0.0000E+00    1.000000E+07  0.00800  1.215E-02    0   0.8827   age070_m52            0.0000     1.3265E-04    10.9774   1.6416   112.9858
 23      0.0000     0.0000E+00    0.0000E+00    1.445000E+07  0.00800  8.717E-03    0   0.8552   age078_m52            0.0000     1.2370E-04    10.3335   1.7480   112.2514
 24      0.0000     0.0000E+00    0.0000E+00    2.512000E+07  0.00800  5.592E-03    0   0.8162   age090_m52            0.0000     1.3685E-04    11.2454   1.4214   113.9451
 25      0.0000     0.0000E+00    0.0000E+00    4.000000E+07  0.00800  3.896E-03    0   0.7841   age104_m52            0.0000     1.3528E-04    11.1318   1.3446   114.1464
 26      0.0000     0.0000E+00    0.0000E+00    1.015200E+08  0.00800  2.148E-03    0   0.7226   age116_m52            0.0000     1.2617E-04    10.5749   1.2921   113.4268
 27      0.0000     0.0000E+00    0.0000E+00    2.861200E+08  0.00800  9.925E-04    0   0.6683   age125_m52            0.0000     1.3056E-04    10.6606   0.8491   115.6889
 28      0.0000     0.0000E+00    0.0000E+00    9.047900E+08  0.00800  3.141E-04    0   0.6138   age135_m52            0.0000     1.0882E-04     9.8177   0.0731   119.0222
 29      0.0000     0.0000E+00    0.0000E+00    1.434000E+09  0.00800  1.719E-04    0   0.5853   age139_m52            0.0000     8.4854E-05     9.0735  -0.5267   117.4535
 30      0.0000     0.0000E+00    0.0000E+00    2.500000E+09  0.00800  7.872E-05    0   0.5600   age150_m52            0.0000     5.9052E-05     7.4835  -0.8132   115.2582
 31      0.0000     0.0000E+00    0.0000E+00    4.250000E+09  0.00800  4.336E-05    0   0.5426   age158_m52            0.0000     5.6294E-05     7.3520  -0.8333   114.3997
 32      0.0000     0.0000E+00    0.0000E+00    6.250000E+09  0.00800  3.159E-05    0   0.5319   age166_m52            0.0000     4.8965E-05     7.1372  -1.0000   113.4117
 33      0.0000     0.0000E+00    0.0000E+00    1.300000E+10  0.00800  1.361E-05    0   0.5073   age193_m52            0.0000     1.2931E-04    15.2610  -1.0000   100.3225
 34      0.0000     0.0000E+00    0.0000E+00    1.800000E+10  0.00800  9.886E-06    0   0.4990   age213_m52            0.0000     1.6901E-04    17.3940  -1.0000    96.8141
 35      0.0000     0.0000E+00    0.0000E+00    1.000000E+06  0.02000  1.544E-02    0   1.0000   age020_m62            0.0000     9.6205E-05     7.9920   2.4405   108.2751
 36      0.0000     0.0000E+00    0.0000E+00    3.160000E+06  0.02000  3.762E-02    0   0.9858   age045_m62            0.0000     9.5898E-05     7.9235   2.3770   109.3395
 37      0.0000     0.0000E+00    0.0000E+00    5.010000E+06  0.02000  3.296E-02    0   0.9342   age055_m62            0.0000     1.0435E-04     8.5896   2.0636   110.7321
 38      0.0000     0.0000E+00    0.0000E+00    8.710000E+06  0.02000  1.154E-02    0   0.8861   age067_m62            0.0000     1.8076E-04    14.0201   1.0888   116.5698
 39      0.0000     0.0000E+00    0.0000E+00    1.445000E+07  0.02000  7.663E-03    0   0.8472   age078_m62            0.0000     1.4739E-04    12.0335   1.2940   115.1275
 40      0.0000     0.0000E+00    0.0000E+00    2.512000E+07  0.02000  4.532E-03    0   0.8099   age090_m62            0.0000     1.5234E-04    12.3585   1.2918   114.4703
 41      0.0000     0.0000E+00    0.0000E+00    5.500000E+07  0.02000  2.733E-03    0   0.7595   age110_m62            0.0000     1.2964E-04    10.9637   1.3214   113.6542
 42      0.0000     0.0000E+00    0.0000E+00    1.609000E+08  0.02000  1.369E-03    0   0.6985   age120_m62            0.0000     1.3002E-04    10.6770   1.1930   114.9698
 43      0.0000     0.0000E+00    0.0000E+00    2.861200E+08  0.02000  9.013E-04    0   0.6714   age125_m62            0.0000     1.3276E-04    10.6266   0.9679   116.9099
 44      0.0000     0.0000E+00    0.0000E+00    5.088000E+08  0.02000  5.028E-04    0   0.6449   age130_m62            0.0000     1.2253E-04     9.7959   0.6047   119.0633
 45      0.0000     0.0000E+00    0.0000E+00    9.047900E+08  0.02000  2.428E-04    0   0.6179   age135_m62            0.0000     8.5456E-05     8.6456  -0.0000   118.9959
 46      0.1655     4.6916E-02    5.0227E-02    1.434000E+09  0.02000  1.263E-04    0   0.5908   age139_m62            0.0000     6.4303E-05     7.8619  -0.4566   117.8858
 47      2.1994     1.3159E+00    1.3528E+00    2.500000E+09  0.02000  5.985E-05    0   0.5673   age150_m62            0.0000     4.8797E-05     6.7204  -0.8386   116.9137
 48     71.9927     7.8813E+01    7.8091E+01    4.250000E+09  0.02000  3.271E-05    0   0.5468   age158_m62            0.0000     4.5487E-05     7.8397  -1.0000   112.3017
 49      0.0000     0.0000E+00    0.0000E+00    1.000000E+10  0.02000  1.360E-05    0   0.5167   age181_m62            0.0000     1.2007E-04    14.4051  -1.0000   102.3543
 50      0.0000     0.0000E+00    0.0000E+00    1.800000E+10  0.02000  7.124E-06    0   0.5013   age213_m62            0.0000     2.1337E-04    18.9004  -1.0000    95.5867
 51      0.0000     0.0000E+00    0.0000E+00    1.000000E+06  0.05000  2.592E-02    0   0.9998   age020_m72            0.0000     9.5449E-05     7.9465   2.4241   108.6974
 52      0.0000     0.0000E+00    0.0000E+00    3.160000E+06  0.05000  4.845E-02    0   0.9577   age045_m72            0.0000     9.7148E-05     8.0588   2.2824   109.6945
 53      0.0000     0.0000E+00    0.0000E+00    5.010000E+06  0.05000  3.072E-02    0   0.9147   age055_m72            0.0000     1.2708E-04    10.5540   1.8307   112.7991
 54      0.0000     0.0000E+00    0.0000E+00    6.610000E+06  0.05000  1.455E-02    0   0.8877   age061_m72            0.0000     2.3606E-04    16.2279   1.1021   117.8950
 55      0.0000     0.0000E+00    0.0000E+00    1.000000E+07  0.05000  9.074E-03    0   0.8524   age070_m72            0.0000     1.4142E-04    11.0505   1.9911   112.6975
 56      0.0000     0.0000E+00    0.0000E+00    2.512000E+07  0.05000  4.250E-03    0   0.7902   age090_m72            0.0000     1.4243E-04    11.3524   1.7430   112.7754
 57      0.0000     0.0000E+00    0.0000E+00    4.000000E+07  0.05000  3.087E-03    0   0.7618   age104_m72            0.0000     1.5088E-04    11.8678   1.5366   113.6181
 58      0.0000     0.0000E+00    0.0000E+00    1.015200E+08  0.05000  1.700E-03    0   0.7096   age116_m72            0.0000     1.3867E-04    11.1857   1.3288   114.7302
 59      0.0000     0.0000E+00    0.0000E+00    2.861200E+08  0.05000  7.384E-04    0   0.6633   age125_m72            0.0000     1.2279E-04    10.1255   0.8390   118.2428
 60      0.0000     0.0000E+00    0.0000E+00    5.088000E+08  0.05000  3.819E-04    0   0.6372   age130_m72            0.0000     9.4503E-05     8.8732   0.3419   120.2945
 61      0.0000     0.0000E+00    0.0000E+00    9.047900E+08  0.05000  1.676E-04    0   0.6110   age135_m72            0.0000     5.4798E-05     6.9436  -0.3812   119.3120
 62     39.2751     1.5915E+01    1.6940E+01    1.434000E+09  0.05000  8.837E-05    0   0.5874   age139_m72            0.0000     4.7363E-05     6.6208  -0.8426   118.6875
 63      0.0000     0.0000E+00    0.0000E+00    2.500000E+09  0.05000  4.233E-05    0   0.5598   age150_m72            0.0000     4.4415E-05     7.6980  -1.0000   113.3461
 64      0.0000     0.0000E+00    0.0000E+00    6.250000E+09  0.05000  1.435E-05    0   0.5249   age166_m72            0.0000     1.5997E-04    16.5830  -1.0000    99.2671
 65      0.0000     0.0000E+00    0.0000E+00    1.300000E+10  0.05000  6.513E-06    0   0.5036   age193_m72            0.0000     3.1497E-04    22.4860  -1.0000    91.9315
 66      0.0000     0.0000E+00    0.0000E+00    1.800000E+10  0.05000  4.527E-06    0   0.4945   age213_m72            0.0000     4.3328E-04    25.6348  -1.0000    86.8739


## Synthesis Results - Average & Chains ##

# j      x_j: min, <> & last-chain-values for 1 ...  7 chains
  1      0.0000      0.3779      0.0000      3.3117      0.0324      1.6958      0.9648      1.6473      0.3476
  2      0.0000      0.3364      0.7969      0.1205      0.0000      1.1351      0.1045      0.8238      0.2231
  3      0.0000      0.3846      0.4730      0.9751      0.0497      0.0000      0.0000      0.0208      0.1633
  4      0.0000      0.4438      2.3525      0.9869      0.2512      0.2775      1.3806      1.1205      0.3630
  5      0.0000      0.3921      0.0000      0.0000      0.0212      1.0867      0.1452      0.7377      0.0464
  6      0.0000      0.2609      0.0000      0.0000      0.0385      0.7434      0.6133      1.5382      0.0973
  7      0.0000      0.5539      2.9564      0.8448      0.3547      0.6994      0.8605      1.8372      0.0842
  8      0.0000      0.3828      1.2415      2.9242      0.2962      0.0000      0.4436      1.4867      0.0000
  9      0.0000      0.3858      1.4725      0.5048      0.0000      0.9298      0.0000      1.7256      0.0000
 10      0.0000      0.4311      1.0360      0.0000      0.0000      0.1863      2.0456      1.7538      0.0205
 11      0.0000      0.3436      1.1998      1.8793      0.2795      1.6456      0.2641      0.0000      0.0000
 12      0.0000      0.4843      0.9987      0.0000      0.0806      0.0000      0.0000      0.0000      0.0125
 13      0.0000      0.3224      0.0000      2.1451      0.3361      0.7775      1.3666      0.3050      0.1487
 14      0.0000      0.3711      0.0000      0.0815      0.0082      0.0000      0.0000      0.7364      0.4319
 15      0.0000      0.3255      0.0000      0.1012      0.0544      2.6658      0.5056      0.0936      0.0000
 16      2.1886      0.3408      0.4205      1.4246      0.4051      2.1860      0.0000      0.3907      0.1421
 17      0.0000      0.4165      0.0000      0.0000      0.0384      0.0000      0.0000      1.3092      0.0120
 18      0.0000      0.3538      1.8967      0.4039      0.3805      0.7803      0.0000      0.4935      0.0817
 19      0.0000      0.4408      0.0000      3.6400      0.0000      1.0112      1.4728      0.8693      0.1818
 20      0.0000      0.4341      0.1769      0.2842      0.0000      0.5869      0.7013      0.9180      0.1604
 21      0.0000      0.3765      2.3109      0.0000      0.1197      1.2720      0.2935      1.4340      0.0090
 22      0.0000      0.5192      0.0111      1.0444      0.0000      0.8122      1.2131      0.2609      0.2161
 23      0.0000      0.3890      0.7474      0.0000      0.1183      0.0000      0.0000      0.0000      0.3665
 24      0.0000      0.3184      0.8498      0.0000      0.1040      0.0584      0.3841      1.1947      0.0677
 25      0.0000      0.5035      0.1021      2.7135      0.1887      2.5635      0.4570      0.0000      0.2197
 26      0.0000      0.4357      0.9676      0.0000      0.1478      1.2720      1.4477      0.7767      0.1363
 27      0.0000      0.3971      0.0000      2.3649      0.2594      0.0000      1.6785      0.0000      0.0000
 28      0.0000      0.4746      1.2271      0.5565      0.2871      0.0000      2.7033      0.7468      0.1371
 29      0.0000      0.4979      0.4218      1.0492      0.0000      2.2025      0.8515      1.4702      0.0000
 30      0.0000      0.3708      0.0165      1.1242      0.0217      0.2592      0.6058      1.6296      0.1797
 31      0.0000      0.3888      0.4155      0.4441      0.0000      0.8928      0.0000      0.3766      0.0686
 32      0.0000      0.5278      1.0740      0.0000      0.0436      0.2928      0.6024      0.3555      0.1610
 33      0.0000      0.5428      2.6958      2.1235      0.0813      1.2474      0.3802      0.8788      0.0202
 34      0.0000      0.3697      0.0000      0.0000      0.0019      0.9189      1.1895      0.0000      0.0000
 35      0.0000      0.4887      0.0000      2.0747      0.0136      0.9748      3.5890      1.5663      0.1073
 36      0.0000      0.4501      3.2694      1.0022      0.0923      0.0000      0.6483      0.6411      0.0599
 37      0.0000      0.3203      0.2453      0.0000      0.1408      2.7193      1.1369      1.0060      0.0000
 38      0.0000      0.4256      1.1435      1.2472      0.0000      1.0193      1.7213      0.1363      0.1637
 39      0.0000      0.5446      1.2202      1.1826      0.0000      1.3699      0.0000      2.0745      0.0796
 40      0.0000      0.4551      0.0000      0.0000      0.0000      0.4801      0.4750      0.8886      0.1514
 41      0.0000      0.3635      0.7824      0.0000      0.0000      0.2159      0.1481      1.2343      0.0937
 42      0.0000      0.4689      1.0497      0.1192      0.0000      0.0422      0.0000      0.5459      0.2440
 43      0.0000      0.3971      0.0000      0.6531      0.0321      1.4196      1.3422      1.4822      0.0000
 44      0.0000     28.5701     16.0413     15.9351     36.9808     11.5147     24.3342     15.8852     36.7926
 45      0.0000      0.5223      1.9124      0.5840      0.0525      0.9686      0.6882      1.4794      0.0000
 46      0.1655      0.3461      0.0000      0.0000      0.1939      1.7230      0.2430      0.0000      0.0000
 47      2.1994      0.4050      2.4488      0.0044      0.2093      1.3866      0.0000      2.1290      0.0816
 48     71.9927      0.3448      0.7700      1.2274      0.4204      2.2553      0.2772      0.6969      0.3805
 49      0.0000      0.2916      0.4353      0.0000      0.0986      0.7397      0.4449      0.1652      0.0527
 50      0.0000      0.4703      1.2033      0.5493      0.0000      1.3193      0.0000      0.4474      0.0000
 51      0.0000      0.5134      0.8970      1.2759      0.0427      1.1869      1.4114      0.3881      0.0000
 52      0.0000      0.4699      0.6879      0.4185      0.1767      0.8451      0.0000      1.1858      0.2198
 53      0.0000      0.3559      1.2041      0.0000      0.1910      2.1917      0.6728      0.9238      0.2547
 54      0.0000      0.4576      0.9308      1.2637      0.1404      0.7004      1.1808      0.7274      0.2726
 55      0.0000      0.4071      1.0653      0.0000      0.4418      0.1060      0.0000      1.2460      0.2182
 56      0.0000      0.3519      2.0865      0.4812      0.1280      0.0000      0.3775      3.7344      0.0000
 57      0.0000      0.3015      0.2622      0.6724      0.0000      1.1438      0.3514      0.0000      0.1079
 58      0.0000      0.4292      0.2364      4.4009      0.0000      0.5690      1.2184      1.2671      0.1193
 59      0.0000      1.8766      2.8549      2.2644      1.0928      2.4957      2.4005      2.2485      1.9634
 60      0.0000      0.4277      1.6394      0.2427      0.0000      0.0000      0.0000      0.0000      0.0490
 61      0.0000      0.4774      1.0234      0.2961      0.0000      0.7564      0.0000      1.2605      0.0466
 62     39.2751      0.3877      0.0000      0.0000      0.2779      0.4532      0.5649      0.2088      0.1235
 63      0.0000      0.3274      2.1669      0.0000      0.0635      0.7373      1.1318      0.9766      0.0000
 64      0.0000      0.3879      0.3227      0.0000      0.1168      1.3297      0.5834      0.0000      0.1164
 65      0.0000      0.6492      0.4307      5.7899      0.2462      3.0096      0.0215      1.3990      0.0000
 66      0.0000     35.1723     19.3179     19.4332     46.7586     19.5658     23.9337     18.9211     45.8846

# j      m_j: min, <> & last-chain-values for 1 ...  7 chains
  1  0.0000E+00  8.4194E-04  0.0000E+00  1.0795E-02  5.6799E-05  5.4322E-03  3.1189E-03  6.2248E-03  6.2419E-04
  2  0.0000E+00  2.0461E-04  7.9550E-04  1.0720E-04  0.0000E+00  9.9265E-04  9.2186E-05  8.4988E-04  1.0936E-04
  3  0.0000E+00  3.5029E-04  7.0698E-04  1.2994E-03  3.5599E-05  0.0000E+00  0.0000E+00  3.2080E-05  1.1986E-04
  4  0.0000E+00  3.8067E-04  3.3116E-03  1.2384E-03  1.6954E-04  3.4223E-04  1.7183E-03  1.6301E-03  2.5094E-04
  5  0.0000E+00  6.4052E-04  0.0000E+00  0.0000E+00  2.7263E-05  2.5529E-03  3.4416E-04  2.0443E-03  6.1139E-05
  6  0.0000E+00  6.9124E-04  0.0000E+00  0.0000E+00  8.0269E-05  2.8324E-03  2.3583E-03  6.9142E-03  2.0789E-04
  7  0.0000E+00  2.1016E-03  1.8410E-02  4.6895E-03  1.0589E-03  3.8152E-03  4.7374E-03  1.1823E-02  2.5749E-04
  8  0.0000E+00  2.0072E-03  1.0685E-02  2.2435E-02  1.2220E-03  0.0000E+00  3.3753E-03  1.3223E-02  0.0000E+00
  9  0.0000E+00  2.3154E-03  1.4505E-02  4.4327E-03  0.0000E+00  8.0240E-03  0.0000E+00  1.7568E-02  0.0000E+00
 10  0.0000E+00  3.3985E-03  1.3406E-02  0.0000E+00  0.0000E+00  2.1124E-03  2.3402E-02  2.3453E-02  1.3032E-04
 11  0.0000E+00  5.0932E-03  2.9191E-02  4.0761E-02  3.2601E-03  3.5075E-02  5.6811E-03  0.0000E+00  0.0000E+00
 12  0.0000E+00  1.1387E-02  3.8546E-02  0.0000E+00  1.4918E-03  0.0000E+00  0.0000E+00  0.0000E+00  2.3781E-04
 13  0.0000E+00  2.1366E-02  0.0000E+00  2.0803E-01  1.7527E-02  7.4097E-02  1.3144E-01  3.4296E-02  7.9452E-03
 14  0.0000E+00  8.2487E-02  0.0000E+00  2.6520E-02  1.4370E-03  0.0000E+00  0.0000E+00  2.7767E-01  7.7397E-02
 15  0.0000E+00  1.1780E-01  0.0000E+00  5.3562E-02  1.5479E-02  1.3872E+00  2.6552E-01  5.7452E-02  0.0000E+00
 16  3.5656E+00  2.0853E-01  4.2232E-01  1.2755E+00  1.9507E-01  1.9233E+00  0.0000E+00  4.0557E-01  7.0096E-02
 17  0.0000E+00  3.3062E-01  0.0000E+00  0.0000E+00  2.3969E-02  0.0000E+00  0.0000E+00  1.7629E+00  7.6999E-03
 18  0.0000E+00  6.9658E-04  6.1284E-03  1.1635E-03  5.8946E-04  2.2089E-03  0.0000E+00  1.6480E-03  1.2960E-04
 19  0.0000E+00  3.4831E-04  0.0000E+00  4.2083E-03  0.0000E+00  1.1489E-03  1.6887E-03  1.1652E-03  1.1581E-04
 20  0.0000E+00  3.7447E-04  2.5047E-04  3.5869E-04  0.0000E+00  7.2799E-04  8.7782E-04  1.3432E-03  1.1151E-04
 21  0.0000E+00  3.9427E-04  3.9715E-03  0.0000E+00  9.8658E-05  1.9152E-03  4.4594E-04  2.5470E-03  7.6133E-06
 22  0.0000E+00  9.1938E-04  3.2336E-05  2.7058E-03  0.0000E+00  2.0677E-03  3.1171E-03  7.8345E-04  3.0845E-04
 23  0.0000E+00  9.3013E-04  2.9331E-03  0.0000E+00  2.2257E-04  0.0000E+00  0.0000E+00  0.0000E+00  7.0635E-04
 24  0.0000E+00  1.1326E-03  4.9615E-03  0.0000E+00  2.9112E-04  2.9847E-04  1.9826E-03  7.2087E-03  1.9399E-04
 25  0.0000E+00  2.4697E-03  8.2201E-04  1.9474E-02  7.2845E-04  1.8080E-02  3.2529E-03  0.0000E+00  8.6869E-04
 26  0.0000E+00  3.5726E-03  1.3020E-02  0.0000E+00  9.5349E-04  1.4996E-02  1.7224E-02  1.0802E-02  9.0108E-04
 27  0.0000E+00  6.5166E-03  0.0000E+00  5.6785E-02  3.3492E-03  0.0000E+00  3.9972E-02  0.0000E+00  0.0000E+00
 28  0.0000E+00  2.2601E-02  9.5924E-02  3.8778E-02  1.0760E-02  0.0000E+00  1.8683E-01  6.0333E-02  5.2622E-03
 29  0.0000E+00  4.1320E-02  5.7456E-02  1.2740E-01  0.0000E+00  2.6281E-01  1.0254E-01  2.0695E-01  0.0000E+00
 30  0.0000E+00  6.4294E-02  4.6961E-03  2.8519E-01  2.9571E-03  6.4617E-02  1.5240E-01  4.7926E-01  2.5110E-02
 31  0.0000E+00  1.1857E-01  2.0797E-01  1.9819E-01  0.0000E+00  3.9151E-01  0.0000E+00  1.9484E-01  1.6863E-02
 32  0.0000E+00  2.1657E-01  7.2336E-01  0.0000E+00  1.4081E-02  1.7275E-01  3.5869E-01  2.4748E-01  5.3260E-02
 33  0.0000E+00  4.9311E-01  4.0195E+00  2.8226E+00  5.8146E-02  1.6294E+00  5.0118E-01  1.3542E+00  1.4818E-02
 34  0.0000E+00  4.5479E-01  0.0000E+00  0.0000E+00  1.8499E-03  1.6255E+00  2.1234E+00  0.0000E+00  0.0000E+00
 35  0.0000E+00  7.7138E-04  0.0000E+00  4.7917E-03  1.6863E-05  2.2125E-03  8.2209E-03  4.1939E-03  1.3657E-04
 36  0.0000E+00  2.8746E-04  3.4270E-03  9.3654E-04  4.6359E-05  0.0000E+00  6.0086E-04  6.9452E-04  3.0856E-05
 37  0.0000E+00  2.2127E-04  2.7815E-04  0.0000E+00  7.6560E-05  2.7010E-03  1.1396E-03  1.1788E-03  0.0000E+00
 38  0.0000E+00  7.9641E-04  3.5124E-03  3.4149E-03  0.0000E+00  2.7428E-03  4.6745E-03  4.3277E-04  2.4697E-04
 39  0.0000E+00  1.4673E-03  5.3965E-03  4.6623E-03  0.0000E+00  5.3077E-03  0.0000E+00  9.4817E-03  1.7290E-04
 40  0.0000E+00  1.9821E-03  0.0000E+00  0.0000E+00  0.0000E+00  3.0068E-03  3.0020E-03  6.5646E-03  5.3140E-04
 41  0.0000E+00  2.4622E-03  8.6970E-03  0.0000E+00  0.0000E+00  2.1028E-03  1.4552E-03  1.4181E-02  5.1136E-04
 42  0.0000E+00  5.8312E-03  2.1424E-02  2.1691E-03  0.0000E+00  7.5433E-04  0.0000E+00  1.1515E-02  2.4457E-03
 43  0.0000E+00  7.2102E-03  0.0000E+00  1.7349E-02  4.5900E-04  3.7059E-02  3.5361E-02  4.5645E-02  0.0000E+00
 44  0.0000E+00  8.9309E-01  8.2303E-01  7.2884E-01  9.0963E-01  5.1756E-01  1.1039E+00  8.4231E-01  9.2707E-01
 45  0.0000E+00  3.2392E-02  1.9468E-01  5.2995E-02  2.5634E-03  8.6382E-02  6.1944E-02  1.5565E-01  0.0000E+00
 46  5.0227E-02  3.9458E-02  0.0000E+00  0.0000E+00  1.7393E-02  2.8245E-01  4.0197E-02  0.0000E+00  0.0000E+00
 47  1.3528E+00  9.3568E-02  9.2849E-01  1.4715E-03  3.8042E-02  4.6057E-01  0.0000E+00  8.3426E-01  1.5192E-02
 48  7.8091E+01  1.4046E-01  5.1491E-01  7.3167E-01  1.3476E-01  1.3212E+00  1.6388E-01  4.8161E-01  1.2497E-01
 49  0.0000E+00  2.7000E-01  6.6152E-01  0.0000E+00  7.1858E-02  9.8489E-01  5.9774E-01  2.5950E-01  3.9357E-02
 50  0.0000E+00  8.0653E-01  3.3871E+00  1.3783E+00  0.0000E+00  3.2532E+00  0.0000E+00  1.3015E+00  0.0000E+00
 51  0.0000E+00  4.8264E-04  1.3841E-03  1.7550E-03  3.1583E-05  1.6044E-03  1.9254E-03  6.1891E-04  0.0000E+00
 52  0.0000E+00  2.2639E-04  5.4396E-04  2.9501E-04  6.6981E-05  5.8538E-04  0.0000E+00  9.6897E-04  8.5368E-05
 53  0.0000E+00  2.5829E-04  1.4342E-03  0.0000E+00  1.0904E-04  2.2869E-03  7.0855E-04  1.1372E-03  1.4897E-04
 54  0.0000E+00  6.8038E-04  2.2716E-03  2.7492E-03  1.6425E-04  1.4974E-03  2.5479E-03  1.8346E-03  3.2677E-04
 55  0.0000E+00  9.3214E-04  4.0032E-03  0.0000E+00  7.9588E-04  3.4899E-04  0.0000E+00  4.8388E-03  4.0268E-04
 56  0.0000E+00  1.5945E-03  1.5518E-02  3.1902E-03  4.5635E-04  0.0000E+00  2.4821E-03  2.8705E-02  0.0000E+00
 57  0.0000E+00  1.8132E-03  2.5884E-03  5.9174E-03  0.0000E+00  9.8921E-03  3.0668E-03  0.0000E+00  5.2327E-04
 58  0.0000E+00  4.3659E-03  3.9476E-03  6.5507E-02  0.0000E+00  8.3232E-03  1.7987E-02  2.1865E-02  9.7839E-04
 59  0.0000E+00  4.1084E-02  1.0259E-01  7.2537E-02  1.8825E-02  7.8565E-02  7.6264E-02  8.3502E-02  3.4649E-02
 60  0.0000E+00  1.7393E-02  1.0942E-01  1.4438E-02  0.0000E+00  0.0000E+00  0.0000E+00  0.0000E+00  1.6046E-03
 61  0.0000E+00  4.2414E-02  1.4925E-01  3.8494E-02  0.0000E+00  9.6637E-02  0.0000E+00  1.8998E-01  3.3362E-03
 62  1.6940E+01  6.2802E-02  0.0000E+00  0.0000E+00  3.5420E-02  1.0557E-01  1.3279E-01  5.7390E-02  1.6132E-02
 63  0.0000E+00  1.0553E-01  1.1463E+00  0.0000E+00  1.6094E-02  3.4171E-01  5.2936E-01  5.3393E-01  0.0000E+00
 64  0.0000E+00  3.4577E-01  4.7224E-01  0.0000E+00  8.1918E-02  1.7045E+00  7.5477E-01  0.0000E+00  8.3628E-02
 65  0.0000E+00  1.2235E+00  1.3322E+00  1.5965E+01  3.6504E-01  8.1551E+00  5.8898E-02  4.4719E+00  0.0000E+00
 66  0.0000E+00  9.3636E+01  8.4411E+01  7.5698E+01  9.7951E+01  7.4897E+01  9.2462E+01  8.5444E+01  9.8464E+01

# AV, chi2 & Mass for <> & i_chain = 1 ...  7 solutions
AV      -1.0000      0.3697      0.1277      0.0552     -0.5950      0.0180      0.1000      0.2166     -0.5540
chi2 4.1670E-05  8.5771E-04  3.2426E-04  3.1492E-04  2.9388E-04  3.1421E-04  3.3050E-04  3.2311E-04  3.0077E-04
Mass 2.2734E-13  3.8095E-12  1.6771E-12  1.7067E-12  1.3252E-12  1.6520E-12  1.8276E-12  1.8285E-12  1.3669E-12
-190.64                                  [v0_min (km/s) before EX0s...]
 190.02                                  [vd_min (km/s) before EX0s...]


## Synthetic spectrum (Best Model) ##l_obs f_obs f_syn wei
 3478    [Nl_obs]
 3741.00    0.18848   0.58996    0.000
 3742.00    0.14049   0.55511    0.000
 3743.00    0.08282   0.51978    0.000
 3744.00    0.05303   0.48967    0.000
 3745.00    0.03949   0.47032   -1.000
 3746.00    0.06794   0.46714   -1.000
 3747.00    0.11772   0.48388   -1.000
 3748.00    0.10138   0.52022   -1.000
 3749.00    0.05596   0.57040   -1.000
 3750.00    0.02621   0.62405   -1.000
 3751.00    0.00237   0.66904   -1.000
 3752.00    0.06009   0.69546   -1.000
 3753.00    0.14396   0.69907   -1.000
 3754.00    0.18850   0.68324   -1.000
 3755.00    0.22250   0.65767   -1.000
 3756.00    0.28296   0.63397   -1.000
 3757.00    0.34923   0.62031   -1.000
 3758.00    0.35204   0.61844   -1.000
 3759.00    0.34378   0.62470   -1.000
 3760.00    0.33508   0.63339   -1.000
 3761.00    0.32633   0.63995   -1.000
 3762.00    0.33657   0.64240   -1.000
 3763.00    0.34861   0.64124   -1.000
 3764.00    0.30185   0.63873   -1.000
 3765.00    0.25169   0.63793   -1.000
 3766.00    0.21770   0.64174   -1.000
 3767.00    0.18468   0.65189   -1.000
 3768.00    0.22319   0.66835   -1.000
 3769.00    0.25972   0.68922   -1.000
 3770.00    0.24807   0.71138   -1.000
 3771.00    0.23789   0.73188   -1.000
 3772.00    0.24713   0.74941   -1.000
 3773.00    0.25880   0.76480   -1.000
 3774.00    0.29185   0.78012   -1.000
 3775.00    0.31869   0.79707   -1.000
 3776.00    0.30536   0.81570   -1.000
 3777.00    0.29237   0.83417   -1.000
 3778.00    0.28103   0.84940   -1.000
 3779.00    0.26974   0.85793   -1.000
 3780.00    0.25867   0.85658   -1.000
 3781.00    0.25648   0.84324   -1.000
 3782.00    0.28438   0.81791   -1.000
 3783.00    0.30317   0.78363   -1.000
 3784.00    0.29592   0.74631   -1.000
 3785.00    0.29243   0.71270   -1.000
 3786.00    0.29813   0.68758   -1.000
 3787.00    0.28135   0.67183   -1.000
 3788.00    0.21720   0.66238   -1.000
 3789.00    0.17741   0.65412   -1.000
 3790.00    0.18224   0.64263   -1.000
 3791.00    0.16636   0.62608   -1.000
 3792.00    0.11734   0.60592   -1.000
 3793.00    0.09426   0.58614   -1.000
 3794.00    0.10763   0.57224   -1.000
 3795.00    0.11257   0.56973   -1.000
 3796.00    0.10710   0.58243   -1.000
 3797.00    0.11350   0.61059   -1.000
 3798.00    0.13285   0.65014   -1.000
 3799.00    0.14699   0.69361   -1.000
 3800.00    0.15614   0.73272   -1.000
 3801.00    0.15739   0.76138   -1.000
 3802.00    0.15195   0.77789   -1.000
 3803.00    0.16278   0.78511   -1.000
 3804.00    0.18574   0.78845   -1.000
 3805.00    0.21479   0.79237   -1.000
 3806.00    0.24784   0.79741   -1.000
 3807.00    0.24042   0.79971   -1.000
 3808.00    0.20978   0.79360   -1.000
 3809.00    0.21247   0.77558   -1.000
 3810.00    0.23181   0.74707   -1.000
 3811.00    0.23277   0.71400   -1.000
 3812.00    0.22577   0.68377   -1.000
 3813.00    0.24654   0.66123   -1.000
 3814.00    0.27762   0.64663   -1.000
 3815.00    0.27366   0.63669   -1.000
 3816.00    0.25869   0.62769   -1.000
 3817.00    0.15752   0.61789   -1.000
 3818.00    0.03374   0.60738   -1.000
 3819.00   -0.02640   0.59620    0.000
 3820.00   -0.07290   0.58328    0.000
 3821.00   -0.02949   0.56745    0.000
 3822.00    0.02919   0.54931   -1.000
 3823.00    0.08701   0.53163   -1.000
 3824.00    0.14473   0.51752   -1.000
 3825.00    0.09078   0.50807   -1.000
 3826.00    0.02681   0.50146   -1.000
 3827.00    0.03793   0.49427   -1.000
 3828.00    0.05309   0.48382   -1.000
 3829.00    0.06332   0.47001   -1.000
 3830.00    0.07280   0.45548   -1.000
 3831.00    0.02739   0.44391   -1.000
 3832.00   -0.01169   0.43791    0.000
 3833.00    0.08966   0.43809   -1.000
 3834.00    0.18502   0.44380   -1.000
 3835.00    0.20590   0.45476   -1.000
 3836.00    0.21990   0.47195   -1.000
 3837.00    0.17584   0.49692   -1.000
 3838.00    0.14094   0.52987   -1.000
 3839.00    0.16368   0.56844   -1.000
 3840.00    0.18110   0.60807   -1.000
 3841.00    0.17228   0.64375   -1.000
 3842.00    0.15896   0.67197   -1.000
 3843.00    0.12764   0.69147   -1.000
 3844.00    0.12885   0.70289   -1.000
 3845.00    0.23819   0.70803   -1.000
 3846.00    0.30564   0.70933   -1.000
 3847.00    0.25544   0.70920    0.000
 3848.00    0.21152   0.70905    0.000
 3849.00    0.18269   0.70855    0.000
 3850.00    0.14275   0.70586    0.000
 3851.00    0.07977   0.69894    0.000
 3852.00    0.05397   0.68691    0.000
 3853.00    0.09522   0.67076    0.000
 3854.00    0.13490   0.65316    0.000
 3855.00    0.17212   0.63810    0.000
 3856.00    0.17375   0.63014    0.000
 3857.00    0.12612   0.63295    0.000
 3858.00    0.09186   0.64726    0.000
 3859.00    0.07391   0.66987    0.000
 3860.00    0.10427   0.69449    0.000
 3861.00    0.18654   0.71472    0.000
 3862.00    0.24417   0.72662    0.000
 3863.00    0.27848   0.72938    0.000
 3864.00    0.26183   0.72425    0.000
 3865.00    0.20262   0.71294    0.000
 3866.00    0.19752   0.69729    0.000
 3867.00    0.23223   0.67995    0.000
 3868.00    0.26434   0.66479    0.000
 3869.00    0.29478   0.65605    0.000
 3870.00    0.28097   0.65603    0.000
 3871.00    0.24215   0.66319    0.000
 3872.00    0.22963   0.67255    0.000
 3873.00    0.23003   0.67841    0.000
 3874.00    0.24643   0.67766    0.000
 3875.00    0.26961   0.67119    0.000
 3876.00    0.24865   0.66235    0.000
 3877.00    0.21161   0.65424    0.000
 3878.00    0.19648   0.64781    0.000
 3879.00    0.18810   0.64189    0.000
 3880.00    0.18232   0.63428    0.000
 3881.00    0.17720   0.62317   -1.000
 3882.00    0.18376   0.60842   -1.000
 3883.00    0.19276   0.59240   -1.000
 3884.00    0.18747   0.57980   -1.000
 3885.00    0.17983   0.57612   -1.000
 3886.00    0.14960   0.58518   -1.000
 3887.00    0.11657   0.60704   -1.000
 3888.00    0.14443   0.63772   -1.000
 3889.00    0.17751   0.67086   -1.000
 3890.00    0.20491   0.70042   -1.000
 3891.00    0.23204   0.72296   -1.000
 3892.00    0.24882   0.73831   -1.000
 3893.00    0.26483   0.74842   -1.000
 3894.00    0.24098   0.75563   -1.000
 3895.00    0.22157   0.76152   -1.000
 3896.00    0.29272   0.76661   -1.000
 3897.00    0.36142   0.77047   -1.000
 3898.00    0.40112   0.77207   -1.000
 3899.00    0.43211   0.77036   -1.000
 3900.00    0.39218   0.76549   -1.000
 3901.00    0.35398   0.75966   -1.000
 3902.00    0.32631   0.75687   -1.000
 3903.00    0.30429   0.76133   -1.000
 3904.00    0.30943   0.77514   -1.000
 3905.00    0.31934   0.79707   -1.000
 3906.00    0.34794   0.82289   -1.000
 3907.00    0.40663   0.84725   -1.000
 3908.00    0.56346   0.86568   -1.000
 3909.00    0.70397   0.87568   -1.000
 3910.00    0.79949   0.87686   -1.000
 3911.00    0.86506   0.87021   -1.000
 3912.00    0.85992   0.85730   -1.000
 3913.00    0.85603   0.83969   -1.000
 3914.00    0.85467   0.81863   -1.000
 3915.00    0.83844   0.79535   -1.000
 3916.00    0.79577   0.77146   -1.000
 3917.00    0.75889   0.74898   -1.000
 3918.00    0.73101   0.72971   -1.000
 3919.00    0.69349   0.71390   -1.000
 3920.00    0.64283   0.69945   -1.000
 3921.00    0.62918   0.68211   -1.000
 3922.00    0.65998   0.65711   -1.000
 3923.00    0.68379   0.62121   -1.000
 3924.00    0.70019   0.57399   -1.000
 3925.00    0.68303   0.51794   -1.000
 3926.00    0.63453   0.45755   -1.000
 3927.00    0.58138   0.39807   -1.000
 3928.00    0.52441   0.34474   -1.000
 3929.00    0.44607   0.30238   -1.000
 3930.00    0.35225   0.27519   -1.000
 3931.00    0.27840   0.26633   -1.000
 3932.00    0.21725   0.27713   -1.000
 3933.00    0.24009   0.30651   -1.000
 3934.00    0.30967   0.35063   -1.000
 3935.00    0.37164   0.40352   -1.000
 3936.00    0.42994   0.45837   -1.000
 3937.00    0.36565   0.50920   -1.000
 3938.00    0.25011   0.55257   -1.000
 3939.00    0.34849   0.58825   -1.000
 3940.00    0.52339   0.61881   -1.000
 3941.00    0.65594   0.64768   -1.000
 3942.00    0.77568   0.67716   -1.000
 3943.00    0.71332   0.70731   -1.000
 3944.00    0.60523   0.73649   -1.000
 3945.00    0.60745   0.76281   -1.000
 3946.00    0.63217   0.78514   -1.000
 3947.00    0.74076   0.80322   -1.000
 3948.00    0.86280   0.81718   -1.000
 3949.00    0.86280   0.82713   -1.000
 3950.00    0.84824   0.83309   -1.000
 3951.00    0.82236   0.83495   -1.000
 3952.00    0.79556   0.83248   -1.000
 3953.00    0.83259   0.82535   -1.000
 3954.00    0.87257   0.81287   -1.000
 3955.00    0.85619   0.79370   -1.000
 3956.00    0.83771   0.76594   -1.000
 3957.00    0.74682   0.72817   -1.000
 3958.00    0.66162   0.68067   -1.000
 3959.00    0.68411   0.62578   -1.000
 3960.00    0.70234   0.56688    0.000
 3961.00    0.67263   0.50699    0.000
 3962.00    0.63753   0.44859    0.000
 3963.00    0.56018   0.39458    0.000
 3964.00    0.48544   0.34932    0.000
 3965.00    0.42622   0.31838    0.000
 3966.00    0.37169   0.30680    0.000
 3967.00    0.33924   0.31718    0.000
 3968.00    0.33045   0.34848    0.000
 3969.00    0.41235   0.39665    0.000
 3970.00    0.48369   0.45613    0.000
 3971.00    0.52127   0.52141    0.000
 3972.00    0.53267   0.58819    0.000
 3973.00    0.47318   0.65328    0.000
 3974.00    0.46791   0.71426    0.000
 3975.00    0.58855   0.76882    0.000
 3976.00    0.69053   0.81463    0.000
 3977.00    0.75505   0.84996    0.000
 3978.00    0.83689   0.87463    0.000
 3979.00    0.94905   0.89057    0.000
 3980.00    0.97056   0.90139    0.000
 3981.00    0.85330   0.91093    0.227
 3982.00    0.82604   0.92175    0.162
 3983.00    0.91981   0.93449    0.165
 3984.00    0.95812   0.94829    0.166
 3985.00    0.93075   0.96168    0.163
 3986.00    0.89560   0.97361    0.160
 3987.00    0.85234   0.98361    0.155
 3988.00    0.89989   0.99144    0.157
 3989.00    1.03108   0.99649    0.164
 3990.00    1.05997   0.99781    0.164
 3991.00    1.00580   0.99497    0.160
 3992.00    0.98852   0.98913    0.160
 3993.00    0.99761   0.98343    0.161
 3994.00    1.01017   0.98193    0.160
 3995.00    1.02491   0.98748    0.157
 3996.00    0.99361   0.99991    0.155
 3997.00    0.93708   1.01556    0.152
 3998.00    0.92389   1.02865    0.151
 3999.00    0.93136   1.03388    0.151
 4000.00    0.95074   1.02912    0.153
 4001.00    0.97503   1.01665    0.157
 4002.00    0.92425   1.00248    0.154
 4003.00    0.84711   0.99363    0.149
 4004.00    0.88104   0.99469    0.153
 4005.00    0.94788   1.00592    0.159
 4006.00    0.96255   1.02374    0.158
 4007.00    0.96440   1.04316    0.154
 4008.00    0.92977   1.06030    0.153
 4009.00    0.88789   1.07357    0.153
 4010.00    0.96199   1.08317    0.154
 4011.00    1.05410   1.09004    0.155
 4012.00    1.03144   1.09516    0.152
 4013.00    0.99558   1.09927    0.150
 4014.00    0.99002   1.10294    0.151
 4015.00    0.98680   1.10631    0.152
 4016.00    1.01030   1.10888    0.156
 4017.00    1.03491   1.10968    0.160
 4018.00    1.02138   1.10802    0.160
 4019.00    1.00781   1.10436    0.159
 4020.00    1.00738   1.10043    0.156
 4021.00    1.00952   1.09838    0.152
 4022.00    1.05691   1.09898    0.152
 4023.00    1.10142   1.10034    0.153
 4024.00    1.11487   1.09802    0.157
 4025.00    1.12608   1.08709    0.161
 4026.00    1.12026   1.06515    0.158
 4027.00    1.10246   1.03454    0.156
 4028.00    1.01551   1.00219    0.163
 4029.00    0.95397   0.97718    0.169
 4030.00    1.00885   0.96715    0.165
 4031.00    1.03526   0.97541    0.160
 4032.00    0.95494   0.99996    0.154
 4033.00    0.91466   1.03424    0.171
 4034.00    0.99994   1.06950    0.406
 4035.00    1.07653   1.09752   -1.000
 4036.00    1.12998   1.11270   -1.000
 4037.00    1.13773   1.11282   -1.000
 4038.00    1.04112   1.09836   -1.000
 4039.00    0.98133   1.07183   -1.000
 4040.00    0.99432   1.03774   -1.000
 4041.00    1.00000   1.00306   -1.000
 4042.00    0.99308   0.97657   -1.000
 4043.00    0.96101   0.96603   -1.000
 4044.00    0.89100   0.97441   -1.000
 4045.00    0.86457   0.99813   -1.000
 4046.00    0.89589   1.02834   -1.000
 4047.00    0.91922   1.05492    0.665
 4048.00    0.93321   1.07059    0.210
 4049.00    0.98741   1.07290    0.158
 4050.00    1.08301   1.06389    0.162
 4051.00    1.10297   1.04817    0.161
 4052.00    1.05425   1.03093    0.156
 4053.00    1.01609   1.01638    0.152
 4054.00    0.98639   1.00682    0.149
 4055.00    0.96675   1.00218    0.149
 4056.00    0.95421   0.99997    0.151
 4057.00    0.92212   0.99643    0.150
 4058.00    0.87797   0.98860    0.148
 4059.00    0.86670   0.97657    0.150
 4060.00    0.87318   0.96395    0.154
 4061.00    0.90876   0.95619    0.154
 4062.00    0.95797   0.95733    0.152
 4063.00    0.95783   0.96776    0.151
 4064.00    0.93774   0.98396    0.149
 4065.00    0.98889   1.00040    0.152
 4066.00    1.06460   1.01220    0.157
 4067.00    1.03630   1.01705    0.157
 4068.00    0.97779   1.01550    0.155
 4069.00    0.89306   1.00954    0.150
 4070.00    0.80204   1.00070    0.144
 4071.00    0.82035   0.98942    0.144
 4072.00    0.85985   0.97638    0.145
 4073.00    0.89059   0.96419    0.143
 4074.00    0.92001   0.95769    0.140
 4075.00    0.91882   0.96166    0.142
 4076.00    0.91425   0.97753    0.144
 4077.00    0.88161   1.00191    0.146
 4078.00    0.84691   1.02809    0.149
 4079.00    0.93776   1.04978    0.151
 4080.00    1.03342   1.06447    0.153
 4081.00    1.09549   1.07410    0.154
 4082.00    1.15504   1.08303    0.155
 4083.00    1.12677   1.09476    0.151
 4084.00    1.10423   1.10963    0.147
 4085.00    1.17615   1.12484    0.151
 4086.00    1.23915   1.13623    0.156
 4087.00    1.21032   1.14045    0.158
 4088.00    1.17522   1.13612    0.159
 4089.00    1.09410   1.12365    0.152
 4090.00    1.03732   1.10419    0.147
 4091.00    1.11706   1.07888    0.149
 4092.00    1.15742   1.04873    0.000
 4093.00    1.02162   1.01474    0.000
 4094.00    0.92633   0.97809    0.000
 4095.00    0.97978   0.94038    0.000
 4096.00    1.00076   0.90418    0.000
 4097.00    0.92184   0.87348    0.000
 4098.00    0.88851   0.85340    0.000
 4099.00    0.97435   0.84855    0.000
 4100.00    1.03525   0.86065    0.000
 4101.00    1.04015   0.88716    0.000
 4102.00    1.05239   0.92171    0.000
 4103.00    1.07891   0.95648    0.000
 4104.00    1.07088   0.98517    0.000
 4105.00    1.00419   1.00500    0.000
 4106.00    0.97132   1.01702    0.000
 4107.00    0.98871   1.02491    0.000
 4108.00    0.99289   1.03280    0.000
 4109.00    0.97980   1.04336    0.000
 4110.00    0.97021   1.05663    0.000
 4111.00    0.96465   1.07023    0.000
 4112.00    0.98306   1.08065    0.000
 4113.00    1.02580   1.08495    0.142
 4114.00    1.07633   1.08229    0.142
 4115.00    1.13385   1.07430    0.143
 4116.00    1.14117   1.06434    0.200
 4117.00    1.10890   1.05582    0.687
 4118.00    1.09537   1.05098   -1.000
 4119.00    1.09486   1.05018   -1.000
 4120.00    1.11624   1.05203   -1.000
 4121.00    1.15094   1.05420   -1.000
 4122.00    1.15745   1.05421   -1.000
 4123.00    1.14898   1.05025   -1.000
 4124.00    1.14789   1.04167    0.414
 4125.00    1.15022   1.02902    0.168
 4126.00    1.12713   1.01382    0.144
 4127.00    1.09396   0.99837    0.144
 4128.00    1.00884   0.98563    0.140
 4129.00    0.90614   0.97890    0.136
 4130.00    0.93408   0.98100    0.137
 4131.00    0.99919   0.99300    0.140
 4132.00    1.03931   1.01338    0.139
 4133.00    1.07357   1.03803    0.137
 4134.00    1.07438   1.06129    0.139
 4135.00    1.06889   1.07745    0.141
 4136.00    1.05356   1.08222    0.142
 4137.00    1.03680   1.07411    0.144
 4138.00    1.00731   1.05531    0.141
 4139.00    0.97647   1.03145    0.138
 4140.00    0.98057   1.00990    0.137
 4141.00    0.98708   0.99680    0.137
 4142.00    0.88347   0.99452    0.137
 4143.00    0.77605   1.00086    0.138
 4144.00    0.88410   1.01072    0.142
 4145.00    0.99062   1.01889    0.146
 4146.00    1.03281   1.02228    0.147
 4147.00    1.07048   1.02042    0.148
 4148.00    1.03834   1.01468    0.145
 4149.00    1.00956   1.00713    0.144
 4150.00    1.01395   0.99982    0.144
 4151.00    1.01437   0.99474    0.145
 4152.00    0.98660   0.99372    0.146
 4153.00    0.96329   0.99818    0.147
 4154.00    0.96436   1.00851    0.146
 4155.00    0.97416   1.02376    0.144
 4156.00    1.02213   1.04186    0.142
 4157.00    1.05583   1.06020    0.141
 4158.00    1.03818   1.07620    0.144
 4159.00    1.02092   1.08776    0.145
 4160.00    1.00483   1.09356    0.140
 4161.00    0.98134   1.09321    0.136
 4162.00    0.93885   1.08745    0.133
 4163.00    0.93334   1.07770    0.133
 4164.00    1.00952   1.06540    0.136
 4165.00    1.05092   1.05110    0.137
 4166.00    1.02571   1.03432    0.136
 4167.00    1.00254   1.01459    0.136
 4168.00    0.98280   0.99270    0.136
 4169.00    0.97688   0.97124    0.135
 4170.00    0.99119   0.95380    0.133
 4171.00    0.99846   0.94332    0.133
 4172.00    0.99666   0.94066    0.136
 4173.00    1.02265   0.94463    0.140
 4174.00    1.08016   0.95293    0.145
 4175.00    1.07953   0.96321    0.144
 4176.00    1.02071   0.97379    0.138
 4177.00    0.97259   0.98372    0.136
 4178.00    0.93392   0.99261    0.136
 4179.00    0.92913   1.00030    0.135
 4180.00    0.95069   1.00665    0.133
 4181.00    0.93760   1.01129    0.132
 4182.00    0.90081   1.01390    0.130
 4183.00    0.92851   1.01497    0.130
 4184.00    0.99486   1.01598    0.131
 4185.00    1.00371   1.01898    0.131
 4186.00    0.98249   1.02517    0.131
 4187.00    0.99511   1.03422    0.131
 4188.00    1.02308   1.04402    0.130
 4189.00    1.02533   1.05106    0.128
 4190.00    1.01754   1.05167    0.127
 4191.00    1.00988   1.04367    0.127
 4192.00    1.00225   1.02741    0.128
 4193.00    1.04253   1.00562    0.128
 4194.00    1.09615   0.98266    0.126
 4195.00    1.06187   0.96300    0.127
 4196.00    1.00742   0.94975    0.129
 4197.00    0.95598   0.94418    0.127
 4198.00    0.90509   0.94623    0.124
 4199.00    0.93203   0.95513    0.124
 4200.00    0.96998   0.96979    0.124
 4201.00    0.99459   0.98874    0.125
 4202.00    1.01784   1.01000    0.125
 4203.00    1.00605   1.03126    0.123
 4204.00    0.99199   1.05028    0.121
 4205.00    0.99119   1.06532    0.122
 4206.00    0.99080   1.07538    0.122
 4207.00    0.98318   1.08008    0.124
 4208.00    0.97638   1.07944    0.125
 4209.00    0.99365   1.07414    0.124
 4210.00    1.01318   1.06589    0.124
 4211.00    1.06546   1.05763    0.123
 4212.00    1.11139   1.05316    0.123
 4213.00    1.09731   1.05559    0.124
 4214.00    1.08246   1.06534    0.125
 4215.00    1.06235   1.07913    0.124
 4216.00    1.05217   1.09083    0.123
 4217.00    1.09480   1.09334    0.123
 4218.00    1.13287   1.08082    0.122
 4219.00    1.15149   1.05101    0.124
 4220.00    1.14603   1.00696    0.126
 4221.00    1.05571   0.95692    0.124
 4222.00    0.97982   0.91213    0.123
 4223.00    0.94666   0.88356    0.123
 4224.00    0.91817   0.87828    0.124
 4225.00    0.90148   0.89608    0.123
 4226.00    0.89895   0.92970    0.122
 4227.00    0.92721   0.96815    0.122
 4228.00    0.97773   1.00068    0.122
 4229.00    1.07020   1.02060    0.122
 4230.00    1.11803   1.02723    0.122
 4231.00    1.09236   1.02422    0.120
 4232.00    1.06179   1.01703    0.120
 4233.00    1.02416   1.01116    0.121
 4234.00    0.97636   1.01047    0.121
 4235.00    0.91565   1.01642    0.118
 4236.00    0.90398   1.02877    0.117
 4237.00    0.94718   1.04634    0.115
 4238.00    0.99496   1.06654    0.115
 4239.00    1.04726   1.08575    0.116
 4240.00    1.08442   1.10030    0.117
 4241.00    1.10839   1.10705    0.118
 4242.00    1.08022   1.10412    0.118
 4243.00    1.01208   1.09154    0.118
 4244.00    1.03951   1.07204    0.119
 4245.00    1.13134   1.05032    0.123
 4246.00    1.13350   1.03075    0.124
 4247.00    1.08271   1.01626    0.124
 4248.00    1.05027   1.00811    0.126
 4249.00    1.02728   1.00615    0.128
 4250.00    0.98749   1.00901    0.127
 4251.00    0.94020   1.01438    0.125
 4252.00    0.97446   1.01964    0.125
 4253.00    1.04000   1.02241    0.125
 4254.00    1.04813   1.02155    0.123
 4255.00    1.03756   1.01814    0.121
 4256.00    1.03715   1.01573    0.120
 4257.00    1.03952   1.01862    0.120
 4258.00    1.03955   1.03016    0.121
 4259.00    1.03906   1.05067    0.122
 4260.00    1.06224   1.07639    0.122
 4261.00    1.08965   1.10041    0.121
 4262.00    1.07634   1.11555    0.121
 4263.00    1.05746   1.11644    0.120
 4264.00    1.05383   1.10066    0.121
 4265.00    1.05168   1.06978    0.121
 4266.00    1.08849   1.02945    0.122
 4267.00    1.12768   0.98735    0.122
 4268.00    1.07360   0.95091    0.121
 4269.00    1.01737   0.92684    0.119
 4270.00    1.03181   0.91970    0.119
 4271.00    1.04630   0.92980    0.119
 4272.00    1.06184   0.95344    0.120
 4273.00    1.07217   0.98398    0.120
 4274.00    1.01076   1.01397    0.118
 4275.00    0.95483   1.03787    0.115
 4276.00    0.94876   1.05272    0.116
 4277.00    0.95159   1.05843    0.117
 4278.00    1.01369   1.05706    0.119
 4279.00    1.06249   1.05070    0.119
 4280.00    1.04239   1.04115    0.118
 4281.00    1.03745   1.02918    0.117
 4282.00    1.09575   1.01407   -2.000
 4283.00    1.14655   0.99501   -2.000
 4284.00    1.17147   0.97341   -2.000
 4285.00    1.17231   0.95306   -2.000
 4286.00    1.10315   0.93814   -2.000
 4287.00    1.04383   0.93130   -2.000
 4288.00    1.00889   0.93237   -2.000
 4289.00    0.98442   0.93913   -2.000
 4290.00    0.98234   0.94703   -2.000
 4291.00    0.98360   0.95013   -2.000
 4292.00    0.99104   0.94367   -2.000
 4293.00    1.01170   0.92530   -2.000
 4294.00    1.05382   0.89679   -2.000
 4295.00    1.06318   0.86315   -2.000
 4296.00    1.02592   0.82973   -2.000
 4297.00    0.99875   0.80160   -2.000
 4298.00    0.98421   0.78212    0.120
 4299.00    0.96390   0.77130    0.119
 4300.00    0.93724   0.76643    0.119
 4301.00    0.91071   0.76378    0.118
 4302.00    0.88433   0.76038    0.117
 4303.00    0.85747   0.75622    0.117
 4304.00    0.83020   0.75403    0.118
 4305.00    0.81412   0.75772    0.118
 4306.00    0.80648   0.77074    0.115
 4307.00    0.78415   0.79498    0.114
 4308.00    0.75208   0.83036    0.114
 4309.00    0.77570   0.87584    0.115
 4310.00    0.83170   0.92989    0.115
 4311.00    0.91239   0.98902    0.115
 4312.00    1.00559   1.04782    0.116
 4313.00    1.03569   1.10051    0.116
 4314.00    1.03812   1.14146    0.115
 4315.00    1.07441   1.16612    0.116
 4316.00    1.12347   1.17223    0.117
 4317.00    1.14279   1.15958    0.118
 4318.00    1.15260   1.12993    0.119
 4319.00    1.11300   1.08827    0.119
 4320.00    1.06019   1.04331    0.118
 4321.00    1.08501   1.00610    0.119
 4322.00    1.12683   0.98603    0.120
 4323.00    1.05679   0.98682    0.119
 4324.00    0.96730   1.00601    0.118
 4325.00    0.99404   1.03721    0.118
 4326.00    1.03616   1.07288    0.119
 4327.00    1.09210   1.10583    0.119
 4328.00    1.14932   1.13074    0.120
 4329.00    1.16076   1.14482    0.120
 4330.00    1.16959   1.14618    0.000
 4331.00    1.19676   1.13237    0.000
 4332.00    1.22349   1.10233    0.000
 4333.00    1.14948   1.05866    0.000
 4334.00    1.07959   1.00691    0.000
 4335.00    1.10885   0.95545    0.000
 4336.00    1.13658   0.91504    0.000
 4337.00    1.14435   0.89381    0.000
 4338.00    1.14471   0.89389    0.000
 4339.00    1.08027   0.91345    0.000
 4340.00    1.02139   0.94785    0.000
 4341.00    0.99842   0.98952    0.000
 4342.00    0.98773   1.03110    0.000
 4343.00    1.03908   1.06760    0.000
 4344.00    1.08920   1.09455    0.000
 4345.00    1.13432   1.10755    0.000
 4346.00    1.16163   1.10568    0.000
 4347.00    1.12866   1.09408    0.000
 4348.00    1.10049   1.08051    0.000
 4349.00    1.08599   1.07077    0.000
 4350.00    1.08848   1.06864    0.000
 4351.00    1.13241   1.07583    0.117
 4352.00    1.17503   1.09005    0.140
 4353.00    1.21493   1.10630    0.356
 4354.00    1.23068   1.12145   -1.000
 4355.00    1.20229   1.13581   -1.000
 4356.00    1.19411   1.15033   -1.000
 4357.00    1.21820   1.16505   -1.000
 4358.00    1.23946   1.17993   -1.000
 4359.00    1.25676   1.19487   -1.000
 4360.00    1.26908   1.20755    0.518
 4361.00    1.27527   1.21382    0.160
 4362.00    1.27728   1.21128    0.117
 4363.00    1.27477   1.20124    0.115
 4364.00    1.27323   1.18673    0.114
 4365.00    1.27263   1.17021    0.113
 4366.00    1.25117   1.15383    0.113
 4367.00    1.21206   1.13855    0.113
 4368.00    1.17930   1.12314    0.113
 4369.00    1.15127   1.10680    0.114
 4370.00    1.11902   1.09191    0.113
 4371.00    1.08402   1.08266    0.110
 4372.00    1.07963   1.08120    0.110
 4373.00    1.09278   1.08580    0.110
 4374.00    1.10846   1.09188    0.111
 4375.00    1.12540   1.09382    0.111
 4376.00    1.11229   1.08633    0.111
 4377.00    1.08621   1.06471    0.111
 4378.00    1.09503   1.02880    0.112
 4379.00    1.11676   0.98696    0.114
 4380.00    1.08280   0.95179    0.112
 4381.00    1.03138   0.93202    0.110
 4382.00    0.97321   0.92950    0.109
 4383.00    0.91328   0.94144    0.107
 4384.00    0.95077   0.96284    0.108
 4385.00    1.00907   0.98759    0.108
 4386.00    1.04078   1.01125    0.108
 4387.00    1.06800   1.03197    0.109
 4388.00    1.07093   1.04891    0.107
 4389.00    1.07076   1.06191    0.106
 4390.00    1.10456   1.07283    0.108
 4391.00    1.14140   1.08475    0.109
 4392.00    1.14750   1.09824    0.110
 4393.00    1.15197   1.11016    0.110
 4394.00    1.13915   1.11687    0.109
 4395.00    1.12646   1.11647    0.108
 4396.00    1.15165   1.10997    0.108
 4397.00    1.17409   1.09969    0.108
 4398.00    1.13588   1.08523    0.109
 4399.00    1.09721   1.06560    0.109
 4400.00    1.05293   1.04457    0.109
 4401.00    1.01035   1.02870    0.108
 4402.00    0.98209   1.02084    0.108
 4403.00    0.96184   1.02123    0.108
 4404.00    0.99177   1.03116    0.109
 4405.00    1.02425   1.05093    0.110
 4406.00    1.06925   1.07680    0.111
 4407.00    1.10985   1.10282    0.111
 4408.00    1.13284   1.12313    0.111
 4409.00    1.16236   1.13267    0.111
 4410.00    1.21350   1.13059    0.111
 4411.00    1.25690   1.12246    0.111
 4412.00    1.27859   1.11539    0.113
 4413.00    1.27049   1.11386    0.113
 4414.00    1.19096   1.11971    0.111
 4415.00    1.14031   1.13116    0.110
 4416.00    1.14942   1.14305    0.111
 4417.00    1.15394   1.15071    0.111
 4418.00    1.15019   1.15309    0.111
 4419.00    1.17064   1.15210    0.110
 4420.00    1.22919   1.14952    0.111
 4421.00    1.26123   1.14627    0.112
 4422.00    1.25662   1.14358    0.113
 4423.00    1.23306   1.14237    0.113
 4424.00    1.18644   1.14181    0.112
 4425.00    1.18859   1.13958    0.111
 4426.00    1.24304   1.13501    0.112
 4427.00    1.25086   1.12952    0.112
 4428.00    1.21456   1.12290    0.113
 4429.00    1.18651   1.11417    0.113
 4430.00    1.16534   1.10524    0.113
 4431.00    1.16431   1.10070    0.113
 4432.00    1.17806   1.10459    0.113
 4433.00    1.16929   1.11674    0.112
 4434.00    1.14599   1.13292    0.111
 4435.00    1.16122   1.14744    0.112
 4436.00    1.19817   1.15521    0.114
 4437.00    1.18301   1.15460    0.114
 4438.00    1.14228   1.14848    0.113
 4439.00    1.17351   1.14271    0.114
 4440.00    1.23529   1.14271    0.116
 4441.00    1.28594   1.14999    0.117
 4442.00    1.33256   1.16172    0.118
 4443.00    1.29238   1.17451    0.118
 4444.00    1.22551   1.18605    0.116
 4445.00    1.20001   1.19281    0.115
 4446.00    1.18510   1.19222    0.115
 4447.00    1.20916   1.18487    0.114
 4448.00    1.24134   1.17104    0.114
 4449.00    1.25316   1.15022    0.114
 4450.00    1.26163   1.12402    0.115
 4451.00    1.26548   1.09697    0.114
 4452.00    1.26876   1.07387    0.112
 4453.00    1.19368   1.05614    0.111
 4454.00    1.11194   1.04316    0.109
 4455.00    1.14346   1.03536    0.109
 4456.00    1.18057   1.03282    0.110
 4457.00    1.12219   1.03487    0.110
 4458.00    1.06386   1.04254    0.110
 4459.00    1.10362   1.05652    0.109
 4460.00    1.14119   1.07310    0.109
 4461.00    1.13437   1.08851    0.000
 4462.00    1.12955   1.10166    0.000
 4463.00    1.14816   1.11195    0.000
 4464.00    1.16917   1.11917    0.000
 4465.00    1.20961   1.12499    0.000
 4466.00    1.23878   1.13315    0.000
 4467.00    1.19934   1.14602    0.000
 4468.00    1.17517   1.16352    0.000
 4469.00    1.22423   1.18416    0.000
 4470.00    1.26485   1.20492    0.000
 4471.00    1.27249   1.22248    0.000
 4472.00    1.27530   1.23539    0.000
 4473.00    1.26240   1.24223    0.000
 4474.00    1.26672   1.24010    0.000
 4475.00    1.31840   1.22781    0.000
 4476.00    1.33931   1.20878    0.000
 4477.00    1.28775   1.18976    0.000
 4478.00    1.25551   1.17739    0.000
 4479.00    1.26266   1.17560    0.000
 4480.00    1.26074   1.18298    0.000
 4481.00    1.24276   1.19482    0.000
 4482.00    1.22676   1.20589    0.107
 4483.00    1.21381   1.21113    0.108
 4484.00    1.21841   1.20802    0.109
 4485.00    1.24692   1.19847    0.109
 4486.00    1.27076   1.18733    0.109
 4487.00    1.28898   1.17852    0.108
 4488.00    1.27646   1.17252    0.108
 4489.00    1.23144   1.16739    0.107
 4490.00    1.21613   1.16225    0.106
 4491.00    1.22853   1.15983    0.106
 4492.00    1.23736   1.16255    0.106
 4493.00    1.24327   1.17078    0.107
 4494.00    1.25293   1.18384    0.107
 4495.00    1.26532   1.19941    0.106
 4496.00    1.26008   1.21518    0.106
 4497.00    1.24363   1.23037    0.105
 4498.00    1.23632   1.24744    0.104
 4499.00    1.23408   1.26722    0.104
 4500.00    1.26877   1.28566    0.105
 4501.00    1.32130   1.29931    0.106
 4502.00    1.33453   1.30731    0.105
 4503.00    1.33137   1.30997    0.105
 4504.00    1.32771   1.30865    0.104
 4505.00    1.32388   1.30513    0.104
 4506.00    1.35693   1.30003    0.105
 4507.00    1.40110   1.29243    0.105
 4508.00    1.40100   1.28155    0.105
 4509.00    1.38981   1.26857    0.104
 4510.00    1.35395   1.25540    0.104
 4511.00    1.31307   1.24408    0.104
 4512.00    1.31518   1.23602    0.105
 4513.00    1.32414   1.23057    0.105
 4514.00    1.32154   1.22752    0.105
 4515.00    1.31757   1.22768    0.104
 4516.00    1.29543   1.22940    0.104
 4517.00    1.27182   1.22919    0.104
 4518.00    1.30395   1.22315    0.104
 4519.00    1.33861   1.21049    0.103
 4520.00    1.29741   1.19296    0.102
 4521.00    1.25578   1.17067    0.101
 4522.00    1.24023   1.14466    0.101
 4523.00    1.22529   1.11827    0.101
 4524.00    1.22209   1.09498    0.100
 4525.00    1.21744   1.07786    0.099
 4526.00    1.19649   1.06862    0.100
 4527.00    1.17492   1.06679    0.100
 4528.00    1.14846   1.07074    0.100
 4529.00    1.12712   1.07747    0.099
 4530.00    1.13611   1.08555    0.099
 4531.00    1.14506   1.09694    0.099
 4532.00    1.15385   1.11425    0.099
 4533.00    1.15945   1.13694    0.100
 4534.00    1.15286   1.15930    0.099
 4535.00    1.15771   1.17608    0.099
 4536.00    1.19901   1.18623    0.100
 4537.00    1.22454   1.19124    0.101
 4538.00    1.20747   1.19335    0.101
 4539.00    1.20845   1.19301    0.100
 4540.00    1.25124   1.18890    0.100
 4541.00    1.27741   1.18169    0.100
 4542.00    1.27024   1.17416    0.100
 4543.00    1.25687   1.16724    0.100
 4544.00    1.23268   1.15975    0.100
 4545.00    1.21087   1.15132    0.100
 4546.00    1.19270   1.14461    0.100
 4547.00    1.17426   1.14167    0.100
 4548.00    1.15544   1.14074    0.099
 4549.00    1.15144   1.14050    0.098
 4550.00    1.16495   1.14208    0.000
 4551.00    1.18817   1.14750    0.000
 4552.00    1.22150   1.15876    0.000
 4553.00    1.23382   1.17559    0.000
 4554.00    1.22682   1.19442    0.000
 4555.00    1.22867   1.21122    0.000
 4556.00    1.23768   1.22369    0.000
 4557.00    1.24519   1.23080    0.000
 4558.00    1.25162   1.23202    0.000
 4559.00    1.25820   1.22708    0.000
 4560.00    1.26485   1.21814    0.000
 4561.00    1.26840   1.21005    0.000
 4562.00    1.27025   1.20715    0.000
 4563.00    1.29242   1.21034    0.000
 4564.00    1.32425   1.21664    0.000
 4565.00    1.31333   1.22239    0.000
 4566.00    1.28488   1.22568    0.000
 4567.00    1.28943   1.22590    0.000
 4568.00    1.30555   1.22533    0.000
 4569.00    1.34676   1.22741    0.000
 4570.00    1.39539   1.23077    0.000
 4571.00    1.39477   1.23168    0.000
 4572.00    1.38209   1.22941    0.000
 4573.00    1.35147   1.22404    0.000
 4574.00    1.31730   1.21449    0.000
 4575.00    1.32242   1.20023    0.000
 4576.00    1.33363   1.18327    0.000
 4577.00    1.30546   1.16761    0.000
 4578.00    1.27280   1.15656    0.000
 4579.00    1.23590   1.15070    0.000
 4580.00    1.19868   1.14926    0.000
 4581.00    1.21872   1.15203    0.000
 4582.00    1.24114   1.15867    0.000
 4583.00    1.22785   1.16850    0.000
 4584.00    1.21501   1.18000    0.000
 4585.00    1.23498   1.18998    0.000
 4586.00    1.25309   1.19522    0.000
 4587.00    1.23849   1.19442    0.000
 4588.00    1.22922   1.18881    0.000
 4589.00    1.27700   1.18138    0.000
 4590.00    1.32029   1.17419    0.000
 4591.00    1.32973   1.16773    0.000
 4592.00    1.33068   1.16277    0.000
 4593.00    1.28284   1.16035    0.000
 4594.00    1.23630   1.16030    0.000
 4595.00    1.19572   1.16172    0.000
 4596.00    1.16906   1.16321    0.000
 4597.00    1.19443   1.16437    0.000
 4598.00    1.20943   1.16700    0.000
 4599.00    1.19200   1.17181    0.000
 4600.00    1.18799   1.17809    0.000
 4601.00    1.21961   1.18598    0.000
 4602.00    1.25082   1.19638    0.000
 4603.00    1.28108   1.20990    0.000
 4604.00    1.29168   1.22544    0.000
 4605.00    1.26346   1.24002    0.000
 4606.00    1.25816   1.25014    0.000
 4607.00    1.29226   1.25431    0.000
 4608.00    1.31968   1.25405    0.000
 4609.00    1.33705   1.25163    0.000
 4610.00    1.34874   1.24891    0.000
 4611.00    1.35291   1.24737    0.000
 4612.00    1.33979   1.24660    0.000
 4613.00    1.30650   1.24605    0.000
 4614.00    1.30359   1.24635    0.000
 4615.00    1.33189   1.24670    0.000
 4616.00    1.36816   1.24719    0.000
 4617.00    1.41167   1.24943    0.000
 4618.00    1.40478   1.25218    0.000
 4619.00    1.35764   1.25320    0.000
 4620.00    1.34124   1.25294    0.000
 4621.00    1.34645   1.25162    0.000
 4622.00    1.34276   1.24887    0.000
 4623.00    1.33357   1.24601    0.000
 4624.00    1.31991   1.24368    0.000
 4625.00    1.30383   1.24063    0.000
 4626.00    1.29405   1.23707    0.000
 4627.00    1.28721   1.23450    0.000
 4628.00    1.31085   1.23159    0.000
 4629.00    1.34678   1.22529    0.000
 4630.00    1.34000   1.21596    0.000
 4631.00    1.31853   1.20641    0.000
 4632.00    1.30273   1.19748    0.000
 4633.00    1.28858   1.18866    0.000
 4634.00    1.27861   1.18023    0.000
 4635.00    1.26964   1.17361    0.000
 4636.00    1.25135   1.16940    0.000
 4637.00    1.23127   1.16716    0.000
 4638.00    1.18064   1.16581    0.000
 4639.00    1.12543   1.16229    0.000
 4640.00    1.16824   1.15458    0.000
 4641.00    1.22185   1.14396    0.000
 4642.00    1.24637   1.13220    0.000
 4643.00    1.26878   1.12163    0.000
 4644.00    1.21912   1.11639    0.000
 4645.00    1.16674   1.11852    0.000
 4646.00    1.16079   1.12668    0.000
 4647.00    1.15521   1.13798    0.000
 4648.00    1.15408   1.14935    0.000
 4649.00    1.15378   1.15906    0.000
 4650.00    1.16696   1.16618    0.000
 4651.00    1.18100   1.17058    0.000
 4652.00    1.20400   1.17504    0.000
 4653.00    1.22116   1.18237    0.000
 4654.00    1.19571   1.19306    0.000
 4655.00    1.18146   1.20546    0.000
 4656.00    1.22984   1.21479    0.000
 4657.00    1.26885   1.21623    0.000
 4658.00    1.26604   1.20806    0.000
 4659.00    1.25669   1.19152    0.000
 4660.00    1.22334   1.16963    0.000
 4661.00    1.20297   1.14581    0.000
 4662.00    1.22243   1.12168    0.000
 4663.00    1.23069   1.09882    0.000
 4664.00    1.20978   1.08260    0.000
 4665.00    1.18746   1.07893    0.000
 4666.00    1.16196   1.08753    0.000
 4667.00    1.14533   1.10346    0.000
 4668.00    1.14591   1.12177    0.000
 4669.00    1.14457   1.13860    0.000
 4670.00    1.13999   1.15238    0.000
 4671.00    1.13690   1.16332    0.000
 4672.00    1.13602   1.17099    0.000
 4673.00    1.15628   1.17430    0.000
 4674.00    1.20411   1.17196    0.000
 4675.00    1.21743   1.16506    0.000
 4676.00    1.19111   1.15744    0.000
 4677.00    1.16942   1.15185    0.000
 4678.00    1.15244   1.14911    0.000
 4679.00    1.16740   1.15005    0.000
 4680.00    1.21089   1.15422    0.000
 4681.00    1.22104   1.15895    0.000
 4682.00    1.20492   1.16235    0.000
 4683.00    1.19162   1.16429    0.000
 4684.00    1.18028   1.16433    0.000
 4685.00    1.19113   1.16324    0.000
 4686.00    1.21545   1.16249    0.000
 4687.00    1.21719   1.16200    0.000
 4688.00    1.20695   1.16194    0.000
 4689.00    1.19861   1.16357    0.000
 4690.00    1.19114   1.16629    0.000
 4691.00    1.19024   1.16846    0.000
 4692.00    1.19194   1.16874    0.000
 4693.00    1.19857   1.16508    0.000
 4694.00    1.20687   1.15584    0.000
 4695.00    1.20387   1.14253    0.000
 4696.00    1.19766   1.12965    0.000
 4697.00    1.18915   1.11972    0.000
 4698.00    1.18011   1.11147    0.000
 4699.00    1.18350   1.10436    0.000
 4700.00    1.18923   1.10023    0.000
 4701.00    1.16959   1.10079    0.000
 4702.00    1.14626   1.10402    0.000
 4703.00    1.13202   1.10647    0.000
 4704.00    1.11876   1.10786    0.000
 4705.00    1.13019   1.11023    0.000
 4706.00    1.14333   1.11505    0.000
 4707.00    1.13423   1.12279    0.000
 4708.00    1.12438   1.13217    0.000
 4709.00    1.12380   1.14016    0.000
 4710.00    1.12456   1.14658    0.000
 4711.00    1.16834   1.15357    0.000
 4712.00    1.20980   1.16403    0.000
 4713.00    1.21566   1.17851    0.000
 4714.00    1.22078   1.19318    0.000
 4715.00    1.21856   1.20602    0.000
 4716.00    1.21754   1.21744    0.000
 4717.00    1.22495   1.22613    0.000
 4718.00    1.23701   1.22983    0.000
 4719.00    1.27440   1.22813    0.000
 4720.00    1.29885   1.22236    0.000
 4721.00    1.26688   1.21356    0.000
 4722.00    1.24108   1.20058    0.000
 4723.00    1.23740   1.18253    0.000
 4724.00    1.23285   1.16124    0.000
 4725.00    1.22566   1.14230    0.000
 4726.00    1.22584   1.13024    0.000
 4727.00    1.24492   1.12478    0.000
 4728.00    1.25657   1.12465    0.000
 4729.00    1.25184   1.12966    0.000
 4730.00    1.24191   1.13768    0.000
 4731.00    1.22201   1.14641    0.000
 4732.00    1.20494   1.15458    0.000
 4733.00    1.19260   1.16023    0.000
 4734.00    1.18611   1.16526    0.000
 4735.00    1.18816   1.17259    0.000
 4736.00    1.19788   1.17911    0.000
 4737.00    1.21746   1.18266    0.000
 4738.00    1.22625   1.18584    0.000
 4739.00    1.22282   1.19052    0.000
 4740.00    1.23105   1.19604    0.000
 4741.00    1.25094   1.20054    0.000
 4742.00    1.25132   1.20375    0.000
 4743.00    1.23450   1.20720    0.000
 4744.00    1.24111   1.20992    0.000
 4745.00    1.26590   1.20973    0.000
 4746.00    1.29223   1.20702    0.000
 4747.00    1.31962   1.20247    0.000
 4748.00    1.30516   1.19558    0.000
 4749.00    1.26567   1.18682    0.000
 4750.00    1.24745   1.17813    0.000
 4751.00    1.24034   1.17087    0.000
 4752.00    1.25021   1.16583    0.000
 4753.00    1.26776   1.16261    0.000
 4754.00    1.25536   1.16029    0.000
 4755.00    1.23131   1.15799    0.000
 4756.00    1.23116   1.15441    0.000
 4757.00    1.23893   1.14789    0.000
 4758.00    1.23891   1.13718    0.000
 4759.00    1.23672   1.12420    0.000
 4760.00    1.24520   1.11326    0.000
 4761.00    1.25611   1.10615    0.092
 4762.00    1.20497   1.10265    0.092
 4763.00    1.14246   1.10377    0.091
 4764.00    1.15712   1.11076    0.091
 4765.00    1.18264   1.12243    0.091
 4766.00    1.17932   1.13630    0.091
 4767.00    1.17308   1.14938    0.090
 4768.00    1.20344   1.15958    0.091
 4769.00    1.23617   1.16875    0.092
 4770.00    1.22530   1.17914    0.092
 4771.00    1.21319   1.18964    0.091
 4772.00    1.23721   1.19729    0.092
 4773.00    1.26057   1.20114    0.093
 4774.00    1.26475   1.20267    0.092
 4775.00    1.26786   1.20149    0.091
 4776.00    1.25555   1.19653    0.091
 4777.00    1.24445   1.18885    0.091
 4778.00    1.24469   1.17974    0.091
 4779.00    1.24154   1.16934    0.090
 4780.00    1.21522   1.15861    0.089
 4781.00    1.19621   1.15026    0.089
 4782.00    1.21586   1.14470    0.088
 4783.00    1.23052   1.14012    0.088
 4784.00    1.22393   1.13849    0.088
 4785.00    1.21301   1.14148    0.088
 4786.00    1.18686   1.14747    0.089
 4787.00    1.17191   1.15642    0.089
 4788.00    1.18999   1.16815    0.088
 4789.00    1.20392   1.18065    0.088
 4790.00    1.20737   1.19263    0.089
 4791.00    1.20787   1.20219    0.089
 4792.00    1.20196   1.20677    0.089
 4793.00    1.20579   1.20601    0.089
 4794.00    1.22799   1.20159    0.089
 4795.00    1.25267   1.19529    0.089
 4796.00    1.28145   1.18895    0.089
 4797.00    1.29599   1.18461    0.090
 4798.00    1.29003   1.18320    0.090
 4799.00    1.28269   1.18310    0.090
 4800.00    1.27361   1.18154    0.090
 4801.00    1.25636   1.17737    0.090
 4802.00    1.22997   1.17195    0.091
 4803.00    1.21903   1.16757    0.091
 4804.00    1.22328   1.16432    0.090
 4805.00    1.23140   1.16225    0.090
 4806.00    1.24288   1.16294    0.091
 4807.00    1.23075   1.16652    0.090
 4808.00    1.20056   1.17161    0.089
 4809.00    1.20526   1.17750    0.089
 4810.00    1.23342   1.18407    0.089
 4811.00    1.24207   1.19135    0.089
 4812.00    1.23923   1.19872    0.089
 4813.00    1.24182   1.20519    0.089
 4814.00    1.24722   1.20942    0.090
 4815.00    1.24693   1.20996    0.090
 4816.00    1.24412   1.20692    0.090
 4817.00    1.24195   1.20087    0.090
 4818.00    1.24004   1.19223    0.090
 4819.00    1.23225   1.18154    0.090
 4820.00    1.22256   1.16970    0.090
 4821.00    1.22907   1.16060    0.090
 4822.00    1.23999   1.15731    0.091
 4823.00    1.23486   1.15682    0.090
 4824.00    1.22614   1.15534    0.089
 4825.00    1.22180   1.15280    0.089
 4826.00    1.21824   1.15096    0.089
 4827.00    1.22316   1.15046    0.089
 4828.00    1.22923   1.14943    0.089
 4829.00    1.24939   1.14771    0.090
 4830.00    1.27092   1.14755    0.090
 4831.00    1.24096   1.14870    0.089
 4832.00    1.20788   1.14866    0.088
 4833.00    1.21674   1.14664    0.089
 4834.00    1.22650   1.14347    0.089
 4835.00    1.19790   1.13893    0.089
 4836.00    1.17068   1.13326    0.088
 4837.00    1.17967   1.12884    0.088
 4838.00    1.18781   1.12760    0.088
 4839.00    1.18433   1.12824    0.088
 4840.00    1.17983   1.12852    0.089
 4841.00    1.16605   1.12950    0.089
 4842.00    1.15531   1.13244    0.089
 4843.00    1.16465   1.13461    0.088
 4844.00    1.17416   1.13320    0.087
 4845.00    1.18455   1.12851    0.087
 4846.00    1.19731   1.12259    0.087
 4847.00    1.21991   1.11623    0.087
 4848.00    1.23311   1.10745    0.000
 4849.00    1.21391   1.09488    0.000
 4850.00    1.20030   1.07891    0.000
 4851.00    1.20294   1.05840    0.000
 4852.00    1.18957   1.03253    0.000
 4853.00    1.13656   1.00448    0.000
 4854.00    1.10064   0.97818    0.000
 4855.00    1.10120   0.95347    0.000
 4856.00    1.09866   0.92923    0.000
 4857.00    1.09040   0.90823    0.000
 4858.00    1.07501   0.89656    0.000
 4859.00    1.04807   0.89971    0.000
 4860.00    1.02834   0.91639    0.000
 4861.00    1.01883   0.93892    0.000
 4862.00    1.02333   0.96189    0.000
 4863.00    1.04531   0.98275    0.000
 4864.00    1.05715   0.99930    0.000
 4865.00    1.05782   1.01065    0.000
 4866.00    1.07238   1.01709    0.000
 4867.00    1.10043   1.01874    0.000
 4868.00    1.10948   1.01749    0.000
 4869.00    1.10224   1.01919    0.000
 4870.00    1.09144   1.02808    0.000
 4871.00    1.07796   1.04195    0.000
 4872.00    1.07076   1.05662    0.000
 4873.00    1.06773   1.07055    0.000
 4874.00    1.08705   1.08380    0.000
 4875.00    1.11934   1.09550    0.087
 4876.00    1.12421   1.10430    0.087
 4877.00    1.11521   1.10759    0.087
 4878.00    1.12902   1.10342    0.088
 4879.00    1.15283   1.09504    0.089
 4880.00    1.15901   1.08653    0.089
 4881.00    1.15855   1.07723    0.088
 4882.00    1.14243   1.06544    0.089
 4883.00    1.12131   1.05315    0.089
 4884.00    1.12031   1.04499    0.089
 4885.00    1.12466   1.04326    0.088
 4886.00    1.12303   1.04648    0.088
 4887.00    1.12011   1.05325    0.087
 4888.00    1.11550   1.06473    0.088
 4889.00    1.11059   1.08415    0.088
 4890.00    1.11905   1.11043    0.088
 4891.00    1.12926   1.13621    0.089
 4892.00    1.16520   1.15622    0.091
 4893.00    1.20354   1.16964    0.093
 4894.00    1.21180   1.17710    0.092
 4895.00    1.21835   1.17856    0.092
 4896.00    1.19616   1.17398    0.091
 4897.00    1.17376   1.16647    0.090
 4898.00    1.20043   1.16084    0.091
 4899.00    1.22573   1.15746    0.091
 4900.00    1.21833   1.15361    0.089
 4901.00    1.21259   1.14952    0.088
 4902.00    1.22820   1.14675    0.090
 4903.00    1.23716   1.14404    0.092
 4904.00    1.18830   1.13871    0.090
 4905.00    1.14492   1.13057    0.089
 4906.00    1.13676   1.12211    0.089
 4907.00    1.13020   1.11579    0.090
 4908.00    1.13171   1.11337    0.090
 4909.00    1.13886   1.11433    0.091
 4910.00    1.16894   1.11491    0.091
 4911.00    1.19078   1.11139    0.090
 4912.00    1.18475   1.10287    0.090
 4913.00    1.17834   1.08960    0.090
 4914.00    1.17084   1.07188    0.090
 4915.00    1.16032   1.05124    0.090
 4916.00    1.14241   1.03123    0.089
 4917.00    1.11335   1.01743    0.089
 4918.00    1.06089   1.01472    0.089
 4919.00    1.04774   1.02358    0.089
 4920.00    1.10634   1.03916    0.089
 4921.00    1.13655   1.05718    0.089
 4922.00    1.12148   1.07783    0.090
 4923.00    1.11262   1.10107    0.091
 4924.00    1.11246   1.12264    0.089
 4925.00    1.11776   1.13760    0.089
 4926.00    1.12980   1.14512    0.088
 4927.00    1.14497   1.14692    0.088
 4928.00    1.16355   1.14393    0.089
 4929.00    1.17575   1.13548    0.089
 4930.00    1.18183   1.12095    0.088
 4931.00    1.17207   1.10409    0.088
 4932.00    1.14892   1.09154    0.088
 4933.00    1.14387   1.08465    0.087
 4934.00    1.15229   1.07988    0.087
 4935.00    1.14928   1.07707    0.087
 4936.00    1.13880   1.08069    0.087
 4937.00    1.13304   1.09297    0.087
 4938.00    1.12998   1.10983    0.088
 4939.00    1.15953   1.12578    0.088
 4940.00    1.20533   1.13976    0.000
 4941.00    1.20496   1.15247    0.000
 4942.00    1.18472   1.16226    0.000
 4943.00    1.18095   1.16846    0.000
 4944.00    1.18326   1.17323    0.000
 4945.00    1.20870   1.17692    0.000
 4946.00    1.24137   1.17754    0.000
 4947.00    1.24701   1.17470    0.000
 4948.00    1.24560   1.16888    0.000
 4949.00    1.24235   1.15820    0.000
 4950.00    1.23870   1.14111    0.000
 4951.00    1.24228   1.12252    0.000
 4952.00    1.24707   1.10782    0.000
 4953.00    1.22587   1.09575    0.000
 4954.00    1.20136   1.08447    0.000
 4955.00    1.20234   1.07897    0.000
 4956.00    1.20558   1.08547    0.000
 4957.00    1.16793   1.09845    0.000
 4958.00    1.12811   1.10752    0.000
 4959.00    1.15443   1.11121    0.000
 4960.00    1.18163   1.11307    0.000
 4961.00    1.17902   1.11299    0.000
 4962.00    1.17594   1.10860    0.000
 4963.00    1.16264   1.10201    0.000
 4964.00    1.15121   1.09827    0.000
 4965.00    1.16264   1.09888    0.000
 4966.00    1.17317   1.10215    0.000
 4967.00    1.17621   1.10755    0.000
 4968.00    1.17458   1.11458    0.000
 4969.00    1.14385   1.12183    0.000
 4970.00    1.12049   1.12677    0.000
 4971.00    1.13324   1.12712    0.000
 4972.00    1.14484   1.12275    0.000
 4973.00    1.15183   1.11372    0.000
 4974.00    1.15755   1.09947    0.000
 4975.00    1.15908   1.08001    0.000
 4976.00    1.15468   1.05835    0.000
 4977.00    1.13374   1.03897    0.000
 4978.00    1.11527   1.02295    0.000
 4979.00    1.10271   1.01020    0.000
 4980.00    1.09688   1.00360    0.000
 4981.00    1.10496   1.00582    0.000
 4982.00    1.10071   1.01518    0.000
 4983.00    1.07434   1.02768    0.000
 4984.00    1.05739   1.04137    0.000
 4985.00    1.05527   1.05510    0.000
 4986.00    1.06795   1.06541    0.000
 4987.00    1.10104   1.07111    0.000
 4988.00    1.11922   1.07489    0.000
 4989.00    1.11932   1.07817    0.000
 4990.00    1.10946   1.08019    0.000
 4991.00    1.08895   1.07941    0.000
 4992.00    1.09207   1.07618    0.000
 4993.00    1.11750   1.07169    0.000
 4994.00    1.13492   1.06490    0.000
 4995.00    1.14567   1.05518    0.000
 4996.00    1.13610   1.04348    0.000
 4997.00    1.11163   1.03081    0.000
 4998.00    1.09190   1.01812    0.000
 4999.00    1.07522   1.00688    0.000
 5000.00    1.07580   0.99935    0.000
 5001.00    1.08610   0.99602    0.000
 5002.00    1.08338   0.99425    0.000
 5003.00    1.07427   0.99276    0.000
 5004.00    1.08250   0.99354    0.000
 5005.00    1.09807   0.99668    0.000
 5006.00    1.10869   0.99822    0.000
 5007.00    1.11752   0.99483    0.000
 5008.00    1.11058   0.98844    0.000
 5009.00    1.09880   0.98147    0.000
 5010.00    1.08718   0.97336    0.000
 5011.00    1.07562   0.96589    0.000
 5012.00    1.06934   0.96296    0.000
 5013.00    1.06415   0.96539    0.000
 5014.00    1.05359   0.96933    0.000
 5015.00    1.04214   0.97233    0.000
 5016.00    1.01945   0.97758    0.000
 5017.00    0.99539   0.98688    0.000
 5018.00    1.00756   0.99636    0.000
 5019.00    1.02279   1.00295    0.000
 5020.00    1.02659   1.00803    0.000
 5021.00    1.02983   1.01498    0.000
 5022.00    1.03795   1.02376    0.000
 5023.00    1.04589   1.03116    0.000
 5024.00    1.03878   1.03687    0.000
 5025.00    1.03232   1.04345    0.000
 5026.00    1.03897   1.05311    0.000
 5027.00    1.04770   1.06303    0.000
 5028.00    1.08057   1.06770    0.000
 5029.00    1.10876   1.06736    0.087
 5030.00    1.09910   1.06507    0.087
 5031.00    1.09158   1.05890    0.086
 5032.00    1.09707   1.04492    0.085
 5033.00    1.10068   1.02466    0.085
 5034.00    1.09528   1.00489    0.086
 5035.00    1.08197   0.99120    0.087
 5036.00    1.03787   0.98261    0.087
 5037.00    1.00160   0.97754    0.087
 5038.00    0.99071   0.97885    0.086
 5039.00    0.98495   0.98959    0.085
 5040.00    0.99326   1.00784    0.085
 5041.00    1.00646   1.02557    0.085
 5042.00    1.03116   1.03767    0.086
 5043.00    1.04509   1.04555    0.086
 5044.00    1.03712   1.04920    0.085
 5045.00    1.03964   1.04668    0.085
 5046.00    1.06072   1.04092    0.085
 5047.00    1.06554   1.03811    0.085
 5048.00    1.04520   1.04006    0.085
 5049.00    1.04104   1.04480    0.085
 5050.00    1.05885   1.05242    0.085
 5051.00    1.07359   1.06399    0.085
 5052.00    1.08464   1.07689    0.085
 5053.00    1.07979   1.08778    0.085
 5054.00    1.05817   1.09617    0.086
 5055.00    1.05976   1.10273    0.086
 5056.00    1.08296   1.10599    0.085
 5057.00    1.10662   1.10344    0.084
 5058.00    1.13064   1.09620    0.084
 5059.00    1.13362   1.08756    0.083
 5060.00    1.12139   1.07729    0.084
 5061.00    1.11492   1.06364    0.083
 5062.00    1.11209   1.04927    0.082
 5063.00    1.10061   1.04027    0.082
 5064.00    1.08432   1.03671    0.083
 5065.00    1.07699   1.03304    0.083
 5066.00    1.07397   1.02966    0.083
 5067.00    1.06219   1.03041    0.083
 5068.00    1.04675   1.03250    0.084
 5069.00    1.03212   1.03073    0.083
 5070.00    1.01776   1.02713    0.081
 5071.00    1.02401   1.02484    0.081
 5072.00    1.03646   1.01942    0.081
 5073.00    1.03170   1.00854    0.081
 5074.00    1.02263   0.99798    0.082
 5075.00    1.02122   0.99049    0.082
 5076.00    1.02135   0.98207    0.082
 5077.00    1.02085   0.97331    0.081
 5078.00    1.02025   0.97186    0.080
 5079.00    1.01032   0.97897    0.080
 5080.00    0.99927   0.98822    0.080
 5081.00    1.00121   0.99734    0.079
 5082.00    1.00420   1.00945    0.078
 5083.00    1.01198   1.02364    0.078
 5084.00    1.01997   1.03539    0.078
 5085.00    1.01816   1.04423    0.078
 5086.00    1.01662   1.05262    0.078
 5087.00    1.03421   1.05979    0.078
 5088.00    1.05121   1.06294    0.079
 5089.00    1.05706   1.06212    0.078
 5090.00    1.06177   1.05870    0.078
 5091.00    1.05390   1.05168    0.078
 5092.00    1.04570   1.04011    0.079
 5093.00    1.03506   1.02705    0.079
 5094.00    1.02929   1.01651    0.080
 5095.00    1.05221   1.00881    0.080
 5096.00    1.06900   1.00290    0.080
 5097.00    1.05715   1.00041    0.080
 5098.00    1.04577   1.00315    0.079
 5099.00    1.03621   1.00756    0.079
 5100.00    1.02357   1.00885    0.079
 5101.00    1.00116   1.00692    0.078
 5102.00    0.98068   1.00457    0.078
 5103.00    0.96542   1.00213    0.079
 5104.00    0.96065   0.99905    0.080
 5105.00    0.98010   0.99726    0.080
 5106.00    0.99751   0.99924    0.081
 5107.00    1.01083   1.00438    0.082
 5108.00    1.01747   1.01145    0.083
 5109.00    1.01247   1.02136    0.081
 5110.00    1.01572   1.03280    0.081
 5111.00    1.03155   1.04292    0.083
 5112.00    1.03262   1.05056    0.084
 5113.00    1.01391   1.05495    0.084
 5114.00    1.01543   1.05550    0.085
 5115.00    1.04085   1.05202    0.086
 5116.00    1.05892   1.04344    0.087
 5117.00    1.06933   1.02991    0.087
 5118.00    1.05769   1.01426    0.086
 5119.00    1.02581   0.99929    0.085
 5120.00    1.02668   0.98539    0.084
 5121.00    1.05405   0.97275    0.085
 5122.00    1.04478   0.96393    0.085
 5123.00    1.00942   0.96047    0.084
 5124.00    1.00964   0.96104    0.084
 5125.00    1.03208   0.96402    0.084
 5126.00    1.00636   0.96873    0.083
 5127.00    0.95436   0.97486    0.082
 5128.00    0.96922   0.98256    0.082
 5129.00    1.01581   0.99043    0.083
 5130.00    1.02268   0.99501    0.084
 5131.00    1.01332   0.99569    0.084
 5132.00    1.02965   0.99442    0.084
 5133.00    1.05497   0.99191    0.083
 5134.00    1.04550   0.98712    0.083
 5135.00    1.02577   0.97997    0.083
 5136.00    1.02312   0.97191    0.083
 5137.00    1.02464   0.96622    0.084
 5138.00    1.02392   0.96505    0.084
 5139.00    1.02276   0.96359    0.084
 5140.00    1.01109   0.95892    0.083
 5141.00    0.99779   0.95684    0.083
 5142.00    0.98274   0.95905    0.083
 5143.00    0.96749   0.95966    0.083
 5144.00    0.95746   0.95721    0.082
 5145.00    0.94784   0.95562    0.080
 5146.00    0.95727   0.95661    0.081
 5147.00    0.96748   0.95839    0.081
 5148.00    0.97519   0.95958    0.081
 5149.00    0.98219   0.96235    0.081
 5150.00    0.96077   0.96877    0.081
 5151.00    0.94108   0.97744    0.081
 5152.00    0.95135   0.98637    0.080
 5153.00    0.96111   0.99569    0.079
 5154.00    0.96545   1.00450    0.079
 5155.00    0.97247   1.00919    0.080
 5156.00    0.99963   1.00686    0.081
 5157.00    1.02356   0.99831    0.082
 5158.00    1.02898   0.98428    0.081
 5159.00    1.02853   0.96219    0.080
 5160.00    1.00129   0.93187    0.080
 5161.00    0.97555   0.89846    0.080
 5162.00    0.95539   0.86626    0.079
 5163.00    0.93745   0.83695    0.078
 5164.00    0.92646   0.81163    0.078
 5165.00    0.89993   0.79049    0.078
 5166.00    0.83226   0.77719    0.078
 5167.00    0.78525   0.77749    0.077
 5168.00    0.78527   0.78920    0.076
 5169.00    0.78508   0.80291    0.076
 5170.00    0.78450   0.81755    0.077
 5171.00    0.78584   0.84084    0.078
 5172.00    0.79047   0.87016    0.077
 5173.00    0.79284   0.89247    0.077
 5174.00    0.79182   0.90331    0.077
 5175.00    0.80841   0.90708    0.077
 5176.00    0.84826   0.90290    0.077
 5177.00    0.87561   0.88862    0.078
 5178.00    0.88841   0.87209    0.078
 5179.00    0.88622   0.86187    0.078
 5180.00    0.86865   0.85609    0.079
 5181.00    0.85625   0.85340    0.079
 5182.00    0.84852   0.86097    0.078
 5183.00    0.84450   0.88131    0.078
 5184.00    0.84342   0.90322    0.079
 5185.00    0.85810   0.91626    0.079
 5186.00    0.88384   0.92327    0.079
 5187.00    0.89652   0.93203    0.080
 5188.00    0.90118   0.93919    0.080
 5189.00    0.91933   0.93774    0.080
 5190.00    0.94473   0.93508    0.000
 5191.00    0.93897   0.94066    0.000
 5192.00    0.91865   0.94985    0.000
 5193.00    0.92998   0.95665    0.000
 5194.00    0.95404   0.96375    0.000
 5195.00    0.96722   0.97149    0.000
 5196.00    0.97668   0.97592    0.000
 5197.00    0.96055   0.97563    0.000
 5198.00    0.93702   0.96919    0.000
 5199.00    0.97673   0.95668    0.000
 5200.00    1.03155   0.94275    0.000
 5201.00    1.01088   0.92981    0.000
 5202.00    0.97567   0.91557    0.000
 5203.00    0.96434   0.90412    0.000
 5204.00    0.95658   0.90242    0.000
 5205.00    0.96614   0.90822    0.000
 5206.00    0.97760   0.91679    0.000
 5207.00    0.95887   0.92973    0.000
 5208.00    0.93795   0.94634    0.000
 5209.00    0.93349   0.96109    0.000
 5210.00    0.92964   0.97323    0.000
 5211.00    0.96067   0.98411    0.081
 5212.00    0.99170   0.99281    0.081
 5213.00    1.01659   0.99832    0.082
 5214.00    1.04002   1.00269    0.083
 5215.00    1.03982   1.00735    0.083
 5216.00    1.04040   1.01001    0.082
 5217.00    1.04903   1.00775    0.082
 5218.00    1.05626   1.00043    0.082
 5219.00    1.05327   0.98933    0.082
 5220.00    1.04874   0.97433    0.081
 5221.00    1.03565   0.95817    0.081
 5222.00    1.02317   0.94671    0.081
 5223.00    1.01347   0.94016    0.082
 5224.00    1.00175   0.93651    0.082
 5225.00    0.98272   0.93917    0.081
 5226.00    0.96688   0.94897    0.080
 5227.00    0.96083   0.95924    0.080
 5228.00    0.95544   0.96769    0.079
 5229.00    0.95176   0.97703    0.079
 5230.00    0.95773   0.98614    0.079
 5231.00    0.98532   0.99426    0.078
 5232.00    1.00805   1.00343    0.079
 5233.00    1.02139   1.01338    0.079
 5234.00    1.03502   1.02347    0.079
 5235.00    1.04917   1.03316    0.079
 5236.00    1.06060   1.03968    0.079
 5237.00    1.06800   1.04260    0.078
 5238.00    1.06621   1.04487    0.078
 5239.00    1.05243   1.04580    0.078
 5240.00    1.05696   1.04033    0.077
 5241.00    1.08247   1.03062    0.077
 5242.00    1.09413   1.02365    0.077
 5243.00    1.09177   1.01693    0.078
 5244.00    1.08206   1.00464    0.078
 5245.00    1.06578   0.99291    0.078
 5246.00    1.06006   0.98946    0.078
 5247.00    1.06265   0.98938    0.079
 5248.00    1.06284   0.98717    0.080
 5249.00    1.06137   0.98784    0.081
 5250.00    1.05489   0.99575    0.081
 5251.00    1.04538   1.00546    0.080
 5252.00    1.03065   1.01130    0.080
 5253.00    1.01317   1.01436    0.080
 5254.00    1.03612   1.01656    0.080
 5255.00    1.07763   1.01360    0.082
 5256.00    1.08636   1.00129    0.082
 5257.00    1.08213   0.98233    0.083
 5258.00    1.06547   0.95971    0.082
 5259.00    1.04463   0.93311    0.081
 5260.00    1.03296   0.90520    0.081
 5261.00    1.02387   0.88358    0.082
 5262.00    0.98562   0.86782    0.083
 5263.00    0.94056   0.85224    0.084
 5264.00    0.92621   0.84240    0.083
 5265.00    0.91761   0.84693    0.083
 5266.00    0.90796   0.85721    0.084
 5267.00    0.89815   0.86424    0.084
 5268.00    0.91744   0.87654    0.084
 5269.00    0.93979   0.89849    0.085
 5270.00    0.91842   0.92092    0.085
 5271.00    0.89407   0.94012    0.085
 5272.00    0.93828   0.95878    0.086
 5273.00    0.98479   0.97481    0.086
 5274.00    0.99801   0.98686    0.087
 5275.00    1.01147   0.99691    0.087
 5276.00    1.03401   1.00348    0.086
 5277.00    1.05529   1.00498    0.084
 5278.00    1.05724   1.00494    0.084
 5279.00    1.05830   1.00888    0.084
 5280.00    1.05060   1.01669    0.084
 5281.00    1.04566   1.02491    0.084
 5282.00    1.06015   1.03415    0.083
 5283.00    1.07014   1.04745    0.083
 5284.00    1.05573   1.06168    0.082
 5285.00    1.04890   1.07110    0.082
 5286.00    1.07503   1.07492    0.082
 5287.00    1.10062   1.07527    0.081
 5288.00    1.12426   1.07255    0.081
 5289.00    1.14306   1.06531    0.080
 5290.00    1.14732   1.05267    0.081
 5291.00    1.14574   1.03629    0.082
 5292.00    1.12925   1.02078    0.082
 5293.00    1.11232   1.00955    0.082
 5294.00    1.09443   1.00096    0.081
 5295.00    1.07552   0.99385    0.080
 5296.00    1.05469   0.99291    0.079
 5297.00    1.03520   1.00128    0.078
 5298.00    1.01793   1.01370    0.078
 5299.00    1.00955   1.02516    0.078
 5300.00    1.01417   1.03710    0.080
 5301.00    1.03209   1.05031    0.080
 5302.00    1.06709   1.06239    0.080
 5303.00    1.09207   1.07137    0.079
 5304.00    1.10574   1.07705    0.078
 5305.00    1.11029   1.08003    0.078
 5306.00    1.10573   1.08153    0.078
 5307.00    1.11429   1.08133    0.079
 5308.00    1.13439   1.07883    0.078
 5309.00    1.14254   1.07436    0.079
 5310.00    1.14143   1.06816    0.079
 5311.00    1.13924   1.06129    0.080
 5312.00    1.13632   1.05566    0.081
 5313.00    1.14430   1.05020    0.081
 5314.00    1.15879   1.04308    0.080
 5315.00    1.15819   1.03628    0.080
 5316.00    1.14971   1.03086    0.081
 5317.00    1.13894   1.02278    0.081
 5318.00    1.12714   1.00987    0.080
 5319.00    1.12222   0.99606    0.080
 5320.00    1.11997   0.98343    0.080
 5321.00    1.10634   0.96755    0.079
 5322.00    1.08895   0.94827    0.079
 5323.00    1.06900   0.93558    0.079
 5324.00    1.04833   0.93302    0.080
 5325.00    1.03804   0.93300    0.080
 5326.00    1.03011   0.93438    0.080
 5327.00    1.00144   0.94514    0.080
 5328.00    0.96899   0.96441    0.080
 5329.00    0.98324   0.98221    0.080
 5330.00    1.00403   0.99411    0.080
 5331.00    1.01610   1.00334    0.081
 5332.00    1.02729   1.01198    0.082
 5333.00    1.02334   1.01588    0.082
 5334.00    1.01841   1.01232    0.082
 5335.00    1.05101   1.00676    0.081
 5336.00    1.08457   1.00461    0.081
 5337.00    1.04753   1.00287    0.081
 5338.00    1.01293   0.99940    0.081
 5339.00    1.04822   0.99826    0.081
 5340.00    1.08045   1.00091    0.081
 5341.00    1.06893   1.00415    0.081
 5342.00    1.05891   1.00603    0.082
 5343.00    1.06300   1.00694    0.081
 5344.00    1.06522   1.00974    0.081
 5345.00    1.05477   1.01654    0.080
 5346.00    1.04803   1.02407    0.079
 5347.00    1.06090   1.03112    0.079
 5348.00    1.07260   1.04167    0.078
 5349.00    1.07928   1.05569    0.079
 5350.00    1.08185   1.06783    0.080
 5351.00    1.07003   1.07661    0.079
 5352.00    1.06709   1.08449    0.079
 5353.00    1.09035   1.09046    0.079
 5354.00    1.11227   1.09174    0.080
 5355.00    1.13085   1.08844    0.079
 5356.00    1.14131   1.08193    0.079
 5357.00    1.13425   1.07344    0.078
 5358.00    1.13105   1.06294    0.078
 5359.00    1.13512   1.05009    0.078
 5360.00    1.13216   1.03654    0.078
 5361.00    1.11769   1.02400    0.077
 5362.00    1.10286   1.01169    0.076
 5363.00    1.08752   0.99957    0.076
 5364.00    1.07121   0.98894    0.076
 5365.00    1.05369   0.98007    0.076
 5366.00    1.03133   0.97532    0.076
 5367.00    1.00357   0.97604    0.077
 5368.00    0.98988   0.98001   -2.000
 5369.00    0.99003   0.98728   -2.000
 5370.00    0.99947   0.99930   -2.000
 5371.00    1.01697   1.01299   -2.000
 5372.00    1.02952   1.02427   -2.000
 5373.00    1.03828   1.03319   -2.000
 5374.00    1.04070   1.03890   -2.000
 5375.00    1.03886   1.04114   -2.000
 5376.00    1.06861   1.04181   -2.000
 5377.00    1.11694   1.04068   -2.000
 5378.00    1.12651   1.03774   -2.000
 5379.00    1.11620   1.03569   -2.000
 5380.00    1.10683   1.03425   -2.000
 5381.00    1.09788   1.03130   -2.000
 5382.00    1.08564   1.02830   -2.000
 5383.00    1.07214   1.02522    0.078
 5384.00    1.07874   1.01944    0.079
 5385.00    1.09186   1.01197    0.080
 5386.00    1.07650   1.00454    0.081
 5387.00    1.05342   0.99574    0.081
 5388.00    1.05445   0.98595    0.081
 5389.00    1.06084   0.97829    0.081
 5390.00    1.04600   0.97178    0.080
 5391.00    1.02738   0.96414    0.079
 5392.00    1.00535   0.95888    0.080
 5393.00    0.98286   0.95854    0.080
 5394.00    1.00255   0.95753    0.079
 5395.00    1.02632   0.95431    0.079
 5396.00    1.03114   0.95441    0.078
 5397.00    1.03482   0.95551    0.078
 5398.00    1.02598   0.95121    0.079
 5399.00    1.01698   0.94383    0.079
 5400.00    1.03421   0.93794    0.080
 5401.00    1.04933   0.93272    0.080
 5402.00    1.01004   0.92805    0.078
 5403.00    0.97439   0.92576    0.077
 5404.00    0.98795   0.92720    0.078
 5405.00    0.99815   0.93374    0.079
 5406.00    0.97800   0.94427    0.077
 5407.00    0.96034   0.95528    0.076
 5408.00    0.95912   0.96634    0.076
 5409.00    0.96161   0.97928    0.076
 5410.00    0.98319   0.99255    0.076
 5411.00    0.99989   1.00304    0.076
 5412.00    0.99636   1.01027    0.076
 5413.00    1.00327   1.01575    0.076
 5414.00    1.04600   1.01942    0.077
 5415.00    1.07419   1.01995    0.077
 5416.00    1.06032   1.01877    0.076
 5417.00    1.05343   1.01703    0.076
 5418.00    1.06380   1.01346    0.076
 5419.00    1.07313   1.00944    0.076
 5420.00    1.08027   1.00718    0.076
 5421.00    1.08573   1.00484    0.076
 5422.00    1.08808   1.00091    0.075
 5423.00    1.08679   0.99564    0.075
 5424.00    1.07960   0.98962    0.076
 5425.00    1.07369   0.98455    0.076
 5426.00    1.06960   0.97892    0.077
 5427.00    1.05986   0.97040    0.077
 5428.00    1.04308   0.96449    0.077
 5429.00    1.03151   0.96479    0.077
 5430.00    1.02566   0.96660    0.077
 5431.00    1.01168   0.96966    0.077
 5432.00    0.98982   0.97768    0.076
 5433.00    0.98604   0.98989    0.077
 5434.00    0.99771   1.00265    0.077
 5435.00    1.00303   1.01426    0.078
 5436.00    1.00357   1.02401    0.079
 5437.00    1.01861   1.02968    0.079
 5438.00    1.04326   1.03029    0.079
 5439.00    1.05289   1.02656    0.078
 5440.00    1.05381   1.01896    0.078
 5441.00    1.05636   1.00884    0.078
 5442.00    1.05973   0.99962    0.080
 5443.00    1.05087   0.99342    0.079
 5444.00    1.03666   0.98869    0.078
 5445.00    1.04264   0.98591    0.078
 5446.00    1.05619   0.98622    0.079
 5447.00    1.05670   0.98731    0.079
 5448.00    1.05307   0.98701    0.078
 5449.00    1.04638   0.98476    0.078
 5450.00    1.03887   0.98168    0.078
 5451.00    1.02804   0.98038    0.079
 5452.00    1.01649   0.98083    0.079
 5453.00    1.01328   0.98049    0.078
 5454.00    1.01152   0.98111    0.078
 5455.00    1.02322   0.98477    0.078
 5456.00    1.03668   0.98795    0.077
 5457.00    1.04105   0.98759    0.077
 5458.00    1.04458   0.98646    0.076
 5459.00    1.05350   0.98763    0.076
 5460.00    1.06272   0.98811    0.076
 5461.00    1.04537   0.98657    0.075
 5462.00    1.02745   0.98755    0.074
 5463.00    1.01257   0.99035    0.074
 5464.00    0.99851   0.98965    0.075
 5465.00    1.00359   0.98709    0.074
 5466.00    1.00993   0.98562    0.073
 5467.00    1.03229   0.98107    0.073
 5468.00    1.04908   0.97230    0.073
 5469.00    1.01770   0.96513    0.073
 5470.00    0.99023   0.95899    0.074
 5471.00    0.98781   0.94945    0.074
 5472.00    0.98591   0.94208    0.074
 5473.00    0.98663   0.94119    0.075
 5474.00    0.98783   0.94073    0.075
 5475.00    0.99093   0.93979    0.074
 5476.00    0.99004   0.94398    0.073
 5477.00    0.97570   0.95165    0.075
 5478.00    0.96524   0.95722   -2.000
 5479.00    0.96582   0.96219   -2.000
 5480.00    0.97118   0.96948   -2.000
 5481.00    0.98812   0.97525   -2.000
 5482.00    0.99191   0.97801   -2.000
 5483.00    0.96816   0.98111   -2.000
 5484.00    0.96527   0.98356   -2.000
 5485.00    1.00040   0.98321   -2.000
 5486.00    1.02591   0.98380   -2.000
 5487.00    1.03611   0.98573   -2.000
 5488.00    1.06488   0.98511   -2.000
 5489.00    1.11959   0.98462   -2.000
 5490.00    1.15202   0.98653   -2.000
 5491.00    1.15705   0.98640   -2.000
 5492.00    1.15698   0.98403   -2.000
 5493.00    1.15138   0.98408   -2.000
 5494.00    1.13630   0.98477   -2.000
 5495.00    1.11215   0.98188   -2.000
 5496.00    1.09681   0.97828   -2.000
 5497.00    1.08890   0.97644   -2.000
 5498.00    1.06737   0.97374   -2.000
 5499.00    1.03573   0.96970   -2.000
 5500.00    1.01997   0.96604   -2.000
 5501.00    1.01456   0.96292   -2.000
 5502.00    1.00424   0.96112    0.076
 5503.00    0.99111   0.95999    0.076
 5504.00    0.98832   0.95735    0.075
 5505.00    0.99067   0.95546    0.075
 5506.00    0.98716   0.95515    0.074
 5507.00    0.98113   0.95347    0.073
 5508.00    0.98414   0.95204    0.074
 5509.00    0.99048   0.95334    0.074
 5510.00    0.97349   0.95604    0.074
 5511.00    0.94922   0.95989    0.073
 5512.00    0.96192   0.96617    0.072
 5513.00    0.98424   0.97430    0.073
 5514.00    1.00174   0.98181    0.072
 5515.00    1.01821   0.98786    0.072
 5516.00    1.02184   0.99294    0.072
 5517.00    1.02331   0.99576    0.073
 5518.00    1.01133   0.99523    0.073
 5519.00    0.99765   0.99187    0.072
 5520.00    0.99333   0.98677    0.074
 5521.00    0.98984   0.98093    0.075
 5522.00    1.00433   0.97418    0.073
 5523.00    1.01975   0.96729    0.072
 5524.00    0.99760   0.96357    0.071
 5525.00    0.97516   0.96262    0.071
 5526.00    0.98401   0.96168    0.072
 5527.00    0.99302   0.96266    0.073
 5528.00    1.00571   0.96648    0.074
 5529.00    1.01760   0.96945    0.075
 5530.00    1.01972   0.97106    0.074
 5531.00    1.02109   0.97446    0.073
 5532.00    1.01610   0.97824    0.074
 5533.00    1.01551   0.98039    0.075
 5534.00    1.04221   0.98335    0.075
 5535.00    1.06225   0.98734    0.074
 5536.00    1.04976   0.99024    0.075
 5537.00    1.03873   0.99176    0.075
 5538.00    1.03348   0.99291    0.075
 5539.00    1.02981   0.99459    0.075
 5540.00    1.03136   0.99579    0.075
 5541.00    1.03295   0.99595    0.075
 5542.00    1.03464   0.99764    0.075
 5543.00    1.03213   1.00108    0.074
 5544.00    1.01962   1.00330    0.075
 5545.00    1.01645   1.00476    0.075
 5546.00    1.03255   1.00679    0.074
 5547.00    1.03641   1.00750    0.073
 5548.00    1.01834   1.00584    0.074
 5549.00    1.00882   1.00328    0.074
 5550.00    1.01271   1.00092    0.073
 5551.00    1.01544   0.99814    0.072
 5552.00    1.01655   0.99447    0.071
 5553.00    1.01492   0.99131    0.071
 5554.00    1.00996   0.98898    0.071
 5555.00    1.01013   0.98591    0.071
 5556.00    1.01578   0.98233    0.070
 5557.00    1.01133   0.97840    0.070
 5558.00    0.99734   0.97405    0.071
 5559.00    0.99214   0.97034    0.071
 5560.00    0.99422   0.96602    0.070
 5561.00    0.98879   0.96112    0.069
 5562.00    0.97786   0.95868    0.069
 5563.00    0.98362   0.95720    0.069
 5564.00    1.00010   0.95407    0.069
 5565.00    0.99826   0.95323    0.069
 5566.00    0.98613   0.95566    0.069
 5567.00    0.97863   0.95535    0.069
 5568.00    0.97341   0.95511    0.069
 5569.00    0.97920   0.95998    0.069
 5570.00    0.98964   0.96325    0.068
 5571.00    0.99978   0.96392    0.069
 5572.00    1.00981   0.96832    0.070
 5573.00    1.00126   0.97230    0.071
 5574.00    0.98701   0.97260    0.071
 5575.00    0.99607   0.97362    0.071
 5576.00    1.01106   0.97334    0.072
 5577.00    1.00874   0.96910    0.072
 5578.00    1.00282   0.96378    0.071
 5579.00    0.99928   0.95668    0.071
 5580.00    0.99613   0.94663    0.072
 5581.00    1.00503   0.93560    0.073
 5582.00    1.01541   0.92488    0.073
 5583.00    1.01507   0.91556    0.073
 5584.00    1.01382   0.90840    0.073
 5585.00    0.98337   0.90435    0.073
 5586.00    0.95150   0.90391    0.072
 5587.00    0.93998   0.90646    0.072
 5588.00    0.92930   0.91129    0.072
 5589.00    0.95009   0.91626    0.073
 5590.00    0.96889   0.92173    0.074
 5591.00    0.94812   0.92821    0.074
 5592.00    0.92802   0.93128    0.073
 5593.00    0.91559   0.93091    0.073
 5594.00    0.90654   0.93180    0.073
 5595.00    0.92469   0.93225    0.072
 5596.00    0.94339   0.93044    0.072
 5597.00    0.96548   0.93069    0.072
 5598.00    0.98185   0.93465    0.072
 5599.00    0.97095   0.94102    0.072
 5600.00    0.96481   0.94912    0.071
 5601.00    0.97717   0.95888    0.072
 5602.00    0.98506   0.96942    0.072
 5603.00    0.97852   0.97861    0.071
 5604.00    0.97568   0.98541    0.070
 5605.00    0.98300   0.98934    0.069
 5606.00    0.98824   0.98944    0.069
 5607.00    0.98858   0.98581    0.069
 5608.00    0.99358   0.98026    0.068
 5609.00    1.00803   0.97193    0.067
 5610.00    1.01583   0.96049    0.067
 5611.00    1.01187   0.95165    0.068
 5612.00    1.00592   0.94648    0.069
 5613.00    0.99690   0.94077    0.069
 5614.00    0.98158   0.93701    0.069
 5615.00    0.95772   0.93730    0.068
 5616.00    0.93911   0.93807    0.068
 5617.00    0.92676   0.93863    0.068
 5618.00    0.92908   0.93951    0.068
 5619.00    0.94685   0.93905    0.069
 5620.00    0.94574   0.93921    0.069
 5621.00    0.92709   0.94199    0.068
 5622.00    0.90747   0.94450    0.068
 5623.00    0.88705   0.94750    0.069
 5624.00    0.89103   0.95362    0.070
 5625.00    0.91260   0.95972    0.070
 5626.00    0.92519   0.96373    0.070
 5627.00    0.93210   0.96720    0.070
 5628.00    0.94022   0.96900    0.070
 5629.00    0.94901   0.96761    0.070
 5630.00    0.96553   0.96472    0.070
 5631.00    0.98578   0.96098    0.070
 5632.00    0.98992   0.95562    0.069
 5633.00    0.98737   0.95044    0.069
 5634.00    0.97753   0.94724    0.068
 5635.00    0.96509   0.94421    0.069
 5636.00    0.96299   0.94116    0.069
 5637.00    0.96399   0.94100    0.069
 5638.00    0.95954   0.94236    0.068
 5639.00    0.95373   0.94318    0.068
 5640.00    0.94654   0.94529    0.068
 5641.00    0.93908   0.94844    0.068
 5642.00    0.94812   0.95109    0.068
 5643.00    0.95978   0.95350    0.069
 5644.00    0.95722   0.95545    0.067
 5645.00    0.95298   0.95649    0.066
 5646.00    0.95692   0.95659    0.066
 5647.00    0.96152   0.95558    0.066
 5648.00    0.96637   0.95357    0.067
 5649.00    0.97123   0.94918    0.067
 5650.00    0.97424   0.94256    0.066
 5651.00    0.97689   0.93731    0.066
 5652.00    0.96289   0.93149    0.066
 5653.00    0.94910   0.92244    0.067
 5654.00    0.93926   0.91651    0.066
 5655.00    0.92959   0.91551    0.065
 5656.00    0.92184   0.91350    0.066
 5657.00    0.91540   0.91229    0.066
 5658.00    0.91910   0.91604    0.066
 5659.00    0.92242   0.92104    0.067
 5660.00    0.92343   0.92485    0.067
 5661.00    0.92448   0.92953    0.067
 5662.00    0.92570   0.93459    0.067
 5663.00    0.92866   0.93887    0.068
 5664.00    0.93828   0.94331    0.068
 5665.00    0.94627   0.94803    0.068
 5666.00    0.94910   0.95250    0.068
 5667.00    0.95066   0.95742    0.068
 5668.00    0.94880   0.96303    0.068
 5669.00    0.94704   0.96777    0.067
 5670.00    0.94550   0.97078    0.067
 5671.00    0.95801   0.97334    0.067
 5672.00    0.99855   0.97510    0.068
 5673.00    1.01740   0.97386    0.068
 5674.00    0.99856   0.97036    0.068
 5675.00    0.98590   0.96700    0.068
 5676.00    0.98266   0.96262    0.068
 5677.00    0.98250   0.95601    0.069
 5678.00    0.98646   0.94996    0.069
 5679.00    0.98534   0.94561    0.069
 5680.00    0.97824   0.94138    0.068
 5681.00    0.97310   0.93793    0.068
 5682.00    0.97000   0.93671    0.067
 5683.00    0.97205   0.93713    0.067
 5684.00    0.97882   0.93908    0.066
 5685.00    0.97120   0.94257    0.066
 5686.00    0.95195   0.94650    0.065
 5687.00    0.94015   0.95110    0.065
 5688.00    0.93366   0.95587    0.065
 5689.00    0.94085   0.95878    0.065
 5690.00    0.95657   0.95978    0.065
 5691.00    0.97087   0.96011    0.065
 5692.00    0.98438   0.95840    0.065
 5693.00    0.98723   0.95351    0.065
 5694.00    0.98503   0.94842    0.065
 5695.00    0.97903   0.94363    0.066
 5696.00    0.97148   0.93707    0.066
 5697.00    0.96279   0.93046    0.067
 5698.00    0.95370   0.92528    0.068
 5699.00    0.96352   0.92022    0.068
 5700.00    0.97891   0.91422    0.068
 5701.00    0.98412   0.90819    0.068
 5702.00    0.98684   0.90371    0.069
 5703.00    0.97550   0.89900    0.068
 5704.00    0.96140   0.89404    0.068
 5705.00    0.96218   0.89313    0.067
 5706.00    0.96526   0.89450    0.066
 5707.00    0.93713   0.89641    0.066
 5708.00    0.90546   0.90308    0.065
 5709.00    0.91615   0.91223    0.066
 5710.00    0.93006   0.92054    0.066
 5711.00    0.93915   0.93097    0.067
 5712.00    0.94804   0.94178    0.068
 5713.00    0.94262   0.95018    0.068
 5714.00    0.93730   0.95854    0.067
 5715.00    0.94040   0.96610    0.067
 5716.00    0.94374   0.97113    0.067
 5717.00    0.95111   0.97557    0.067
 5718.00    0.95915   0.97887    0.066
 5719.00    0.97419   0.97950    0.066
 5720.00    0.98837   0.97953    0.066
 5721.00    0.99615   0.97911    0.065
 5722.00    1.00470   0.97651    0.065
 5723.00    1.01768   0.97346    0.065
 5724.00    1.02638   0.97172    0.066
 5725.00    1.01560   0.96987    0.064
 5726.00    1.00740   0.96767    0.063
 5727.00    1.00876   0.96712    0.065
 5728.00    1.00919   0.96787    0.066
 5729.00    1.00670   0.96819    0.065
 5730.00    1.00411   0.96887    0.064
 5731.00    1.00129   0.97025    0.065
 5732.00    0.99343   0.97105    0.065
 5733.00    0.97415   0.97134    0.064
 5734.00    0.95946   0.97136    0.064
 5735.00    0.95380   0.97091    0.065
 5736.00    0.95184   0.97039    0.065
 5737.00    0.95619   0.96982    0.064
 5738.00    0.96590   0.96910    0.064
 5739.00    0.98365   0.96834    0.064
 5740.00    0.99408   0.96743    0.000
 5741.00    0.99488   0.96649    0.000
 5742.00    0.99653   0.96505    0.000
 5743.00    0.99916   0.96263    0.000
 5744.00    0.99837   0.96012    0.000
 5745.00    0.99408   0.95739    0.000
 5746.00    0.99106   0.95378    0.000
 5747.00    0.98919   0.95069    0.000
 5748.00    0.99278   0.94847    0.000
 5749.00    1.00072   0.94641    0.000
 5750.00    0.99848   0.94571    0.000
 5751.00    0.98910   0.94624    0.000
 5752.00    0.98761   0.94664    0.000
 5753.00    0.99098   0.94758    0.000
 5754.00    0.98948   0.94841    0.000
 5755.00    0.98536   0.94804    0.000
 5756.00    0.97742   0.94800    0.000
 5757.00    0.96770   0.94817    0.000
 5758.00    0.97233   0.94811    0.000
 5759.00    0.98271   0.95011    0.000
 5760.00    0.97617   0.95359    0.000
 5761.00    0.96383   0.95674    0.000
 5762.00    0.96052   0.96095    0.000
 5763.00    0.95981   0.96534    0.000
 5764.00    0.97392   0.96756    0.000
 5765.00    0.99157   0.96887    0.000
 5766.00    1.00070   0.96933    0.000
 5767.00    1.00820   0.96771    0.000
 5768.00    1.00114   0.96562    0.000
 5769.00    0.99191   0.96324    0.000
 5770.00    0.99876   0.95947    0.000
 5771.00    1.00737   0.95567    0.000
 5772.00    1.01727   0.95134    0.000
 5773.00    1.02727   0.94497    0.000
 5774.00    1.01654   0.93800    0.000
 5775.00    1.00505   0.93070    0.000
 5776.00    1.00225   0.92198    0.000
 5777.00    0.99908   0.91359    0.000
 5778.00    0.98154   0.90755    0.000
 5779.00    0.96485   0.90307    0.000
 5780.00    0.96188   0.90008    0.000
 5781.00    0.95948   0.90092    0.000
 5782.00    0.96278   0.90457    0.000
 5783.00    0.96533   0.90846    0.000
 5784.00    0.96241   0.91430    0.000
 5785.00    0.95961   0.92142    0.000
 5786.00    0.95753   0.92692    0.000
 5787.00    0.95732   0.93255    0.000
 5788.00    0.96547   0.93848    0.000
 5789.00    0.97108   0.94237    0.000
 5790.00    0.96747   0.94585    0.000
 5791.00    0.96603   0.94998   -2.000
 5792.00    0.97121   0.95277   -2.000
 5793.00    0.97559   0.95476   -2.000
 5794.00    0.97790   0.95779   -2.000
 5795.00    0.97441   0.96042   -2.000
 5796.00    0.95796   0.96148   -2.000
 5797.00    0.94843   0.96270   -2.000
 5798.00    0.95227   0.96365   -2.000
 5799.00    0.96117   0.96271   -2.000
 5800.00    0.97856   0.96134   -2.000
 5801.00    0.99723   0.96028   -2.000
 5802.00    1.01775   0.95881   -2.000
 5803.00    1.02662   0.95775   -2.000
 5804.00    1.02035   0.95739   -2.000
 5805.00    1.01056   0.95732   -2.000
 5806.00    0.99674   0.95766   -2.000
 5807.00    0.98797   0.95781   -2.000
 5808.00    0.98430   0.95752   -2.000
 5809.00    0.97801   0.95742   -2.000
 5810.00    0.96939   0.95738   -2.000
 5811.00    0.96521   0.95719    0.000
 5812.00    0.96452   0.95780    0.000
 5813.00    0.97102   0.95969    0.000
 5814.00    0.98247   0.96184    0.000
 5815.00    0.98372   0.96424    0.000
 5816.00    0.97881   0.96731    0.000
 5817.00    0.98219   0.97006    0.000
 5818.00    0.98994   0.97191    0.000
 5819.00    0.98981   0.97342    0.000
 5820.00    0.98607   0.97450    0.000
 5821.00    0.99038   0.97500    0.000
 5822.00    0.99785   0.97515    0.000
 5823.00    1.00263   0.97501    0.000
 5824.00    1.00650   0.97472    0.000
 5825.00    1.00043   0.97427    0.000
 5826.00    0.99156   0.97319    0.000
 5827.00    0.99333   0.97175    0.000
 5828.00    0.99758   0.97058    0.000
 5829.00    0.99660   0.96909    0.000
 5830.00    0.99464   0.96722    0.000
 5831.00    0.98728   0.96630    0.000
 5832.00    0.97915   0.96613    0.000
 5833.00    0.98357   0.96575    0.000
 5834.00    0.98930   0.96614    0.000
 5835.00    0.98549   0.96751    0.000
 5836.00    0.98103   0.96833    0.000
 5837.00    0.98186   0.96867    0.000
 5838.00    0.98287   0.96890    0.000
 5839.00    0.98859   0.96798    0.000
 5840.00    0.99424   0.96579    0.000
 5841.00    0.99746   0.96296    0.000
 5842.00    1.00049   0.95917    0.000
 5843.00    1.00066   0.95463    0.000
 5844.00    1.00050   0.94994    0.000
 5845.00    0.99710   0.94473    0.000
 5846.00    0.99315   0.93919    0.000
 5847.00    0.98538   0.93386    0.000
 5848.00    0.97756   0.92818    0.000
 5849.00    0.96946   0.92226    0.000
 5850.00    0.96254   0.91718    0.000
 5851.00    0.96075   0.91282    0.000
 5852.00    0.95916   0.90888    0.000
 5853.00    0.95828   0.90665    0.000
 5854.00    0.95512   0.90638    0.000
 5855.00    0.94512   0.90696    0.000
 5856.00    0.93477   0.90901    0.000
 5857.00    0.92349   0.91247    0.000
 5858.00    0.91502   0.91588    0.000
 5859.00    0.91271   0.91957    0.000
 5860.00    0.90859   0.92360    0.000
 5861.00    0.90103   0.92693    0.000
 5862.00    0.89950   0.92992    0.000
 5863.00    0.90799   0.93320    0.000
 5864.00    0.91568   0.93612    0.000
 5865.00    0.92220   0.93836    0.000
 5866.00    0.92213   0.94052    0.000
 5867.00    0.91359   0.94229    0.000
 5868.00    0.91424   0.94287    0.000
 5869.00    0.92524   0.94262    0.000
 5870.00    0.93150   0.94179    0.000
 5871.00    0.93302   0.93984    0.000
 5872.00    0.93267   0.93683    0.000
 5873.00    0.93067   0.93337    0.000
 5874.00    0.92806   0.92951    0.000
 5875.00    0.92498   0.92476    0.000
 5876.00    0.92197   0.91924    0.000
 5877.00    0.91901   0.91341    0.000
 5878.00    0.92184   0.90599    0.000
 5879.00    0.92811   0.89587    0.000
 5880.00    0.92198   0.88397    0.000
 5881.00    0.90942   0.86932    0.000
 5882.00    0.89402   0.85054    0.000
 5883.00    0.87734   0.83105    0.000
 5884.00    0.86255   0.81179    0.000
 5885.00    0.84850   0.79134    0.000
 5886.00    0.82788   0.77537    0.000
 5887.00    0.80510   0.76520    0.000
 5888.00    0.78765   0.75642    0.000
 5889.00    0.77168   0.75414    0.000
 5890.00    0.77177   0.75894    0.000
 5891.00    0.77552   0.76413    0.000
 5892.00    0.76337   0.77397    0.000
 5893.00    0.74834   0.78966    0.000
 5894.00    0.74698   0.80450    0.000
 5895.00    0.74755   0.82083    0.000
 5896.00    0.76222   0.83981    0.000
 5897.00    0.77830   0.85611    0.000
 5898.00    0.79095   0.87004    0.000
 5899.00    0.80339   0.88309    0.000
 5900.00    0.82066   0.89302    0.000
 5901.00    0.83805   0.89993    0.061
 5902.00    0.85181   0.90538    0.061
 5903.00    0.86496   0.90914    0.062
 5904.00    0.86130   0.91122    0.061
 5905.00    0.85793   0.91216    0.060
 5906.00    0.85873   0.91207    0.060
 5907.00    0.86016   0.91121    0.060
 5908.00    0.86743   0.90965    0.060
 5909.00    0.87514   0.90755    0.060
 5910.00    0.88582   0.90603    0.060
 5911.00    0.89565   0.90502    0.061
 5912.00    0.90098   0.90450    0.061
 5913.00    0.90451   0.90547    0.060
 5914.00    0.90042   0.90707    0.060
 5915.00    0.89591   0.90901    0.059
 5916.00    0.88990   0.91169    0.060
 5917.00    0.88896   0.91379    0.061
 5918.00    0.90292   0.91544    0.060
 5919.00    0.91434   0.91691    0.060
 5920.00    0.91937   0.91720    0.061
 5921.00    0.92432   0.91694    0.061
 5922.00    0.92910   0.91627    0.061
 5923.00    0.92866   0.91471    0.061
 5924.00    0.91846   0.91328    0.062
 5925.00    0.90834   0.91183    0.062
 5926.00    0.89836   0.91033    0.062
 5927.00    0.89499   0.90959    0.061
 5928.00    0.90109   0.90933    0.061
 5929.00    0.90210   0.90950    0.061
 5930.00    0.89668   0.91000    0.061
 5931.00    0.89643   0.91092    0.061
 5932.00    0.90193   0.91220    0.062
 5933.00    0.89968   0.91283    0.062
 5934.00    0.88984   0.91346    0.061
 5935.00    0.88869   0.91436    0.061
 5936.00    0.89508   0.91424    0.061
 5937.00    0.90039   0.91401    0.061
 5938.00    0.90488   0.91416    0.060
 5939.00    0.90854   0.91365    0.060
 5940.00    0.91165   0.91308    0.060
 5941.00    0.90694   0.91256    0.060
 5942.00    0.89764   0.91140    0.059
 5943.00    0.89587   0.91018    0.059
 5944.00    0.89796   0.90874    0.059
 5945.00    0.89797   0.90679    0.059
 5946.00    0.89705   0.90527    0.059
 5947.00    0.89991   0.90414    0.059
 5948.00    0.90421   0.90285    0.060
 5949.00    0.91378   0.90227    0.059
 5950.00    0.92506   0.90269    0.059
 5951.00    0.91634   0.90319    0.059
 5952.00    0.90220   0.90420    0.060
 5953.00    0.88956   0.90631    0.060
 5954.00    0.87727   0.90871    0.060
 5955.00    0.87973   0.91115    0.061
 5956.00    0.88480   0.91406    0.062
 5957.00    0.89236   0.91701    0.062
 5958.00    0.90026   0.91922    0.061
 5959.00    0.91309   0.92117    0.062
 5960.00    0.92640   0.92309    0.063
 5961.00    0.92864   0.92415    0.062
 5962.00    0.93021   0.92506    0.062
 5963.00    0.91680   0.92629    0.061
 5964.00    0.90309   0.92685    0.061
 5965.00    0.90231   0.92712    0.062
 5966.00    0.90141   0.92724    0.062
 5967.00    0.89725   0.92634    0.061
 5968.00    0.89416   0.92449    0.060
 5969.00    0.90550   0.92200    0.060
 5970.00    0.91621   0.91882    0.060
 5971.00    0.92127   0.91508    0.060
 5972.00    0.92474   0.91150    0.060
 5973.00    0.91769   0.90832    0.059
 5974.00    0.91037   0.90523    0.059
 5975.00    0.90166   0.90287    0.059
 5976.00    0.89334   0.90090    0.058
 5977.00    0.88662   0.89867    0.057
 5978.00    0.88079   0.89714    0.057
 5979.00    0.87806   0.89590    0.058
 5980.00    0.87578   0.89456    0.059
 5981.00    0.87479   0.89446    0.059
 5982.00    0.87348   0.89523    0.059
 5983.00    0.87140   0.89636    0.059
 5984.00    0.86817   0.89841    0.059
 5985.00    0.86251   0.90097    0.060
 5986.00    0.85784   0.90346    0.060
 5987.00    0.85500   0.90551    0.060
 5988.00    0.85860   0.90721    0.060
 5989.00    0.87259   0.90829    0.061
 5990.00    0.88440   0.90816    0.062
 5991.00    0.89312   0.90758    0.061
 5992.00    0.89663   0.90642    0.061
 5993.00    0.89364   0.90440    0.060
 5994.00    0.89354   0.90267    0.060
 5995.00    0.89660   0.90061    0.061
 5996.00    0.89396   0.89835    0.061
 5997.00    0.88579   0.89684    0.060
 5998.00    0.87890   0.89466    0.060
 5999.00    0.87310   0.89254    0.060
 6000.00    0.86922   0.89108    0.059
 6001.00    0.86677   0.88873    0.060
 6002.00    0.86752   0.88706    0.059
 6003.00    0.87039   0.88608    0.058
 6004.00    0.87368   0.88469    0.058
 6005.00    0.87721   0.88437    0.058
 6006.00    0.87713   0.88416    0.058
 6007.00    0.87522   0.88377    0.058
 6008.00    0.86890   0.88394    0.057
 6009.00    0.86065   0.88316    0.057
 6010.00    0.85448   0.88221    0.057
 6011.00    0.84908   0.88169    0.058
 6012.00    0.85339   0.88013    0.058
 6013.00    0.86077   0.87879    0.058
 6014.00    0.86221   0.87820    0.058
 6015.00    0.86208   0.87747    0.059
 6016.00    0.85740   0.87747    0.059
 6017.00    0.85175   0.87828    0.059
 6018.00    0.85405   0.88000    0.060
 6019.00    0.85773   0.88265    0.061
 6020.00    0.86084   0.88556    0.061
 6021.00    0.86387   0.88965    0.062
 6022.00    0.86965   0.89412    0.062
 6023.00    0.87568   0.89813    0.063
 6024.00    0.87008   0.90267    0.062
 6025.00    0.86384   0.90695    0.061
 6026.00    0.85575   0.91042    0.061
 6027.00    0.84777   0.91370    0.061
 6028.00    0.85519   0.91646    0.060
 6029.00    0.86249   0.91836    0.059
 6030.00    0.86713   0.91977    0.060
 6031.00    0.87225   0.92073    0.061
 6032.00    0.88342   0.92086    0.060
 6033.00    0.89527   0.92073    0.059
 6034.00    0.91295   0.92059    0.059
 6035.00    0.92672   0.91984    0.059
 6036.00    0.91544   0.91955    0.058
 6037.00    0.90403   0.91977    0.058
 6038.00    0.89198   0.91970    0.058
 6039.00    0.88093   0.92042    0.058
 6040.00    0.87389   0.92154    0.058
 6041.00    0.86952   0.92226    0.057
 6042.00    0.87411   0.92309    0.057
 6043.00    0.87798   0.92365    0.057
 6044.00    0.87978   0.92347    0.057
 6045.00    0.88138   0.92272    0.057
 6046.00    0.88249   0.92121    0.058
 6047.00    0.88446   0.91919    0.059
 6048.00    0.88825   0.91679    0.059
 6049.00    0.88865   0.91393    0.059
 6050.00    0.88288   0.91139    0.059
 6051.00    0.87896   0.90922    0.060
 6052.00    0.87798   0.90716    0.060
 6053.00    0.87770   0.90581    0.060
 6054.00    0.87838   0.90489    0.060
 6055.00    0.87767   0.90366    0.060
 6056.00    0.87523   0.90275    0.061
 6057.00    0.87621   0.90217    0.061
 6058.00    0.88089   0.90074    0.061
 6059.00    0.88655   0.90006    0.061
 6060.00    0.89315   0.90070    0.060
 6061.00    0.89489   0.90115    0.060
 6062.00    0.89254   0.90317    0.060
 6063.00    0.89020   0.90667    0.060
 6064.00    0.88789   0.91002    0.059
 6065.00    0.88478   0.91395    0.059
 6066.00    0.88115   0.91760    0.058
 6067.00    0.87931   0.92004    0.058
 6068.00    0.87848   0.92139    0.058
 6069.00    0.88618   0.92119    0.058
 6070.00    0.89810   0.91974    0.058
 6071.00    0.91023   0.91664    0.058
 6072.00    0.92244   0.91236    0.058
 6073.00    0.92263   0.90828    0.058
 6074.00    0.91841   0.90328    0.059
 6075.00    0.91205   0.89803    0.059
 6076.00    0.90503   0.89435    0.059
 6077.00    0.90534   0.89083    0.059
 6078.00    0.90755   0.88765    0.060
 6079.00    0.89574   0.88591    0.059
 6080.00    0.88096   0.88452    0.058
 6081.00    0.86800   0.88363    0.058
 6082.00    0.85534   0.88320    0.058
 6083.00    0.85863   0.88244    0.059
 6084.00    0.86392   0.88235    0.061
 6085.00    0.86237   0.88251    0.061
 6086.00    0.86021   0.88209    0.061
 6087.00    0.85704   0.88253    0.060
 6088.00    0.85382   0.88367    0.060
 6089.00    0.85138   0.88427    0.060
 6090.00    0.84894   0.88510    0.061
 6091.00    0.84556   0.88625    0.060
 6092.00    0.84267   0.88612    0.059
 6093.00    0.85043   0.88529    0.060
 6094.00    0.85741   0.88427    0.060
 6095.00    0.85493   0.88102    0.058
 6096.00    0.85232   0.87742    0.057
 6097.00    0.84869   0.87556    0.057
 6098.00    0.84500   0.87265    0.056
 6099.00    0.84101   0.87073    0.056
 6100.00    0.83771   0.87168    0.057
 6101.00    0.83775   0.87254    0.056
 6102.00    0.83675   0.87509    0.056
 6103.00    0.83160   0.87905    0.057
 6104.00    0.82714   0.88176    0.057
 6105.00    0.82491   0.88524    0.057
 6106.00    0.82613   0.88851    0.057
 6107.00    0.83692   0.89016    0.057
 6108.00    0.84480   0.89166    0.058
 6109.00    0.84575   0.89175    0.059
 6110.00    0.84648   0.89092    0.060
 6111.00    0.84676   0.88985    0.059
 6112.00    0.84841   0.88649    0.059
 6113.00    0.85252   0.88282    0.059
 6114.00    0.85697   0.87935    0.060
 6115.00    0.86197   0.87386    0.059
 6116.00    0.86242   0.86989    0.059
 6117.00    0.85663   0.86764    0.059
 6118.00    0.85138   0.86430    0.059
 6119.00    0.84680   0.86342    0.059
 6120.00    0.84568   0.86453    0.060
 6121.00    0.84822   0.86499    0.060
 6122.00    0.85475   0.86694    0.059
 6123.00    0.86503   0.86945    0.058
 6124.00    0.86715   0.87073    0.057
 6125.00    0.86250   0.87158    0.058
 6126.00    0.85817   0.87148    0.057
 6127.00    0.85407   0.86939    0.057
 6128.00    0.85306   0.86597    0.056
 6129.00    0.85403   0.86123    0.056
 6130.00    0.86022   0.85485    0.056
 6131.00    0.86935   0.84950    0.057
 6132.00    0.86921   0.84557    0.057
 6133.00    0.86454   0.84207    0.057
 6134.00    0.84981   0.84115    0.058
 6135.00    0.83084   0.84302    0.058
 6136.00    0.81647   0.84697    0.059
 6137.00    0.80377   0.85202    0.059
 6138.00    0.79660   0.85712    0.059
 6139.00    0.79112   0.86295    0.058
 6140.00    0.79489   0.86791    0.059
 6141.00    0.80101   0.87089    0.059
 6142.00    0.80319   0.87310    0.060
 6143.00    0.80456   0.87410    0.060
 6144.00    0.80365   0.87383    0.059
 6145.00    0.80237   0.87296    0.058
 6146.00    0.80797   0.87175    0.059
 6147.00    0.81440   0.86986    0.059
 6148.00    0.81597   0.86748    0.060
 6149.00    0.81713   0.86529    0.061
 6150.00    0.81809   0.86176    0.060
 6151.00    0.81905   0.85676    0.060
 6152.00    0.82143   0.85162    0.058
 6153.00    0.82385   0.84482    0.057
 6154.00    0.82678   0.83607    0.057
 6155.00    0.82936   0.82755    0.057
 6156.00    0.82499   0.81943    0.057
 6157.00    0.81924   0.81160    0.056
 6158.00    0.79759   0.80558    0.056
 6159.00    0.77591   0.80157    0.056
 6160.00    0.75403   0.80009    0.057
 6161.00    0.73494   0.80088    0.057
 6162.00    0.73265   0.80174    0.056
 6163.00    0.73320   0.80421    0.056
 6164.00    0.74723   0.80869    0.057
 6165.00    0.76012   0.81198    0.057
 6166.00    0.76862   0.81518    0.058
 6167.00    0.77343   0.82025    0.058
 6168.00    0.76634   0.82512    0.058
 6169.00    0.76005   0.82924    0.057
 6170.00    0.75598   0.83382    0.058
 6171.00    0.75227   0.83867    0.058
 6172.00    0.74939   0.84292    0.058
 6173.00    0.74754   0.84620    0.059
 6174.00    0.74778   0.84967    0.060
 6175.00    0.74715   0.85273    0.060
 6176.00    0.74500   0.85405    0.060
 6177.00    0.74758   0.85514    0.059
 6178.00    0.75745   0.85555    0.059
 6179.00    0.76609   0.85387    0.058
 6180.00    0.77307   0.85153    0.058
 6181.00    0.77751   0.84833    0.057
 6182.00    0.77894   0.84381    0.057
 6183.00    0.78665   0.83954    0.058
 6184.00    0.80098   0.83474    0.058
 6185.00    0.80575   0.83085    0.059
 6186.00    0.80167   0.82946    0.058
 6187.00    0.79130   0.82775    0.058
 6188.00    0.77579   0.82783    0.058
 6189.00    0.76093   0.83095    0.057
 6190.00    0.74654   0.83364    0.056
 6191.00    0.73930   0.83671    0.055
 6192.00    0.73658   0.84007    0.055
 6193.00    0.75551   0.84270    0.055
 6194.00    0.78638   0.84549    0.057
 6195.00    0.86204   0.84734    0.061
 6196.00    0.95920   0.84866   -2.000
 6197.00    0.99924   0.85079   -2.000
 6198.00    1.01560   0.85276   -2.000
 6199.00    0.95843   0.85445   -2.000
 6200.00    0.87519   0.85592   -2.000
 6201.00    0.78457   0.85668   -2.000
 6202.00    0.69174   0.85687   -2.000
 6203.00    0.68331   0.85566   -2.000
 6204.00    0.69586   0.85289   -2.000
 6205.00    0.72968   0.84928   -2.000
 6206.00    0.76778   0.84397   -2.000
 6207.00    0.77869   0.83780   -2.000
 6208.00    0.78532   0.83189    0.062
 6209.00    0.77582   0.82526    0.060
 6210.00    0.76443   0.81955    0.059
 6211.00    0.75934   0.81544    0.058
 6212.00    0.75474   0.81168    0.058
 6213.00    0.74778   0.80996    0.057
 6214.00    0.74072   0.80969    0.056
 6215.00    0.73819   0.80947    0.056
 6216.00    0.73587   0.81058    0.055
 6217.00    0.74120   0.81202    0.056
 6218.00    0.74639   0.81346    0.056
 6219.00    0.74913   0.81503    0.055
 6220.00    0.75173   0.81515    0.055
 6221.00    0.75287   0.81490    0.055
 6222.00    0.75319   0.81428    0.055
 6223.00    0.74721   0.81197    0.056
 6224.00    0.74302   0.80984    0.057
 6225.00    0.74938   0.80828    0.056
 6226.00    0.75557   0.80602    0.056
 6227.00    0.76104   0.80530    0.056
 6228.00    0.76328   0.80637    0.057
 6229.00    0.75327   0.80722    0.059
 6230.00    0.74265   0.80892    0.060
 6231.00    0.73014   0.81064    0.058
 6232.00    0.72261   0.81121    0.057
 6233.00    0.72843   0.81075    0.058
 6234.00    0.73393   0.80933    0.058
 6235.00    0.73872   0.80729    0.058
 6236.00    0.74117   0.80384    0.058
 6237.00    0.73896   0.80121    0.058
 6238.00    0.74028   0.79944    0.057
 6239.00    0.74775   0.79669    0.056
 6240.00    0.75190   0.79597    0.056
 6241.00    0.75102   0.79670    0.055
 6242.00    0.74812   0.79659    0.055
 6243.00    0.74253   0.79749    0.055
 6244.00    0.74079   0.79849    0.056
 6245.00    0.74358   0.79773    0.056
 6246.00    0.73978   0.79650    0.056
 6247.00    0.72917   0.79435    0.055
 6248.00    0.72482   0.79062    0.054
 6249.00    0.72619   0.78691    0.054
 6250.00    0.73239   0.78367    0.055
 6251.00    0.74247   0.78106    0.056
 6252.00    0.74576   0.77950    0.057
 6253.00    0.74425   0.77966    0.057
 6254.00    0.74105   0.78115    0.058
 6255.00    0.73680   0.78425    0.058
 6256.00    0.73359   0.78945    0.058
 6257.00    0.73094   0.79428    0.059
 6258.00    0.74528   0.79915    0.060
 6259.00    0.76765   0.80485    0.060
 6260.00    0.77622   0.80928    0.064
 6261.00    0.77918   0.81215    0.068
 6262.00    0.75689   0.81496    0.071
 6263.00    0.72582   0.81767    0.072
 6264.00    0.71281   0.81925    0.071
 6265.00    0.70509   0.82038    0.069
 6266.00    0.72388   0.82168    0.066
 6267.00    0.74911   0.82267    0.063
 6268.00    0.74772   0.82363    0.059
 6269.00    0.74111   0.82442    0.056
 6270.00    0.74149   0.82442    0.055
 6271.00    0.74295   0.82425    0.054
 6272.00    0.75642   0.82406    0.054
 6273.00    0.77124   0.82301    0.053
 6274.00    0.77439   0.82222    0.054
 6275.00    0.77666   0.82200    0.054
 6276.00    0.77348   0.82138    0.055
 6277.00    0.77007   0.82208    0.055
 6278.00    0.76539   0.82359    0.055
 6279.00    0.76079   0.82524    0.056
 6280.00    0.75945   0.82806    0.000
 6281.00    0.75818   0.83006    0.000
 6282.00    0.75792   0.83196    0.000
 6283.00    0.75765   0.83388    0.000
 6284.00    0.75719   0.83422    0.000
 6285.00    0.75700   0.83413    0.000
 6286.00    0.75878   0.83281    0.000
 6287.00    0.76066   0.83031    0.000
 6288.00    0.76306   0.82784    0.000
 6289.00    0.76611   0.82428    0.000
 6290.00    0.77213   0.82070    0.000
 6291.00    0.77684   0.81760    0.000
 6292.00    0.77670   0.81373    0.000
 6293.00    0.77430   0.81034    0.000
 6294.00    0.76485   0.80801    0.000
 6295.00    0.75652   0.80650    0.000
 6296.00    0.75114   0.80590    0.000
 6297.00    0.74573   0.80578    0.000
 6298.00    0.74020   0.80666    0.000
 6299.00    0.73606   0.80904    0.000
 6300.00    0.73463   0.81207    0.000
 6301.00    0.73658   0.81466    0.000
 6302.00    0.74430   0.81702    0.000
 6303.00    0.75103   0.81931    0.000
 6304.00    0.75627   0.82063    0.000
 6305.00    0.76442   0.82042    0.000
 6306.00    0.77638   0.81885    0.000
 6307.00    0.78396   0.81650    0.000
 6308.00    0.78644   0.81333    0.000
 6309.00    0.78170   0.81000    0.000
 6310.00    0.76957   0.80645    0.000
 6311.00    0.75705   0.80248    0.000
 6312.00    0.74417   0.80057    0.000
 6313.00    0.73469   0.79990    0.000
 6314.00    0.72790   0.79900    0.000
 6315.00    0.72618   0.80037    0.000
 6316.00    0.72801   0.80357    0.000
 6317.00    0.72973   0.80713    0.000
 6318.00    0.73138   0.81084    0.000
 6319.00    0.73939   0.81495    0.000
 6320.00    0.75079   0.81941    0.000
 6321.00    0.75368   0.82293    0.056
 6322.00    0.75260   0.82573    0.057
 6323.00    0.74891   0.82737    0.056
 6324.00    0.74417   0.82832    0.055
 6325.00    0.74765   0.82895    0.055
 6326.00    0.75393   0.82747    0.054
 6327.00    0.76052   0.82544    0.054
 6328.00    0.76719   0.82346    0.054
 6329.00    0.76614   0.82070    0.054
 6330.00    0.76325   0.81780    0.054
 6331.00    0.75631   0.81457    0.054
 6332.00    0.74860   0.81182    0.054
 6333.00    0.74392   0.81066    0.054
 6334.00    0.73968   0.80993    0.055
 6335.00    0.73816   0.80894    0.055
 6336.00    0.73694   0.80931    0.055
 6337.00    0.73690   0.81019    0.056
 6338.00    0.73694   0.81062    0.056
 6339.00    0.72892   0.81149    0.057
 6340.00    0.72061   0.81226    0.057
 6341.00    0.71627   0.81386    0.057
 6342.00    0.71226   0.81589    0.057
 6343.00    0.71948   0.81706    0.057
 6344.00    0.72666   0.81867    0.056
 6345.00    0.73306   0.81992    0.057
 6346.00    0.73947   0.81980    0.058
 6347.00    0.74586   0.81918    0.056
 6348.00    0.75192   0.81744    0.055
 6349.00    0.75560   0.81434    0.056
 6350.00    0.75845   0.81035    0.056
 6351.00    0.75667   0.80539    0.056
 6352.00    0.75654   0.80056    0.056
 6353.00    0.76365   0.79584    0.055
 6354.00    0.76731   0.79064    0.054
 6355.00    0.75845   0.78653    0.054
 6356.00    0.74739   0.78426    0.054
 6357.00    0.72965   0.78293    0.054
 6358.00    0.71951   0.78295    0.054
 6359.00    0.72912   0.78495    0.055
 6360.00    0.73454   0.78846    0.057
 6361.00    0.73067   0.79308    0.056
 6362.00    0.72493   0.79825    0.056
 6363.00    0.71559   0.80378    0.057
 6364.00    0.71239   0.80964    0.057
 6365.00    0.71956   0.81477    0.057
 6366.00    0.72500   0.81904    0.058
 6367.00    0.72792   0.82281    0.059
 6368.00    0.72817   0.82596    0.059
 6369.00    0.72497   0.82806    0.058
 6370.00    0.73135   0.82911    0.057
 6371.00    0.74867   0.82944    0.058
 6372.00    0.76522   0.82918    0.058
 6373.00    0.78099   0.82866    0.058
 6374.00    0.78347   0.82744    0.057
 6375.00    0.77412   0.82612    0.057
 6376.00    0.76284   0.82542    0.056
 6377.00    0.75003   0.82464    0.055
 6378.00    0.74345   0.82441    0.055
 6379.00    0.74117   0.82450    0.054
 6380.00    0.74060   0.82428    0.054
 6381.00    0.74107   0.82432    0.054
 6382.00    0.74125   0.82433    0.054
 6383.00    0.74126   0.82368    0.055
 6384.00    0.74939   0.82210    0.055
 6385.00    0.76124   0.82025    0.056
 6386.00    0.77576   0.81829    0.056
 6387.00    0.79134   0.81584    0.056
 6388.00    0.79033   0.81336    0.056
 6389.00    0.78375   0.81078    0.056
 6390.00    0.77299   0.80880    0.056
 6391.00    0.76105   0.80769    0.057
 6392.00    0.75387   0.80714    0.057
 6393.00    0.74778   0.80699    0.058
 6394.00    0.74745   0.80722    0.059
 6395.00    0.74818   0.80784    0.060
 6396.00    0.74180   0.80802    0.060
 6397.00    0.73438   0.80960    0.059
 6398.00    0.72706   0.81152    0.059
 6399.00    0.71975   0.81187    0.058
 6400.00    0.72313   0.81297    0.057
 6401.00    0.72723   0.81351    0.056
 6402.00    0.73577   0.81275    0.056
 6403.00    0.74446   0.81208    0.055
 6404.00    0.74987   0.81068    0.055
 6405.00    0.75512   0.80970    0.055
 6406.00    0.75524   0.80921    0.055
 6407.00    0.75513   0.80779    0.055
 6408.00    0.75156   0.80711    0.054
 6409.00    0.74866   0.80739    0.054
 6410.00    0.75221   0.80702    0.055
 6411.00    0.75577   0.80651    0.055
 6412.00    0.75945   0.80641    0.056
 6413.00    0.76083   0.80631    0.056
 6414.00    0.74987   0.80666    0.056
 6415.00    0.73904   0.80701    0.056
 6416.00    0.72876   0.80741    0.056
 6417.00    0.72203   0.80887    0.057
 6418.00    0.72795   0.81104    0.057
 6419.00    0.73416   0.81351    0.057
 6420.00    0.74123   0.81544    0.057
 6421.00    0.74627   0.81658    0.058
 6422.00    0.74614   0.81740    0.058
 6423.00    0.74814   0.81775    0.058
 6424.00    0.75482   0.81707    0.058
 6425.00    0.75714   0.81569    0.058
 6426.00    0.75117   0.81407    0.057
 6427.00    0.74382   0.81248    0.057
 6428.00    0.73419   0.81194    0.057
 6429.00    0.73072   0.81131    0.056
 6430.00    0.73621   0.81060    0.056
 6431.00    0.74137   0.81134    0.055
 6432.00    0.74610   0.81222    0.055
 6433.00    0.74867   0.81318    0.055
 6434.00    0.74878   0.81442    0.055
 6435.00    0.74667   0.81541    0.055
 6436.00    0.74236   0.81764    0.054
 6437.00    0.73733   0.81994    0.054
 6438.00    0.73167   0.82100    0.055
 6439.00    0.73272   0.82182    0.056
 6440.00    0.73896   0.82105    0.057
 6441.00    0.74194   0.81901    0.058
 6442.00    0.74273   0.81680    0.058
 6443.00    0.74156   0.81313    0.058
 6444.00    0.73923   0.80917    0.057
 6445.00    0.73538   0.80537    0.058
 6446.00    0.73073   0.80173    0.059
 6447.00    0.72367   0.80038    0.059
 6448.00    0.71552   0.80013    0.059
 6449.00    0.71056   0.80047    0.059
 6450.00    0.70683   0.80206    0.059
 6451.00    0.70894   0.80371    0.059
 6452.00    0.71297   0.80546    0.059
 6453.00    0.71554   0.80683    0.058
 6454.00    0.71769   0.80761    0.056
 6455.00    0.72803   0.80832    0.055
 6456.00    0.74022   0.80821    0.055
 6457.00    0.74453   0.80785    0.055
 6458.00    0.74742   0.80726    0.054
 6459.00    0.74797   0.80695    0.055
 6460.00    0.74819   0.80775    0.056
 6461.00    0.75124   0.80840    0.055
 6462.00    0.75458   0.80904    0.055
 6463.00    0.75147   0.81011    0.055
 6464.00    0.74796   0.81131    0.054
 6465.00    0.73864   0.81190    0.055
 6466.00    0.72916   0.81217    0.057
 6467.00    0.72315   0.81234    0.057
 6468.00    0.71784   0.81229    0.057
 6469.00    0.73192   0.81249    0.057
 6470.00    0.74486   0.81218    0.058
 6471.00    0.74145   0.81160    0.059
 6472.00    0.73910   0.81095    0.060
 6473.00    0.74654   0.80994    0.060
 6474.00    0.75379   0.80866    0.060
 6475.00    0.75986   0.80709    0.059
 6476.00    0.76529   0.80548    0.058
 6477.00    0.76743   0.80376    0.058
 6478.00    0.76643   0.80212    0.058
 6479.00    0.75220   0.80102    0.057
 6480.00    0.73858   0.79992    0.056
 6481.00    0.72704   0.79838    0.055
 6482.00    0.71752   0.79634    0.055
 6483.00    0.71395   0.79332    0.054
 6484.00    0.71427   0.78899    0.054
 6485.00    0.72433   0.78262    0.054
 6486.00    0.73451   0.77500    0.054
 6487.00    0.74495   0.76674    0.055
 6488.00    0.75289   0.75782    0.055
 6489.00    0.75614   0.74980    0.055
 6490.00    0.75275   0.74244    0.056
 6491.00    0.73850   0.73771    0.056
 6492.00    0.72284   0.73650    0.056
 6493.00    0.70515   0.73714    0.055
 6494.00    0.69270   0.74106    0.055
 6495.00    0.68686   0.74686    0.056
 6496.00    0.68396   0.75413    0.057
 6497.00    0.68433   0.76280    0.058
 6498.00    0.69068   0.77069    0.059
 6499.00    0.70288   0.77821    0.059
 6500.00    0.70806   0.78488    0.058
 6501.00    0.70716   0.79028    0.057
 6502.00    0.70899   0.79458    0.056
 6503.00    0.71289   0.79747    0.056
 6504.00    0.71578   0.79928    0.055
 6505.00    0.71799   0.80032    0.055
 6506.00    0.72269   0.80056    0.055
 6507.00    0.72884   0.80007    0.055
 6508.00    0.73613   0.79906    0.055
 6509.00    0.74399   0.79766    0.054
 6510.00    0.74072   0.79611    0.054
 6511.00    0.73251   0.79475    0.055
 6512.00    0.73378   0.79343    0.054
 6513.00    0.73866   0.79266    0.054
 6514.00    0.75084   0.79251    0.055
 6515.00    0.76538   0.79269    0.056
 6516.00    0.76229   0.79371    0.056
 6517.00    0.75445   0.79458    0.056
 6518.00    0.74680   0.79533    0.056
 6519.00    0.73919   0.79632    0.057
 6520.00    0.74691   0.79669    0.058
 6521.00    0.75733   0.79682    0.059
 6522.00    0.75837   0.79645    0.059
 6523.00    0.75815   0.79570    0.059
 6524.00    0.75848   0.79532    0.059
 6525.00    0.75887   0.79482    0.059
 6526.00    0.76108   0.79436    0.058
 6527.00    0.76341   0.79414    0.058
 6528.00    0.75155   0.79408    0.000
 6529.00    0.73935   0.79455    0.000
 6530.00    0.72813   0.79521    0.000
 6531.00    0.71744   0.79582    0.000
 6532.00    0.72006   0.79622    0.000
 6533.00    0.72304   0.79638    0.000
 6534.00    0.73091   0.79622    0.000
 6535.00    0.73828   0.79544    0.000
 6536.00    0.74118   0.79390    0.000
 6537.00    0.74369   0.79139    0.000
 6538.00    0.74371   0.78861    0.000
 6539.00    0.74345   0.78552    0.000
 6540.00    0.74176   0.78191    0.000
 6541.00    0.74022   0.77854    0.000
 6542.00    0.73926   0.77506    0.000
 6543.00    0.73877   0.77200    0.000
 6544.00    0.73983   0.76923    0.000
 6545.00    0.74180   0.76576    0.000
 6546.00    0.74640   0.76224    0.000
 6547.00    0.75075   0.75810    0.000
 6548.00    0.75454   0.75306    0.000
 6549.00    0.75344   0.74704    0.000
 6550.00    0.74198   0.73949    0.000
 6551.00    0.73109   0.73052    0.000
 6552.00    0.72124   0.72025    0.000
 6553.00    0.71523   0.70883    0.000
 6554.00    0.71540   0.69675    0.000
 6555.00    0.71008   0.68552    0.000
 6556.00    0.69704   0.67473    0.000
 6557.00    0.68882   0.66596    0.000
 6558.00    0.68659   0.66145    0.000
 6559.00    0.68991   0.66065    0.000
 6560.00    0.69928   0.66484    0.000
 6561.00    0.70635   0.67205    0.000
 6562.00    0.71118   0.68083    0.000
 6563.00    0.70967   0.69189    0.000
 6564.00    0.70278   0.70309    0.000
 6565.00    0.70571   0.71360    0.000
 6566.00    0.71600   0.72271    0.000
 6567.00    0.71854   0.73003    0.000
 6568.00    0.71597   0.73601    0.000
 6569.00    0.70892   0.74089    0.000
 6570.00    0.69929   0.74546    0.000
 6571.00    0.70221   0.74950    0.000
 6572.00    0.71145   0.75332    0.000
 6573.00    0.71484   0.75697    0.000
 6574.00    0.71569   0.76003    0.000
 6575.00    0.70476   0.76284    0.000
 6576.00    0.68943   0.76542    0.000
 6577.00    0.69415   0.76744    0.000
 6578.00    0.70523   0.76914    0.000
 6579.00    0.72110   0.77041    0.000
 6580.00    0.73823   0.77088    0.000
 6581.00    0.75243   0.77114    0.000
 6582.00    0.76599   0.77073    0.000
 6583.00    0.77297   0.76972    0.000
 6584.00    0.77881   0.76831    0.000
 6585.00    0.77840   0.76613    0.000
 6586.00    0.77717   0.76365    0.000
 6587.00    0.76533   0.76081    0.000
 6588.00    0.75252   0.75855    0.000
 6589.00    0.73876   0.75719    0.000
 6590.00    0.72493   0.75669    0.000
 6591.00    0.71926   0.75720    0.000
 6592.00    0.71380   0.75806    0.000
 6593.00    0.71160   0.75975    0.000
 6594.00    0.70897   0.76208    0.000
 6595.00    0.69640   0.76430    0.000
 6596.00    0.68493   0.76616    0.000
 6597.00    0.68732   0.76718    0.000
 6598.00    0.69077   0.76724    0.000
 6599.00    0.70333   0.76685    0.000
 6600.00    0.71303   0.76603    0.000
 6601.00    0.70457   0.76484    0.000
 6602.00    0.69750   0.76373    0.000
 6603.00    0.69731   0.76257    0.000
 6604.00    0.69801   0.76236    0.000
 6605.00    0.70222   0.76305    0.000
 6606.00    0.70529   0.76432    0.000
 6607.00    0.70456   0.76626    0.000
 6608.00    0.70527   0.76824    0.000
 6609.00    0.71005   0.77082    0.056
 6610.00    0.71127   0.77341    0.056
 6611.00    0.70387   0.77559    0.056
 6612.00    0.69903   0.77733    0.056
 6613.00    0.69955   0.77828    0.056
 6614.00    0.70182   0.77880    0.056
 6615.00    0.70730   0.77877    0.057
 6616.00    0.71083   0.77798    0.057
 6617.00    0.71129   0.77665    0.058
 6618.00    0.71146   0.77474    0.058
 6619.00    0.71123   0.77249    0.059
 6620.00    0.71177   0.77048    0.059
 6621.00    0.71325   0.76815    0.059
 6622.00    0.71282   0.76586    0.059
 6623.00    0.71033   0.76351    0.058
 6624.00    0.70415   0.76115    0.057
 6625.00    0.69444   0.75921    0.056
 6626.00    0.68830   0.75727    0.056
 6627.00    0.68517   0.75547    0.057
 6628.00    0.68836   0.75393    0.058
 6629.00    0.69625   0.75313    0.057
 6630.00    0.69902   0.75301    0.057
 6631.00    0.69847   0.75341    0.057
 6632.00    0.69861   0.75396    0.056
 6633.00    0.69914   0.75458    0.056
 6634.00    0.69773   0.75548    0.056
 6635.00    0.69536   0.75648    0.056
 6636.00    0.69013   0.75720    0.057
 6637.00    0.68369   0.75736    0.058
 6638.00    0.68068   0.75742    0.058
 6639.00    0.67894   0.75763    0.057
 6640.00    0.67954   0.75793    0.058
 6641.00    0.68087   0.75831    0.059
 6642.00    0.67214   0.75862    0.058
 6643.00    0.66081   0.75912    0.058
 6644.00    0.67187   0.75981    0.058
 6645.00    0.68765   0.76037    0.058
 6646.00    0.70014   0.76080    0.058
 6647.00    0.71207   0.76105    0.058
 6648.00    0.69973   0.76101    0.058
 6649.00    0.68435   0.76081    0.058
 6650.00    0.68591   0.76020    0.058
 6651.00    0.68895   0.75924    0.057
 6652.00    0.69284   0.75785    0.058
 6653.00    0.69679   0.75613    0.058
 6654.00    0.69090   0.75424    0.057
 6655.00    0.68488   0.75196    0.055
 6656.00    0.68123   0.74964    0.055
 6657.00    0.67764   0.74709    0.056
 6658.00    0.67501   0.74520    0.056
 6659.00    0.67251   0.74403    0.056
 6660.00    0.67147   0.74326    0.056
 6661.00    0.67009   0.74329    0.057
 6662.00    0.66591   0.74373    0.057
 6663.00    0.66317   0.74497    0.057
 6664.00    0.66931   0.74670    0.058
 6665.00    0.67360   0.74826    0.059
 6666.00    0.66890   0.74942    0.059
 6667.00    0.66391   0.74992    0.059
 6668.00    0.65782   0.75004    0.059
 6669.00    0.65086   0.74960    0.059
 6670.00    0.64107   0.74844    0.058
 6671.00    0.63420   0.74660    0.058
 6672.00    0.63541   0.74440    0.058
 6673.00    0.63713   0.74313    0.058
 6674.00    0.64007   0.74255    0.058
 6675.00    0.64299   0.74238    0.058
 6676.00    0.64588   0.74296    0.057
 6677.00    0.64900   0.74387    0.057
 6678.00    0.65253   0.74563    0.057
 6679.00    0.65552   0.74764    0.056
 6680.00    0.65764   0.74950    0.056
 6681.00    0.65801   0.75120    0.056
 6682.00    0.65598   0.75231    0.056
 6683.00    0.64935   0.75314    0.056
 6684.00    0.63718   0.75344    0.057
 6685.00    0.63373   0.75322    0.057
 6686.00    0.63954   0.75257    0.056
 6687.00    0.65133   0.75155    0.057
 6688.00    0.66875   0.75029    0.059
 6689.00    0.67709   0.74884    0.059
 6690.00    0.67793   0.74706    0.060
 6691.00    0.67295   0.74559    0.059
 6692.00    0.66373   0.74445    0.058
 6693.00    0.65956   0.74346    0.058
 6694.00    0.65863   0.74311    0.059
 6695.00    0.64921   0.74269    0.059
 6696.00    0.63504   0.74258    0.000
 6697.00    0.63099   0.74250    0.000
 6698.00    0.63187   0.74227    0.000
 6699.00    0.64567   0.74232    0.000
 6700.00    0.66491   0.74218    0.000
 6701.00    0.67486   0.74190    0.000
 6702.00    0.68147   0.74117    0.000
 6703.00    0.67371   0.74023    0.000
 6704.00    0.66157   0.73885    0.000
 6705.00    0.65276   0.73723    0.000
 6706.00    0.64478   0.73538    0.000
 6707.00    0.64633   0.73291    0.000
 6708.00    0.64985   0.73058    0.000
 6709.00    0.64792   0.72802    0.000
 6710.00    0.64510   0.72570    0.000
 6711.00    0.63695   0.72377    0.000
 6712.00    0.62815   0.72248    0.000
 6713.00    0.63983   0.72259    0.000
 6714.00    0.65320   0.72308    0.000
 6715.00    0.66552   0.72413    0.000
 6716.00    0.67778   0.72556    0.000
 6717.00    0.67309   0.72757    0.000
 6718.00    0.66802   0.72990    0.000
 6719.00    0.65485   0.73180    0.000
 6720.00    0.64223   0.73344    0.000
 6721.00    0.64033   0.73488    0.000
 6722.00    0.63975   0.73621    0.000
 6723.00    0.65446   0.73722    0.000
 6724.00    0.66808   0.73799    0.000
 6725.00    0.67312   0.73847    0.000
 6726.00    0.67458   0.73863    0.000
 6727.00    0.65469   0.73847    0.000
 6728.00    0.63892   0.73811    0.000
 6729.00    0.64276   0.73762    0.000
 6730.00    0.64854   0.73686    0.000
 6731.00    0.66181   0.73571    0.000
 6732.00    0.67196   0.73419    0.000
 6733.00    0.67205   0.73277    0.000
 6734.00    0.67000   0.73147    0.000
 6735.00    0.66213   0.73037    0.000
 6736.00    0.65771   0.72907    0.000
 6737.00    0.66134   0.72768    0.000
 6738.00    0.66011   0.72670    0.000
 6739.00    0.64908   0.72585    0.000
 6740.00    0.64006   0.72499    0.000
 6741.00    0.63460   0.72425    0.000
 6742.00    0.63044   0.72338    0.000
 6743.00    0.62829   0.72290    0.000
 6744.00    0.62747   0.72240    0.000
 6745.00    0.62844   0.72246    0.000
 6746.00    0.63213   0.72293    0.000
 6747.00    0.63906   0.72332    0.000
 6748.00    0.64719   0.72472    0.000
 6749.00    0.65660   0.72624    0.000
 6750.00    0.65622   0.72816    0.000
 6751.00    0.64678   0.73036    0.000
 6752.00    0.63728   0.73238    0.000
 6753.00    0.62775   0.73449    0.062
 6754.00    0.62870   0.73606    0.064
 6755.00    0.63717   0.73718    0.065
 6756.00    0.63658   0.73769    0.066
 6757.00    0.63027   0.73767    0.067
 6758.00    0.63467   0.73714    0.068
 6759.00    0.64498   0.73599    0.068
 6760.00    0.67028   0.73445    0.071
 6761.00    0.70275   0.73267    0.074
 6762.00    0.72930   0.73113    0.076
 6763.00    0.75340   0.73013    0.076
 6764.00    0.76110   0.72940    0.076
 6765.00    0.76300   0.72899    0.076
 6766.00    0.75576   0.72929    0.073
 6767.00    0.74579   0.73029    0.071
 6768.00    0.75245   0.73188    0.070
 6769.00    0.76323   0.73351    0.069
 6770.00    0.74176   0.73511    0.068
 6771.00    0.71381   0.73640    0.068
 6772.00    0.69756   0.73726    0.065
 6773.00    0.68315   0.73772    0.063
 6774.00    0.68297   0.73734    0.064
 6775.00    0.68445   0.73626    0.064
 6776.00    0.66728   0.73448    0.064
 6777.00    0.64865   0.73225    0.063
 6778.00    0.65883   0.72997    0.064
 6779.00    0.67026   0.72800    0.066
 6780.00    0.67114   0.72637    0.067
 6781.00    0.67193   0.72518    0.068
 6782.00    0.67392   0.72458    0.069
 6783.00    0.67605   0.72425    0.070
 6784.00    0.68086   0.72435    0.070
 6785.00    0.68357   0.72471    0.070
 6786.00    0.66341   0.72516    0.068
 6787.00    0.64716   0.72545    0.067
 6788.00    0.66097   0.72557    0.068
 6789.00    0.67268   0.72584    0.069
 6790.00    0.67210   0.72592    0.069
 6791.00    0.67163   0.72617    0.068
 6792.00    0.67165   0.72640    0.067
 6793.00    0.67367   0.72668    0.067
 6794.00    0.68327   0.72718    0.067
 6795.00    0.68886   0.72757    0.068
 6796.00    0.68180   0.72802    0.065
 6797.00    0.67988   0.72826    0.064
 6798.00    0.69171   0.72823    0.065
 6799.00    0.69696   0.72824    0.065
 6800.00    0.68710   0.72805    0.064
 6801.00    0.68015   0.72757    0.064
 6802.00    0.67898   0.72716    0.066
 6803.00    0.67895   0.72662    0.068
 6804.00    0.68092   0.72604    0.068
 6805.00    0.67909   0.72567    0.068
 6806.00    0.67148   0.72529    0.069
 6807.00    0.66438   0.72506    0.069
 6808.00    0.65797   0.72490    0.067
 6809.00    0.65600   0.72477    0.066
 6810.00    0.65923   0.72514    0.067
 6811.00    0.65949   0.72566    0.068
 6812.00    0.65666   0.72612    0.069
 6813.00    0.65298   0.72672    0.069
 6814.00    0.64854   0.72720    0.069
 6815.00    0.63942   0.72797    0.069
 6816.00    0.62652   0.72880    0.067
 6817.00    0.62573   0.72941    0.066
 6818.00    0.63353   0.72991    0.065
 6819.00    0.64080   0.72996    0.065
 6820.00    0.64775   0.72990    0.065
 6821.00    0.66207   0.72965    0.065
 6822.00    0.68039   0.72917    0.065
 6823.00    0.66713   0.72874    0.064
 6824.00    0.63899   0.72828    0.064
 6825.00    0.63689   0.72780    0.065
 6826.00    0.64539   0.72711    0.067
 6827.00    0.66455   0.72632    0.068
 6828.00    0.68743   0.72542    0.069
 6829.00    0.68090   0.72435    0.070
 6830.00    0.66578   0.72285    0.071
 6831.00    0.67505   0.72084    0.072
 6832.00    0.69024   0.71857    0.072
 6833.00    0.69290   0.71598    0.073
 6834.00    0.69312   0.71354    0.073
 6835.00    0.68586   0.71135    0.071
 6836.00    0.67746   0.70972    0.069
 6837.00    0.66784   0.70899    0.069
 6838.00    0.65808   0.70894    0.069
 6839.00    0.65000   0.70974    0.070
 6840.00    0.64204   0.71098    0.071
 6841.00    0.65766   0.71250    0.070
 6842.00    0.67422   0.71418    0.068
 6843.00    0.67184   0.71562    0.067
 6844.00    0.66923   0.71669    0.066
 6845.00    0.66293   0.71716    0.065
 6846.00    0.65596   0.71688    0.065
 6847.00    0.63784   0.71600    0.067
 6848.00    0.62156   0.71451    0.068
 6849.00    0.62454   0.71265    0.068
 6850.00    0.62818   0.71091    0.068
 6851.00    0.63670   0.70933    0.069
 6852.00    0.64298   0.70787    0.070
 6853.00    0.63655   0.70665    0.070
 6854.00    0.63112   0.70575    0.069
 6855.00    0.63014   0.70529    0.070
 6856.00    0.63118   0.70536    0.070
 6857.00    0.63972   0.70579    0.071
 6858.00    0.64269   0.70640    0.072
 6859.00    0.62844   0.70681    0.071
 6860.00    0.61560   0.70692    0.070
 6861.00    0.60645   0.70705    0.070
 6862.00    0.60243   0.70704    0.070
 6863.00    0.61001   0.70709    0.068
 6864.00    0.61849   0.70700    0.067
 6865.00    0.62874   0.70686    0.067
 6866.00    0.63899   0.70664    0.068
 6867.00    0.64921   0.70655    0.070
 6868.00    0.65969   0.70685    0.071
 6869.00    0.67054   0.70727    0.072
 6870.00    0.67032   0.70784    0.072
 6871.00    0.65556   0.70836    0.073
 6872.00    0.64651   0.70893    0.072
 6873.00    0.64407   0.70925    0.072
 6874.00    0.62922   0.70941    0.071
 6875.00    0.60171   0.70949    0.070
 6876.00    0.59045   0.70963    0.071
 6877.00    0.59381   0.70987    0.073
 6878.00    0.60900   0.71024    0.074
 6879.00    0.63357   0.71098    0.074
 6880.00    0.64038   0.71180    0.074
 6881.00    0.63480   0.71301    0.072
 6882.00    0.63093   0.71448    0.071
 6883.00    0.62810   0.71617    0.070
 6884.00    0.62300   0.71779    0.069
 6885.00    0.61667   0.71917    0.069
 6886.00    0.61204   0.72035    0.069
 6887.00    0.60821   0.72110    0.068
 6888.00    0.62376   0.72159    0.069
 6889.00    0.64707   0.72180    0.070
 6890.00    0.65571   0.72184    0.071
 6891.00    0.65934   0.72175    0.072
 6892.00    0.66410   0.72156    0.073
 6893.00    0.66919   0.72150    0.075
 6894.00    0.65320   0.72148    0.074
 6895.00    0.63222   0.72162    0.074
 6896.00    0.63750   0.72193    0.075
 6897.00    0.64780   0.72228    0.077
 6898.00    0.65864   0.72260    0.077
 6899.00    0.66955   0.72294    0.077
 6900.00    0.66773   0.72315    0.077
 6901.00    0.66454   0.72332    0.076
 6902.00    0.65120   0.72319    0.076
 6903.00    0.63715   0.72272    0.076
 6904.00    0.61534   0.72201    0.073
 6905.00    0.59326   0.72091    0.070
 6906.00    0.61922   0.71965    0.071
 6907.00    0.64432   0.71827    0.072
 6908.00    0.63423   0.71695    0.072
 6909.00    0.62339   0.71566    0.071
 6910.00    0.60067   0.71475    0.072
 6911.00    0.57951   0.71403    0.072
 6912.00    0.57391   0.71372    0.071
 6913.00    0.56922   0.71362    0.071
 6914.00    0.57111   0.71366    0.073
 6915.00    0.57200   0.71383    0.074
 6916.00    0.56745   0.71360    0.073
 6917.00    0.56656   0.71340    0.073
 6918.00    0.58188   0.71292    0.076
 6919.00    0.60039   0.71249    0.078
 6920.00    0.63049   0.71209    0.079
 6921.00    0.64716   0.71167    0.079
 6922.00    0.62301   0.71148    0.078
 6923.00    0.60636   0.71121    0.078
 6924.00    0.60907   0.71129    0.078
 6925.00    0.60646   0.71140    0.078
 6926.00    0.59201   0.71186    0.076
 6927.00    0.57773   0.71247    0.075
 6928.00    0.56379   0.71298    0.075
 6929.00    0.56048   0.71362    0.074
 6930.00    0.57506   0.71404    0.074
 6931.00    0.58648   0.71454    0.074
 6932.00    0.59326   0.71488    0.073
 6933.00    0.59314   0.71512    0.073
 6934.00    0.58411   0.71519    0.074
 6935.00    0.58732   0.71482    0.074
 6936.00    0.60450   0.71420    0.075
 6937.00    0.61287   0.71316    0.075
 6938.00    0.61238   0.71219    0.076
 6939.00    0.59858   0.71123    0.077
 6940.00    0.57299   0.71026    0.077
 6941.00    0.57028   0.70952    0.077
 6942.00    0.58546   0.70877    0.078
 6943.00    0.61039   0.70811    0.078
 6944.00    0.64201   0.70766    0.079
 6945.00    0.63075   0.70746    0.079
 6946.00    0.59364   0.70751    0.078
 6947.00    0.57955   0.70771    0.078
 6948.00    0.57756   0.70814    0.076
 6949.00    0.58828   0.70878    0.076
 6950.00    0.60479   0.70941    0.077
 6951.00    0.59100   0.71041    0.076
 6952.00    0.56530   0.71149    0.074
 6953.00    0.56811   0.71273    0.074
 6954.00    0.58045   0.71405    0.074
 6955.00    0.59945   0.71523    0.075
 6956.00    0.62032   0.71638    0.075
 6957.00    0.61820   0.71717    0.076
 6958.00    0.61077   0.71781    0.076
 6959.00    0.60657   0.71832    0.077
 6960.00    0.60298   0.71870    0.077
 6961.00    0.61080   0.71884    0.078
 6962.00    0.62026   0.71871    0.078
 6963.00    0.59725   0.71817    0.078
 6964.00    0.57087   0.71736    0.078
 6965.00    0.58832   0.71619    0.079
 6966.00    0.60869   0.71453    0.079
 6967.00    0.60728   0.71235    0.079
 6968.00    0.60518   0.70968    0.078
 6969.00    0.61366   0.70667    0.078
 6970.00    0.62115   0.70335    0.079
 6971.00    0.59798   0.70029    0.076
 6972.00    0.57622   0.69819    0.074
 6973.00    0.57545   0.69677    0.075
 6974.00    0.57537   0.69628    0.076
 6975.00    0.58185   0.69683    0.076
 6976.00    0.58385   0.69821    0.076
 6977.00    0.55471   0.70035    0.076
 6978.00    0.53038   0.70291    0.075
 6979.00    0.53181   0.70589    0.075
 6980.00    0.53964   0.70869    0.076
 6981.00    0.57505   0.71102    0.077
 6982.00    0.59874   0.71295    0.079
 6983.00    0.58082   0.71438    0.078
 6984.00    0.57128   0.71533    0.078
 6985.00    0.58667   0.71588    0.079
 6986.00    0.60750   0.71602    0.080
 6987.00    0.64213   0.71595    0.080
 6988.00    0.65519   0.71567    0.080
 6989.00    0.62111   0.71513    0.080
 6990.00    0.60213   0.71440    0.080
 6991.00    0.61178   0.71320    0.080
 6992.00    0.60721   0.71182    0.079
 6993.00    0.57911   0.71036    0.077
 6994.00    0.56630   0.70892    0.076
 6995.00    0.57571   0.70741    0.075
 6996.00    0.58594   0.70581    0.075
 6997.00    0.59719   0.70450    0.076
 6998.00    0.60177   0.70339    0.076
 6999.00    0.59885   0.70258    0.076
 7000.00    0.58856   0.70215    0.076
 7001.00    0.57096   0.70198    0.075
 7002.00    0.57003   0.70190    0.077
 7003.00    0.58368   0.70170    0.079
 7004.00    0.58117   0.70152    0.079
 7005.00    0.56619   0.70128    0.078
 7006.00    0.55826   0.70081    0.078
 7007.00    0.55511   0.70006    0.079
 7008.00    0.56258   0.69894    0.079
 7009.00    0.57634   0.69799    0.080
 7010.00    0.59858   0.69741    0.080
 7011.00    0.62521   0.69694    0.081
 7012.00    0.60905   0.69675    0.081
 7013.00    0.57369   0.69677    0.080
 7014.00    0.55710   0.69694    0.078
 7015.00    0.54776   0.69703    0.077
 7016.00    0.56471   0.69734    0.077
 7017.00    0.59029   0.69797    0.077
 7018.00    0.61506   0.69862    0.077
 7019.00    0.63960   0.69918    0.077
 7020.00    0.62859   0.69970    0.077
 7021.00    0.60954   0.70023    0.077
 7022.00    0.60238   0.70077    0.077
 7023.00    0.59737   0.70152    0.077
 7024.00    0.57346   0.70230    0.076
 7025.00    0.54693   0.70323    0.075
 7026.00    0.57635   0.70409    0.078
 7027.00    0.61132   0.70478    0.081
 7028.00    0.61905   0.70548    0.082
 7029.00    0.62507   0.70600    0.083
 7030.00    0.62283   0.70646    0.082
 7031.00    0.62032   0.70717    0.081
 7032.00    0.60637   0.70843    0.083
 7033.00    0.59236   0.71000    0.085
 7034.00    0.57694   0.71183    0.082
 7035.00    0.56416   0.71395    0.080
 7036.00    0.58849   0.71617    0.080
 7037.00    0.60937   0.71822    0.080
 7038.00    0.59847   0.72035    0.080
 7039.00    0.59226   0.72229    0.080
 7040.00    0.61774   0.72367    0.079
 7041.00    0.63744   0.72436    0.079
 7042.00    0.62691   0.72406    0.079
 7043.00    0.61689   0.72286    0.078
 7044.00    0.60901   0.72065    0.079
 7045.00    0.60893   0.71769    0.080
 7046.00    0.63600   0.71425    0.081
 7047.00    0.64083   0.71033    0.081
 7048.00    0.58058   0.70628    0.080
 7049.00    0.54268   0.70205    0.080
 7050.00    0.56053   0.69797   -2.000
 7051.00    0.57564   0.69408   -2.000
 7052.00    0.58485   0.69055   -2.000
 7053.00    0.59861   0.68769   -2.000
 7054.00    0.62088   0.68535   -2.000
 7055.00    0.64064   0.68345   -2.000
 7056.00    0.65630   0.68186   -2.000
 7057.00    0.65156   0.68048   -2.000
 7058.00    0.61762   0.67909   -2.000
 7059.00    0.61350   0.67791   -2.000
 7060.00    0.64690   0.67696   -2.000
 7061.00    0.64856   0.67645   -2.000
 7062.00    0.61501   0.67634   -2.000
 7063.00    0.61219   0.67665   -2.000
 7064.00    0.63942   0.67730   -2.000
 7065.00    0.63697   0.67825   -2.000
 7066.00    0.60892   0.67961   -2.000
 7067.00    0.58450   0.68114   -2.000
 7068.00    0.56283   0.68283   -2.000
 7069.00    0.57436   0.68453   -2.000
 7070.00    0.60803   0.68596   -2.000
 7071.00    0.63405   0.68685   -2.000
 7072.00    0.65560   0.68708   -2.000
 7073.00    0.66390   0.68656   -2.000
 7074.00    0.66544   0.68507   -2.000
 7075.00    0.67538   0.68281   -2.000
 7076.00    0.68904   0.67975   -2.000
 7077.00    0.68416   0.67608   -2.000
 7078.00    0.67225   0.67204   -2.000
 7079.00    0.65019   0.66767   -2.000
 7080.00    0.62486   0.66324   -2.000
 7081.00    0.64742   0.65895   -2.000
 7082.00    0.68288   0.65500   -2.000
 7083.00    0.66231   0.65150   -2.000
 7084.00    0.62936   0.64875   -2.000
 7085.00    0.64800   0.64664   -2.000
 7086.00    0.67570   0.64524   -2.000
 7087.00    0.66195   0.64445   -2.000
 7088.00    0.64264   0.64415   -2.000
 7089.00    0.61373   0.64463   -2.000
 7090.00    0.58390   0.64521   -2.000
 7091.00    0.58142   0.64676   -2.000
 7092.00    0.58055   0.64800   -2.000
 7093.00    0.58812   0.64986   -2.000
 7094.00    0.59580   0.65154   -2.000
 7095.00    0.58954   0.65323   -2.000
 7096.00    0.58395   0.65491   -2.000
 7097.00    0.59538   0.65602   -2.000
 7098.00    0.60552   0.65724   -2.000
 7099.00    0.59849   0.65764   -2.000
 7100.00    0.58868   0.65799   -2.000
 7101.00    0.55427   0.65773   -2.000
 7102.00    0.52485   0.65738   -2.000
 7103.00    0.52810   0.65679   -2.000
 7104.00    0.53294   0.65628   -2.000
 7105.00    0.54594   0.65569   -2.000
 7106.00    0.56252   0.65527   -2.000
 7107.00    0.59392   0.65493   -2.000
 7108.00    0.61291   0.65486   -2.000
 7109.00    0.58964   0.65489   -2.000
 7110.00    0.57573   0.65494   -2.000
 7111.00    0.58867   0.65514   -2.000
 7112.00    0.60514   0.65510   -2.000
 7113.00    0.63028   0.65514   -2.000
 7114.00    0.66120   0.65482   -2.000
 7115.00    0.70436   0.65432   -2.000
 7116.00    0.74633   0.65352   -2.000
 7117.00    0.78612   0.65240   -2.000
 7118.00    0.83803   0.65122   -2.000
 7119.00    0.90940   0.64973   -2.000
 7120.00    0.95328   0.64823   -2.000
 7121.00    0.95840   0.64655   -2.000
 7122.00    0.88520   0.64513   -2.000
 7123.00    0.71484   0.64391   -2.000
 7124.00    0.60921   0.64299   -2.000
 7125.00    0.57433   0.64246   -2.000
 7126.00    0.55567   0.64236   -2.000
 7127.00    0.55264   0.64284   -2.000
 7128.00    0.56586   0.64366   -2.000
 7129.00    0.59289   0.64479   -2.000
 7130.00    0.57762   0.64608   -2.000
 7131.00    0.53066   0.64763   -2.000
 7132.00    0.54170   0.64899   -2.000
 7133.00    0.59090   0.65017   -2.000
 7134.00    0.63374   0.65106   -2.000
 7135.00    0.67292   0.65143   -2.000
 7136.00    0.65108   0.65160   -2.000
 7137.00    0.59862   0.65126   -2.000
 7138.00    0.58814   0.65053   -2.000
 7139.00    0.59590   0.64977   -2.000
 7140.00    0.61213   0.64900   -2.000
 7141.00    0.63152   0.64826   -2.000
 7142.00    0.62071   0.64775   -2.000
 7143.00    0.60035   0.64759   -2.000
 7144.00    0.56295   0.64775   -2.000
 7145.00    0.52105   0.64825   -2.000
 7146.00    0.51684   0.64919   -2.000
 7147.00    0.52076   0.65038   -2.000
 7148.00    0.50656   0.65172   -2.000
 7149.00    0.48926   0.65310   -2.000
 7150.00    0.50646   0.65413   -2.000
 7151.00    0.52811   0.65496   -2.000
 7152.00    0.55254   0.65535   -2.000
 7153.00    0.57722   0.65511   -2.000
 7154.00    0.58576   0.65435   -2.000
 7155.00    0.59342   0.65314   -2.000
 7156.00    0.58959   0.65208   -2.000
 7157.00    0.58574   0.65087   -2.000
 7158.00    0.60255   0.64991   -2.000
 7159.00    0.61555   0.64921   -2.000
 7160.00    0.54226   0.64898   -2.000
 7161.00    0.47816   0.64942   -2.000
 7162.00    0.52989   0.65033   -2.000
 7163.00    0.58177   0.65166   -2.000
 7164.00    0.63499   0.65316   -2.000
 7165.00    0.68631   0.65487   -2.000
 7166.00    0.72562   0.65635   -2.000
 7167.00    0.74029   0.65761   -2.000
 7168.00    0.63260   0.65835   -2.000
 7169.00    0.54603   0.65844   -2.000
 7170.00    0.54448   0.65791   -2.000
 7171.00    0.54677   0.65694   -2.000
 7172.00    0.56195   0.65566   -2.000
 7173.00    0.57664   0.65424   -2.000
 7174.00    0.58994   0.65260   -2.000
 7175.00    0.60620   0.65086   -2.000
 7176.00    0.62963   0.64924   -2.000
 7177.00    0.63064   0.64760   -2.000
 7178.00    0.58497   0.64610   -2.000
 7179.00    0.55322   0.64459   -2.000
 7180.00    0.54667   0.64322   -2.000
 7181.00    0.54650   0.64203   -2.000
 7182.00    0.55641   0.64100   -2.000
 7183.00    0.54738   0.64022   -2.000
 7184.00    0.51202   0.63955   -2.000
 7185.00    0.49477   0.63936   -2.000
 7186.00    0.49965   0.63932   -2.000
 7187.00    0.50441   0.63965   -2.000
 7188.00    0.50903   0.64048   -2.000
 7189.00    0.50849   0.64144   -2.000
 7190.00    0.50305   0.64268   -2.000
 7191.00    0.51022   0.64377   -2.000
 7192.00    0.52797   0.64480   -2.000
 7193.00    0.52115   0.64573   -2.000
 7194.00    0.49620   0.64647   -2.000
 7195.00    0.52815   0.64689   -2.000
 7196.00    0.59699   0.64690   -2.000
 7197.00    0.62384   0.64657   -2.000
 7198.00    0.62687   0.64611   -2.000
 7199.00    0.59272   0.64541   -2.000
 7200.00    0.54020   0.64468   -2.000
 7201.00    0.49242   0.64394   -2.000
 7202.00    0.44666   0.64334   -2.000
 7203.00    0.46166   0.64309   -2.000
 7204.00    0.49889   0.64303   -2.000
 7205.00    0.53246   0.64342   -2.000
 7206.00    0.56490   0.64395   -2.000
 7207.00    0.54911   0.64491   -2.000
 7208.00    0.52088   0.64612   -2.000
 7209.00    0.53900   0.64731   -2.000
 7210.00    0.56688   0.64864   -2.000
 7211.00    0.55664   0.64966   -2.000
 7212.00    0.54008   0.65065   -2.000
 7213.00    0.49019   0.65148   -2.000
 7214.00    0.43613   0.65230   -2.000
 7215.00    0.43202   0.65317   -2.000
 7216.00    0.43223   0.65401   -2.000
 7217.00    0.47389   0.65502   -2.000
 7218.00    0.51766   0.65597   -2.000
