###################################################################
## OUTPUT of StarlightChains_v04.for    [Cid@UFSC - 01/Apr/2007] ##
###################################################################

## Some input info
KUG0210-078._33_35.txt                   [arq_obs]
Base.CB07.vall.4m                        [arq_base]
Masks.EmLines.NEW.gm                     [arq_masks]
StCv04.C11.config                        [arq_config]
   66                                    [N_base]
    0                                    [N_YAV_components = # of components with extra extinction!]
    0                                    [i_FitPowerLaw (1/0 = Yes/No)]
-9.99                                    [alpha_PowerLaw]
CCM                                      [red_law_option]
 1.458241                                [q_norm = A(l_norm)/A(V)]

## (Re)Sampling Parameters
 3741.00                                 [l_ini (A)]
 7218.00                                 [l_fin (A)]
    1.00                                 [dl    (A)]     (OBS: dl_cushion =    50.00 A)

## Normalization info
 4020.00                                 [l_norm (A) - for base]
 4010.00                                 [llow_norm (A) - window for f_obs]
 4060.00                                 [lupp_norm (A) - window for f_obs]
5.242813E-17                             [fobs_norm (in input units)]

## S/N
 3691.00                                 [llow_SN (A) - window for S/N]
 7268.00                                 [lupp_SN (A) - window for S/N]
   3.752                                 [S/N in S/N window]
   2.260                                 [S/N in norm. window]
   0.143                                 [S/N_err in S/N window]
   0.086                                 [S/N_err in norm. window]
  1.0000                                 [fscale_chi2]

## etc...
    -2007510                             [idum_orig]
  2432                                   [NOl_eff]
  2420                                   [Nl_eff]
    12    NSIGMA                         [Ntot_cliped & clip_method]
  7330050                                [Nglobal_steps]
   7                                     [N_chains]
  38                                     [NEX0s_base = N_base in EX0s-fits]
 0   0   1       12   2.0   7.488E+03    [Clip-Bug, RC-Crash & Burn-In warning-flags, n_censored_weights, wei_nsig_threshold & wei_limit]
    66     65.948     65.252      0.696  [idt_all, wdt_TotTime, wdt_UsrTime & wdt_SysTime (sec)]

## Synthesis Results - Best model ##

 4.17718E-05                             [chi2/Nl_eff]
     3.77462                             [adev (%)]

   118.58141                             [sum-of-x (%)]
 4.87348E-17                             [Flux_tot (units of input spectrum!)]
 6.52767E-12                             [Mini_tot (???)]
 3.28413E-12                             [Mcor_tot (???)]

 -45.16                                  [v0_min  (km/s)]
 215.52                                  [vd_min  (km/s)]
-0.1813                                  [AV_min  (mag)]
 0.0000                                  [YAV_min (mag)]

# j     x_j(%)      Mini_j(%)     Mcor_j(%)     age_j(yr)     Z_j      (L/M)_j    YAV?  Mstars   component_j        a/Fe...       SSP_chi2r SSP_adev(%)   SSP_AV   SSP_x(%)
  1      0.0000     0.0000E+00    0.0000E+00    1.000000E+06  0.00400  1.094E-02    0   1.0000   age020_m42            0.0000     5.0584E-04    12.9978   4.0000   106.2995
  2      0.0000     0.0000E+00    0.0000E+00    3.160000E+06  0.00400  4.007E-02    0   0.9999   age045_m42            0.0000     3.8455E-04    12.0373   3.4642   106.2315
  3      0.0000     0.0000E+00    0.0000E+00    5.010000E+06  0.00400  2.539E-02    0   0.9488   age055_m42            0.0000     4.1932E-04    12.4203   3.8004   102.8205
  4      0.0000     0.0000E+00    0.0000E+00    6.610000E+06  0.00400  2.620E-02    0   0.9220   age061_m42            0.0000     3.9283E-04    12.1669   3.3865   106.5913
  5      0.0000     0.0000E+00    0.0000E+00    1.000000E+07  0.00400  1.322E-02    0   0.8862   age070_m42            0.0000     4.8953E-04    13.8845   3.0989   108.6769
  6      0.2429     1.9396E-04    3.3044E-04    1.445000E+07  0.00400  7.883E-03    0   0.8571   age078_m42            0.0000     4.9907E-04    13.8868   3.4354   105.4705
  7      0.0000     0.0000E+00    0.0000E+00    2.512000E+07  0.00400  5.251E-03    0   0.8174   age090_m42            0.0000     5.0658E-04    14.1917   2.9667   109.3423
  8      0.2538     4.3783E-04    6.8323E-04    4.000000E+07  0.00400  3.649E-03    0   0.7851   age104_m42            0.0000     4.7880E-04    13.8635   2.7324   110.6860
  9      0.0000     0.0000E+00    0.0000E+00    5.500000E+07  0.00400  3.098E-03    0   0.7629   age110_m42            0.0000     4.2471E-04    12.9847   2.8804   111.1817
 10      0.0000     0.0000E+00    0.0000E+00    1.015200E+08  0.00400  2.228E-03    0   0.7207   age116_m42            0.0000     3.9230E-04    12.3981   2.8964   111.7382
 11      0.0000     0.0000E+00    0.0000E+00    2.861200E+08  0.00400  1.093E-03    0   0.6648   age125_m42            0.0000     4.2325E-04    13.0690   2.3044   115.8109
 12      0.0000     0.0000E+00    0.0000E+00    5.088000E+08  0.00400  6.597E-04    0   0.6365   age130_m42            0.0000     3.5907E-04    11.9597   2.2912   117.2818
 13      0.2599     7.6745E-03    8.8444E-03    1.434000E+09  0.00400  2.132E-04    0   0.5798   age139_m42            0.0000     2.7569E-04    10.6496   1.3237   119.8289
 14      0.0000     0.0000E+00    0.0000E+00    4.250000E+09  0.00400  5.895E-05    0   0.5377   age158_m42            0.0000     2.0950E-04     9.0694   0.9093   114.2166
 15      0.0000     0.0000E+00    0.0000E+00    7.500000E+09  0.00400  3.510E-05    0   0.5212   age171_m42            0.0000     1.8274E-04     8.4222   0.7221   113.5069
 16      0.0000     0.0000E+00    0.0000E+00    1.300000E+10  0.00400  2.005E-05    0   0.5034   age193_m42            0.0000     1.6423E-04     7.9253   0.5581   112.8815
 17      1.6553     6.8338E-01    6.7467E-01    1.800000E+10  0.00400  1.525E-05    0   0.4967   age213_m42            0.0000     1.7112E-04     8.0750   0.5363   112.2970
 18      0.0000     0.0000E+00    0.0000E+00    1.000000E+06  0.00800  1.238E-02    0   1.0000   age020_m52            0.0000     5.0264E-04    12.9648   4.0000   106.3822
 19      0.0000     0.0000E+00    0.0000E+00    3.160000E+06  0.00800  3.074E-02    0   0.9966   age045_m52            0.0000     4.6452E-04    12.5792   4.0000   104.4543
 20      0.0000     0.0000E+00    0.0000E+00    5.010000E+06  0.00800  2.668E-02    0   0.9443   age055_m52            0.0000     4.2929E-04    12.5595   3.8871   101.6964
 21      0.0000     0.0000E+00    0.0000E+00    6.610000E+06  0.00800  2.136E-02    0   0.9177   age061_m52            0.0000     4.5382E-04    13.4290   2.6113   109.4899
 22      0.0000     0.0000E+00    0.0000E+00    1.000000E+07  0.00800  1.215E-02    0   0.8827   age070_m52            0.0000     5.3650E-04    14.5450   3.2778   108.1998
 23      0.0000     0.0000E+00    0.0000E+00    1.445000E+07  0.00800  8.717E-03    0   0.8552   age078_m52            0.0000     4.9387E-04    13.8679   3.3984   107.0704
 24      0.0000     0.0000E+00    0.0000E+00    2.512000E+07  0.00800  5.592E-03    0   0.8162   age090_m52            0.0000     5.1121E-04    14.2816   3.0232   110.9105
 25      0.2014     3.2539E-04    5.0713E-04    4.000000E+07  0.00800  3.896E-03    0   0.7841   age104_m52            0.0000     4.7603E-04    13.8181   2.9275   112.2603
 26      0.0000     0.0000E+00    0.0000E+00    1.015200E+08  0.00800  2.148E-03    0   0.7226   age116_m52            0.0000     4.1391E-04    12.8185   2.8617   112.5642
 27      0.0000     0.0000E+00    0.0000E+00    2.861200E+08  0.00800  9.925E-04    0   0.6683   age125_m52            0.0000     3.5740E-04    11.9245   2.3519   118.5807
 28      0.0000     0.0000E+00    0.0000E+00    9.047900E+08  0.00800  3.141E-04    0   0.6138   age135_m52            0.0000     2.4869E-04     9.9856   1.5448   124.4030
 29      0.0000     0.0000E+00    0.0000E+00    1.434000E+09  0.00800  1.719E-04    0   0.5853   age139_m52            0.0000     2.2981E-04     9.5963   0.9770   121.1664
 30      0.0000     0.0000E+00    0.0000E+00    2.500000E+09  0.00800  7.872E-05    0   0.5600   age150_m52            0.0000     1.5866E-04     7.9023   0.7289   117.4238
 31      0.0000     0.0000E+00    0.0000E+00    4.250000E+09  0.00800  4.336E-05    0   0.5426   age158_m52            0.0000     1.5766E-04     7.8592   0.7176   116.1449
 32      0.0000     0.0000E+00    0.0000E+00    6.250000E+09  0.00800  3.159E-05    0   0.5319   age166_m52            0.0000     1.2422E-04     6.9511   0.5138   116.4076
 33      0.0000     0.0000E+00    0.0000E+00    1.300000E+10  0.00800  1.361E-05    0   0.5073   age193_m52            0.0000     8.9446E-05     5.7753   0.0446   115.9596
 34      0.0000     0.0000E+00    0.0000E+00    1.800000E+10  0.00800  9.886E-06    0   0.4990   age213_m52            0.0000     6.8127E-05     4.9222  -0.0660   115.6957
 35      0.0000     0.0000E+00    0.0000E+00    1.000000E+06  0.02000  1.544E-02    0   1.0000   age020_m62            0.0000     5.0285E-04    12.9548   4.0000   106.4757
 36      0.0000     0.0000E+00    0.0000E+00    3.160000E+06  0.02000  3.762E-02    0   0.9858   age045_m62            0.0000     4.7661E-04    12.6806   4.0000   105.0897
 37      0.0000     0.0000E+00    0.0000E+00    5.010000E+06  0.02000  3.296E-02    0   0.9342   age055_m62            0.0000     3.9455E-04    12.0480   3.7524   104.5415
 38      0.0000     0.0000E+00    0.0000E+00    8.710000E+06  0.02000  1.154E-02    0   0.8861   age067_m62            0.0000     8.4917E-04    18.4937   2.7251   110.1601
 39      0.0000     0.0000E+00    0.0000E+00    1.445000E+07  0.02000  7.663E-03    0   0.8472   age078_m62            0.0000     6.1717E-04    15.7331   2.9142   110.6747
 40      0.0000     0.0000E+00    0.0000E+00    2.512000E+07  0.02000  4.532E-03    0   0.8099   age090_m62            0.0000     6.3577E-04    15.9684   2.9010   110.5272
 41      0.0000     0.0000E+00    0.0000E+00    5.500000E+07  0.02000  2.733E-03    0   0.7595   age110_m62            0.0000     4.7745E-04    13.7933   2.9142   111.2458
 42      0.0000     0.0000E+00    0.0000E+00    1.609000E+08  0.02000  1.369E-03    0   0.6985   age120_m62            0.0000     3.9410E-04    12.5187   2.7310   115.7677
 43      0.0000     0.0000E+00    0.0000E+00    2.861200E+08  0.02000  9.013E-04    0   0.6714   age125_m62            0.0000     3.4660E-04    11.7734   2.4670   120.0733
 44      0.0000     0.0000E+00    0.0000E+00    5.088000E+08  0.02000  5.028E-04    0   0.6449   age130_m62            0.0000     2.5831E-04    10.1539   2.0806   124.1504
 45      0.0000     0.0000E+00    0.0000E+00    9.047900E+08  0.02000  2.428E-04    0   0.6179   age135_m62            0.0000     1.9487E-04     8.8637   1.5041   123.0486
 46      0.0000     0.0000E+00    0.0000E+00    1.434000E+09  0.02000  1.263E-04    0   0.5908   age139_m62            0.0000     1.6781E-04     8.2051   1.0721   120.7261
 47      0.0000     0.0000E+00    0.0000E+00    2.500000E+09  0.02000  5.985E-05    0   0.5673   age150_m62            0.0000     1.2247E-04     6.9289   0.7153   118.8908
 48      0.0000     0.0000E+00    0.0000E+00    4.250000E+09  0.02000  3.271E-05    0   0.5468   age158_m62            0.0000     8.1433E-05     5.5545   0.4109   118.1462
 49     16.0134     7.4133E+00    7.6135E+00    1.000000E+10  0.02000  1.360E-05    0   0.5167   age181_m62            0.0000     5.1841E-05     4.2912   0.0555   118.3094
 50     33.3855     2.9505E+01    2.9399E+01    1.800000E+10  0.02000  7.124E-06    0   0.5013   age213_m62            0.0000     4.0974E-05     3.7476  -0.1600   117.8342
 51      0.0000     0.0000E+00    0.0000E+00    1.000000E+06  0.05000  2.592E-02    0   0.9998   age020_m72            0.0000     5.0917E-04    13.0113   4.0000   106.1588
 52      0.0000     0.0000E+00    0.0000E+00    3.160000E+06  0.05000  4.845E-02    0   0.9577   age045_m72            0.0000     4.2449E-04    12.3120   4.0000   102.0567
 53      0.0000     0.0000E+00    0.0000E+00    5.010000E+06  0.05000  3.072E-02    0   0.9147   age055_m72            0.0000     5.6967E-04    14.7768   3.5071   106.2066
 54      0.0000     0.0000E+00    0.0000E+00    6.610000E+06  0.05000  1.455E-02    0   0.8877   age061_m72            0.0000     1.1457E-03    21.6086   2.7242   111.5966
 55      0.0000     0.0000E+00    0.0000E+00    1.000000E+07  0.05000  9.074E-03    0   0.8524   age070_m72            0.0000     6.4575E-04    15.4029   3.6583   106.5794
 56      0.0000     0.0000E+00    0.0000E+00    2.512000E+07  0.05000  4.250E-03    0   0.7902   age090_m72            0.0000     5.7522E-04    14.8897   3.3614   109.0373
 57      0.0000     0.0000E+00    0.0000E+00    4.000000E+07  0.05000  3.087E-03    0   0.7618   age104_m72            0.0000     5.8307E-04    15.1147   3.1237   111.3090
 58      0.0000     0.0000E+00    0.0000E+00    1.015200E+08  0.05000  1.700E-03    0   0.7096   age116_m72            0.0000     4.4216E-04    13.2665   2.8685   115.2351
 59      0.0000     0.0000E+00    0.0000E+00    2.861200E+08  0.05000  7.384E-04    0   0.6633   age125_m72            0.0000     2.9727E-04    10.9209   2.3282   122.3219
 60      0.4154     6.8483E-03    8.6735E-03    5.088000E+08  0.05000  3.819E-04    0   0.6372   age130_m72            0.0000     2.0806E-04     9.1807   1.8417   124.4512
 61      0.0000     0.0000E+00    0.0000E+00    9.047900E+08  0.05000  1.676E-04    0   0.6110   age135_m72            0.0000     1.2528E-04     7.1122   1.1665   121.6441
 62      2.6040     1.8553E-01    2.1661E-01    1.434000E+09  0.05000  8.837E-05    0   0.5874   age139_m72            0.0000     1.1459E-04     6.7214   0.7057   121.1413
 63      0.0000     0.0000E+00    0.0000E+00    2.500000E+09  0.05000  4.233E-05    0   0.5598   age150_m72            0.0000     6.9758E-05     5.1018   0.4056   119.4997
 64     10.6258     4.6620E+00    4.8639E+00    6.250000E+09  0.05000  1.435E-05    0   0.5249   age166_m72            0.0000     4.6199E-05     3.9973  -0.0438   118.0122
 65     37.8935     3.6631E+01    3.6667E+01    1.300000E+10  0.05000  6.513E-06    0   0.5036   age193_m72            0.0000     4.0649E-05     3.6780  -0.3292   119.5946
 66     15.0307     2.0904E+01    2.0547E+01    1.800000E+10  0.05000  4.527E-06    0   0.4945   age213_m72            0.0000     4.5078E-05     3.8427  -0.4934   119.5957


## Synthesis Results - Average & Chains ##

# j      x_j: min, <> & last-chain-values for 1 ...  7 chains
  1      0.0000      1.5649      1.4483      1.6091      1.7912      1.7997      1.3837      1.6808      1.8409
  2      0.0000      0.8319      0.5248      0.5836      0.6294      0.5608      0.4927      0.5637      0.1186
  3      0.0000      0.9009      0.1081      0.8694      0.8490      0.8495      1.0041      0.7675      0.7155
  4      0.0000      0.6758      0.4028      0.3652      0.7351      0.7787      0.0573      0.7778      0.6716
  5      0.0000      1.9599      2.5264      2.0715      2.2403      2.2413      2.3524      2.1471      1.8520
  6      0.2429      0.6420      0.2244      0.7125      0.2305      0.2476      0.3285      0.3669      0.1494
  7      0.0000      1.8207      1.6806      1.6141      1.8446      1.7530      2.1214      1.9092      1.3680
  8      0.2538      0.7072      0.2227      0.3763      0.4121      0.4488      0.8115      0.3981      0.7591
  9      0.0000      0.5217      0.5128      0.3075      0.3053      0.2909      0.0978      0.3698      0.0000
 10      0.0000      0.3690      0.1535      0.0817      0.1168      0.0713      0.0986      0.2217      0.0892
 11      0.0000      0.6294      0.1529      0.4748      0.2203      0.2204      0.2106      0.2662      0.3324
 12      0.0000      0.6794      0.2159      0.6292      0.5821      0.5396      0.0000      0.5621      0.8628
 13      0.2599      1.4997      2.1120      1.7322      1.5848      1.6057      0.8110      1.4841      1.0277
 14      0.0000      0.4525      0.0000      0.0464      0.0638      0.0101      0.4236      0.0306      0.0000
 15      0.0000      0.3709      0.1194      0.0868      0.0329      0.0117      0.1398      0.0000      0.4861
 16      0.0000      0.3469      0.0000      0.1631      0.0000      0.0130      0.0589      0.1182      0.1933
 17      1.6553      0.3625      0.2176      0.1551      0.0517      0.0000      0.0000      0.0128      0.1490
 18      0.0000      0.4356      0.0000      0.0000      0.0651      0.0815      0.0198      0.1367      0.1604
 19      0.0000      9.0514     10.5647     10.6682     10.8667     10.8314     10.3785     10.8279     10.2983
 20      0.0000      0.4634      0.0000      0.0000      0.0244      0.0007      0.0616      0.0000      0.0368
 21      0.0000      0.6862      0.1060      0.2583      0.0721      0.1744      0.2181      0.1082      0.1561
 22      0.0000      0.3663      0.0000      0.0180      0.0042      0.0869      0.8614      0.0012      0.0935
 23      0.0000      0.5566      0.1571      0.0000      0.0202      0.0101      0.0935      0.1117      0.0000
 24      0.0000      0.4130      0.2380      0.0062      0.0000      0.0254      0.2605      0.0000      0.0000
 25      0.2014      0.5059      0.2845      0.0000      0.0454      0.0450      0.8212      0.0247      0.0000
 26      0.0000      0.5799      0.1504      0.0163      0.0000      0.0000      0.0000      0.0449      0.0000
 27      0.0000      2.6758      2.9672      3.4248      3.2360      3.2701      2.7376      3.2157      3.3413
 28      0.0000      0.4573      0.2084      0.0004      0.0066      0.0474      0.4097      0.0000      0.7953
 29      0.0000      0.4499      0.3685      0.0000      0.0445      0.0093      0.0000      0.0277      0.0360
 30      0.0000      0.3490      0.2082      0.2359      0.0060      0.0048      0.1058      0.0915      0.0518
 31      0.0000      0.3945      0.0000      0.0000      0.0000      0.0000      0.0000      0.0809      0.0767
 32      0.0000      0.3556      0.1232      0.0000      0.0206      0.0000      0.3826      0.0000      0.0229
 33      0.0000      0.4320      0.0649      0.1456      0.0639      0.0781      0.4610      0.0000      0.0000
 34      0.0000      1.1000      0.6866      0.6200      0.9472      0.9303      0.9140      0.9510      0.9218
 35      0.0000      1.1454      1.2218      1.0292      1.2185      1.1359      1.0213      1.0398      0.8737
 36      0.0000      1.3426      1.3621      1.5035      1.4114      1.4152      1.1159      1.3304      1.0575
 37      0.0000      0.3832      0.0000      0.1667      0.0148      0.0394      0.1551      0.0642      0.2756
 38      0.0000      1.2716      0.8934      1.2957      1.2707      1.2085      0.8503      1.2404      1.5295
 39      0.0000      0.8132      0.6179      0.8326      0.8052      0.8593      0.3331      0.9002      0.6787
 40      0.0000      0.4758      0.2407      0.0000      0.0000      0.0344      0.0000      0.0454      0.0000
 41      0.0000      2.3631      2.7712      2.3090      2.5208      2.4411      2.0610      2.5656      2.3627
 42      0.0000      0.5348      0.1984      0.0709      0.0093      0.0099      0.0767      0.0784      0.0000
 43      0.0000      0.5871      0.3658      0.3856      0.2937      0.3026      0.2274      0.3038      0.3875
 44      0.0000      1.7874      1.7335      2.0863      2.0737      2.0861      1.6099      2.1856      2.3850
 45      0.0000      0.4447      0.0305      0.0848      0.0179      0.0126      0.1594      0.0570      0.0199
 46      0.0000      0.6084      0.3123      0.4975      0.0292      0.0815      0.3916      0.0000      0.0000
 47      0.0000      0.5428      0.0000      0.1340      0.0181      0.0000      0.6534      0.0453      0.5520
 48      0.0000      0.3302      0.2133      0.0647      0.0000      0.0000      0.0514      0.0233      0.2842
 49     16.0134      0.5392      0.5532      0.0104      0.0811      0.0139      0.6525      0.0697      0.0000
 50     33.3855      5.3779      6.7974      6.1779      6.3133      6.5211      6.4945      6.4301      6.5695
 51      0.0000      0.7636      0.4284      0.7441      0.6975      0.6874      1.0665      0.7571      0.5914
 52      0.0000      0.6101      0.6545      0.6470      0.6239      0.6250      1.0767      0.4263      0.5358
 53      0.0000      0.6356      0.6691      0.5095      0.6834      0.6566      0.7080      0.6274      0.9595
 54      0.0000      0.8623      0.7723      0.5251      0.7786      0.7312      0.6244      0.7200      0.7986
 55      0.0000      0.6071      0.1289      0.0611      0.4767      0.4078      0.4069      0.4151      0.6294
 56      0.0000      0.5417      0.0000      0.1585      0.0000      0.0484      0.0807      0.0402      0.0000
 57      0.0000      0.4015      0.0000      0.0682      0.0106      0.0568      0.0000      0.0000      0.0000
 58      0.0000      0.6127      0.0000      0.3050      0.0087      0.0138      0.0804      0.0639      0.5729
 59      0.0000      0.4693      0.0000      0.0933      0.0641      0.0000      0.2379      0.0000      0.6096
 60      0.4154      0.4465      0.2241      0.1291      0.2192      0.1609      0.0000      0.2408      0.2029
 61      0.0000      2.7817      3.5412      3.5783      3.5033      3.6146      2.9500      3.3908      3.1471
 62      2.6040      0.6755      1.0295      1.1295      0.6898      0.7908      0.7248      0.7507      0.7474
 63      0.0000      0.4143      0.1264      0.3251      0.3157      0.3550      0.0000      0.3318      0.1008
 64     10.6258     11.5625     13.8677     13.3265     13.7955     13.6893     13.1456     13.6862     13.2739
 65     37.8935     20.2521     23.9885     24.0685     24.4025     24.4479     24.5463     24.2736     23.8542
 66     15.0307     20.2934     24.3958     24.5415     24.6598     24.6284     24.5590     24.7480     24.5268

# j      m_j: min, <> & last-chain-values for 1 ...  7 chains
  1  0.0000E+00  2.9979E-03  2.3567E-03  2.6468E-03  2.9129E-03  2.9231E-03  2.2363E-03  2.7314E-03  3.0163E-03
  2  0.0000E+00  4.3505E-04  2.3311E-04  2.6205E-04  2.7941E-04  2.4868E-04  2.1739E-04  2.5008E-04  5.3037E-05
  3  0.0000E+00  7.0552E-04  7.1899E-05  5.8463E-04  5.6442E-04  5.6411E-04  6.6338E-04  5.0988E-04  4.7925E-04
  4  0.0000E+00  4.9839E-04  2.5231E-04  2.3124E-04  4.6025E-04  4.8692E-04  3.5661E-05  4.8662E-04  4.2361E-04
  5  0.0000E+00  2.7534E-03  3.0148E-03  2.4988E-03  2.6718E-03  2.6697E-03  2.7880E-03  2.5587E-03  2.2253E-03
  6  3.3044E-04  1.4630E-03  4.3436E-04  1.3940E-03  4.4580E-04  4.7844E-04  6.3151E-04  7.0921E-04  2.9109E-04
  7  0.0000E+00  5.9397E-03  4.6571E-03  4.5214E-03  5.1087E-03  4.8490E-03  5.8384E-03  5.2836E-03  3.8170E-03
  8  6.8323E-04  3.1890E-03  8.5298E-04  1.4571E-03  1.5774E-03  1.7158E-03  3.0870E-03  1.5228E-03  2.9275E-03
  9  0.0000E+00  2.6926E-03  2.2482E-03  1.3626E-03  1.3377E-03  1.2729E-03  4.2566E-04  1.6188E-03  0.0000E+00
 10  0.0000E+00  2.5018E-03  8.8366E-04  4.7571E-04  6.7221E-04  4.0972E-04  5.6401E-04  1.2748E-03  5.1733E-04
 11  0.0000E+00  8.0229E-03  1.6559E-03  5.1964E-03  2.3840E-03  2.3826E-03  2.2648E-03  2.8782E-03  3.6238E-03
 12  0.0000E+00  1.3737E-02  3.7087E-03  1.0925E-02  9.9911E-03  9.2503E-03  0.0000E+00  9.6408E-03  1.4921E-02
 13  8.8444E-03  8.5473E-02  1.0224E-01  8.4771E-02  7.6679E-02  7.7595E-02  3.8992E-02  7.1752E-02  5.0096E-02
 14  0.0000E+00  8.6495E-02  0.0000E+00  7.6124E-03  1.0355E-02  1.6324E-03  6.8311E-02  4.9582E-03  0.0000E+00
 15  0.0000E+00  1.1543E-01  3.1571E-02  2.3203E-02  8.6796E-03  3.0911E-03  3.6705E-02  0.0000E+00  1.2937E-01
 16  0.0000E+00  1.8255E-01  0.0000E+00  7.3671E-02  0.0000E+00  5.7791E-03  2.6156E-02  5.2752E-02  8.6996E-02
 17  6.7467E-01  2.4744E-01  1.2617E-01  9.0885E-02  2.9967E-02  0.0000E+00  0.0000E+00  7.3897E-03  8.7015E-02
 18  0.0000E+00  7.3737E-04  0.0000E+00  0.0000E+00  9.3624E-05  1.1701E-04  2.8226E-05  1.9632E-04  2.3227E-04
 19  0.0000E+00  6.1500E-03  6.0972E-03  6.2240E-03  6.2678E-03  6.2398E-03  5.9489E-03  6.2408E-03  5.9846E-03
 20  0.0000E+00  3.4373E-04  0.0000E+00  0.0000E+00  1.5348E-05  4.4026E-07  3.8549E-05  0.0000E+00  2.3357E-05
 21  0.0000E+00  6.1782E-04  8.1063E-05  1.9966E-04  5.5109E-05  1.3318E-04  1.6565E-04  8.2623E-05  1.2025E-04
 22  0.0000E+00  5.5775E-04  0.0000E+00  2.3589E-05  5.3641E-06  1.1223E-04  1.1065E-03  1.4904E-06  1.2170E-04
 23  0.0000E+00  1.1444E-03  2.7434E-04  0.0000E+00  3.5232E-05  1.7687E-05  1.6213E-04  1.9474E-04  0.0000E+00
 24  0.0000E+00  1.2632E-03  6.1838E-04  1.6335E-05  0.0000E+00  6.5779E-05  6.7232E-04  0.0000E+00  0.0000E+00
 25  5.0713E-04  2.1337E-03  1.0191E-03  0.0000E+00  1.6273E-04  1.6081E-04  2.9219E-03  8.8367E-05  0.0000E+00
 26  0.0000E+00  4.0887E-03  9.0094E-04  9.8407E-05  0.0000E+00  0.0000E+00  0.0000E+00  2.6826E-04  0.0000E+00
 27  0.0000E+00  3.7761E-02  3.5567E-02  4.1499E-02  3.8766E-02  3.9126E-02  3.2591E-02  3.8495E-02  4.0328E-02
 28  0.0000E+00  1.8727E-02  7.2496E-03  1.4818E-05  2.3026E-04  1.6466E-03  1.4156E-02  0.0000E+00  2.7858E-02
 29  0.0000E+00  3.2104E-02  2.2338E-02  0.0000E+00  2.6931E-03  5.5981E-04  0.0000E+00  1.6790E-03  2.1999E-03
 30  0.0000E+00  5.2029E-02  2.6371E-02  3.0203E-02  7.5669E-04  6.0428E-04  1.3301E-02  1.1574E-02  6.6093E-03
 31  0.0000E+00  1.0347E-01  0.0000E+00  0.0000E+00  0.0000E+00  0.0000E+00  0.0000E+00  1.8008E-02  1.7208E-02
 32  0.0000E+00  1.2548E-01  3.6916E-02  0.0000E+00  6.1655E-03  0.0000E+00  1.1389E-01  0.0000E+00  6.9065E-03
 33  0.0000E+00  3.3745E-01  4.3092E-02  9.7630E-02  4.2390E-02  5.1738E-02  3.0381E-01  0.0000E+00  0.0000E+00
 34  0.0000E+00  1.1637E+00  6.1691E-01  5.6311E-01  8.5058E-01  8.3441E-01  8.1569E-01  8.5341E-01  8.3404E-01
 35  0.0000E+00  1.5548E-03  1.4087E-03  1.1995E-03  1.4040E-03  1.3073E-03  1.1695E-03  1.1973E-03  1.0143E-03
 36  0.0000E+00  7.3731E-04  6.3538E-04  7.0900E-04  6.5798E-04  6.5896E-04  5.1699E-04  6.1976E-04  4.9669E-04
 37  0.0000E+00  2.2765E-04  0.0000E+00  8.5014E-05  7.4432E-06  1.9857E-05  7.7725E-05  3.2324E-05  1.4000E-04
 38  0.0000E+00  2.0463E-03  1.2212E-03  1.7903E-03  1.7359E-03  1.6488E-03  1.1543E-03  1.6932E-03  2.1052E-03
 39  0.0000E+00  1.8841E-03  1.2161E-03  1.6565E-03  1.5837E-03  1.6881E-03  6.5106E-04  1.7693E-03  1.3450E-03
 40  0.0000E+00  1.7819E-03  7.6585E-04  0.0000E+00  0.0000E+00  1.0930E-04  0.0000E+00  1.4427E-04  0.0000E+00
 41  0.0000E+00  1.3763E-02  1.3709E-02  1.1547E-02  1.2463E-02  1.2054E-02  1.0126E-02  1.2675E-02  1.1769E-02
 42  0.0000E+00  5.7189E-03  1.8020E-03  6.5053E-04  8.4289E-05  9.0171E-05  6.9160E-04  7.1158E-04  0.0000E+00
 43  0.0000E+00  9.1656E-03  4.8507E-03  5.1693E-03  3.8922E-03  4.0051E-03  2.9952E-03  4.0234E-03  5.1748E-03
 44  0.0000E+00  4.8046E-02  3.9580E-02  4.8154E-02  4.7319E-02  4.7544E-02  3.6507E-02  4.9835E-02  5.4832E-02
 45  0.0000E+00  2.3715E-02  1.3800E-03  3.8840E-03  8.1004E-04  5.6952E-04  7.1735E-03  2.5776E-03  9.0867E-04
 46  0.0000E+00  5.9647E-02  2.6004E-02  4.1877E-02  2.4278E-03  6.7749E-03  3.2387E-02  0.0000E+00  0.0000E+00
 47  0.0000E+00  1.0783E-01  0.0000E+00  2.2862E-02  3.0539E-03  0.0000E+00  1.0949E-01  7.6392E-03  9.3782E-02
 48  0.0000E+00  1.1568E-01  6.3468E-02  1.9460E-02  0.0000E+00  0.0000E+00  1.5181E-02  6.9197E-03  8.5159E-02
 49  7.6135E+00  4.2935E-01  3.7415E-01  7.0783E-03  5.4844E-02  9.3861E-03  4.3830E-01  4.7094E-02  0.0000E+00
 50  2.9399E+01  7.9310E+00  8.5148E+00  7.8230E+00  7.9037E+00  8.1538E+00  8.0798E+00  8.0440E+00  8.2863E+00
 51  0.0000E+00  6.1731E-04  2.9418E-04  5.1650E-04  4.7864E-04  4.7115E-04  7.2735E-04  5.1917E-04  4.0887E-04
 52  0.0000E+00  2.5275E-04  2.3032E-04  2.3014E-04  2.1940E-04  2.1951E-04  3.7630E-04  1.4980E-04  1.8984E-04
 53  0.0000E+00  3.9662E-04  3.5465E-04  2.7298E-04  3.6203E-04  3.4740E-04  3.7272E-04  3.3213E-04  5.1212E-04
 54  0.0000E+00  1.1025E-03  8.3881E-04  5.7650E-04  8.4512E-04  7.9269E-04  6.7348E-04  7.8096E-04  8.7339E-04
 55  0.0000E+00  1.1952E-03  2.1561E-04  1.0321E-04  7.9668E-04  6.8075E-04  6.7573E-04  6.9328E-04  1.0598E-03
 56  0.0000E+00  2.1107E-03  0.0000E+00  5.3044E-04  0.0000E+00  1.5990E-04  2.6530E-04  1.3280E-04  0.0000E+00
 57  0.0000E+00  2.0765E-03  0.0000E+00  3.0302E-04  4.6652E-05  2.4892E-04  0.0000E+00  0.0000E+00  0.0000E+00
 58  0.0000E+00  5.3601E-03  0.0000E+00  2.2909E-03  6.4858E-05  1.0244E-04  5.9344E-04  4.7390E-04  4.2861E-03
 59  0.0000E+00  8.8344E-03  0.0000E+00  1.5083E-03  1.0246E-03  0.0000E+00  3.7780E-03  0.0000E+00  9.8157E-03
 60  8.6735E-03  1.5612E-02  6.6570E-03  3.8757E-03  6.5072E-03  4.7716E-03  0.0000E+00  7.1428E-03  6.0678E-03
 61  0.0000E+00  2.1253E-01  2.2982E-01  2.3475E-01  2.2722E-01  2.3415E-01  1.9014E-01  2.1976E-01  2.0565E-01
 62  2.1661E-01  9.4105E-02  1.2182E-01  1.3511E-01  8.1579E-02  9.3402E-02  8.5183E-02  8.8715E-02  8.9047E-02
 63  0.0000E+00  1.1484E-01  2.9767E-02  7.7369E-02  7.4288E-02  8.3423E-02  0.0000E+00  7.8006E-02  2.3902E-02
 64  4.8639E+00  8.8637E+00  9.0300E+00  8.7720E+00  8.9777E+00  8.8976E+00  8.5014E+00  8.8999E+00  8.7031E+00
 65  3.6667E+01  3.2818E+01  3.3019E+01  3.3490E+01  3.3569E+01  3.3590E+01  3.3556E+01  3.3367E+01  3.3062E+01
 66  2.0547E+01  4.6457E+01  4.7438E+01  4.8241E+01  4.7923E+01  4.7803E+01  4.7430E+01  4.8059E+01  4.8023E+01

# AV, chi2 & Mass for <> & i_chain = 1 ...  7 solutions
AV      -0.1813      0.4639      0.4546      0.4769      0.4699      0.4685      0.4561      0.4691      0.4725
chi2 4.1772E-05  3.3720E-04  1.6157E-04  1.6838E-04  1.6962E-04  1.6871E-04  1.6587E-04  1.6857E-04  1.6701E-04
Mass 3.2841E-12  4.6647E-12  5.4236E-12  5.5283E-12  5.5393E-12  5.5354E-12  5.4720E-12  5.5371E-12  5.5171E-12
 -45.16                                  [v0_min (km/s) before EX0s...]
 215.52                                  [vd_min (km/s) before EX0s...]


## Synthetic spectrum (Best Model) ##l_obs f_obs f_syn wei
 3478    [Nl_obs]
 3741.00    0.41423   0.46428    0.000
 3742.00    0.37305   0.44976    0.000
 3743.00    0.30111   0.42513    0.000
 3744.00    0.27740   0.39693    0.000
 3745.00    0.28180   0.37194    0.169
 3746.00    0.33648   0.35594    0.165
 3747.00    0.41670   0.35315    0.154
 3748.00    0.43429   0.36584    0.179
 3749.00    0.42433   0.39364    0.243
 3750.00    0.52370   0.43306    0.231
 3751.00    0.66433   0.47761    0.193
 3752.00    0.69685   0.51897    0.170
 3753.00    0.69472   0.54915    0.153
 3754.00    0.65190   0.56287    0.148
 3755.00    0.59817   0.55950    0.145
 3756.00    0.59599   0.54318    0.140
 3757.00    0.60512   0.52113    0.135
 3758.00    0.55483   0.50059    0.150
 3759.00    0.49417   0.48634    0.173
 3760.00    0.48348   0.47940    0.261
 3761.00    0.47943   0.47815    0.582
 3762.00    0.54495   0.48035    0.294
 3763.00    0.61702   0.48462    0.184
 3764.00    0.58702   0.49120    0.161
 3765.00    0.55113   0.50166    0.144
 3766.00    0.51138   0.51767    0.158
 3767.00    0.47170   0.53965    0.176
 3768.00    0.45208   0.56632    0.167
 3769.00    0.43335   0.59502    0.159
 3770.00    0.43651   0.62244    0.155
 3771.00    0.44075   0.64558    0.151
 3772.00    0.45930   0.66264    0.147
 3773.00    0.48044   0.67373    0.144
 3774.00    0.52429   0.68057    0.141
 3775.00    0.55426   0.68559    0.139
 3776.00    0.49424   0.69109    0.146
 3777.00    0.45477   0.69849    0.152
 3778.00    0.51924   0.70770    0.154
 3779.00    0.57785   0.71690    0.156
 3780.00    0.61246   0.72302    0.157
 3781.00    0.63130   0.72273    0.157
 3782.00    0.59670   0.71319    0.149
 3783.00    0.55670   0.69305    0.142
 3784.00    0.50124   0.66338    0.135
 3785.00    0.46212   0.62790    0.131
 3786.00    0.46288   0.59190    0.136
 3787.00    0.45159   0.56049    0.145
 3788.00    0.41488   0.53701    0.163
 3789.00    0.39466   0.52198    0.166
 3790.00    0.40467   0.51329    0.141
 3791.00    0.42994   0.50743    0.129
 3792.00    0.47964   0.50118    0.131
 3793.00    0.50615   0.49300    0.135
 3794.00    0.50010   0.48358    0.143
 3795.00    0.50494   0.47532    0.143
 3796.00    0.52325   0.47134    0.134
 3797.00    0.52573   0.47458    0.137
 3798.00    0.51095   0.48666    0.157
 3799.00    0.49813   0.50710    0.167
 3800.00    0.48720   0.53308    0.162
 3801.00    0.47460   0.56008    0.157
 3802.00    0.46060   0.58340    0.152
 3803.00    0.45925   0.59985    0.149
 3804.00    0.46735   0.60862    0.145
 3805.00    0.49003   0.61127    0.141
 3806.00    0.52228   0.61046    0.137
 3807.00    0.52813   0.60809    0.138
 3808.00    0.51883   0.60420    0.142
 3809.00    0.50451   0.59704    0.147
 3810.00    0.48767   0.58415    0.153
 3811.00    0.43656   0.56424    0.157
 3812.00    0.37062   0.53833    0.162
 3813.00    0.37862   0.50913    0.145
 3814.00    0.41404   0.47990    0.125
 3815.00    0.43380   0.45332    0.123
 3816.00    0.44865   0.43096    0.126
 3817.00    0.43587   0.41299    0.154
 3818.00    0.41585   0.39849    0.209
 3819.00    0.43016   0.38626    0.171
 3820.00    0.45182   0.37545    0.134
 3821.00    0.40847   0.36544    0.125
 3822.00    0.35409   0.35588    0.121
 3823.00    0.34623   0.34688    0.124
 3824.00    0.34433   0.33909    0.128
 3825.00    0.37700   0.33352    0.127
 3826.00    0.41277   0.33077    0.124
 3827.00    0.36543   0.33051    0.144
 3828.00    0.31362   0.33170    0.172
 3829.00    0.29608   0.33311    0.145
 3830.00    0.27951   0.33406    0.124
 3831.00    0.28634   0.33457    0.120
 3832.00    0.29483   0.33496    0.116
 3833.00    0.34014   0.33566    0.118
 3834.00    0.38277   0.33691    0.119
 3835.00    0.39206   0.33856    0.123
 3836.00    0.39955   0.34086    0.129
 3837.00    0.39175   0.34510    0.155
 3838.00    0.38565   0.35298    0.183
 3839.00    0.39018   0.36601    0.147
 3840.00    0.39674   0.38468    0.125
 3841.00    0.41334   0.40775    0.120
 3842.00    0.42335   0.43254    0.117
 3843.00    0.40699   0.45551    0.124
 3844.00    0.39203   0.47322    0.132
 3845.00    0.38173   0.48387    0.138
 3846.00    0.38485   0.48791    0.143
 3847.00    0.42570   0.48701    0.000
 3848.00    0.44681   0.48310    0.000
 3849.00    0.42048   0.47794    0.000
 3850.00    0.40125   0.47247    0.000
 3851.00    0.39675   0.46644    0.000
 3852.00    0.40619   0.45905    0.000
 3853.00    0.44076   0.44930    0.000
 3854.00    0.44126   0.43662    0.000
 3855.00    0.38802   0.42193    0.000
 3856.00    0.36681   0.40775    0.000
 3857.00    0.38991   0.39734    0.000
 3858.00    0.40943   0.39355    0.000
 3859.00    0.42457   0.39772    0.000
 3860.00    0.44585   0.40911    0.000
 3861.00    0.47371   0.42515    0.000
 3862.00    0.50104   0.44221    0.000
 3863.00    0.52787   0.45647    0.000
 3864.00    0.51942   0.46513    0.000
 3865.00    0.48151   0.46697    0.000
 3866.00    0.45447   0.46245    0.000
 3867.00    0.43541   0.45351    0.000
 3868.00    0.45123   0.44331    0.000
 3869.00    0.48956   0.43553    0.000
 3870.00    0.50749   0.43313    0.000
 3871.00    0.51388   0.43701    0.000
 3872.00    0.50652   0.44570    0.000
 3873.00    0.49240   0.45612    0.000
 3874.00    0.48518   0.46504    0.000
 3875.00    0.48089   0.47021    0.000
 3876.00    0.47802   0.47053    0.000
 3877.00    0.47568   0.46671    0.000
 3878.00    0.47023   0.46168    0.000
 3879.00    0.46381   0.45891    0.000
 3880.00    0.42146   0.45965    0.000
 3881.00    0.36989   0.46283    0.131
 3882.00    0.40469   0.46713    0.126
 3883.00    0.45754   0.47180    0.119
 3884.00    0.51689   0.47682    0.134
 3885.00    0.57730   0.48362    0.159
 3886.00    0.57314   0.49497    0.145
 3887.00    0.56097   0.51338    0.130
 3888.00    0.58589   0.53917    0.123
 3889.00    0.61399   0.56978    0.117
 3890.00    0.60256   0.60084    0.127
 3891.00    0.58916   0.62814    0.141
 3892.00    0.52914   0.64888    0.130
 3893.00    0.46959   0.66145    0.120
 3894.00    0.49011   0.66594    0.119
 3895.00    0.51088   0.66457    0.118
 3896.00    0.53673   0.66055    0.121
 3897.00    0.56162   0.65624    0.123
 3898.00    0.57511   0.65214    0.120
 3899.00    0.58901   0.64821    0.118
 3900.00    0.60623   0.64424    0.125
 3901.00    0.62370   0.63962    0.132
 3902.00    0.64270   0.63513    0.133
 3903.00    0.64107   0.63335    0.130
 3904.00    0.54016   0.63678    0.109
 3905.00    0.47058   0.64676    0.098
 3906.00    0.52373   0.66333    0.103
 3907.00    0.56657   0.68539    0.107
 3908.00    0.57579   0.71055    0.109
 3909.00    0.59270   0.73508    0.112
 3910.00    0.63085   0.75537    0.117
 3911.00    0.66875   0.76898    0.121
 3912.00    0.70608   0.77416    0.122
 3913.00    0.74563   0.77052    0.123
 3914.00    0.78972   0.75859    0.125
 3915.00    0.78995   0.73892    0.128
 3916.00    0.71227   0.71269    0.133
 3917.00    0.67262   0.68231    0.133
 3918.00    0.69209   0.65096    0.128
 3919.00    0.68376   0.62177    0.124
 3920.00    0.63753   0.59692    0.122
 3921.00    0.59823   0.57656    0.121
 3922.00    0.56726   0.55905    0.122
 3923.00    0.55378   0.54142    0.122
 3924.00    0.55881   0.52038    0.121
 3925.00    0.52239   0.49375    0.121
 3926.00    0.44723   0.46083    0.121
 3927.00    0.44308   0.42270    0.120
 3928.00    0.49741   0.38234    0.119
 3929.00    0.51769   0.34353    0.119
 3930.00    0.51329   0.30999    0.121
 3931.00    0.46150   0.28493    0.121
 3932.00    0.37956   0.27081    0.121
 3933.00    0.36576   0.26894    0.122
 3934.00    0.38986   0.27947    0.122
 3935.00    0.40322   0.30128    0.118
 3936.00    0.41137   0.33162    0.113
 3937.00    0.45483   0.36666    0.113
 3938.00    0.51305   0.40255    0.114
 3939.00    0.56515   0.43576    0.120
 3940.00    0.61506   0.46486    0.128
 3941.00    0.61391   0.49155    0.126
 3942.00    0.59733   0.51792    0.122
 3943.00    0.58574   0.54469    0.120
 3944.00    0.57539   0.57265    0.119
 3945.00    0.60061   0.60304    0.118
 3946.00    0.63308   0.63568    0.117
 3947.00    0.63008   0.66808    0.118
 3948.00    0.62141   0.69702    0.119
 3949.00    0.72094   0.72165    0.124
 3950.00    0.83339   0.74208    0.131
 3951.00    0.81589   0.75672    0.132
 3952.00    0.78781   0.76443    0.133
 3953.00    0.76707   0.76597    0.130
 3954.00    0.74667   0.76196    0.127
 3955.00    0.77591   0.75180    0.123
 3956.00    0.80439   0.73376    0.120
 3957.00    0.75986   0.70656    0.124
 3958.00    0.71586   0.67078    0.127
 3959.00    0.68214   0.62823    0.124
 3960.00    0.64724   0.58122    0.000
 3961.00    0.59917   0.53216    0.000
 3962.00    0.55250   0.48295    0.000
 3963.00    0.51686   0.43555    0.000
 3964.00    0.48011   0.39243    0.000
 3965.00    0.43679   0.35632    0.000
 3966.00    0.39752   0.32997    0.000
 3967.00    0.37720   0.31536    0.000
 3968.00    0.36882   0.31383    0.000
 3969.00    0.40615   0.32633    0.000
 3970.00    0.43709   0.35310    0.000
 3971.00    0.44759   0.39293    0.000
 3972.00    0.48399   0.44279    0.000
 3973.00    0.59051   0.49915    0.000
 3974.00    0.68339   0.55903    0.000
 3975.00    0.74464   0.61957    0.000
 3976.00    0.78406   0.67780    0.000
 3977.00    0.77964   0.73045    0.000
 3978.00    0.79635   0.77500    0.000
 3979.00    0.85001   0.81063    0.000
 3980.00    0.89454   0.83800    0.000
 3981.00    0.92512   0.85912    0.126
 3982.00    0.93392   0.87616    0.128
 3983.00    0.91344   0.89123    0.124
 3984.00    0.90503   0.90648    0.122
 3985.00    0.91094   0.92186    0.122
 3986.00    0.92413   0.93638    0.122
 3987.00    0.94491   0.95003    0.122
 3988.00    0.94225   0.96252    0.123
 3989.00    0.91799   0.97298    0.123
 3990.00    0.95861   0.98034    0.125
 3991.00    1.05191   0.98429    0.127
 3992.00    1.06299   0.98506    0.126
 3993.00    1.01533   0.98294    0.123
 3994.00    0.97449   0.98033    0.120
 3995.00    0.93792   0.98101    0.118
 3996.00    0.88656   0.98674    0.117
 3997.00    0.82709   0.99701    0.116
 3998.00    0.85387   1.01076    0.116
 3999.00    0.92174   1.02604    0.117
 4000.00    0.98279   1.03773    0.120
 4001.00    1.04105   1.04048    0.124
 4002.00    1.04975   1.03423    0.125
 4003.00    1.04106   1.02372    0.124
 4004.00    1.00867   1.01354    0.125
 4005.00    0.96925   1.00741    0.126
 4006.00    0.94901   1.00843    0.123
 4007.00    0.93347   1.01729    0.119
 4008.00    0.98578   1.03248    0.121
 4009.00    1.05157   1.05195    0.123
 4010.00    1.08037   1.07310    0.124
 4011.00    1.10342   1.09263    0.123
 4012.00    1.05201   1.10828    0.120
 4013.00    0.99204   1.11931    0.117
 4014.00    0.93889   1.12674    0.116
 4015.00    0.88627   1.13281    0.115
 4016.00    0.94828   1.13792    0.120
 4017.00    1.01511   1.14078    0.125
 4018.00    1.04216   1.14121    0.125
 4019.00    1.06798   1.13997    0.125
 4020.00    1.05619   1.13689    0.121
 4021.00    1.04494   1.13256    0.118
 4022.00    1.04321   1.12928    0.117
 4023.00    1.04436   1.12790    0.117
 4024.00    1.07647   1.12717    0.119
 4025.00    1.10385   1.12458    0.120
 4026.00    1.09532   1.11506    0.120
 4027.00    1.07284   1.09461    0.120
 4028.00    0.96991   1.06469    0.125
 4029.00    0.88840   1.02956    0.128
 4030.00    0.90508   0.99433    0.124
 4031.00    0.91836   0.96650    0.121
 4032.00    0.91883   0.95387    0.117
 4033.00    0.92109   0.96068    0.115
 4034.00    0.92896   0.98566    0.115
 4035.00    0.94803   1.02235    0.116
 4036.00    0.99690   1.06087    0.119
 4037.00    1.02849   1.09245    0.120
 4038.00    1.02061   1.11223    0.120
 4039.00    1.02277   1.11663    0.121
 4040.00    1.04475   1.10180    0.121
 4041.00    1.03713   1.06779    0.120
 4042.00    0.97851   1.02273    0.118
 4043.00    0.93382   0.98050    0.116
 4044.00    0.91013   0.95289    0.115
 4045.00    0.90039   0.94413    0.115
 4046.00    0.90914   0.95356    0.117
 4047.00    0.96346   0.97817    0.119
 4048.00    1.07101   1.01203    0.122
 4049.00    1.12493   1.04720    0.124
 4050.00    1.12364   1.07552    0.125
 4051.00    1.09224   1.09020    0.123
 4052.00    1.03350   1.08967    0.119
 4053.00    1.00000   1.07772    0.117
 4054.00    0.98671   1.05856    0.117
 4055.00    0.95300   1.03741    0.117
 4056.00    0.90492   1.01996    0.116
 4057.00    0.92482   1.00739    0.116
 4058.00    0.98671   0.99579    0.117
 4059.00    1.00113   0.98064    0.119
 4060.00    0.98993   0.96183    0.122
 4061.00    0.97753   0.94524    0.122
 4062.00    0.96457   0.93596    0.119
 4063.00    0.95338   0.93312    0.118
 4064.00    0.94291   0.93640    0.117
 4065.00    0.93469   0.94825    0.117
 4066.00    0.92724   0.96720    0.117
 4067.00    0.91251   0.98612    0.117
 4068.00    0.89566   0.99892    0.116
 4069.00    0.89592   1.00603    0.116
 4070.00    0.90029   1.01062    0.115
 4071.00    0.95898   1.01216    0.117
 4072.00    1.02819   1.00850    0.119
 4073.00    1.07056   0.99965    0.117
 4074.00    1.10889   0.99025    0.115
 4075.00    1.06015   0.98798    0.115
 4076.00    1.00178   0.99648    0.116
 4077.00    0.96969   1.01409    0.115
 4078.00    0.93954   1.03769    0.114
 4079.00    0.93881   1.06401    0.115
 4080.00    0.93920   1.09076    0.116
 4081.00    0.99939   1.11675    0.117
 4082.00    1.05988   1.14020    0.119
 4083.00    1.11872   1.16097    0.118
 4084.00    1.17326   1.18097    0.117
 4085.00    1.15704   1.20075    0.118
 4086.00    1.13897   1.21930    0.118
 4087.00    1.10200   1.23527    0.118
 4088.00    1.07437   1.24655    0.117
 4089.00    1.11528   1.25064    0.116
 4090.00    1.15399   1.24704    0.115
 4091.00    1.18041   1.23438    0.115
 4092.00    1.19209   1.21051    0.000
 4093.00    1.13780   1.17899    0.000
 4094.00    1.08769   1.14575    0.000
 4095.00    1.05293   1.11340    0.000
 4096.00    1.01632   1.08226    0.000
 4097.00    0.97406   1.05152    0.000
 4098.00    0.94543   1.02283    0.000
 4099.00    0.95242   1.00291    0.000
 4100.00    0.95583   0.99566    0.000
 4101.00    0.95117   0.99942    0.000
 4102.00    0.94408   1.01279    0.000
 4103.00    0.93226   1.03404    0.000
 4104.00    0.95017   1.05877    0.000
 4105.00    1.01850   1.08294    0.000
 4106.00    1.06319   1.10233    0.000
 4107.00    1.07274   1.11396    0.000
 4108.00    1.08414   1.11912    0.000
 4109.00    1.09797   1.12124    0.000
 4110.00    1.10797   1.12343    0.000
 4111.00    1.11355   1.12715    0.000
 4112.00    1.10764   1.13256    0.000
 4113.00    1.09007   1.13939    0.110
 4114.00    1.10260   1.14493    0.111
 4115.00    1.14207   1.14536    0.112
 4116.00    1.12346   1.14123    0.112
 4117.00    1.05901   1.13574    0.112
 4118.00    1.03118   1.12911    0.111
 4119.00    1.02876   1.12198    0.109
 4120.00    1.03519   1.11687    0.159
 4121.00    1.04700   1.11607    0.617
 4122.00    1.05336   1.11916   -1.000
 4123.00    1.05684   1.12208   -1.000
 4124.00    1.07467   1.12092   -1.000
 4125.00    1.09914   1.11459   -1.000
 4126.00    1.10705   1.10387   -1.000
 4127.00    1.10839   1.08879   -1.000
 4128.00    1.04206   1.06849    0.289
 4129.00    0.95284   1.04461    0.124
 4130.00    0.94997   1.02407    0.110
 4131.00    0.97167   1.01220    0.111
 4132.00    0.96311   1.01209    0.110
 4133.00    0.94745   1.02290    0.109
 4134.00    0.98829   1.03945    0.109
 4135.00    1.03980   1.05921    0.110
 4136.00    1.04252   1.07923    0.111
 4137.00    1.03811   1.09349    0.112
 4138.00    1.06931   1.09633    0.112
 4139.00    1.10429   1.08324    0.113
 4140.00    1.08368   1.05631    0.111
 4141.00    1.05923   1.02749    0.110
 4142.00    1.09110   1.00639    0.112
 4143.00    1.12491   0.99388    0.115
 4144.00    1.10094   0.98881    0.113
 4145.00    1.07797   0.99016    0.112
 4146.00    1.09144   0.99610    0.113
 4147.00    1.10050   1.00488    0.114
 4148.00    1.04142   1.01305    0.111
 4149.00    0.98801   1.01592    0.109
 4150.00    0.99040   1.01320    0.110
 4151.00    0.98945   1.00773    0.110
 4152.00    0.96477   1.00307    0.110
 4153.00    0.95085   1.00183    0.110
 4154.00    0.99565   1.00594    0.111
 4155.00    1.03325   1.01709    0.111
 4156.00    1.03931   1.03451    0.110
 4157.00    1.03347   1.05534    0.109
 4158.00    0.98485   1.07771    0.109
 4159.00    0.95395   1.10082    0.108
 4160.00    0.97656   1.12124    0.106
 4161.00    1.00541   1.13438    0.105
 4162.00    1.05030   1.13871    0.106
 4163.00    1.08509   1.13478    0.107
 4164.00    1.09758   1.12404    0.108
 4165.00    1.09718   1.11085    0.107
 4166.00    1.07205   1.09774    0.107
 4167.00    1.05291   1.08354    0.106
 4168.00    1.04375   1.06700    0.107
 4169.00    1.03281   1.04694    0.107
 4170.00    1.01925   1.02608    0.106
 4171.00    1.00706   1.00948    0.105
 4172.00    0.99663   0.99737    0.106
 4173.00    0.99461   0.98775    0.107
 4174.00    1.00212   0.98079    0.109
 4175.00    1.02653   0.97911    0.111
 4176.00    1.06784   0.98548    0.110
 4177.00    1.09477   0.99709    0.110
 4178.00    1.10901   1.00824    0.108
 4179.00    1.11188   1.01780    0.107
 4180.00    1.10591   1.02823    0.106
 4181.00    1.08991   1.04104    0.106
 4182.00    1.06706   1.05461    0.106
 4183.00    1.03743   1.06317    0.105
 4184.00    1.00375   1.06451    0.104
 4185.00    1.00571   1.06526    0.105
 4186.00    1.02631   1.07026    0.106
 4187.00    1.09171   1.07629    0.106
 4188.00    1.17743   1.07986    0.106
 4189.00    1.20853   1.08274    0.107
 4190.00    1.21832   1.08802    0.108
 4191.00    1.19016   1.09289    0.108
 4192.00    1.14939   1.08990    0.106
 4193.00    1.11812   1.07620    0.105
 4194.00    1.08949   1.05576    0.105
 4195.00    1.11596   1.03346    0.106
 4196.00    1.15507   1.01202    0.107
 4197.00    1.10039   0.99339    0.107
 4198.00    1.02848   0.97951    0.107
 4199.00    1.01544   0.97397    0.106
 4200.00    1.01073   0.98045    0.104
 4201.00    1.06154   0.99759    0.104
 4202.00    1.11801   1.02204    0.104
 4203.00    1.08033   1.05113    0.103
 4204.00    1.03650   1.08136    0.102
 4205.00    1.04165   1.11084    0.103
 4206.00    1.04840   1.13628    0.104
 4207.00    1.12294   1.15284    0.105
 4208.00    1.19436   1.16159    0.105
 4209.00    1.17408   1.16532    0.104
 4210.00    1.15520   1.16274    0.103
 4211.00    1.15676   1.15319    0.103
 4212.00    1.15649   1.13957    0.103
 4213.00    1.13893   1.13067    0.103
 4214.00    1.12378   1.13512    0.104
 4215.00    1.12520   1.15007    0.103
 4216.00    1.13009   1.16781    0.102
 4217.00    1.15336   1.18457    0.102
 4218.00    1.17003   1.19692    0.102
 4219.00    1.15851   1.19846    0.103
 4220.00    1.14016   1.18184    0.103
 4221.00    1.09772   1.14324    0.101
 4222.00    1.04890   1.08669    0.100
 4223.00    0.98121   1.02200    0.100
 4224.00    0.93817   0.96313    0.100
 4225.00    0.95734   0.92548    0.100
 4226.00    0.97823   0.91660    0.099
 4227.00    1.00287   0.93272    0.100
 4228.00    1.03489   0.96633    0.100
 4229.00    1.08081   1.00862    0.099
 4230.00    1.11304   1.05125    0.098
 4231.00    1.12273   1.08845    0.097
 4232.00    1.11932   1.11313    0.097
 4233.00    1.09703   1.12298    0.098
 4234.00    1.08433   1.12504    0.100
 4235.00    1.08381   1.12633    0.100
 4236.00    1.11219   1.13146    0.099
 4237.00    1.17288   1.14448    0.099
 4238.00    1.19775   1.16550    0.099
 4239.00    1.18728   1.19186    0.099
 4240.00    1.16531   1.22118    0.098
 4241.00    1.13334   1.25071    0.097
 4242.00    1.16299   1.27561    0.097
 4243.00    1.23990   1.28939    0.098
 4244.00    1.23238   1.28796    0.099
 4245.00    1.16796   1.27191    0.099
 4246.00    1.12733   1.24545    0.100
 4247.00    1.10073   1.21181    0.102
 4248.00    1.12137   1.17548    0.104
 4249.00    1.16634   1.14504    0.105
 4250.00    1.17572   1.12333    0.105
 4251.00    1.16922   1.10713    0.104
 4252.00    1.16607   1.09736    0.104
 4253.00    1.16420   1.09911    0.105
 4254.00    1.14334   1.11198    0.103
 4255.00    1.11630   1.12481    0.101
 4256.00    1.07889   1.12866    0.100
 4257.00    1.03866   1.12862    0.099
 4258.00    1.07111   1.13489    0.101
 4259.00    1.11986   1.15220    0.103
 4260.00    1.15728   1.17704    0.103
 4261.00    1.19268   1.20380    0.103
 4262.00    1.20114   1.23126    0.104
 4263.00    1.20591   1.25780    0.105
 4264.00    1.28849   1.27614    0.106
 4265.00    1.37867   1.27763    0.107
 4266.00    1.31091   1.25801    0.105
 4267.00    1.23349   1.21832    0.103
 4268.00    1.13894   1.16374    0.101
 4269.00    1.04412   1.10492    0.099
 4270.00    0.98680   1.05549    0.099
 4271.00    0.93285   1.02249    0.099
 4272.00    0.96826   1.00665    0.100
 4273.00    1.00659   1.01135    0.101
 4274.00    1.08507   1.03848    0.103
 4275.00    1.15660   1.08149    0.105
 4276.00    1.16494   1.12640    0.105
 4277.00    1.17165   1.16119    0.105
 4278.00    1.16738   1.18655    0.104
 4279.00    1.16841   1.20573    0.103
 4280.00    1.19683   1.21560    0.104
 4281.00    1.21683   1.21433    0.104
 4282.00    1.20167   1.20281   -2.000
 4283.00    1.17010   1.18561   -2.000
 4284.00    1.08186   1.16913   -2.000
 4285.00    1.03041   1.15198   -2.000
 4286.00    1.08592   1.12903   -2.000
 4287.00    1.15129   1.10215   -2.000
 4288.00    1.24114   1.08100   -2.000
 4289.00    1.29304   1.07295   -2.000
 4290.00    1.26383   1.07427   -2.000
 4291.00    1.22734   1.07554   -2.000
 4292.00    1.17734   1.07463   -2.000
 4293.00    1.13036   1.07499   -2.000
 4294.00    1.08830   1.07166   -2.000
 4295.00    1.07343   1.05547   -2.000
 4296.00    1.09724   1.02391   -2.000
 4297.00    1.08571   0.98400   -2.000
 4298.00    1.02997   0.94725    0.103
 4299.00    0.99026   0.91625    0.103
 4300.00    0.96822   0.88811    0.101
 4301.00    0.95219   0.86498    0.100
 4302.00    0.94199   0.84890    0.100
 4303.00    0.92227   0.83802    0.100
 4304.00    0.89437   0.82842    0.101
 4305.00    0.88170   0.81847    0.101
 4306.00    0.88054   0.81373    0.100
 4307.00    0.92410   0.82103    0.101
 4308.00    0.99737   0.84290    0.102
 4309.00    1.02874   0.88091    0.103
 4310.00    1.03577   0.93569    0.102
 4311.00    1.06017   1.00573    0.101
 4312.00    1.09339   1.08836    0.100
 4313.00    1.14967   1.18008    0.099
 4314.00    1.21607   1.27228    0.098
 4315.00    1.28300   1.35142    0.100
 4316.00    1.35014   1.40928    0.101
 4317.00    1.37413   1.44432    0.103
 4318.00    1.38433   1.45584    0.104
 4319.00    1.39871   1.44245    0.104
 4320.00    1.41421   1.40507    0.103
 4321.00    1.35840   1.34985    0.103
 4322.00    1.28699   1.28899    0.103
 4323.00    1.26189   1.23738    0.103
 4324.00    1.24485   1.21018    0.104
 4325.00    1.24613   1.21358    0.104
 4326.00    1.24985   1.24013    0.104
 4327.00    1.29343   1.28020    0.104
 4328.00    1.34074   1.32988    0.103
 4329.00    1.34484   1.38624    0.102
 4330.00    1.34647   1.43861    0.000
 4331.00    1.34296   1.47378    0.000
 4332.00    1.33952   1.48843    0.000
 4333.00    1.35693   1.48470    0.000
 4334.00    1.37272   1.46168    0.000
 4335.00    1.34963   1.42091    0.000
 4336.00    1.32364   1.37257    0.000
 4337.00    1.25984   1.32584    0.000
 4338.00    1.20257   1.28649    0.000
 4339.00    1.20240   1.26299    0.000
 4340.00    1.21181   1.26044    0.000
 4341.00    1.28314   1.27589    0.000
 4342.00    1.34160   1.30535    0.000
 4343.00    1.33517   1.34502    0.000
 4344.00    1.33416   1.38498    0.000
 4345.00    1.35529   1.41677    0.000
 4346.00    1.36827   1.44019    0.000
 4347.00    1.35369   1.45354    0.000
 4348.00    1.34756   1.44807    0.000
 4349.00    1.36557   1.42520    0.000
 4350.00    1.37736   1.40292    0.000
 4351.00    1.37399   1.39156    0.100
 4352.00    1.35010   1.38437    0.099
 4353.00    1.28307   1.37946    0.100
 4354.00    1.26455   1.38648    0.100
 4355.00    1.33469   1.40651    0.099
 4356.00    1.38802   1.42779    0.098
 4357.00    1.41449   1.44628    0.099
 4358.00    1.43428   1.46880    0.099
 4359.00    1.44472   1.49473    0.100
 4360.00    1.44467   1.51503    0.100
 4361.00    1.43169   1.52945    0.098
 4362.00    1.42732   1.54555    0.099
 4363.00    1.43230   1.55978    0.100
 4364.00    1.45728   1.56049    0.102
 4365.00    1.50147   1.54723    0.103
 4366.00    1.50841   1.52991    0.103
 4367.00    1.48384   1.51192    0.104
 4368.00    1.45230   1.48856    0.103
 4369.00    1.41559   1.46143    0.102
 4370.00    1.40872   1.43631    0.101
 4371.00    1.42139   1.41322    0.101
 4372.00    1.40692   1.39056    0.102
 4373.00    1.37692   1.37273    0.103
 4374.00    1.36007   1.36514    0.103
 4375.00    1.34976   1.36341    0.102
 4376.00    1.33646   1.35704    0.101
 4377.00    1.32185   1.34243    0.101
 4378.00    1.31826   1.32190    0.102
 4379.00    1.31874   1.29354    0.103
 4380.00    1.28878   1.24973    0.102
 4381.00    1.24928   1.19421    0.101
 4382.00    1.23251   1.14795    0.100
 4383.00    1.22169   1.12623    0.099
 4384.00    1.20945   1.12468    0.099
 4385.00    1.19690   1.13370    0.098
 4386.00    1.22416   1.15485    0.099
 4387.00    1.25814   1.18983    0.100
 4388.00    1.28411   1.22969    0.098
 4389.00    1.30906   1.26620    0.097
 4390.00    1.33508   1.29812    0.098
 4391.00    1.36121   1.32579    0.099
 4392.00    1.36881   1.34931    0.100
 4393.00    1.37543   1.37262    0.100
 4394.00    1.40665   1.40004    0.101
 4395.00    1.43791   1.42589    0.101
 4396.00    1.43291   1.43906    0.101
 4397.00    1.42953   1.43671    0.101
 4398.00    1.46168   1.42462    0.103
 4399.00    1.48556   1.40952    0.104
 4400.00    1.40721   1.38800    0.102
 4401.00    1.33785   1.35022    0.100
 4402.00    1.34407   1.30288    0.100
 4403.00    1.35006   1.26992    0.101
 4404.00    1.35462   1.26074    0.102
 4405.00    1.35734   1.26175    0.102
 4406.00    1.35104   1.26866    0.101
 4407.00    1.35533   1.29434    0.101
 4408.00    1.40195   1.33850    0.102
 4409.00    1.43136   1.38339    0.102
 4410.00    1.40367   1.41823    0.101
 4411.00    1.40398   1.44193    0.101
 4412.00    1.48276   1.45193    0.102
 4413.00    1.53266   1.45225    0.103
 4414.00    1.51337   1.45424    0.103
 4415.00    1.49532   1.45952    0.103
 4416.00    1.47984   1.46525    0.103
 4417.00    1.46864   1.47471    0.103
 4418.00    1.46512   1.48836    0.102
 4419.00    1.46652   1.49833    0.102
 4420.00    1.47566   1.50010    0.102
 4421.00    1.47201   1.49959    0.102
 4422.00    1.45067   1.49886    0.102
 4423.00    1.44742   1.49268    0.103
 4424.00    1.46619   1.48352    0.103
 4425.00    1.46100   1.48023    0.103
 4426.00    1.43013   1.48352    0.104
 4427.00    1.45960   1.48272    0.104
 4428.00    1.54613   1.47361    0.105
 4429.00    1.56175   1.46672    0.104
 4430.00    1.51826   1.46429    0.102
 4431.00    1.50801   1.45642    0.102
 4432.00    1.52216   1.44241    0.103
 4433.00    1.52269   1.43486    0.103
 4434.00    1.51442   1.44187    0.104
 4435.00    1.53930   1.45742    0.105
 4436.00    1.58288   1.47393    0.105
 4437.00    1.59466   1.49066    0.106
 4438.00    1.59082   1.50638    0.108
 4439.00    1.60320   1.51763    0.108
 4440.00    1.62246   1.52345    0.108
 4441.00    1.60880   1.52827    0.107
 4442.00    1.58316   1.53740    0.105
 4443.00    1.58792   1.55125    0.105
 4444.00    1.60202   1.56574    0.107
 4445.00    1.63673   1.58015    0.107
 4446.00    1.67671   1.59776    0.106
 4447.00    1.64342   1.61102    0.106
 4448.00    1.59487   1.60904    0.105
 4449.00    1.57045   1.59541    0.105
 4450.00    1.55000   1.57590    0.106
 4451.00    1.52129   1.54660    0.105
 4452.00    1.49157   1.50565    0.103
 4453.00    1.48712   1.46318    0.103
 4454.00    1.48483   1.42883    0.103
 4455.00    1.46314   1.39940    0.103
 4456.00    1.44048   1.37212    0.102
 4457.00    1.42553   1.35378    0.101
 4458.00    1.41092   1.34889    0.100
 4459.00    1.40989   1.35158    0.101
 4460.00    1.41026   1.36127    0.103
 4461.00    1.43885   1.38371    0.000
 4462.00    1.46730   1.41110    0.000
 4463.00    1.49409   1.43381    0.000
 4464.00    1.51724   1.45627    0.000
 4465.00    1.51082   1.48273    0.000
 4466.00    1.51275   1.50580    0.000
 4467.00    1.56546   1.52094    0.000
 4468.00    1.61044   1.53701    0.000
 4469.00    1.61833   1.55944    0.000
 4470.00    1.61799   1.58591    0.000
 4471.00    1.58544   1.61422    0.000
 4472.00    1.57160   1.64190    0.000
 4473.00    1.61855   1.66534    0.000
 4474.00    1.66227   1.68493    0.000
 4475.00    1.69711   1.70002    0.000
 4476.00    1.72113   1.70329    0.000
 4477.00    1.71965   1.69147    0.000
 4478.00    1.70710   1.67278    0.000
 4479.00    1.67199   1.65691    0.000
 4480.00    1.64887   1.64644    0.000
 4481.00    1.64700   1.64281    0.000
 4482.00    1.63983   1.64613    0.103
 4483.00    1.62441   1.65479    0.104
 4484.00    1.61606   1.66642    0.104
 4485.00    1.61733   1.67560    0.103
 4486.00    1.63308   1.67563    0.103
 4487.00    1.66617   1.66529    0.103
 4488.00    1.66076   1.65057    0.102
 4489.00    1.61465   1.63707    0.102
 4490.00    1.58933   1.62403    0.102
 4491.00    1.58341   1.60898    0.103
 4492.00    1.58675   1.59477    0.104
 4493.00    1.59770   1.59012    0.104
 4494.00    1.60374   1.59604    0.104
 4495.00    1.60624   1.60736    0.104
 4496.00    1.61399   1.62408    0.104
 4497.00    1.62507   1.64922    0.104
 4498.00    1.66675   1.67954    0.105
 4499.00    1.72543   1.70905    0.106
 4500.00    1.74281   1.74162    0.106
 4501.00    1.74025   1.77857    0.105
 4502.00    1.73864   1.80936    0.104
 4503.00    1.73743   1.82898    0.104
 4504.00    1.72822   1.84328    0.104
 4505.00    1.71616   1.85461    0.104
 4506.00    1.73005   1.85832    0.103
 4507.00    1.75177   1.85348    0.103
 4508.00    1.76252   1.84377    0.103
 4509.00    1.77053   1.83015    0.103
 4510.00    1.76496   1.81214    0.103
 4511.00    1.75664   1.79210    0.103
 4512.00    1.74656   1.77343    0.103
 4513.00    1.73621   1.75914    0.103
 4514.00    1.74170   1.74928    0.104
 4515.00    1.74908   1.74094    0.104
 4516.00    1.71357   1.73557    0.103
 4517.00    1.67459   1.73825    0.101
 4518.00    1.69490   1.74505    0.102
 4519.00    1.71790   1.74572    0.102
 4520.00    1.71743   1.73382    0.102
 4521.00    1.71629   1.71416    0.103
 4522.00    1.69564   1.69084    0.103
 4523.00    1.67498   1.65771    0.103
 4524.00    1.65400   1.61324    0.102
 4525.00    1.62793   1.56735    0.101
 4526.00    1.54490   1.52964    0.100
 4527.00    1.47524   1.50080    0.100
 4528.00    1.51031   1.48011    0.100
 4529.00    1.53421   1.46979    0.100
 4530.00    1.49205   1.47398    0.099
 4531.00    1.46350   1.48743    0.098
 4532.00    1.49860   1.50268    0.099
 4533.00    1.53057   1.52082    0.100
 4534.00    1.55061   1.54952    0.101
 4535.00    1.56588   1.58591    0.102
 4536.00    1.56593   1.61555    0.102
 4537.00    1.57790   1.63622    0.102
 4538.00    1.62205   1.65426    0.102
 4539.00    1.66506   1.67071    0.103
 4540.00    1.70543   1.68208    0.103
 4541.00    1.72475   1.68576    0.103
 4542.00    1.70188   1.68016    0.102
 4543.00    1.68750   1.67081    0.102
 4544.00    1.68795   1.66727    0.103
 4545.00    1.65643   1.66632    0.104
 4546.00    1.57607   1.65853    0.103
 4547.00    1.54971   1.64616    0.102
 4548.00    1.59583   1.64151    0.102
 4549.00    1.64839   1.64385    0.102
 4550.00    1.70855   1.64280    0.000
 4551.00    1.73485   1.64134    0.000
 4552.00    1.72583   1.64737    0.000
 4553.00    1.71463   1.66072    0.000
 4554.00    1.70142   1.67912    0.000
 4555.00    1.71768   1.70343    0.000
 4556.00    1.75781   1.72954    0.000
 4557.00    1.78275   1.75192    0.000
 4558.00    1.79687   1.76897    0.000
 4559.00    1.77146   1.78196    0.000
 4560.00    1.72131   1.78855    0.000
 4561.00    1.73762   1.78406    0.000
 4562.00    1.79028   1.77208    0.000
 4563.00    1.79355   1.76263    0.000
 4564.00    1.77334   1.76105    0.000
 4565.00    1.73486   1.76342    0.000
 4566.00    1.68889   1.76578    0.000
 4567.00    1.72915   1.77142    0.000
 4568.00    1.79963   1.77963    0.000
 4569.00    1.81669   1.78255    0.000
 4570.00    1.81796   1.78481    0.000
 4571.00    1.82407   1.79289    0.000
 4572.00    1.83138   1.79560    0.000
 4573.00    1.81222   1.78754    0.000
 4574.00    1.78781   1.78060    0.000
 4575.00    1.80853   1.77659    0.000
 4576.00    1.83624   1.76402    0.000
 4577.00    1.81472   1.74102    0.000
 4578.00    1.78757   1.71751    0.000
 4579.00    1.73279   1.70039    0.000
 4580.00    1.67589   1.68934    0.000
 4581.00    1.67542   1.68120    0.000
 4582.00    1.67730   1.67765    0.000
 4583.00    1.70869   1.68239    0.000
 4584.00    1.73934   1.69340    0.000
 4585.00    1.72734   1.70800    0.000
 4586.00    1.71746   1.72379    0.000
 4587.00    1.74460   1.73714    0.000
 4588.00    1.76992   1.74360    0.000
 4589.00    1.77563   1.74279    0.000
 4590.00    1.77626   1.73736    0.000
 4591.00    1.73846   1.72851    0.000
 4592.00    1.70490   1.71460    0.000
 4593.00    1.69571   1.69816    0.000
 4594.00    1.68494   1.68524    0.000
 4595.00    1.66692   1.67797    0.000
 4596.00    1.65995   1.67515    0.000
 4597.00    1.69427   1.67586    0.000
 4598.00    1.73186   1.67647    0.000
 4599.00    1.77966   1.67877    0.000
 4600.00    1.79901   1.68691    0.000
 4601.00    1.74283   1.69766    0.000
 4602.00    1.70523   1.70831    0.000
 4603.00    1.70999   1.72209    0.000
 4604.00    1.73878   1.74261    0.000
 4605.00    1.81499   1.76773    0.000
 4606.00    1.86627   1.79546    0.000
 4607.00    1.87472   1.82097    0.000
 4608.00    1.87901   1.84053    0.000
 4609.00    1.87703   1.85532    0.000
 4610.00    1.87908   1.86619    0.000
 4611.00    1.88644   1.87130    0.000
 4612.00    1.89119   1.87282    0.000
 4613.00    1.89289   1.87409    0.000
 4614.00    1.88717   1.87488    0.000
 4615.00    1.87383   1.87850    0.000
 4616.00    1.88480   1.88325    0.000
 4617.00    1.91781   1.88430    0.000
 4618.00    1.89587   1.88566    0.000
 4619.00    1.83002   1.89054    0.000
 4620.00    1.83592   1.88995    0.000
 4621.00    1.89225   1.88539    0.000
 4622.00    1.87598   1.88517    0.000
 4623.00    1.81495   1.88358    0.000
 4624.00    1.79088   1.87655    0.000
 4625.00    1.78673   1.87367    0.000
 4626.00    1.82355   1.87357    0.000
 4627.00    1.87953   1.86637    0.000
 4628.00    1.86836   1.85861    0.000
 4629.00    1.83010   1.85793    0.000
 4630.00    1.82989   1.85250    0.000
 4631.00    1.84277   1.83547    0.000
 4632.00    1.83717   1.81881    0.000
 4633.00    1.82623   1.80634    0.000
 4634.00    1.81813   1.78824    0.000
 4635.00    1.81071   1.76483    0.000
 4636.00    1.84965   1.74621    0.000
 4637.00    1.89755   1.73219    0.000
 4638.00    1.81239   1.71791    0.000
 4639.00    1.70726   1.70746    0.000
 4640.00    1.66881   1.69977    0.000
 4641.00    1.63770   1.68781    0.000
 4642.00    1.64404   1.67346    0.000
 4643.00    1.65311   1.66173    0.000
 4644.00    1.69146   1.64777    0.000
 4645.00    1.73091   1.63343    0.000
 4646.00    1.71185   1.62844    0.000
 4647.00    1.69364   1.63365    0.000
 4648.00    1.71840   1.64342    0.000
 4649.00    1.74239   1.65810    0.000
 4650.00    1.75374   1.67883    0.000
 4651.00    1.76306   1.70097    0.000
 4652.00    1.75164   1.71845    0.000
 4653.00    1.74370   1.73331    0.000
 4654.00    1.76119   1.74979    0.000
 4655.00    1.78046   1.76759    0.000
 4656.00    1.80972   1.78475    0.000
 4657.00    1.82907   1.80060    0.000
 4658.00    1.80419   1.81213    0.000
 4659.00    1.78439   1.81488    0.000
 4660.00    1.78319   1.80576    0.000
 4661.00    1.78106   1.78335    0.000
 4662.00    1.77611   1.75255    0.000
 4663.00    1.76044   1.71806    0.000
 4664.00    1.71681   1.67914    0.000
 4665.00    1.67800   1.64148    0.000
 4666.00    1.65001   1.61920    0.000
 4667.00    1.64371   1.61521    0.000
 4668.00    1.67951   1.62017    0.000
 4669.00    1.71635   1.63256    0.000
 4670.00    1.75495   1.65537    0.000
 4671.00    1.76443   1.68283    0.000
 4672.00    1.73072   1.70584    0.000
 4673.00    1.74255   1.72338    0.000
 4674.00    1.81377   1.73701    0.000
 4675.00    1.83813   1.74239    0.000
 4676.00    1.80867   1.73846    0.000
 4677.00    1.80061   1.73247    0.000
 4678.00    1.81422   1.72774    0.000
 4679.00    1.78652   1.72007    0.000
 4680.00    1.72189   1.71271    0.000
 4681.00    1.69814   1.71268    0.000
 4682.00    1.70658   1.71608    0.000
 4683.00    1.75287   1.71885    0.000
 4684.00    1.82538   1.72364    0.000
 4685.00    1.80967   1.72843    0.000
 4686.00    1.74037   1.72944    0.000
 4687.00    1.72328   1.73038    0.000
 4688.00    1.73388   1.73184    0.000
 4689.00    1.74910   1.73093    0.000
 4690.00    1.76646   1.73218    0.000
 4691.00    1.75899   1.73767    0.000
 4692.00    1.74169   1.74112    0.000
 4693.00    1.74686   1.74204    0.000
 4694.00    1.75961   1.74348    0.000
 4695.00    1.75741   1.73996    0.000
 4696.00    1.75097   1.72660    0.000
 4697.00    1.73786   1.71074    0.000
 4698.00    1.72318   1.69824    0.000
 4699.00    1.74975   1.68429    0.000
 4700.00    1.78408   1.66726    0.000
 4701.00    1.78522   1.65520    0.000
 4702.00    1.78153   1.65372    0.000
 4703.00    1.75160   1.65577    0.000
 4704.00    1.71890   1.65569    0.000
 4705.00    1.72396   1.65718    0.000
 4706.00    1.73161   1.66506    0.000
 4707.00    1.73642   1.67391    0.000
 4708.00    1.74114   1.68097    0.000
 4709.00    1.75534   1.69105    0.000
 4710.00    1.77042   1.70447    0.000
 4711.00    1.81313   1.71722    0.000
 4712.00    1.85111   1.72969    0.000
 4713.00    1.81649   1.74778    0.000
 4714.00    1.78651   1.77191    0.000
 4715.00    1.80193   1.79590    0.000
 4716.00    1.82189   1.81723    0.000
 4717.00    1.87392   1.84163    0.000
 4718.00    1.91939   1.86800    0.000
 4719.00    1.92919   1.88619    0.000
 4720.00    1.93563   1.89326    0.000
 4721.00    1.92736   1.89367    0.000
 4722.00    1.91524   1.88788    0.000
 4723.00    1.88928   1.87358    0.000
 4724.00    1.85885   1.84937    0.000
 4725.00    1.81498   1.81752    0.000
 4726.00    1.78734   1.78627    0.000
 4727.00    1.80130   1.76086    0.000
 4728.00    1.81512   1.73930    0.000
 4729.00    1.82866   1.72306    0.000
 4730.00    1.81377   1.71877    0.000
 4731.00    1.74456   1.72425    0.000
 4732.00    1.72943   1.73492    0.000
 4733.00    1.80453   1.75171    0.000
 4734.00    1.84331   1.76757    0.000
 4735.00    1.82898   1.77887    0.000
 4736.00    1.83020   1.79465    0.000
 4737.00    1.85140   1.81287    0.000
 4738.00    1.88245   1.82150    0.000
 4739.00    1.92466   1.82692    0.000
 4740.00    1.95862   1.84015    0.000
 4741.00    1.98431   1.85419    0.000
 4742.00    1.96666   1.86096    0.000
 4743.00    1.91082   1.86580    0.000
 4744.00    1.89846   1.87639    0.000
 4745.00    1.91985   1.88778    0.000
 4746.00    1.94326   1.89101    0.000
 4747.00    1.96804   1.88964    0.000
 4748.00    1.96597   1.89004    0.000
 4749.00    1.94785   1.88609    0.000
 4750.00    1.91697   1.87388    0.000
 4751.00    1.87943   1.86080    0.000
 4752.00    1.86045   1.84917    0.000
 4753.00    1.84987   1.83720    0.000
 4754.00    1.86103   1.82642    0.000
 4755.00    1.88064   1.81910    0.000
 4756.00    1.90243   1.81201    0.000
 4757.00    1.92494   1.80523    0.000
 4758.00    1.91576   1.79942    0.000
 4759.00    1.89776   1.78875    0.000
 4760.00    1.90236   1.77162    0.000
 4761.00    1.91212   1.75576    0.098
 4762.00    1.86867   1.74293    0.097
 4763.00    1.81547   1.72795    0.096
 4764.00    1.78238   1.71687    0.096
 4765.00    1.75212   1.71825    0.096
 4766.00    1.73985   1.72683    0.094
 4767.00    1.72941   1.73916    0.093
 4768.00    1.76504   1.75854    0.095
 4769.00    1.80365   1.78104    0.097
 4770.00    1.83281   1.80126    0.097
 4771.00    1.86164   1.82264    0.096
 4772.00    1.87448   1.84638    0.095
 4773.00    1.88788   1.86366    0.095
 4774.00    1.91771   1.87357    0.096
 4775.00    1.94542   1.88475    0.097
 4776.00    1.94251   1.89450    0.097
 4777.00    1.94102   1.89213    0.098
 4778.00    1.95297   1.88164    0.097
 4779.00    1.95872   1.87325    0.097
 4780.00    1.92198   1.86026    0.095
 4781.00    1.88995   1.83812    0.093
 4782.00    1.88283   1.82084    0.093
 4783.00    1.86803   1.81114    0.093
 4784.00    1.82047   1.79739    0.093
 4785.00    1.78382   1.78663    0.093
 4786.00    1.78548   1.78970    0.093
 4787.00    1.80856   1.79652    0.094
 4788.00    1.89487   1.80330    0.095
 4789.00    1.94705   1.82033    0.096
 4790.00    1.91326   1.84315    0.097
 4791.00    1.89771   1.86328    0.098
 4792.00    1.92170   1.88460    0.098
 4793.00    1.92929   1.90404    0.097
 4794.00    1.90599   1.91402    0.095
 4795.00    1.89176   1.91796    0.095
 4796.00    1.89242   1.91886    0.096
 4797.00    1.90691   1.91433    0.097
 4798.00    1.94132   1.90639    0.097
 4799.00    1.96790   1.90083    0.097
 4800.00    1.98457   1.89803    0.098
 4801.00    1.97745   1.89517    0.098
 4802.00    1.94375   1.89012    0.099
 4803.00    1.92657   1.88400    0.099
 4804.00    1.92568   1.87980    0.098
 4805.00    1.93181   1.87386    0.097
 4806.00    1.94405   1.86456    0.097
 4807.00    1.94002   1.85925    0.098
 4808.00    1.92355   1.86143    0.100
 4809.00    1.92298   1.86472    0.100
 4810.00    1.93311   1.86955    0.099
 4811.00    1.92139   1.88027    0.099
 4812.00    1.89680   1.89378    0.099
 4813.00    1.91211   1.90636    0.099
 4814.00    1.94794   1.91940    0.100
 4815.00    1.96863   1.93194    0.100
 4816.00    1.98259   1.94162    0.099
 4817.00    1.97724   1.94730    0.099
 4818.00    1.96450   1.94650    0.100
 4819.00    1.96993   1.94057    0.100
 4820.00    1.98127   1.93184    0.100
 4821.00    1.99294   1.91752    0.100
 4822.00    2.00470   1.90041    0.100
 4823.00    1.99307   1.88855    0.101
 4824.00    1.97622   1.88031    0.102
 4825.00    1.94388   1.87052    0.102
 4826.00    1.90878   1.86235    0.102
 4827.00    1.89984   1.85893    0.102
 4828.00    1.89447   1.85878    0.101
 4829.00    1.88654   1.85666    0.101
 4830.00    1.87836   1.85134    0.101
 4831.00    1.89280   1.85096    0.100
 4832.00    1.90863   1.85679    0.099
 4833.00    1.90003   1.85825    0.100
 4834.00    1.89066   1.85485    0.101
 4835.00    1.85697   1.85579    0.100
 4836.00    1.82638   1.85730    0.100
 4837.00    1.87661   1.85113    0.101
 4838.00    1.92081   1.84197    0.102
 4839.00    1.88265   1.83922    0.101
 4840.00    1.84262   1.83942    0.100
 4841.00    1.78564   1.83649    0.099
 4842.00    1.74833   1.83710    0.097
 4843.00    1.84148   1.84464    0.098
 4844.00    1.91636   1.85187    0.099
 4845.00    1.89698   1.85543    0.099
 4846.00    1.88007   1.85651    0.099
 4847.00    1.87342   1.85647    0.099
 4848.00    1.87188   1.85610    0.000
 4849.00    1.88797   1.84908    0.000
 4850.00    1.90218   1.83308    0.000
 4851.00    1.91099   1.81847    0.000
 4852.00    1.89747   1.80327    0.000
 4853.00    1.82870   1.77577    0.000
 4854.00    1.77411   1.74471    0.000
 4855.00    1.74977   1.71768    0.000
 4856.00    1.73002   1.68484    0.000
 4857.00    1.71875   1.64978    0.000
 4858.00    1.70056   1.62272    0.000
 4859.00    1.67116   1.59991    0.000
 4860.00    1.66842   1.58568    0.000
 4861.00    1.70356   1.58700    0.000
 4862.00    1.70904   1.59381    0.000
 4863.00    1.67746   1.60483    0.000
 4864.00    1.66899   1.62856    0.000
 4865.00    1.68598   1.65135    0.000
 4866.00    1.70762   1.66015    0.000
 4867.00    1.73377   1.66857    0.000
 4868.00    1.73981   1.67760    0.000
 4869.00    1.72864   1.67378    0.000
 4870.00    1.73942   1.66805    0.000
 4871.00    1.76676   1.67686    0.000
 4872.00    1.80453   1.68892    0.000
 4873.00    1.84921   1.69760    0.000
 4874.00    1.87260   1.71945    0.000
 4875.00    1.88363   1.74961    0.096
 4876.00    1.88095   1.76924    0.096
 4877.00    1.87134   1.78658    0.095
 4878.00    1.87371   1.80625    0.095
 4879.00    1.88133   1.81118    0.096
 4880.00    1.87469   1.80355    0.097
 4881.00    1.86269   1.79831    0.098
 4882.00    1.87018   1.78678    0.098
 4883.00    1.88389   1.76304    0.098
 4884.00    1.83198   1.74215    0.096
 4885.00    1.76258   1.72694    0.094
 4886.00    1.74930   1.71027    0.094
 4887.00    1.74826   1.70119    0.095
 4888.00    1.75211   1.70392    0.095
 4889.00    1.75680   1.71302    0.095
 4890.00    1.79221   1.73525    0.095
 4891.00    1.83166   1.77149    0.095
 4892.00    1.87352   1.81011    0.096
 4893.00    1.91560   1.84964    0.097
 4894.00    1.94571   1.89050    0.097
 4895.00    1.97515   1.92266    0.097
 4896.00    1.99063   1.94465    0.098
 4897.00    2.00562   1.95665    0.099
 4898.00    2.00072   1.95499    0.099
 4899.00    1.99374   1.94931    0.099
 4900.00    1.93756   1.94496    0.097
 4901.00    1.88845   1.93468    0.095
 4902.00    1.93079   1.92290    0.096
 4903.00    1.97247   1.91862    0.097
 4904.00    2.00840   1.91430    0.097
 4905.00    2.03336   1.90335    0.097
 4906.00    1.98774   1.89319    0.096
 4907.00    1.94943   1.88575    0.096
 4908.00    1.94794   1.87509    0.097
 4909.00    1.95053   1.86385    0.097
 4910.00    1.96970   1.85845    0.097
 4911.00    1.97774   1.85449    0.098
 4912.00    1.94823   1.84699    0.098
 4913.00    1.91396   1.83776    0.098
 4914.00    1.86610   1.82392    0.098
 4915.00    1.83892   1.80043    0.097
 4916.00    1.86204   1.77071    0.098
 4917.00    1.86965   1.74127    0.098
 4918.00    1.84469   1.71336    0.097
 4919.00    1.82311   1.69124    0.096
 4920.00    1.80769   1.68425    0.096
 4921.00    1.79741   1.69391    0.096
 4922.00    1.79533   1.71279    0.096
 4923.00    1.79817   1.74224    0.096
 4924.00    1.80788   1.78464    0.096
 4925.00    1.83405   1.82557    0.097
 4926.00    1.88049   1.85965    0.096
 4927.00    1.92225   1.89301    0.096
 4928.00    1.95895   1.91612    0.097
 4929.00    1.97995   1.92426    0.097
 4930.00    1.98592   1.92692    0.097
 4931.00    1.97209   1.91908    0.096
 4932.00    1.94155   1.89721    0.095
 4933.00    1.91377   1.87525    0.095
 4934.00    1.88804   1.85519    0.097
 4935.00    1.86987   1.83314    0.097
 4936.00    1.85664   1.81808    0.095
 4937.00    1.85288   1.81356    0.096
 4938.00    1.85454   1.81884    0.099
 4939.00    1.88608   1.83481    0.100
 4940.00    1.93250   1.85494    0.000
 4941.00    1.96574   1.87930    0.000
 4942.00    1.99331   1.91148    0.000
 4943.00    2.02369   1.93967    0.000
 4944.00    2.05510   1.95842    0.000
 4945.00    2.05152   1.97779    0.000
 4946.00    2.03701   1.99557    0.000
 4947.00    2.06517   2.00206    0.000
 4948.00    2.10446   2.00196    0.000
 4949.00    2.05049   2.00002    0.000
 4950.00    1.97665   1.99046    0.000
 4951.00    2.01002   1.96975    0.000
 4952.00    2.06145   1.93964    0.000
 4953.00    1.99034   1.90901    0.000
 4954.00    1.90364   1.88151    0.000
 4955.00    1.87561   1.85063    0.000
 4956.00    1.85279   1.82477    0.000
 4957.00    1.88920   1.81747    0.000
 4958.00    1.92872   1.82057    0.000
 4959.00    1.95491   1.82267    0.000
 4960.00    1.98007   1.83053    0.000
 4961.00    1.94488   1.84554    0.000
 4962.00    1.91117   1.85384    0.000
 4963.00    1.90958   1.85192    0.000
 4964.00    1.90901   1.84961    0.000
 4965.00    1.92099   1.84927    0.000
 4966.00    1.93366   1.84671    0.000
 4967.00    1.95222   1.84588    0.000
 4968.00    1.96453   1.85238    0.000
 4969.00    1.93784   1.86345    0.000
 4970.00    1.91508   1.87484    0.000
 4971.00    1.91153   1.88605    0.000
 4972.00    1.91366   1.89499    0.000
 4973.00    1.93842   1.89664    0.000
 4974.00    1.96044   1.88958    0.000
 4975.00    1.97341   1.87593    0.000
 4976.00    1.97237   1.85398    0.000
 4977.00    1.93219   1.82194    0.000
 4978.00    1.88587   1.78870    0.000
 4979.00    1.82487   1.75912    0.000
 4980.00    1.78323   1.72781    0.000
 4981.00    1.78156   1.70274    0.000
 4982.00    1.78666   1.69405    0.000
 4983.00    1.80395   1.69360    0.000
 4984.00    1.80088   1.69879    0.000
 4985.00    1.76583   1.71630    0.000
 4986.00    1.75837   1.73950    0.000
 4987.00    1.78896   1.76106    0.000
 4988.00    1.83125   1.78143    0.000
 4989.00    1.88773   1.79814    0.000
 4990.00    1.90525   1.81155    0.000
 4991.00    1.88107   1.82111    0.000
 4992.00    1.86657   1.82317    0.000
 4993.00    1.86122   1.82277    0.000
 4994.00    1.86757   1.82084    0.000
 4995.00    1.88367   1.81051    0.000
 4996.00    1.88160   1.79621    0.000
 4997.00    1.86621   1.78084    0.000
 4998.00    1.81750   1.75914    0.000
 4999.00    1.74736   1.73640    0.000
 5000.00    1.74602   1.71573    0.000
 5001.00    1.78343   1.69328    0.000
 5002.00    1.83425   1.67595    0.000
 5003.00    1.89166   1.66615    0.000
 5004.00    1.90819   1.65653    0.000
 5005.00    1.90741   1.65148    0.000
 5006.00    1.91463   1.65441    0.000
 5007.00    1.92476   1.65539    0.000
 5008.00    1.93390   1.65253    0.000
 5009.00    1.94275   1.65060    0.000
 5010.00    1.89810   1.64575    0.000
 5011.00    1.83978   1.63602    0.000
 5012.00    1.79675   1.62602    0.000
 5013.00    1.75689   1.61838    0.000
 5014.00    1.74864   1.61477    0.000
 5015.00    1.74556   1.61545    0.000
 5016.00    1.69411   1.61844    0.000
 5017.00    1.63672   1.62579    0.000
 5018.00    1.66533   1.63827    0.000
 5019.00    1.70122   1.64988    0.000
 5020.00    1.76827   1.66018    0.000
 5021.00    1.83684   1.67424    0.000
 5022.00    1.81324   1.68842    0.000
 5023.00    1.78824   1.69975    0.000
 5024.00    1.76414   1.71423    0.000
 5025.00    1.74432   1.73103    0.000
 5026.00    1.81020   1.74562    0.000
 5027.00    1.86838   1.76281    0.000
 5028.00    1.83652   1.78238    0.000
 5029.00    1.81202   1.79739    0.096
 5030.00    1.84687   1.80846    0.096
 5031.00    1.87534   1.81535    0.096
 5032.00    1.86511   1.81367    0.097
 5033.00    1.85448   1.80126    0.098
 5034.00    1.84199   1.77955    0.099
 5035.00    1.83052   1.75404    0.098
 5036.00    1.82306   1.72529    0.097
 5037.00    1.81183   1.69563    0.095
 5038.00    1.78838   1.67517    0.097
 5039.00    1.76342   1.66452    0.097
 5040.00    1.73434   1.66322    0.094
 5041.00    1.71652   1.67753    0.093
 5042.00    1.72516   1.69995    0.094
 5043.00    1.74879   1.72201    0.094
 5044.00    1.80290   1.74754    0.095
 5045.00    1.84021   1.76939    0.095
 5046.00    1.84780   1.77841    0.097
 5047.00    1.85680   1.78149    0.097
 5048.00    1.86798   1.78381    0.097
 5049.00    1.85410   1.78333    0.097
 5050.00    1.80615   1.78336    0.098
 5051.00    1.81843   1.79016    0.098
 5052.00    1.90281   1.80411    0.099
 5053.00    1.94438   1.82184    0.098
 5054.00    1.94076   1.84142    0.098
 5055.00    1.92542   1.86209    0.097
 5056.00    1.89918   1.88141    0.097
 5057.00    1.89745   1.89532    0.096
 5058.00    1.91585   1.90260    0.095
 5059.00    1.93772   1.90325    0.096
 5060.00    1.96210   1.89577    0.097
 5061.00    1.95228   1.88244    0.097
 5062.00    1.92077   1.86442    0.096
 5063.00    1.88520   1.84062    0.095
 5064.00    1.84737   1.81867    0.094
 5065.00    1.85468   1.80290    0.094
 5066.00    1.88374   1.78684    0.096
 5067.00    1.87101   1.77380    0.096
 5068.00    1.84087   1.77117    0.097
 5069.00    1.84379   1.77137    0.096
 5070.00    1.85849   1.76731    0.096
 5071.00    1.83028   1.76497    0.095
 5072.00    1.78915   1.76598    0.094
 5073.00    1.80040   1.76065    0.094
 5074.00    1.82473   1.74694    0.095
 5075.00    1.81798   1.73389    0.094
 5076.00    1.80494   1.72147    0.093
 5077.00    1.80554   1.70264    0.093
 5078.00    1.80832   1.68357    0.093
 5079.00    1.75453   1.67466    0.092
 5080.00    1.69404   1.67202    0.091
 5081.00    1.70913   1.67195    0.090
 5082.00    1.73030   1.68150    0.090
 5083.00    1.74306   1.70087    0.090
 5084.00    1.75544   1.72221    0.090
 5085.00    1.77812   1.74426    0.089
 5086.00    1.80135   1.76809    0.088
 5087.00    1.84641   1.79085    0.089
 5088.00    1.88954   1.80996    0.090
 5089.00    1.89704   1.82417    0.091
 5090.00    1.90329   1.83332    0.091
 5091.00    1.89555   1.83749    0.091
 5092.00    1.89040   1.83487    0.090
 5093.00    1.90539   1.82476    0.092
 5094.00    1.90795   1.80955    0.093
 5095.00    1.83734   1.79256    0.093
 5096.00    1.77730   1.77493    0.092
 5097.00    1.76662   1.75751    0.092
 5098.00    1.75954   1.74501    0.092
 5099.00    1.76625   1.73899    0.092
 5100.00    1.77272   1.73525    0.092
 5101.00    1.77843   1.73347    0.092
 5102.00    1.77862   1.73326    0.091
 5103.00    1.76395   1.73168    0.091
 5104.00    1.75597   1.72921    0.092
 5105.00    1.76349   1.72439    0.093
 5106.00    1.77043   1.71940    0.094
 5107.00    1.77623   1.72001    0.094
 5108.00    1.78936   1.72213    0.094
 5109.00    1.81524   1.72717    0.094
 5110.00    1.83200   1.74200    0.094
 5111.00    1.83483   1.75892    0.094
 5112.00    1.84002   1.77569    0.094
 5113.00    1.84837   1.79685    0.095
 5114.00    1.86099   1.81418    0.097
 5115.00    1.87864   1.82445    0.099
 5116.00    1.90386   1.83042    0.100
 5117.00    1.93696   1.82774    0.099
 5118.00    1.93986   1.81515    0.099
 5119.00    1.91505   1.79545    0.100
 5120.00    1.88410   1.77110    0.099
 5121.00    1.84819   1.74385    0.097
 5122.00    1.80352   1.71517    0.096
 5123.00    1.75262   1.69132    0.096
 5124.00    1.70470   1.67466    0.096
 5125.00    1.65866   1.66223    0.095
 5126.00    1.65931   1.65793    0.095
 5127.00    1.68544   1.66306    0.095
 5128.00    1.69353   1.67152    0.095
 5129.00    1.69305   1.68325    0.096
 5130.00    1.73402   1.69981    0.096
 5131.00    1.79195   1.71443    0.097
 5132.00    1.79839   1.72421    0.096
 5133.00    1.78683   1.73359    0.094
 5134.00    1.79236   1.73712    0.093
 5135.00    1.80294   1.73166    0.092
 5136.00    1.76265   1.72691    0.093
 5137.00    1.70993   1.71831    0.093
 5138.00    1.72329   1.70325    0.093
 5139.00    1.74970   1.69530    0.093
 5140.00    1.76375   1.68728    0.093
 5141.00    1.77589   1.67419    0.094
 5142.00    1.77326   1.67018    0.093
 5143.00    1.76895   1.66760    0.093
 5144.00    1.73479   1.65969    0.093
 5145.00    1.69835   1.65769    0.093
 5146.00    1.68589   1.65727    0.092
 5147.00    1.67441   1.65453    0.091
 5148.00    1.69552   1.65569    0.091
 5149.00    1.71639   1.65843    0.090
 5150.00    1.71606   1.66324    0.090
 5151.00    1.71693   1.67303    0.090
 5152.00    1.73867   1.68505    0.090
 5153.00    1.76331   1.70074    0.090
 5154.00    1.81878   1.71913    0.091
 5155.00    1.86882   1.73599    0.091
 5156.00    1.87807   1.75142    0.092
 5157.00    1.88492   1.75954    0.093
 5158.00    1.87802   1.75651    0.092
 5159.00    1.86104   1.74493    0.092
 5160.00    1.79810   1.71828    0.090
 5161.00    1.73657   1.67602    0.090
 5162.00    1.68033   1.62649    0.090
 5163.00    1.62753   1.56773    0.090
 5164.00    1.58550   1.50308    0.090
 5165.00    1.54070   1.44320    0.089
 5166.00    1.48861   1.38981    0.090
 5167.00    1.44619   1.34503    0.090
 5168.00    1.42579   1.31519    0.089
 5169.00    1.40671   1.30202    0.089
 5170.00    1.39023   1.30247    0.089
 5171.00    1.39787   1.31597    0.090
 5172.00    1.44689   1.34387    0.091
 5173.00    1.50003   1.38052    0.091
 5174.00    1.55937   1.41726    0.091
 5175.00    1.60013   1.45184    0.091
 5176.00    1.61638   1.48097    0.091
 5177.00    1.62440   1.49707    0.091
 5178.00    1.62287   1.49806    0.091
 5179.00    1.59992   1.48941    0.091
 5180.00    1.55500   1.47695    0.090
 5181.00    1.51708   1.46283    0.090
 5182.00    1.48550   1.45381    0.090
 5183.00    1.48100   1.45962    0.090
 5184.00    1.49811   1.47668    0.091
 5185.00    1.53503   1.50233    0.091
 5186.00    1.58585   1.53657    0.091
 5187.00    1.62373   1.56874    0.092
 5188.00    1.65366   1.59723    0.093
 5189.00    1.69169   1.62249    0.093
 5190.00    1.73409   1.63560    0.000
 5191.00    1.76589   1.64458    0.000
 5192.00    1.79274   1.65766    0.000
 5193.00    1.77882   1.66617    0.000
 5194.00    1.74850   1.67519    0.000
 5195.00    1.77133   1.69262    0.000
 5196.00    1.81241   1.70794    0.000
 5197.00    1.84521   1.71731    0.000
 5198.00    1.87561   1.72515    0.000
 5199.00    1.84602   1.72549    0.000
 5200.00    1.80210   1.71279    0.000
 5201.00    1.79365   1.69224    0.000
 5202.00    1.79203   1.66821    0.000
 5203.00    1.78564   1.63769    0.000
 5204.00    1.77853   1.60704    0.000
 5205.00    1.73457   1.58794    0.000
 5206.00    1.68658   1.57628    0.000
 5207.00    1.71007   1.57331    0.000
 5208.00    1.73871   1.58781    0.000
 5209.00    1.72644   1.61158    0.000
 5210.00    1.71263   1.63919    0.000
 5211.00    1.74933   1.67294    0.091
 5212.00    1.78635   1.70629    0.091
 5213.00    1.82632   1.73489    0.093
 5214.00    1.86607   1.76001    0.094
 5215.00    1.90214   1.78060    0.093
 5216.00    1.93311   1.79540    0.092
 5217.00    1.91215   1.80540    0.091
 5218.00    1.89298   1.80945    0.091
 5219.00    1.88677   1.80561    0.092
 5220.00    1.87719   1.79519    0.093
 5221.00    1.84891   1.77865    0.092
 5222.00    1.82603   1.75519    0.091
 5223.00    1.82715   1.73108    0.091
 5224.00    1.81850   1.71252    0.091
 5225.00    1.77418   1.69653    0.091
 5226.00    1.75013   1.68950    0.091
 5227.00    1.78814   1.69723    0.092
 5228.00    1.81904   1.70771    0.092
 5229.00    1.83143   1.72387    0.093
 5230.00    1.84857   1.74920    0.093
 5231.00    1.87633   1.77005    0.092
 5232.00    1.90854   1.79126    0.091
 5233.00    1.94937   1.81650    0.092
 5234.00    1.96597   1.83716    0.093
 5235.00    1.94161   1.85789    0.093
 5236.00    1.93418   1.87948    0.093
 5237.00    1.95181   1.89703    0.092
 5238.00    1.97258   1.91129    0.092
 5239.00    1.99746   1.92104    0.093
 5240.00    1.99718   1.92568    0.094
 5241.00    1.96805   1.92459    0.093
 5242.00    1.95153   1.91584    0.093
 5243.00    1.94777   1.90273    0.094
 5244.00    1.93881   1.88724    0.094
 5245.00    1.92522   1.86595    0.093
 5246.00    1.93187   1.84411    0.093
 5247.00    1.95444   1.82805    0.094
 5248.00    1.92540   1.81251    0.095
 5249.00    1.86068   1.80168    0.095
 5250.00    1.83920   1.80103    0.095
 5251.00    1.84396   1.80405    0.095
 5252.00    1.85078   1.81271    0.095
 5253.00    1.85871   1.82626    0.095
 5254.00    1.89207   1.83867    0.095
 5255.00    1.93711   1.85029    0.096
 5256.00    1.96259   1.85517    0.096
 5257.00    1.98034   1.85000    0.096
 5258.00    1.93361   1.83480    0.095
 5259.00    1.86516   1.80610    0.093
 5260.00    1.83941   1.76796    0.093
 5261.00    1.82575   1.72199    0.093
 5262.00    1.80138   1.67018    0.095
 5263.00    1.77451   1.62385    0.097
 5264.00    1.73414   1.58232    0.096
 5265.00    1.69124   1.54547    0.095
 5266.00    1.66326   1.52648    0.094
 5267.00    1.63743   1.52095    0.093
 5268.00    1.63848   1.52178    0.094
 5269.00    1.64235   1.54076    0.096
 5270.00    1.71020   1.57326    0.096
 5271.00    1.78241   1.60643    0.096
 5272.00    1.79778   1.64900    0.096
 5273.00    1.81124   1.69719    0.096
 5274.00    1.84391   1.73724    0.095
 5275.00    1.87716   1.77612    0.094
 5276.00    1.92817   1.81108    0.093
 5277.00    1.97719   1.83414    0.093
 5278.00    1.99591   1.85289    0.093
 5279.00    2.00845   1.86640    0.093
 5280.00    1.96063   1.87439    0.092
 5281.00    1.91736   1.88497    0.092
 5282.00    1.90608   1.89708    0.092
 5283.00    1.90569   1.91182    0.091
 5284.00    1.96443   1.93265    0.091
 5285.00    2.01304   1.95509    0.091
 5286.00    2.01764   1.97690    0.092
 5287.00    2.02805   1.99700    0.092
 5288.00    2.05924   2.01088    0.092
 5289.00    2.08098   2.01659    0.093
 5290.00    2.07430   2.01378    0.093
 5291.00    2.06047   2.00190    0.093
 5292.00    2.02836   1.98230    0.091
 5293.00    2.00110   1.95683    0.091
 5294.00    1.98453   1.92860    0.092
 5295.00    1.97250   1.90321    0.093
 5296.00    1.96913   1.88177    0.093
 5297.00    1.96426   1.86733    0.093
 5298.00    1.95689   1.86568    0.094
 5299.00    1.95927   1.87320    0.094
 5300.00    1.97587   1.88881    0.093
 5301.00    2.01081   1.91434    0.093
 5302.00    2.06927   1.94289    0.094
 5303.00    2.08371   1.97125    0.094
 5304.00    2.04835   2.00021    0.093
 5305.00    2.05209   2.02490    0.094
 5306.00    2.09483   2.04311    0.095
 5307.00    2.12827   2.05765    0.096
 5308.00    2.15356   2.06667    0.096
 5309.00    2.14995   2.06885    0.096
 5310.00    2.12395   2.06809    0.097
 5311.00    2.11376   2.06373    0.097
 5312.00    2.11435   2.05442    0.096
 5313.00    2.09685   2.04439    0.096
 5314.00    2.06855   2.03306    0.094
 5315.00    2.03684   2.01891    0.094
 5316.00    2.00337   2.00500    0.095
 5317.00    1.98493   1.98909    0.094
 5318.00    1.97328   1.97053    0.092
 5319.00    2.00185   1.95047    0.092
 5320.00    2.04605   1.92465    0.093
 5321.00    2.00277   1.89575    0.093
 5322.00    1.93056   1.86616    0.091
 5323.00    1.90004   1.83239    0.090
 5324.00    1.88107   1.80019    0.089
 5325.00    1.84639   1.77581    0.090
 5326.00    1.80813   1.75722    0.090
 5327.00    1.78925   1.74920    0.089
 5328.00    1.77391   1.75561    0.088
 5329.00    1.80917   1.77132    0.089
 5330.00    1.85153   1.79683    0.091
 5331.00    1.87466   1.82929    0.090
 5332.00    1.89585   1.86005    0.089
 5333.00    1.91044   1.88781    0.089
 5334.00    1.92460   1.91095    0.088
 5335.00    1.95192   1.92485    0.088
 5336.00    1.97948   1.92893    0.088
 5337.00    1.94430   1.92910    0.088
 5338.00    1.91076   1.92516    0.088
 5339.00    1.92428   1.91681    0.088
 5340.00    1.93633   1.91281    0.088
 5341.00    1.92732   1.90973    0.088
 5342.00    1.91639   1.90659    0.089
 5343.00    1.88757   1.91094    0.087
 5344.00    1.86539   1.91465    0.086
 5345.00    1.88853   1.91865    0.086
 5346.00    1.91403   1.92936    0.086
 5347.00    1.95195   1.94069    0.087
 5348.00    1.98067   1.95516    0.087
 5349.00    1.97032   1.97489    0.088
 5350.00    1.96944   1.99737    0.088
 5351.00    2.00174   2.02264    0.089
 5352.00    2.04000   2.04774    0.090
 5353.00    2.09582   2.07196    0.090
 5354.00    2.12414   2.09227    0.090
 5355.00    2.08332   2.10622    0.091
 5356.00    2.07361   2.11537    0.091
 5357.00    2.13124   2.11555    0.092
 5358.00    2.15122   2.10777    0.092
 5359.00    2.10047   2.09638    0.091
 5360.00    2.06185   2.07714    0.091
 5361.00    2.04314   2.05311    0.090
 5362.00    2.02734   2.02926    0.090
 5363.00    2.01572   2.00070    0.090
 5364.00    1.99396   1.97180    0.090
 5365.00    1.95937   1.94674    0.090
 5366.00    1.95357   1.92122    0.090
 5367.00    1.97987   1.89997    0.091
 5368.00    1.98595   1.88741   -2.000
 5369.00    1.97216   1.88112   -2.000
 5370.00    1.96673   1.88237   -2.000
 5371.00    1.96857   1.89500   -2.000
 5372.00    1.99340   1.91400   -2.000
 5373.00    2.03580   1.93530   -2.000
 5374.00    2.08248   1.96139   -2.000
 5375.00    2.13205   1.98465   -2.000
 5376.00    2.12257   2.00152   -2.000
 5377.00    2.07837   2.01672   -2.000
 5378.00    2.05930   2.02538   -2.000
 5379.00    2.05312   2.02657   -2.000
 5380.00    2.04028   2.02693   -2.000
 5381.00    2.02448   2.02414   -2.000
 5382.00    2.00447   2.01679   -2.000
 5383.00    1.98285   2.01024    0.088
 5384.00    2.01958   2.00192    0.089
 5385.00    2.07523   1.98974    0.089
 5386.00    2.06157   1.97715    0.089
 5387.00    2.02908   1.96185    0.089
 5388.00    1.99784   1.94426    0.088
 5389.00    1.96687   1.92608    0.087
 5390.00    1.95195   1.90566    0.086
 5391.00    1.93988   1.88829    0.085
 5392.00    1.91114   1.87242    0.085
 5393.00    1.88013   1.85494    0.085
 5394.00    1.87080   1.84541    0.085
 5395.00    1.86357   1.83938    0.085
 5396.00    1.88399   1.83163    0.085
 5397.00    1.90608   1.82997    0.085
 5398.00    1.88439   1.82904    0.085
 5399.00    1.86163   1.82479    0.085
 5400.00    1.84910   1.82072    0.085
 5401.00    1.83781   1.81275    0.085
 5402.00    1.85829   1.80150    0.086
 5403.00    1.87762   1.79248    0.088
 5404.00    1.88142   1.78450    0.087
 5405.00    1.88239   1.77840    0.086
 5406.00    1.85798   1.78016    0.085
 5407.00    1.83920   1.79039    0.085
 5408.00    1.85765   1.80598    0.086
 5409.00    1.87628   1.82806    0.088
 5410.00    1.89584   1.85537    0.088
 5411.00    1.91450   1.88356    0.088
 5412.00    1.92941   1.91334    0.088
 5413.00    1.94435   1.94060    0.087
 5414.00    1.95938   1.96227    0.089
 5415.00    1.98116   1.98175    0.090
 5416.00    2.02243   1.99416    0.089
 5417.00    2.05035   1.99968    0.089
 5418.00    2.04533   2.00427    0.088
 5419.00    2.03488   2.00239    0.087
 5420.00    2.01289   1.99619    0.087
 5421.00    2.00565   1.99256    0.087
 5422.00    2.02569   1.98430    0.088
 5423.00    2.03390   1.97535    0.087
 5424.00    2.02298   1.96887    0.087
 5425.00    2.02005   1.95376    0.087
 5426.00    2.02846   1.94046    0.087
 5427.00    2.01618   1.93066    0.087
 5428.00    1.97811   1.91158    0.086
 5429.00    1.95903   1.89692    0.086
 5430.00    1.96081   1.88753    0.086
 5431.00    1.96226   1.87785    0.086
 5432.00    1.96339   1.87803    0.085
 5433.00    1.96709   1.88390    0.085
 5434.00    1.97299   1.89602    0.085
 5435.00    1.98097   1.91751    0.085
 5436.00    1.99053   1.94085    0.084
 5437.00    1.99153   1.96513    0.083
 5438.00    1.98688   1.98876    0.082
 5439.00    2.00414   2.00656    0.082
 5440.00    2.03409   2.01587    0.083
 5441.00    2.02944   2.01740    0.083
 5442.00    2.00732   2.00973    0.083
 5443.00    1.99474   1.99504    0.082
 5444.00    1.98635   1.98083    0.082
 5445.00    1.94864   1.96425    0.082
 5446.00    1.89995   1.94862    0.082
 5447.00    1.89100   1.93918    0.083
 5448.00    1.89470   1.93062    0.084
 5449.00    1.90571   1.92596    0.083
 5450.00    1.91866   1.92348    0.082
 5451.00    1.93337   1.91723    0.083
 5452.00    1.94847   1.91447    0.084
 5453.00    1.94546   1.91407    0.085
 5454.00    1.93933   1.91119    0.085
 5455.00    1.96077   1.91203    0.086
 5456.00    1.98582   1.91427    0.087
 5457.00    1.97927   1.91777    0.086
 5458.00    1.96979   1.92358    0.084
 5459.00    1.98300   1.92514    0.085
 5460.00    1.99748   1.92896    0.085
 5461.00    1.98639   1.93411    0.086
 5462.00    1.97466   1.93370    0.086
 5463.00    1.95531   1.93538    0.085
 5464.00    1.93670   1.93817    0.084
 5465.00    1.93536   1.93815    0.084
 5466.00    1.93395   1.93693    0.084
 5467.00    1.93150   1.93421    0.084
 5468.00    1.93015   1.93006    0.084
 5469.00    1.93835   1.92026    0.083
 5470.00    1.94487   1.90838    0.083
 5471.00    1.94056   1.89765    0.084
 5472.00    1.93800   1.88112    0.086
 5473.00    1.94423   1.86595    0.087
 5474.00    1.94535   1.85677    0.087
 5475.00    1.92577   1.84824    0.085
 5476.00    1.91235   1.84364    0.084
 5477.00    1.91967   1.84240    0.084
 5478.00    1.91958   1.84659   -2.000
 5479.00    1.89849   1.85655   -2.000
 5480.00    1.87719   1.86602   -2.000
 5481.00    1.85538   1.87838   -2.000
 5482.00    1.85942   1.89234   -2.000
 5483.00    1.91765   1.90309   -2.000
 5484.00    1.96846   1.91414   -2.000
 5485.00    2.00575   1.92419   -2.000
 5486.00    2.06079   1.92962   -2.000
 5487.00    2.14407   1.93547   -2.000
 5488.00    2.18851   1.94083   -2.000
 5489.00    2.17869   1.94179   -2.000
 5490.00    2.19044   1.94407   -2.000
 5491.00    2.22871   1.94726   -2.000
 5492.00    2.21191   1.94791   -2.000
 5493.00    2.13543   1.94779   -2.000
 5494.00    2.05521   1.94820   -2.000
 5495.00    1.97140   1.94945   -2.000
 5496.00    1.94563   1.94821   -2.000
 5497.00    1.96879   1.94407   -2.000
 5498.00    1.98396   1.94069   -2.000
 5499.00    1.99322   1.93653   -2.000
 5500.00    1.98806   1.93088   -2.000
 5501.00    1.97349   1.92460   -2.000
 5502.00    1.95377   1.91535    0.083
 5503.00    1.93112   1.90952    0.083
 5504.00    1.91907   1.90652    0.083
 5505.00    1.91228   1.89853    0.083
 5506.00    1.92371   1.89380    0.083
 5507.00    1.94298   1.89138    0.083
 5508.00    1.92455   1.88498    0.083
 5509.00    1.89224   1.88270    0.082
 5510.00    1.89688   1.88096    0.083
 5511.00    1.91307   1.87952    0.084
 5512.00    1.93231   1.88435    0.083
 5513.00    1.95236   1.89032    0.082
 5514.00    1.96330   1.90132    0.083
 5515.00    1.97231   1.91674    0.084
 5516.00    1.97847   1.93076    0.084
 5517.00    1.98416   1.94724    0.084
 5518.00    1.99772   1.96216    0.085
 5519.00    2.01229   1.97251    0.085
 5520.00    2.02955   1.97945    0.085
 5521.00    2.04704   1.97991    0.084
 5522.00    2.02422   1.97684    0.083
 5523.00    1.99929   1.97022    0.082
 5524.00    1.96200   1.95839    0.081
 5525.00    1.92455   1.94907    0.080
 5526.00    1.89146   1.94209    0.080
 5527.00    1.86001   1.93449    0.080
 5528.00    1.86409   1.93085    0.080
 5529.00    1.87120   1.93111    0.079
 5530.00    1.91543   1.93368    0.080
 5531.00    1.95524   1.93712    0.080
 5532.00    1.95831   1.94250    0.080
 5533.00    1.96157   1.94926    0.080
 5534.00    1.96597   1.95491    0.080
 5535.00    1.97082   1.96250    0.080
 5536.00    1.97781   1.96953    0.080
 5537.00    1.98527   1.97622    0.080
 5538.00    1.99459   1.98400    0.080
 5539.00    2.00044   1.98877    0.081
 5540.00    1.99484   1.99519    0.089
 5541.00    1.98173   2.00212    0.096
 5542.00    1.94763   2.00480    0.097
 5543.00    1.91934   2.00965    0.114
 5544.00    1.90492   2.01647    0.284
 5545.00    1.90680   2.02088   -1.000
 5546.00    1.94229   2.02613   -1.000
 5547.00    1.98280   2.03132   -1.000
 5548.00    2.03233   2.03467   -1.000
 5549.00    2.05449   2.03719   -1.000
 5550.00    2.03372   2.03626   -1.000
 5551.00    2.01394   2.03342    0.392
 5552.00    1.99553   2.03051    0.116
 5553.00    1.99732   2.02399    0.084
 5554.00    2.02359   2.01646    0.084
 5555.00    2.02257   2.01063    0.084
 5556.00    1.99238   2.00299    0.082
 5557.00    1.97751   1.99534    0.082
 5558.00    1.97708   1.98768    0.083
 5559.00    1.97577   1.97875    0.083
 5560.00    1.97375   1.97188    0.082
 5561.00    1.97499   1.96308    0.082
 5562.00    1.97863   1.95282    0.081
 5563.00    1.96873   1.94587    0.081
 5564.00    1.95014   1.93926    0.081
 5565.00    1.93342   1.93240    0.080
 5566.00    1.91775   1.92795    0.079
 5567.00    1.91780   1.92745    0.079
 5568.00    1.92552   1.92647    0.079
 5569.00    1.92831   1.92624    0.079
 5570.00    1.92901   1.93230    0.079
 5571.00    1.92798   1.93697    0.078
 5572.00    1.92633   1.94124    0.078
 5573.00    1.93105   1.94994    0.078
 5574.00    1.93772   1.95591    0.078
 5575.00    1.95080   1.96152    0.078
 5576.00    1.96551   1.96782    0.079
 5577.00    1.96995   1.96756    0.079
 5578.00    1.97227   1.96563    0.079
 5579.00    1.96719   1.96254    0.079
 5580.00    1.96090   1.95078    0.079
 5581.00    1.93890   1.93620    0.079
 5582.00    1.91499   1.91911    0.080
 5583.00    1.92472   1.89637    0.080
 5584.00    1.93726   1.87602    0.079
 5585.00    1.89991   1.85612    0.079
 5586.00    1.86014   1.83802    0.079
 5587.00    1.85416   1.82793    0.080
 5588.00    1.84881   1.82155    0.081
 5589.00    1.85123   1.82183    0.080
 5590.00    1.85377   1.82757    0.080
 5591.00    1.85887   1.83580    0.081
 5592.00    1.86583   1.84944    0.081
 5593.00    1.89440   1.86025    0.082
 5594.00    1.91868   1.86818    0.083
 5595.00    1.90846   1.87795    0.084
 5596.00    1.90211   1.88284    0.085
 5597.00    1.91919   1.88425    0.085
 5598.00    1.92962   1.88652    0.085
 5599.00    1.90836   1.88883    0.085
 5600.00    1.89052   1.89661    0.085
 5601.00    1.88595   1.90750    0.084
 5602.00    1.88998   1.91916    0.082
 5603.00    1.92185   1.93745    0.082
 5604.00    1.95463   1.95750    0.081
 5605.00    1.98988   1.97620    0.082
 5606.00    2.00785   1.99237    0.082
 5607.00    1.98527   2.00374    0.081
 5608.00    1.97367   2.01071    0.080
 5609.00    1.98437   2.01052    0.080
 5610.00    1.99172   2.00293    0.079
 5611.00    1.99317   1.98817    0.079
 5612.00    1.98500   1.97221    0.079
 5613.00    1.96197   1.95663    0.079
 5614.00    1.94137   1.93764    0.078
 5615.00    1.92407   1.92223    0.078
 5616.00    1.90734   1.91212    0.077
 5617.00    1.89129   1.90577    0.077
 5618.00    1.89198   1.90269    0.077
 5619.00    1.91031   1.89905    0.077
 5620.00    1.90781   1.89778    0.077
 5621.00    1.88597   1.90090    0.076
 5622.00    1.87908   1.90488    0.076
 5623.00    1.88442   1.90719    0.077
 5624.00    1.89718   1.91128    0.077
 5625.00    1.91528   1.92030    0.077
 5626.00    1.93580   1.93077    0.078
 5627.00    1.95785   1.94148    0.079
 5628.00    1.97402   1.95147    0.079
 5629.00    1.98694   1.95990    0.079
 5630.00    1.96954   1.96728    0.079
 5631.00    1.93756   1.97063    0.078
 5632.00    1.92738   1.96866    0.078
 5633.00    1.92625   1.96387    0.079
 5634.00    1.90653   1.95744    0.078
 5635.00    1.88021   1.94938    0.078
 5636.00    1.87443   1.94094    0.078
 5637.00    1.87482   1.93294    0.078
 5638.00    1.86544   1.92772    0.078
 5639.00    1.85364   1.92532    0.079
 5640.00    1.86812   1.92335    0.079
 5641.00    1.88792   1.92465    0.078
 5642.00    1.90502   1.92803    0.078
 5643.00    1.92170   1.93286    0.077
 5644.00    1.92391   1.93944    0.077
 5645.00    1.92441   1.94387    0.077
 5646.00    1.89822   1.94922    0.077
 5647.00    1.86991   1.95547    0.078
 5648.00    1.88369   1.95834    0.076
 5649.00    1.89935   1.95896    0.075
 5650.00    1.92477   1.95742    0.076
 5651.00    1.94905   1.95326    0.077
 5652.00    1.91156   1.94751    0.076
 5653.00    1.87478   1.93758    0.076
 5654.00    1.85115   1.92359    0.076
 5655.00    1.83234   1.91285    0.076
 5656.00    1.86681   1.90414    0.076
 5657.00    1.89533   1.89343    0.077
 5658.00    1.87778   1.88604    0.077
 5659.00    1.86664   1.88418    0.076
 5660.00    1.89308   1.88730    0.076
 5661.00    1.91576   1.89339    0.076
 5662.00    1.92089   1.89957    0.076
 5663.00    1.92356   1.90832    0.076
 5664.00    1.91686   1.92095    0.077
 5665.00    1.91718   1.93293    0.078
 5666.00    1.93973   1.94229    0.077
 5667.00    1.95484   1.95291    0.077
 5668.00    1.94991   1.96497    0.077
 5669.00    1.94751   1.97694    0.077
 5670.00    1.95093   1.98815    0.078
 5671.00    1.96191   1.99822    0.078
 5672.00    1.98799   2.00847    0.078
 5673.00    2.00269   2.01695    0.078
 5674.00    1.99761   2.02158    0.079
 5675.00    2.00029   2.02342    0.080
 5676.00    2.01476   2.02253    0.081
 5677.00    2.01771   2.01843    0.082
 5678.00    2.00526   2.01040    0.082
 5679.00    1.98077   2.00057    0.082
 5680.00    1.94210   1.99124    0.081
 5681.00    1.92841   1.98127    0.080
 5682.00    1.94067   1.97168    0.080
 5683.00    1.94094   1.96415    0.079
 5684.00    1.93024   1.96017    0.078
 5685.00    1.92563   1.95914    0.077
 5686.00    1.92594   1.96037    0.076
 5687.00    1.95005   1.96415    0.076
 5688.00    1.99109   1.97131    0.077
 5689.00    1.99790   1.98017    0.077
 5690.00    1.98338   1.98757    0.077
 5691.00    1.98007   1.99443    0.076
 5692.00    1.98287   1.99847    0.076
 5693.00    1.99405   1.99959    0.076
 5694.00    2.00921   1.99669    0.076
 5695.00    2.00639   1.98995    0.077
 5696.00    1.99623   1.98127    0.077
 5697.00    1.97203   1.96790    0.077
 5698.00    1.94294   1.95442    0.077
 5699.00    1.91683   1.94090    0.076
 5700.00    1.89160   1.92624    0.076
 5701.00    1.89611   1.91355    0.076
 5702.00    1.90786   1.89955    0.075
 5703.00    1.91028   1.88718    0.075
 5704.00    1.91087   1.87762    0.075
 5705.00    1.89108   1.86635    0.075
 5706.00    1.86816   1.85904    0.075
 5707.00    1.86966   1.85548    0.076
 5708.00    1.87393   1.85402    0.078
 5709.00    1.87473   1.86098    0.078
 5710.00    1.87528   1.87093    0.078
 5711.00    1.87246   1.88452    0.077
 5712.00    1.86951   1.90539    0.077
 5713.00    1.90105   1.92658    0.078
 5714.00    1.93251   1.94973    0.078
 5715.00    1.94972   1.97389    0.078
 5716.00    1.96747   1.99435    0.077
 5717.00    1.99447   2.01401    0.079
 5718.00    2.01993   2.03144    0.080
 5719.00    2.02899   2.04435    0.079
 5720.00    2.03953   2.05451    0.078
 5721.00    2.06112   2.06107    0.079
 5722.00    2.07884   2.06385    0.079
 5723.00    2.07450   2.06402    0.079
 5724.00    2.06968   2.06244    0.079
 5725.00    2.06262   2.05878    0.078
 5726.00    2.05648   2.05352    0.077
 5727.00    2.05373   2.04898    0.076
 5728.00    2.05064   2.04573    0.076
 5729.00    2.04653   2.04441    0.075
 5730.00    2.04220   2.04312    0.075
 5731.00    2.03728   2.04257    0.075
 5732.00    2.03142   2.04447    0.075
 5733.00    2.02343   2.04687    0.075
 5734.00    2.02296   2.04954    0.075
 5735.00    2.03728   2.05091    0.075
 5736.00    2.04758   2.05131    0.075
 5737.00    2.05100   2.05243    0.075
 5738.00    2.05177   2.05264    0.075
 5739.00    2.04856   2.05216    0.076
 5740.00    2.04793   2.05211    0.000
 5741.00    2.05069   2.05125    0.000
 5742.00    2.06326   2.04961    0.000
 5743.00    2.08721   2.04819    0.000
 5744.00    2.09032   2.04581    0.000
 5745.00    2.07208   2.04341    0.000
 5746.00    2.05811   2.03970    0.000
 5747.00    2.04800   2.03327    0.000
 5748.00    2.02864   2.02743    0.000
 5749.00    2.00192   2.02240    0.000
 5750.00    1.98444   2.01775    0.000
 5751.00    1.97343   2.01375    0.000
 5752.00    1.97172   2.01017    0.000
 5753.00    1.97573   2.00766    0.000
 5754.00    1.99013   2.00808    0.000
 5755.00    2.01009   2.00937    0.000
 5756.00    2.01918   2.00971    0.000
 5757.00    2.02319   2.01029    0.000
 5758.00    2.02206   2.01056    0.000
 5759.00    2.01886   2.01145    0.000
 5760.00    2.01062   2.01412    0.000
 5761.00    2.00064   2.01738    0.000
 5762.00    2.00542   2.02209    0.000
 5763.00    2.01445   2.03020    0.000
 5764.00    2.03111   2.03892    0.000
 5765.00    2.04960   2.04766    0.000
 5766.00    2.05942   2.05540    0.000
 5767.00    2.06756   2.06117    0.000
 5768.00    2.04874   2.06461    0.000
 5769.00    2.02591   2.06565    0.000
 5770.00    2.03925   2.06375    0.000
 5771.00    2.05653   2.05854    0.000
 5772.00    2.05353   2.05261    0.000
 5773.00    2.04908   2.04368    0.000
 5774.00    2.03351   2.03233    0.000
 5775.00    2.01753   2.01923    0.000
 5776.00    2.03152   2.00307    0.000
 5777.00    2.04441   1.98576    0.000
 5778.00    2.01315   1.96756    0.000
 5779.00    1.98154   1.94802    0.000
 5780.00    1.94438   1.93001    0.000
 5781.00    1.91101   1.91592    0.000
 5782.00    1.91612   1.90663    0.000
 5783.00    1.91981   1.90394    0.000
 5784.00    1.91325   1.90452    0.000
 5785.00    1.91180   1.91071    0.000
 5786.00    1.93881   1.92291    0.000
 5787.00    1.96591   1.93690    0.000
 5788.00    1.99349   1.95447    0.000
 5789.00    2.01573   1.97073    0.000
 5790.00    2.01851   1.98561    0.000
 5791.00    2.01734   2.00163   -2.000
 5792.00    2.00411   2.01440   -2.000
 5793.00    1.99768   2.02685   -2.000
 5794.00    2.00889   2.03817   -2.000
 5795.00    2.02878   2.04695   -2.000
 5796.00    2.06803   2.05533   -2.000
 5797.00    2.10119   2.06133   -2.000
 5798.00    2.12257   2.06712   -2.000
 5799.00    2.13164   2.07216   -2.000
 5800.00    2.11993   2.07468   -2.000
 5801.00    2.10469   2.07633   -2.000
 5802.00    2.08421   2.07554   -2.000
 5803.00    2.07290   2.07338   -2.000
 5804.00    2.07352   2.07158   -2.000
 5805.00    2.07850   2.06916   -2.000
 5806.00    2.08846   2.06745   -2.000
 5807.00    2.07836   2.06663   -2.000
 5808.00    2.04800   2.06535   -2.000
 5809.00    2.02796   2.06497   -2.000
 5810.00    2.01712   2.06467   -2.000
 5811.00    2.01349   2.06425    0.000
 5812.00    2.01552   2.06500    0.000
 5813.00    2.01639   2.06552    0.000
 5814.00    2.01644   2.06710    0.000
 5815.00    2.02665   2.06941    0.000
 5816.00    2.04302   2.07317    0.000
 5817.00    2.07391   2.07914    0.000
 5818.00    2.11247   2.08530    0.000
 5819.00    2.12588   2.09209    0.000
 5820.00    2.12777   2.09793    0.000
 5821.00    2.13646   2.10299    0.000
 5822.00    2.14783   2.10734    0.000
 5823.00    2.13753   2.11050    0.000
 5824.00    2.11995   2.11301    0.000
 5825.00    2.09876   2.11405    0.000
 5826.00    2.07657   2.11445    0.000
 5827.00    2.09239   2.11380    0.000
 5828.00    2.11706   2.11246    0.000
 5829.00    2.12152   2.11061    0.000
 5830.00    2.12221   2.10810    0.000
 5831.00    2.11739   2.10538    0.000
 5832.00    2.11177   2.10229    0.000
 5833.00    2.10562   2.09947    0.000
 5834.00    2.09941   2.09745    0.000
 5835.00    2.08449   2.09703    0.000
 5836.00    2.06899   2.09761    0.000
 5837.00    2.06805   2.09842    0.000
 5838.00    2.06759   2.09997    0.000
 5839.00    2.06573   2.10146    0.000
 5840.00    2.06384   2.10231    0.000
 5841.00    2.06087   2.10165    0.000
 5842.00    2.05955   2.09877    0.000
 5843.00    2.08306   2.09377    0.000
 5844.00    2.10383   2.08676    0.000
 5845.00    2.09795   2.07775    0.000
 5846.00    2.09045   2.06650    0.000
 5847.00    2.07170   2.05404    0.000
 5848.00    2.05662   2.04149    0.000
 5849.00    2.06133   2.02870    0.000
 5850.00    2.05909   2.01578    0.000
 5851.00    2.02669   2.00181    0.000
 5852.00    1.99947   1.98824    0.000
 5853.00    1.99073   1.97730    0.000
 5854.00    1.98261   1.96836    0.000
 5855.00    1.97635   1.96206    0.000
 5856.00    1.96520   1.95659    0.000
 5857.00    1.94161   1.95420    0.000
 5858.00    1.93112   1.95608    0.000
 5859.00    1.94941   1.96022    0.000
 5860.00    1.96031   1.96698    0.000
 5861.00    1.95712   1.97325    0.000
 5862.00    1.95332   1.98094    0.000
 5863.00    1.94852   1.98948    0.000
 5864.00    1.95272   1.99807    0.000
 5865.00    1.97004   2.00597    0.000
 5866.00    1.98383   2.01282    0.000
 5867.00    1.99313   2.01943    0.000
 5868.00    2.00102   2.02551    0.000
 5869.00    2.00734   2.03091    0.000
 5870.00    2.01005   2.03389    0.000
 5871.00    2.00917   2.03499    0.000
 5872.00    2.01197   2.03340    0.000
 5873.00    2.01800   2.03027    0.000
 5874.00    2.01729   2.02484    0.000
 5875.00    2.01137   2.01716    0.000
 5876.00    1.99507   2.00807    0.000
 5877.00    1.97170   1.99593    0.000
 5878.00    1.95405   1.98166    0.000
 5879.00    1.93982   1.96471    0.000
 5880.00    1.93053   1.94548    0.000
 5881.00    1.92380   1.92265    0.000
 5882.00    1.89951   1.89344    0.000
 5883.00    1.86730   1.85668    0.000
 5884.00    1.83082   1.81406    0.000
 5885.00    1.79268   1.77023    0.000
 5886.00    1.74283   1.72473    0.000
 5887.00    1.68911   1.67838    0.000
 5888.00    1.64910   1.63385    0.000
 5889.00    1.61288   1.59261    0.000
 5890.00    1.59896   1.56428    0.000
 5891.00    1.59011   1.55074    0.000
 5892.00    1.58067   1.54873    0.000
 5893.00    1.57113   1.55810    0.000
 5894.00    1.59900   1.57375    0.000
 5895.00    1.63210   1.59847    0.000
 5896.00    1.66414   1.63491    0.000
 5897.00    1.69607   1.67664    0.000
 5898.00    1.73493   1.72173    0.000
 5899.00    1.77424   1.76614    0.000
 5900.00    1.80940   1.80703    0.000
 5901.00    1.84438   1.84526    0.071
 5902.00    1.85898   1.87885    0.072
 5903.00    1.87378   1.90707    0.072
 5904.00    1.89404   1.92936    0.072
 5905.00    1.91505   1.94601    0.072
 5906.00    1.94664   1.95833    0.072
 5907.00    1.97672   1.96640    0.071
 5908.00    1.99272   1.97061    0.071
 5909.00    2.00615   1.97255    0.071
 5910.00    2.00208   1.97226    0.071
 5911.00    1.99626   1.97115    0.071
 5912.00    1.98122   1.96910    0.071
 5913.00    1.96710   1.96615    0.071
 5914.00    1.95688   1.96540    0.072
 5915.00    1.94891   1.96494    0.073
 5916.00    1.94880   1.96667    0.072
 5917.00    1.95038   1.97035    0.072
 5918.00    1.95695   1.97443    0.073
 5919.00    1.96338   1.97973    0.074
 5920.00    1.96951   1.98458    0.073
 5921.00    1.96928   1.98854    0.073
 5922.00    1.95531   1.99205    0.073
 5923.00    1.94504   1.99420    0.073
 5924.00    1.94168   1.99465    0.073
 5925.00    1.94100   1.99571    0.073
 5926.00    1.94471   1.99502    0.073
 5927.00    1.95117   1.99357    0.073
 5928.00    1.96156   1.99140    0.074
 5929.00    1.96947   1.98848    0.075
 5930.00    1.97424   1.98886    0.074
 5931.00    1.97322   1.98898    0.073
 5932.00    1.96575   1.98958    0.072
 5933.00    1.96455   1.99074    0.072
 5934.00    1.96948   1.99106    0.073
 5935.00    1.97447   1.99282    0.072
 5936.00    1.97951   1.99449    0.072
 5937.00    1.97851   1.99663    0.071
 5938.00    1.97290   1.99901    0.071
 5939.00    1.97246   2.00010    0.070
 5940.00    1.97549   2.00047    0.071
 5941.00    1.98408   2.00101    0.071
 5942.00    1.99592   2.00105    0.070
 5943.00    2.00363   2.00091    0.070
 5944.00    2.00922   2.00095    0.072
 5945.00    2.00588   2.00017    0.072
 5946.00    1.99857   1.99787    0.072
 5947.00    2.00146   1.99388    0.072
 5948.00    2.00824   1.99033    0.073
 5949.00    2.00433   1.98773    0.073
 5950.00    1.99697   1.98492    0.073
 5951.00    1.99118   1.98209    0.072
 5952.00    1.98581   1.97996    0.072
 5953.00    1.99150   1.98013    0.073
 5954.00    1.99965   1.98181    0.073
 5955.00    1.98996   1.98457    0.074
 5956.00    1.97711   1.98907    0.074
 5957.00    1.98801   1.99445    0.074
 5958.00    2.00211   2.00105    0.073
 5959.00    2.01300   2.00822    0.073
 5960.00    2.02358   2.01536    0.073
 5961.00    2.01763   2.02303    0.072
 5962.00    2.01070   2.02895    0.072
 5963.00    2.01800   2.03443    0.072
 5964.00    2.02559   2.03919    0.071
 5965.00    2.02144   2.04280    0.071
 5966.00    2.01707   2.04688    0.071
 5967.00    2.00725   2.04916    0.071
 5968.00    1.99705   2.05070    0.071
 5969.00    1.98184   2.05054    0.070
 5970.00    1.96777   2.04831    0.070
 5971.00    1.96376   2.04462    0.070
 5972.00    1.96150   2.03924    0.070
 5973.00    1.97066   2.03274    0.070
 5974.00    1.97704   2.02548    0.070
 5975.00    1.96908   2.01712    0.070
 5976.00    1.96327   2.00917    0.071
 5977.00    1.96637   2.00190    0.070
 5978.00    1.97016   1.99502    0.070
 5979.00    1.97626   1.99046    0.070
 5980.00    1.97900   1.98667    0.071
 5981.00    1.97203   1.98338    0.072
 5982.00    1.96702   1.98110    0.072
 5983.00    1.96683   1.97939    0.071
 5984.00    1.96562   1.98070    0.071
 5985.00    1.96224   1.98376    0.071
 5986.00    1.96295   1.98779    0.072
 5987.00    1.97121   1.99390    0.073
 5988.00    1.98077   1.99965    0.074
 5989.00    1.99241   2.00535    0.074
 5990.00    1.99787   2.00962    0.073
 5991.00    1.99459   2.01262    0.072
 5992.00    1.99276   2.01550    0.071
 5993.00    1.99274   2.01617    0.071
 5994.00    1.99108   2.01525    0.071
 5995.00    1.98763   2.01278    0.071
 5996.00    1.98838   2.00848    0.070
 5997.00    1.99320   2.00343    0.070
 5998.00    1.99546   1.99909    0.069
 5999.00    1.99554   1.99479    0.069
 6000.00    1.99600   1.99044    0.069
 6001.00    1.99674   1.98553    0.070
 6002.00    1.99058   1.97977    0.070
 6003.00    1.97986   1.97615    0.070
 6004.00    1.96515   1.97275    0.069
 6005.00    1.94814   1.96949    0.069
 6006.00    1.92989   1.96697    0.069
 6007.00    1.91102   1.96345    0.068
 6008.00    1.90733   1.96237    0.069
 6009.00    1.91025   1.96247    0.071
 6010.00    1.92297   1.96211    0.071
 6011.00    1.93935   1.96179    0.071
 6012.00    1.94692   1.95990    0.071
 6013.00    1.95169   1.95834    0.072
 6014.00    1.94790   1.95685    0.072
 6015.00    1.94184   1.95533    0.073
 6016.00    1.92922   1.95477    0.073
 6017.00    1.91517   1.95508    0.073
 6018.00    1.91100   1.95542    0.073
 6019.00    1.90853   1.95732    0.073
 6020.00    1.91527   1.96185    0.073
 6021.00    1.92320   1.96741    0.072
 6022.00    1.93083   1.97566    0.073
 6023.00    1.93844   1.98409    0.073
 6024.00    1.93514   1.99488    0.072
 6025.00    1.93123   2.00582    0.071
 6026.00    1.95355   2.01597    0.071
 6027.00    1.97636   2.02740    0.071
 6028.00    1.99183   2.03735    0.070
 6029.00    2.00603   2.04674    0.070
 6030.00    1.99078   2.05448    0.069
 6031.00    1.97759   2.06129    0.068
 6032.00    1.99062   2.06686    0.069
 6033.00    2.00476   2.07069    0.069
 6034.00    2.02854   2.07340    0.069
 6035.00    2.04695   2.07551    0.069
 6036.00    2.03107   2.07651    0.070
 6037.00    2.01584   2.07737    0.070
 6038.00    2.00389   2.07830    0.069
 6039.00    1.99555   2.07901    0.069
 6040.00    2.00179   2.08086    0.069
 6041.00    2.00937   2.08241    0.069
 6042.00    2.02141   2.08546    0.071
 6043.00    2.03492   2.08844    0.073
 6044.00    2.05260   2.09113    0.071
 6045.00    2.07220   2.09344    0.071
 6046.00    2.09649   2.09421    0.073
 6047.00    2.10769   2.09406    0.074
 6048.00    2.09155   2.09179    0.074
 6049.00    2.07747   2.08908    0.074
 6050.00    2.06714   2.08452    0.073
 6051.00    2.06195   2.07915    0.072
 6052.00    2.06491   2.07304    0.072
 6053.00    2.06057   2.06682    0.072
 6054.00    2.04604   2.06130    0.071
 6055.00    2.03488   2.05541    0.071
 6056.00    2.02785   2.05122    0.071
 6057.00    2.01618   2.04692    0.070
 6058.00    1.99951   2.04404    0.069
 6059.00    1.99090   2.04152    0.068
 6060.00    1.98999   2.03972    0.068
 6061.00    1.99725   2.03939    0.069
 6062.00    2.01137   2.03922    0.069
 6063.00    2.01608   2.04167    0.069
 6064.00    2.01382   2.04487    0.070
 6065.00    2.01408   2.05130    0.069
 6066.00    2.01599   2.06036    0.068
 6067.00    2.03115   2.06957    0.068
 6068.00    2.05386   2.07922    0.069
 6069.00    2.07965   2.08708    0.070
 6070.00    2.10698   2.09286    0.071
 6071.00    2.10951   2.09604    0.071
 6072.00    2.10141   2.09624    0.071
 6073.00    2.08415   2.09343    0.071
 6074.00    2.06351   2.08761    0.072
 6075.00    2.04682   2.07882    0.072
 6076.00    2.03135   2.06860    0.073
 6077.00    2.00817   2.05715    0.073
 6078.00    1.98300   2.04592    0.071
 6079.00    1.97200   2.03641    0.071
 6080.00    1.96401   2.02751    0.071
 6081.00    1.95674   2.02006    0.071
 6082.00    1.94960   2.01462    0.071
 6083.00    1.94961   2.01082    0.070
 6084.00    1.95053   2.00772    0.070
 6085.00    1.96076   2.00593    0.070
 6086.00    1.97180   2.00519    0.070
 6087.00    1.98001   2.00514    0.070
 6088.00    1.98806   2.00514    0.070
 6089.00    1.99761   2.00525    0.069
 6090.00    2.00706   2.00651    0.069
 6091.00    2.00830   2.00818    0.069
 6092.00    2.00913   2.01019    0.068
 6093.00    2.00135   2.01245    0.068
 6094.00    1.99449   2.01409    0.068
 6095.00    1.99888   2.01363    0.068
 6096.00    2.00244   2.01218    0.069
 6097.00    1.99910   2.00907    0.069
 6098.00    1.99471   2.00574    0.069
 6099.00    1.98383   2.00140    0.069
 6100.00    1.97277   1.99694    0.069
 6101.00    1.96085   1.99265    0.070
 6102.00    1.95292   1.98945    0.071
 6103.00    1.96075   1.99139    0.071
 6104.00    1.97019   1.99491    0.071
 6105.00    1.98491   2.00136    0.072
 6106.00    1.99916   2.00882    0.073
 6107.00    2.01212   2.01597    0.072
 6108.00    2.02320   2.02357    0.072
 6109.00    2.02976   2.03027    0.072
 6110.00    2.03002   2.03543    0.072
 6111.00    2.01729   2.03872    0.070
 6112.00    2.00440   2.03964    0.070
 6113.00    1.99120   2.03788    0.071
 6114.00    1.98092   2.03300    0.071
 6115.00    1.97523   2.02587    0.070
 6116.00    1.97279   2.01734    0.070
 6117.00    1.97480   2.00813    0.069
 6118.00    1.97384   1.99829    0.068
 6119.00    1.96927   1.98893    0.068
 6120.00    1.95875   1.98161    0.068
 6121.00    1.94188   1.97521    0.068
 6122.00    1.93557   1.97343    0.068
 6123.00    1.93920   1.97513    0.070
 6124.00    1.94701   1.97763    0.070
 6125.00    1.95829   1.98191    0.069
 6126.00    1.96935   1.98523    0.069
 6127.00    1.98024   1.98753    0.069
 6128.00    1.99795   1.98792    0.070
 6129.00    2.02003   1.98589    0.071
 6130.00    2.02122   1.98225    0.071
 6131.00    2.01069   1.97554    0.071
 6132.00    1.97512   1.96713    0.071
 6133.00    1.92733   1.95678    0.071
 6134.00    1.89433   1.94607    0.071
 6135.00    1.86756   1.93805    0.072
 6136.00    1.86851   1.93231    0.072
 6137.00    1.87946   1.93322    0.073
 6138.00    1.88657   1.93940    0.073
 6139.00    1.89251   1.94907    0.072
 6140.00    1.91513   1.96050    0.071
 6141.00    1.94198   1.97181    0.070
 6142.00    1.96808   1.98414    0.070
 6143.00    1.99402   1.99489    0.071
 6144.00    2.00591   2.00358    0.071
 6145.00    2.01553   2.00976    0.070
 6146.00    2.01291   2.01201    0.070
 6147.00    2.00880   2.01127    0.069
 6148.00    1.99299   2.00836    0.069
 6149.00    1.97620   2.00337    0.068
 6150.00    1.97186   1.99747    0.068
 6151.00    1.96812   1.98986    0.068
 6152.00    1.95950   1.98091    0.068
 6153.00    1.95060   1.96825    0.068
 6154.00    1.92895   1.95315    0.068
 6155.00    1.90744   1.93668    0.068
 6156.00    1.88851   1.91797    0.070
 6157.00    1.86966   1.89824    0.071
 6158.00    1.85156   1.87773    0.071
 6159.00    1.83322   1.85814    0.071
 6160.00    1.81302   1.83915    0.071
 6161.00    1.79749   1.82344    0.071
 6162.00    1.81003   1.81326    0.071
 6163.00    1.82073   1.80897    0.071
 6164.00    1.82263   1.81006    0.071
 6165.00    1.82450   1.81367    0.070
 6166.00    1.82624   1.82082    0.070
 6167.00    1.82896   1.82953    0.070
 6168.00    1.83481   1.83827    0.069
 6169.00    1.84232   1.84861    0.069
 6170.00    1.85431   1.86112    0.069
 6171.00    1.86890   1.87447    0.069
 6172.00    1.88954   1.88671    0.069
 6173.00    1.90426   1.89930    0.069
 6174.00    1.90699   1.91081    0.068
 6175.00    1.90696   1.92111    0.068
 6176.00    1.90205   1.93030    0.068
 6177.00    1.89371   1.93867    0.069
 6178.00    1.88007   1.94514    0.068
 6179.00    1.86193   1.94887    0.068
 6180.00    1.83767   1.95097    0.067
 6181.00    1.82381   1.95014    0.067
 6182.00    1.82235   1.94648    0.067
 6183.00    1.82838   1.93991    0.067
 6184.00    1.84230   1.93176    0.067
 6185.00    1.85402   1.92179    0.068
 6186.00    1.86369   1.91144    0.070
 6187.00    1.85812   1.90212    0.071
 6188.00    1.84008   1.89408    0.071
 6189.00    1.82048   1.88930    0.071
 6190.00    1.79975   1.88594    0.071
 6191.00    1.79047   1.88622    0.070
 6192.00    1.78843   1.89096    0.069
 6193.00    1.78881   1.89703    0.069
 6194.00    1.79053   1.90526    0.070
 6195.00    1.79430   1.91324    0.072
 6196.00    1.79906   1.92117   -2.000
 6197.00    1.83389   1.92833   -2.000
 6198.00    1.88118   1.93410   -2.000
 6199.00    1.95984   1.93949   -2.000
 6200.00    2.04961   1.94497   -2.000
 6201.00    2.09427   1.95044   -2.000
 6202.00    2.12544   1.95475   -2.000
 6203.00    2.09131   1.95732   -2.000
 6204.00    2.04097   1.95789   -2.000
 6205.00    1.98979   1.95607   -2.000
 6206.00    1.93845   1.95139   -2.000
 6207.00    1.92906   1.94388   -2.000
 6208.00    1.92629   1.93360    0.069
 6209.00    1.91904   1.92102    0.069
 6210.00    1.91127   1.90641    0.070
 6211.00    1.87709   1.89126    0.069
 6212.00    1.84081   1.87538    0.069
 6213.00    1.80747   1.86104    0.068
 6214.00    1.77426   1.84936    0.068
 6215.00    1.77581   1.84037    0.069
 6216.00    1.77801   1.83493    0.069
 6217.00    1.79366   1.83243    0.070
 6218.00    1.80860   1.83137    0.071
 6219.00    1.81042   1.83217    0.070
 6220.00    1.81332   1.83427    0.069
 6221.00    1.82812   1.83669    0.070
 6222.00    1.84167   1.83917    0.070
 6223.00    1.84555   1.83983    0.070
 6224.00    1.84682   1.84029    0.070
 6225.00    1.83290   1.83919    0.069
 6226.00    1.82227   1.83721    0.068
 6227.00    1.82691   1.83495    0.067
 6228.00    1.83056   1.83239    0.067
 6229.00    1.83044   1.83045    0.067
 6230.00    1.82788   1.82961    0.068
 6231.00    1.81757   1.83223    0.067
 6232.00    1.81078   1.83461    0.067
 6233.00    1.81342   1.83916    0.066
 6234.00    1.81515   1.84278    0.066
 6235.00    1.81475   1.84432    0.067
 6236.00    1.81163   1.84415    0.067
 6237.00    1.80306   1.84121    0.067
 6238.00    1.79798   1.83717    0.067
 6239.00    1.79898   1.83132    0.068
 6240.00    1.79823   1.82678    0.068
 6241.00    1.79484   1.82288    0.068
 6242.00    1.79106   1.81874    0.068
 6243.00    1.78676   1.81752    0.068
 6244.00    1.78951   1.81722    0.069
 6245.00    1.80053   1.81742    0.069
 6246.00    1.80565   1.81854    0.069
 6247.00    1.80463   1.81890    0.069
 6248.00    1.79898   1.81720    0.069
 6249.00    1.78909   1.81335    0.069
 6250.00    1.78560   1.80787    0.068
 6251.00    1.78726   1.79940    0.068
 6252.00    1.78431   1.79177    0.068
 6253.00    1.77808   1.78443    0.068
 6254.00    1.77157   1.77929    0.068
 6255.00    1.76490   1.77632    0.067
 6256.00    1.76454   1.77636    0.067
 6257.00    1.76760   1.78015    0.067
 6258.00    1.77690   1.78678    0.068
 6259.00    1.78914   1.79830    0.070
 6260.00    1.82316   1.80996    0.073
 6261.00    1.86606   1.82369    0.078
 6262.00    1.91057   1.83704    0.081
 6263.00    1.95565   1.84912    0.084
 6264.00    1.96494   1.85899    0.082
 6265.00    1.96373   1.86778    0.079
 6266.00    1.94228   1.87560    0.075
 6267.00    1.91593   1.88171    0.072
 6268.00    1.89395   1.88693    0.071
 6269.00    1.87283   1.89113    0.069
 6270.00    1.86296   1.89461    0.069
 6271.00    1.85481   1.89754    0.070
 6272.00    1.86167   1.90009    0.070
 6273.00    1.87021   1.90131    0.070
 6274.00    1.88356   1.90227    0.071
 6275.00    1.89727   1.90263    0.071
 6276.00    1.88722   1.90269    0.070
 6277.00    1.87623   1.90272    0.069
 6278.00    1.85973   1.90342    0.068
 6279.00    1.84372   1.90436    0.067
 6280.00    1.84908   1.90664    0.000
 6281.00    1.85575   1.91078    0.000
 6282.00    1.88465   1.91528    0.000
 6283.00    1.91364   1.92157    0.000
 6284.00    1.94368   1.92668    0.000
 6285.00    1.97042   1.93187    0.000
 6286.00    1.97256   1.93575    0.000
 6287.00    1.97213   1.93772    0.000
 6288.00    1.95709   1.93806    0.000
 6289.00    1.94142   1.93568    0.000
 6290.00    1.92295   1.93114    0.000
 6291.00    1.90538   1.92506    0.000
 6292.00    1.89118   1.91749    0.000
 6293.00    1.87975   1.90979    0.000
 6294.00    1.87692   1.90212    0.000
 6295.00    1.87826   1.89406    0.000
 6296.00    1.89059   1.88723    0.000
 6297.00    1.90056   1.88219    0.000
 6298.00    1.90518   1.87934    0.000
 6299.00    1.90629   1.87856    0.000
 6300.00    1.90049   1.87930    0.000
 6301.00    1.89308   1.88199    0.000
 6302.00    1.88292   1.88691    0.000
 6303.00    1.87647   1.89297    0.000
 6304.00    1.87558   1.89937    0.000
 6305.00    1.87593   1.90470    0.000
 6306.00    1.87788   1.90997    0.000
 6307.00    1.88461   1.91265    0.000
 6308.00    1.89687   1.91311    0.000
 6309.00    1.90529   1.91079    0.000
 6310.00    1.90979   1.90615    0.000
 6311.00    1.90797   1.90018    0.000
 6312.00    1.90043   1.89347    0.000
 6313.00    1.88472   1.88676    0.000
 6314.00    1.86252   1.88016    0.000
 6315.00    1.84290   1.87592    0.000
 6316.00    1.82507   1.87413    0.000
 6317.00    1.82348   1.87361    0.000
 6318.00    1.83183   1.87700    0.000
 6319.00    1.84709   1.88307    0.000
 6320.00    1.86605   1.89082    0.000
 6321.00    1.88005   1.90021    0.068
 6322.00    1.89175   1.90951    0.069
 6323.00    1.89010   1.91984    0.069
 6324.00    1.88311   1.92807    0.069
 6325.00    1.87859   1.93573    0.069
 6326.00    1.87491   1.94073    0.069
 6327.00    1.88141   1.94390    0.069
 6328.00    1.89083   1.94563    0.068
 6329.00    1.90380   1.94393    0.067
 6330.00    1.91762   1.94130    0.066
 6331.00    1.91970   1.93707    0.067
 6332.00    1.91955   1.93178    0.068
 6333.00    1.90608   1.92621    0.068
 6334.00    1.89064   1.91953    0.067
 6335.00    1.87397   1.91435    0.066
 6336.00    1.85717   1.91052    0.065
 6337.00    1.86765   1.90881    0.066
 6338.00    1.88008   1.90776    0.066
 6339.00    1.88771   1.90854    0.066
 6340.00    1.89516   1.91042    0.066
 6341.00    1.88224   1.91230    0.067
 6342.00    1.86947   1.91532    0.067
 6343.00    1.86497   1.91797    0.067
 6344.00    1.86221   1.92215    0.067
 6345.00    1.88702   1.92636    0.068
 6346.00    1.91181   1.92997    0.068
 6347.00    1.93647   1.93301    0.069
 6348.00    1.95761   1.93426    0.069
 6349.00    1.95334   1.93344    0.069
 6350.00    1.94801   1.93020    0.069
 6351.00    1.93680   1.92458    0.069
 6352.00    1.92551   1.91616    0.069
 6353.00    1.91384   1.90551    0.069
 6354.00    1.90041   1.89307    0.068
 6355.00    1.88054   1.88068    0.067
 6356.00    1.86065   1.86845    0.067
 6357.00    1.84072   1.85671    0.067
 6358.00    1.82611   1.84721    0.067
 6359.00    1.82528   1.84098    0.066
 6360.00    1.82565   1.83834    0.066
 6361.00    1.82871   1.83934    0.066
 6362.00    1.83191   1.84483    0.066
 6363.00    1.83538   1.85401    0.067
 6364.00    1.84387   1.86633    0.068
 6365.00    1.86081   1.88091    0.068
 6366.00    1.88122   1.89645    0.069
 6367.00    1.90676   1.91270    0.069
 6368.00    1.92888   1.92767    0.069
 6369.00    1.94657   1.94114    0.069
 6370.00    1.95358   1.95282    0.069
 6371.00    1.94837   1.96240    0.069
 6372.00    1.94308   1.96971    0.069
 6373.00    1.93772   1.97421    0.070
 6374.00    1.93128   1.97674    0.070
 6375.00    1.92388   1.97741    0.070
 6376.00    1.92222   1.97693    0.070
 6377.00    1.92504   1.97526    0.068
 6378.00    1.92546   1.97327    0.067
 6379.00    1.92421   1.97188    0.067
 6380.00    1.92560   1.97035    0.067
 6381.00    1.92858   1.96990    0.067
 6382.00    1.93273   1.96967    0.067
 6383.00    1.93750   1.96936    0.066
 6384.00    1.93553   1.96899    0.065
 6385.00    1.93048   1.96838    0.065
 6386.00    1.92123   1.96693    0.066
 6387.00    1.91031   1.96440    0.067
 6388.00    1.90653   1.96063    0.067
 6389.00    1.90515   1.95659    0.067
 6390.00    1.90225   1.95144    0.067
 6391.00    1.89891   1.94653    0.067
 6392.00    1.89292   1.94089    0.068
 6393.00    1.88631   1.93707    0.069
 6394.00    1.87815   1.93495    0.070
 6395.00    1.86970   1.93373    0.070
 6396.00    1.86305   1.93396    0.070
 6397.00    1.85665   1.93457    0.070
 6398.00    1.86569   1.93618    0.071
 6399.00    1.87634   1.93720    0.071
 6400.00    1.89995   1.94077    0.071
 6401.00    1.92444   1.94495    0.070
 6402.00    1.92533   1.94809    0.070
 6403.00    1.92545   1.95104    0.070
 6404.00    1.92746   1.95233    0.070
 6405.00    1.92902   1.95266    0.069
 6406.00    1.91671   1.95187    0.067
 6407.00    1.90502   1.94990    0.066
 6408.00    1.90260   1.94861    0.067
 6409.00    1.90134   1.94720    0.068
 6410.00    1.91130   1.94508    0.066
 6411.00    1.91842   1.94377    0.065
 6412.00    1.90572   1.94312    0.066
 6413.00    1.89395   1.94253    0.066
 6414.00    1.88718   1.94224    0.067
 6415.00    1.88429   1.94257    0.068
 6416.00    1.89815   1.94282    0.067
 6417.00    1.90955   1.94344    0.067
 6418.00    1.91219   1.94474    0.069
 6419.00    1.91401   1.94626    0.071
 6420.00    1.91337   1.94934    0.071
 6421.00    1.91500   1.95317    0.070
 6422.00    1.92238   1.95842    0.070
 6423.00    1.92832   1.96241    0.070
 6424.00    1.93108   1.96587    0.068
 6425.00    1.93528   1.96810    0.068
 6426.00    1.94223   1.96926    0.068
 6427.00    1.94663   1.96905    0.068
 6428.00    1.94681   1.96757    0.069
 6429.00    1.94069   1.96533    0.069
 6430.00    1.92542   1.96266    0.068
 6431.00    1.91610   1.96177    0.067
 6432.00    1.91440   1.96151    0.067
 6433.00    1.91515   1.96221    0.066
 6434.00    1.91866   1.96387    0.066
 6435.00    1.92854   1.96606    0.066
 6436.00    1.94475   1.96922    0.067
 6437.00    1.95553   1.97239    0.067
 6438.00    1.96156   1.97586    0.068
 6439.00    1.96213   1.98045    0.068
 6440.00    1.95847   1.98485    0.068
 6441.00    1.96862   1.98761    0.068
 6442.00    1.98815   1.98872    0.069
 6443.00    1.98212   1.98724    0.070
 6444.00    1.96088   1.98364    0.070
 6445.00    1.93333   1.97799    0.070
 6446.00    1.90249   1.97091    0.070
 6447.00    1.88627   1.96284    0.070
 6448.00    1.87662   1.95497    0.070
 6449.00    1.88017   1.94806    0.070
 6450.00    1.88883   1.94569    0.070
 6451.00    1.89623   1.94544    0.070
 6452.00    1.90321   1.94799    0.069
 6453.00    1.90622   1.95207    0.068
 6454.00    1.90813   1.95650    0.067
 6455.00    1.90906   1.96135    0.067
 6456.00    1.90976   1.96619    0.067
 6457.00    1.91322   1.97031    0.067
 6458.00    1.91719   1.97306    0.067
 6459.00    1.91128   1.97471    0.067
 6460.00    1.90399   1.97510    0.068
 6461.00    1.89925   1.97466    0.068
 6462.00    1.89477   1.97407    0.068
 6463.00    1.88791   1.97589    0.067
 6464.00    1.88091   1.97723    0.066
 6465.00    1.89282   1.97987    0.067
 6466.00    1.90529   1.98192    0.068
 6467.00    1.91938   1.98450    0.068
 6468.00    1.93365   1.98595    0.068
 6469.00    1.95263   1.98736    0.069
 6470.00    1.97136   1.98803    0.070
 6471.00    1.98662   1.98795    0.071
 6472.00    2.00104   1.98823    0.071
 6473.00    2.00779   1.98689    0.071
 6474.00    2.01187   1.98511    0.071
 6475.00    1.99787   1.98232    0.070
 6476.00    1.98330   1.97963    0.069
 6477.00    1.96576   1.97567    0.068
 6478.00    1.95040   1.97145    0.068
 6479.00    1.94428   1.96708    0.068
 6480.00    1.93876   1.96219    0.068
 6481.00    1.93532   1.95736    0.066
 6482.00    1.93332   1.95278    0.065
 6483.00    1.93554   1.94867    0.065
 6484.00    1.93715   1.94345    0.066
 6485.00    1.93723   1.93689    0.066
 6486.00    1.93582   1.92792    0.067
 6487.00    1.93121   1.91634    0.067
 6488.00    1.91974   1.90180    0.067
 6489.00    1.89541   1.88432    0.067
 6490.00    1.86836   1.86544    0.068
 6491.00    1.83682   1.84594    0.068
 6492.00    1.81406   1.82758    0.069
 6493.00    1.80387   1.81119    0.068
 6494.00    1.79381   1.79950    0.068
 6495.00    1.78389   1.79455    0.068
 6496.00    1.78202   1.79493    0.068
 6497.00    1.78906   1.80243    0.068
 6498.00    1.80806   1.81371    0.068
 6499.00    1.83878   1.82990    0.068
 6500.00    1.86370   1.84851    0.068
 6501.00    1.88361   1.86794    0.068
 6502.00    1.89454   1.88732    0.068
 6503.00    1.89862   1.90499    0.067
 6504.00    1.90870   1.92078    0.067
 6505.00    1.92279   1.93384    0.067
 6506.00    1.94683   1.94423    0.067
 6507.00    1.97668   1.95157    0.067
 6508.00    1.98625   1.95674    0.067
 6509.00    1.98545   1.95990    0.068
 6510.00    1.96714   1.96155    0.067
 6511.00    1.94107   1.96141    0.066
 6512.00    1.91750   1.96050    0.066
 6513.00    1.89488   1.95896    0.067
 6514.00    1.88501   1.95706    0.068
 6515.00    1.87924   1.95550    0.069
 6516.00    1.89657   1.95460    0.069
 6517.00    1.92013   1.95464    0.070
 6518.00    1.93799   1.95522    0.070
 6519.00    1.95459   1.95758    0.070
 6520.00    1.95715   1.95985    0.070
 6521.00    1.95723   1.96256    0.069
 6522.00    1.95814   1.96473    0.069
 6523.00    1.95916   1.96666    0.069
 6524.00    1.95631   1.96809    0.068
 6525.00    1.95310   1.96859    0.068
 6526.00    1.95253   1.96850    0.067
 6527.00    1.95212   1.96850    0.067
 6528.00    1.95990   1.96874    0.000
 6529.00    1.96794   1.96898    0.000
 6530.00    1.98537   1.96970    0.000
 6531.00    2.00235   1.97047    0.000
 6532.00    2.00794   1.97203    0.000
 6533.00    2.01204   1.97410    0.000
 6534.00    1.99617   1.97647    0.000
 6535.00    1.98169   1.97852    0.000
 6536.00    1.97968   1.97933    0.000
 6537.00    1.97975   1.97936    0.000
 6538.00    1.99351   1.97799    0.000
 6539.00    2.00664   1.97527    0.000
 6540.00    2.01661   1.97051    0.000
 6541.00    2.02346   1.96432    0.000
 6542.00    2.01738   1.95717    0.000
 6543.00    2.00976   1.94913    0.000
 6544.00    1.99685   1.94120    0.000
 6545.00    1.98558   1.93244    0.000
 6546.00    1.97900   1.92469    0.000
 6547.00    1.97568   1.91713    0.000
 6548.00    1.98033   1.90944    0.000
 6549.00    1.98564   1.90122    0.000
 6550.00    1.99235   1.89179    0.000
 6551.00    1.99040   1.88130    0.000
 6552.00    1.97252   1.86930    0.000
 6553.00    1.94850   1.85522    0.000
 6554.00    1.91459   1.83931    0.000
 6555.00    1.88083   1.82183    0.000
 6556.00    1.84728   1.80340    0.000
 6557.00    1.82389   1.78456    0.000
 6558.00    1.81311   1.76605    0.000
 6559.00    1.81241   1.74994    0.000
 6560.00    1.82273   1.73654    0.000
 6561.00    1.83654   1.72766    0.000
 6562.00    1.85371   1.72336    0.000
 6563.00    1.86355   1.72884    0.000
 6564.00    1.86713   1.73905    0.000
 6565.00    1.86968   1.75314    0.000
 6566.00    1.87146   1.76936    0.000
 6567.00    1.86992   1.78650    0.000
 6568.00    1.86619   1.80252    0.000
 6569.00    1.86586   1.81771    0.000
 6570.00    1.86749   1.83115    0.000
 6571.00    1.86181   1.84290    0.000
 6572.00    1.85244   1.85249    0.000
 6573.00    1.84623   1.86181    0.000
 6574.00    1.84141   1.86979    0.000
 6575.00    1.86774   1.87856    0.000
 6576.00    1.90570   1.88640    0.000
 6577.00    1.94528   1.89426    0.000
 6578.00    1.98537   1.90091    0.000
 6579.00    2.01509   1.90726    0.000
 6580.00    2.04208   1.91219    0.000
 6581.00    2.07316   1.91704    0.000
 6582.00    2.10513   1.92062    0.000
 6583.00    2.12650   1.92311    0.000
 6584.00    2.14605   1.92404    0.000
 6585.00    2.12329   1.92347    0.000
 6586.00    2.09503   1.92136    0.000
 6587.00    2.04658   1.91832    0.000
 6588.00    1.99628   1.91341    0.000
 6589.00    1.96268   1.90813    0.000
 6590.00    1.93001   1.90219    0.000
 6591.00    1.90824   1.89666    0.000
 6592.00    1.88685   1.89177    0.000
 6593.00    1.87931   1.88948    0.000
 6594.00    1.87249   1.88961    0.000
 6595.00    1.88214   1.89124    0.000
 6596.00    1.89206   1.89414    0.000
 6597.00    1.90532   1.89790    0.000
 6598.00    1.91832   1.90187    0.000
 6599.00    1.92906   1.90596    0.000
 6600.00    1.93850   1.90894    0.000
 6601.00    1.93962   1.91059    0.000
 6602.00    1.94071   1.91066    0.000
 6603.00    1.94167   1.90974    0.000
 6604.00    1.93806   1.90789    0.000
 6605.00    1.91595   1.90628    0.000
 6606.00    1.89492   1.90499    0.000
 6607.00    1.87751   1.90485    0.000
 6608.00    1.86629   1.90583    0.000
 6609.00    1.87260   1.90875    0.069
 6610.00    1.88262   1.91363    0.068
 6611.00    1.90159   1.91888    0.068
 6612.00    1.91495   1.92481    0.068
 6613.00    1.91659   1.93020    0.068
 6614.00    1.91783   1.93600    0.068
 6615.00    1.91834   1.94028    0.067
 6616.00    1.92556   1.94320    0.067
 6617.00    1.94344   1.94446    0.067
 6618.00    1.95400   1.94422    0.067
 6619.00    1.95436   1.94245    0.067
 6620.00    1.94933   1.93900    0.067
 6621.00    1.93771   1.93456    0.067
 6622.00    1.92227   1.92872    0.067
 6623.00    1.90270   1.92266    0.067
 6624.00    1.88620   1.91585    0.067
 6625.00    1.87264   1.91007    0.068
 6626.00    1.87362   1.90399    0.068
 6627.00    1.88681   1.89824    0.069
 6628.00    1.89474   1.89292    0.070
 6629.00    1.89878   1.88813    0.070
 6630.00    1.88819   1.88432    0.070
 6631.00    1.86811   1.88123    0.069
 6632.00    1.85122   1.87930    0.069
 6633.00    1.83615   1.87831    0.068
 6634.00    1.84177   1.87912    0.068
 6635.00    1.85764   1.88054    0.069
 6636.00    1.86956   1.88261    0.069
 6637.00    1.87978   1.88462    0.068
 6638.00    1.88180   1.88660    0.068
 6639.00    1.88081   1.88821    0.068
 6640.00    1.88656   1.88995    0.068
 6641.00    1.89442   1.89129    0.068
 6642.00    1.89386   1.89190    0.067
 6643.00    1.89113   1.89263    0.067
 6644.00    1.89041   1.89392    0.067
 6645.00    1.89010   1.89502    0.068
 6646.00    1.89166   1.89602    0.069
 6647.00    1.89352   1.89688    0.070
 6648.00    1.89451   1.89799    0.069
 6649.00    1.89540   1.89856    0.069
 6650.00    1.89501   1.89879    0.069
 6651.00    1.89450   1.89833    0.070
 6652.00    1.89214   1.89747    0.070
 6653.00    1.88969   1.89576    0.070
 6654.00    1.89834   1.89336    0.071
 6655.00    1.90714   1.89016    0.071
 6656.00    1.91289   1.88591    0.070
 6657.00    1.91729   1.88148    0.069
 6658.00    1.89316   1.87622    0.069
 6659.00    1.86931   1.87119    0.068
 6660.00    1.84872   1.86601    0.067
 6661.00    1.82986   1.86211    0.067
 6662.00    1.82520   1.85866    0.067
 6663.00    1.82226   1.85718    0.067
 6664.00    1.82994   1.85739    0.066
 6665.00    1.83764   1.85896    0.066
 6666.00    1.84539   1.86158    0.067
 6667.00    1.85214   1.86510    0.067
 6668.00    1.85497   1.86886    0.069
 6669.00    1.85679   1.87233    0.070
 6670.00    1.85532   1.87475    0.070
 6671.00    1.85201   1.87580    0.070
 6672.00    1.84359   1.87557    0.070
 6673.00    1.83774   1.87393    0.070
 6674.00    1.83801   1.87158    0.070
 6675.00    1.83566   1.86849    0.070
 6676.00    1.82795   1.86562    0.070
 6677.00    1.81935   1.86309    0.069
 6678.00    1.80919   1.86246    0.069
 6679.00    1.80336   1.86342    0.068
 6680.00    1.80432   1.86511    0.068
 6681.00    1.81269   1.86804    0.067
 6682.00    1.83122   1.87156    0.067
 6683.00    1.84947   1.87544    0.067
 6684.00    1.86737   1.87899    0.067
 6685.00    1.87824   1.88192    0.067
 6686.00    1.88163   1.88408    0.067
 6687.00    1.87261   1.88498    0.067
 6688.00    1.85194   1.88509    0.067
 6689.00    1.84236   1.88392    0.068
 6690.00    1.84197   1.88197    0.068
 6691.00    1.85071   1.87905    0.069
 6692.00    1.86610   1.87586    0.070
 6693.00    1.86262   1.87227    0.071
 6694.00    1.84707   1.86902    0.072
 6695.00    1.83405   1.86581    0.071
 6696.00    1.82246   1.86356    0.000
 6697.00    1.81549   1.86209    0.000
 6698.00    1.81077   1.86118    0.000
 6699.00    1.81164   1.86104    0.000
 6700.00    1.81487   1.86092    0.000
 6701.00    1.82166   1.86093    0.000
 6702.00    1.82975   1.86068    0.000
 6703.00    1.82689   1.86012    0.000
 6704.00    1.82071   1.85916    0.000
 6705.00    1.81485   1.85758    0.000
 6706.00    1.80908   1.85518    0.000
 6707.00    1.81147   1.85172    0.000
 6708.00    1.81554   1.84746    0.000
 6709.00    1.81804   1.84227    0.000
 6710.00    1.82028   1.83647    0.000
 6711.00    1.83144   1.83062    0.000
 6712.00    1.84368   1.82463    0.000
 6713.00    1.86369   1.81937    0.000
 6714.00    1.88434   1.81524    0.000
 6715.00    1.89649   1.81239    0.000
 6716.00    1.90824   1.81167    0.000
 6717.00    1.89885   1.81229    0.000
 6718.00    1.88900   1.81548    0.000
 6719.00    1.86946   1.81914    0.000
 6720.00    1.85084   1.82431    0.000
 6721.00    1.84995   1.82932    0.000
 6722.00    1.84924   1.83508    0.000
 6723.00    1.85074   1.84015    0.000
 6724.00    1.85359   1.84500    0.000
 6725.00    1.86712   1.84891    0.000
 6726.00    1.88012   1.85244    0.000
 6727.00    1.88987   1.85529    0.000
 6728.00    1.89637   1.85721    0.000
 6729.00    1.88743   1.85862    0.000
 6730.00    1.88320   1.85885    0.000
 6731.00    1.89722   1.85866    0.000
 6732.00    1.90552   1.85718    0.000
 6733.00    1.89539   1.85549    0.000
 6734.00    1.88495   1.85277    0.000
 6735.00    1.87371   1.84988    0.000
 6736.00    1.85772   1.84637    0.000
 6737.00    1.83065   1.84271    0.000
 6738.00    1.81303   1.83921    0.000
 6739.00    1.81454   1.83571    0.000
 6740.00    1.81344   1.83276    0.000
 6741.00    1.80776   1.82965    0.000
 6742.00    1.80079   1.82723    0.000
 6743.00    1.79185   1.82475    0.000
 6744.00    1.78389   1.82322    0.000
 6745.00    1.77727   1.82143    0.000
 6746.00    1.76768   1.82070    0.000
 6747.00    1.75454   1.82021    0.000
 6748.00    1.74227   1.82084    0.000
 6749.00    1.73090   1.82234    0.000
 6750.00    1.72597   1.82469    0.000
 6751.00    1.72702   1.82869    0.000
 6752.00    1.73282   1.83283    0.000
 6753.00    1.74249   1.83871    0.073
 6754.00    1.74929   1.84435    0.075
 6755.00    1.75403   1.85068    0.077
 6756.00    1.76545   1.85624    0.078
 6757.00    1.78107   1.86136    0.078
 6758.00    1.80569   1.86517    0.079
 6759.00    1.83528   1.86760    0.079
 6760.00    1.88840   1.86868    0.081
 6761.00    1.95281   1.86807    0.084
 6762.00    2.01581   1.86657    0.085
 6763.00    2.07822   1.86384    0.087
 6764.00    2.09161   1.86095    0.086
 6765.00    2.08766   1.85773    0.084
 6766.00    2.08374   1.85541    0.083
 6767.00    2.07984   1.85373    0.082
 6768.00    2.07449   1.85358    0.080
 6769.00    2.06880   1.85448    0.078
 6770.00    2.04688   1.85678    0.077
 6771.00    2.02172   1.85994    0.077
 6772.00    1.99599   1.86385    0.076
 6773.00    1.97018   1.86762    0.075
 6774.00    1.94727   1.87098    0.074
 6775.00    1.92470   1.87308    0.074
 6776.00    1.89217   1.87403    0.073
 6777.00    1.85886   1.87298    0.073
 6778.00    1.88775   1.87070    0.076
 6779.00    1.91934   1.86657    0.079
 6780.00    1.92585   1.86172    0.079
 6781.00    1.93110   1.85610    0.080
 6782.00    1.88989   1.85081    0.078
 6783.00    1.85143   1.84607    0.077
 6784.00    1.86280   1.84238    0.077
 6785.00    1.87299   1.84011    0.077
 6786.00    1.87019   1.83870    0.076
 6787.00    1.86814   1.83870    0.075
 6788.00    1.87191   1.83905    0.076
 6789.00    1.87811   1.84029    0.076
 6790.00    1.89853   1.84140    0.075
 6791.00    1.91061   1.84294    0.075
 6792.00    1.88414   1.84420    0.075
 6793.00    1.86812   1.84567    0.075
 6794.00    1.89165   1.84709    0.075
 6795.00    1.90930   1.84871    0.075
 6796.00    1.90841   1.85025    0.074
 6797.00    1.90603   1.85204    0.074
 6798.00    1.89971   1.85357    0.074
 6799.00    1.89099   1.85520    0.075
 6800.00    1.87677   1.85634    0.075
 6801.00    1.87527   1.85733    0.076
 6802.00    1.89906   1.85778    0.077
 6803.00    1.90891   1.85802    0.077
 6804.00    1.89461   1.85772    0.077
 6805.00    1.88170   1.85745    0.077
 6806.00    1.87091   1.85677    0.077
 6807.00    1.85702   1.85625    0.076
 6808.00    1.83899   1.85568    0.074
 6809.00    1.82959   1.85541    0.073
 6810.00    1.83032   1.85525    0.073
 6811.00    1.83388   1.85558    0.074
 6812.00    1.84039   1.85602    0.075
 6813.00    1.86120   1.85713    0.076
 6814.00    1.89507   1.85845    0.075
 6815.00    1.90596   1.86025    0.075
 6816.00    1.89835   1.86225    0.075
 6817.00    1.89449   1.86435    0.075
 6818.00    1.89328   1.86668    0.075
 6819.00    1.90147   1.86876    0.075
 6820.00    1.91549   1.87097    0.075
 6821.00    1.92112   1.87243    0.075
 6822.00    1.92219   1.87396    0.075
 6823.00    1.92218   1.87445    0.075
 6824.00    1.92166   1.87507    0.075
 6825.00    1.91264   1.87457    0.075
 6826.00    1.90016   1.87443    0.075
 6827.00    1.90142   1.87343    0.076
 6828.00    1.90745   1.87277    0.077
 6829.00    1.91374   1.87131    0.077
 6830.00    1.92011   1.86983    0.076
 6831.00    1.92198   1.86759    0.076
 6832.00    1.92277   1.86487    0.076
 6833.00    1.91770   1.86132    0.075
 6834.00    1.91147   1.85691    0.074
 6835.00    1.89556   1.85206    0.074
 6836.00    1.87817   1.84660    0.074
 6837.00    1.86608   1.84150    0.075
 6838.00    1.85458   1.83668    0.077
 6839.00    1.85524   1.83312    0.078
 6840.00    1.85680   1.83086    0.079
 6841.00    1.83761   1.83028    0.078
 6842.00    1.81760   1.83119    0.077
 6843.00    1.80965   1.83329    0.076
 6844.00    1.80237   1.83628    0.075
 6845.00    1.81853   1.83949    0.075
 6846.00    1.83416   1.84250    0.075
 6847.00    1.84104   1.84465    0.075
 6848.00    1.84907   1.84576    0.075
 6849.00    1.86912   1.84548    0.074
 6850.00    1.88572   1.84393    0.073
 6851.00    1.87670   1.84115    0.074
 6852.00    1.86665   1.83746    0.074
 6853.00    1.85071   1.83339    0.074
 6854.00    1.83700   1.82935    0.073
 6855.00    1.83329   1.82554    0.073
 6856.00    1.82740   1.82242    0.073
 6857.00    1.81348   1.82007    0.073
 6858.00    1.79828   1.81856    0.073
 6859.00    1.77915   1.81798    0.074
 6860.00    1.76905   1.81806    0.074
 6861.00    1.78268   1.81876    0.075
 6862.00    1.79646   1.81940    0.075
 6863.00    1.81054   1.82034    0.075
 6864.00    1.82250   1.82081    0.075
 6865.00    1.83029   1.82149    0.075
 6866.00    1.83570   1.82162    0.075
 6867.00    1.83707   1.82215    0.076
 6868.00    1.83669   1.82223    0.077
 6869.00    1.83371   1.82299    0.077
 6870.00    1.83205   1.82359    0.076
 6871.00    1.83211   1.82507    0.073
 6872.00    1.83597   1.82643    0.072
 6873.00    1.84424   1.82854    0.072
 6874.00    1.84752   1.83039    0.072
 6875.00    1.84571   1.83267    0.072
 6876.00    1.84033   1.83451    0.072
 6877.00    1.83176   1.83653    0.072
 6878.00    1.82023   1.83823    0.072
 6879.00    1.80635   1.84019    0.072
 6880.00    1.78294   1.84225    0.072
 6881.00    1.75288   1.84469    0.073
 6882.00    1.76575   1.84773    0.073
 6883.00    1.80489   1.85129    0.075
 6884.00    1.83173   1.85554    0.075
 6885.00    1.85200   1.86011    0.075
 6886.00    1.85417   1.86507    0.075
 6887.00    1.84795   1.86988    0.074
 6888.00    1.84432   1.87441    0.074
 6889.00    1.84172   1.87846    0.074
 6890.00    1.85929   1.88166    0.074
 6891.00    1.88373   1.88435    0.075
 6892.00    1.87489   1.88601    0.074
 6893.00    1.85650   1.88748    0.074
 6894.00    1.83969   1.88808    0.073
 6895.00    1.82326   1.88899    0.073
 6896.00    1.82376   1.88932    0.073
 6897.00    1.82750   1.89033    0.073
 6898.00    1.83810   1.89101    0.074
 6899.00    1.84971   1.89238    0.075
 6900.00    1.84361   1.89359    0.075
 6901.00    1.83561   1.89511    0.076
 6902.00    1.85916   1.89648    0.076
 6903.00    1.88494   1.89759    0.077
 6904.00    1.87076   1.89848    0.076
 6905.00    1.85514   1.89853    0.076
 6906.00    1.84767   1.89831    0.075
 6907.00    1.84072   1.89695    0.075
 6908.00    1.85095   1.89538    0.075
 6909.00    1.85996   1.89287    0.076
 6910.00    1.84966   1.89032    0.075
 6911.00    1.83851   1.88748    0.074
 6912.00    1.81887   1.88481    0.074
 6913.00    1.80146   1.88260    0.073
 6914.00    1.80004   1.88061    0.073
 6915.00    1.80053   1.87948    0.073
 6916.00    1.81151   1.87833    0.073
 6917.00    1.82112   1.87793    0.073
 6918.00    1.82469   1.87714    0.074
 6919.00    1.82716   1.87666    0.074
 6920.00    1.82566   1.87563    0.075
 6921.00    1.81877   1.87458    0.075
 6922.00    1.79548   1.87317    0.074
 6923.00    1.78149   1.87182    0.074
 6924.00    1.79155   1.87053    0.076
 6925.00    1.80055   1.86957    0.077
 6926.00    1.80717   1.86900    0.076
 6927.00    1.80791   1.86901    0.075
 6928.00    1.79733   1.86947    0.075
 6929.00    1.79338   1.87047    0.075
 6930.00    1.80058   1.87183    0.075
 6931.00    1.80755   1.87348    0.075
 6932.00    1.81418   1.87533    0.075
 6933.00    1.81577   1.87710    0.075
 6934.00    1.81082   1.87891    0.075
 6935.00    1.80364   1.88022    0.075
 6936.00    1.79394   1.88136    0.075
 6937.00    1.80706   1.88169    0.075
 6938.00    1.84317   1.88166    0.075
 6939.00    1.86067   1.88077    0.076
 6940.00    1.86165   1.87956    0.076
 6941.00    1.85257   1.87775    0.076
 6942.00    1.83564   1.87586    0.077
 6943.00    1.82163   1.87384    0.077
 6944.00    1.80962   1.87207    0.076
 6945.00    1.82464   1.87052    0.077
 6946.00    1.85595   1.86946    0.078
 6947.00    1.85927   1.86875    0.078
 6948.00    1.84786   1.86864    0.077
 6949.00    1.84621   1.86887    0.077
 6950.00    1.84902   1.86979    0.076
 6951.00    1.83678   1.87102    0.076
 6952.00    1.81864   1.87311    0.075
 6953.00    1.81545   1.87541    0.075
 6954.00    1.81725   1.87867    0.074
 6955.00    1.81499   1.88194    0.074
 6956.00    1.81158   1.88607    0.074
 6957.00    1.81511   1.88988    0.075
 6958.00    1.82025   1.89424    0.075
 6959.00    1.82733   1.89797    0.076
 6960.00    1.83477   1.90186    0.077
 6961.00    1.82248   1.90494    0.077
 6962.00    1.80737   1.90781    0.077
 6963.00    1.81419   1.90983    0.077
 6964.00    1.82328   1.91129    0.078
 6965.00    1.82959   1.91182    0.078
 6966.00    1.83572   1.91145    0.079
 6967.00    1.82563   1.90996    0.079
 6968.00    1.81503   1.90732    0.079
 6969.00    1.81988   1.90339    0.078
 6970.00    1.82448   1.89836    0.077
 6971.00    1.82127   1.89220    0.076
 6972.00    1.81860   1.88553    0.076
 6973.00    1.82414   1.87846    0.075
 6974.00    1.82639   1.87202    0.075
 6975.00    1.79694   1.86639    0.075
 6976.00    1.77074   1.86256    0.076
 6977.00    1.76714   1.86062    0.075
 6978.00    1.76881   1.86109    0.074
 6979.00    1.79873   1.86371    0.075
 6980.00    1.81900   1.86832    0.077
 6981.00    1.79766   1.87436    0.077
 6982.00    1.78517   1.88122    0.077
 6983.00    1.80410   1.88825    0.078
 6984.00    1.81346   1.89490    0.079
 6985.00    1.79424   1.90070    0.078
 6986.00    1.78115   1.90546    0.077
 6987.00    1.78361   1.90900    0.078
 6988.00    1.78978   1.91146    0.078
 6989.00    1.80405   1.91282    0.078
 6990.00    1.82212   1.91331    0.078
 6991.00    1.84740   1.91294    0.079
 6992.00    1.85816   1.91190    0.079
 6993.00    1.84488   1.91017    0.078
 6994.00    1.83430   1.90789    0.077
 6995.00    1.82766   1.90508    0.076
 6996.00    1.82677   1.90198    0.076
 6997.00    1.83322   1.89855    0.076
 6998.00    1.82792   1.89525    0.077
 6999.00    1.80941   1.89191    0.077
 7000.00    1.79603   1.88916    0.078
 7001.00    1.78776   1.88655    0.079
 7002.00    1.77425   1.88480    0.079
 7003.00    1.75614   1.88319    0.079
 7004.00    1.75961   1.88235    0.079
 7005.00    1.77971   1.88152    0.079
 7006.00    1.80076   1.88103    0.080
 7007.00    1.82245   1.88030    0.081
 7008.00    1.80478   1.87945    0.080
 7009.00    1.76374   1.87832    0.079
 7010.00    1.76172   1.87680    0.079
 7011.00    1.77990   1.87523    0.079
 7012.00    1.78421   1.87341    0.079
 7013.00    1.78229   1.87205    0.078
 7014.00    1.76251   1.87075    0.078
 7015.00    1.73583   1.87037    0.078
 7016.00    1.74064   1.87018    0.078
 7017.00    1.75578   1.87107    0.077
 7018.00    1.77006   1.87197    0.078
 7019.00    1.78410   1.87381    0.078
 7020.00    1.77457   1.87530    0.080
 7021.00    1.75971   1.87756    0.081
 7022.00    1.77426   1.87933    0.081
 7023.00    1.79413   1.88190    0.080
 7024.00    1.76765   1.88397    0.081
 7025.00    1.73475   1.88682    0.081
 7026.00    1.75791   1.88925    0.082
 7027.00    1.78664   1.89244    0.082
 7028.00    1.79169   1.89512    0.082
 7029.00    1.79527   1.89836    0.082
 7030.00    1.78591   1.90108    0.081
 7031.00    1.77618   1.90422    0.081
 7032.00    1.76449   1.90695    0.083
 7033.00    1.75305   1.91015    0.085
 7034.00    1.74829   1.91335    0.091
 7035.00    1.74522   1.91733    0.097
 7036.00    1.76588   1.92162    0.095
 7037.00    1.78745   1.92685    0.092
 7038.00    1.81745   1.93233    0.086
 7039.00    1.84302   1.93853    0.082
 7040.00    1.83877   1.94431    0.082
 7041.00    1.83450   1.95009    0.082
 7042.00    1.83015   1.95449    0.084
 7043.00    1.82641   1.95803    0.085
 7044.00    1.82524   1.95922    0.085
 7045.00    1.83172   1.95865    0.084
 7046.00    1.86476   1.95519    0.085
 7047.00    1.88046   1.94952    0.085
 7048.00    1.84543   1.94112    0.084
 7049.00    1.81790   1.93083    0.083
 7050.00    1.80912   1.91861   -2.000
 7051.00    1.81110   1.90542   -2.000
 7052.00    1.83622   1.89133   -2.000
 7053.00    1.84806   1.87755   -2.000
 7054.00    1.83505   1.86389   -2.000
 7055.00    1.83208   1.85162   -2.000
 7056.00    1.84546   1.84007   -2.000
 7057.00    1.85728   1.83049   -2.000
 7058.00    1.86687   1.82184   -2.000
 7059.00    1.88133   1.81508   -2.000
 7060.00    1.90193   1.80915   -2.000
 7061.00    1.89731   1.80477   -2.000
 7062.00    1.86474   1.80115   -2.000
 7063.00    1.87015   1.79892   -2.000
 7064.00    1.91271   1.79764   -2.000
 7065.00    1.91554   1.79779   -2.000
 7066.00    1.88412   1.79895   -2.000
 7067.00    1.86035   1.80141   -2.000
 7068.00    1.84240   1.80491   -2.000
 7069.00    1.84517   1.80929   -2.000
 7070.00    1.86177   1.81419   -2.000
 7071.00    1.88885   1.81948   -2.000
 7072.00    1.92206   1.82440   -2.000
 7073.00    1.97533   1.82895   -2.000
 7074.00    2.03883   1.83201   -2.000
 7075.00    2.02340   1.83371   -2.000
 7076.00    1.97312   1.83315   -2.000
 7077.00    1.96248   1.83085   -2.000
 7078.00    1.96687   1.82597   -2.000
 7079.00    1.98955   1.81930   -2.000
 7080.00    2.01811   1.81041   -2.000
 7081.00    1.98368   1.80029   -2.000
 7082.00    1.93227   1.78876   -2.000
 7083.00    1.91598   1.77704   -2.000
 7084.00    1.90744   1.76498   -2.000
 7085.00    1.86058   1.75391   -2.000
 7086.00    1.80697   1.74338   -2.000
 7087.00    1.81643   1.73488   -2.000
 7088.00    1.83433   1.72747   -2.000
 7089.00    1.82251   1.72256   -2.000
 7090.00    1.80786   1.71881   -2.000
 7091.00    1.78162   1.71721   -2.000
 7092.00    1.75469   1.71676   -2.000
 7093.00    1.74445   1.71790   -2.000
 7094.00    1.73492   1.72002   -2.000
 7095.00    1.76445   1.72274   -2.000
 7096.00    1.79038   1.72638   -2.000
 7097.00    1.72669   1.72941   -2.000
 7098.00    1.66743   1.73342   -2.000
 7099.00    1.66712   1.73583   -2.000
 7100.00    1.66569   1.73913   -2.000
 7101.00    1.65441   1.74046   -2.000
 7102.00    1.64521   1.74239   -2.000
 7103.00    1.64961   1.74251   -2.000
 7104.00    1.65174   1.74304   -2.000
 7105.00    1.64235   1.74231   -2.000
 7106.00    1.63386   1.74206   -2.000
 7107.00    1.62910   1.74114   -2.000
 7108.00    1.62724   1.74073   -2.000
 7109.00    1.63528   1.74021   -2.000
 7110.00    1.64071   1.74020   -2.000
 7111.00    1.63866   1.74041   -2.000
 7112.00    1.63968   1.74091   -2.000
 7113.00    1.64823   1.74153   -2.000
 7114.00    1.65567   1.74207   -2.000
 7115.00    1.66077   1.74232   -2.000
 7116.00    1.67045   1.74217   -2.000
 7117.00    1.68859   1.74111   -2.000
 7118.00    1.70398   1.73953   -2.000
 7119.00    1.71498   1.73668   -2.000
 7120.00    1.72979   1.73343   -2.000
 7121.00    1.74999   1.72906   -2.000
 7122.00    1.78669   1.72442   -2.000
 7123.00    1.84387   1.71933   -2.000
 7124.00    1.83214   1.71410   -2.000
 7125.00    1.74508   1.70954   -2.000
 7126.00    1.71758   1.70493   -2.000
 7127.00    1.74752   1.70195   -2.000
 7128.00    1.75115   1.69927   -2.000
 7129.00    1.73240   1.69872   -2.000
 7130.00    1.74676   1.69878   -2.000
 7131.00    1.78592   1.70070   -2.000
 7132.00    1.78282   1.70318   -2.000
 7133.00    1.75192   1.70685   -2.000
 7134.00    1.72823   1.71080   -2.000
 7135.00    1.70869   1.71487   -2.000
 7136.00    1.69340   1.71882   -2.000
 7137.00    1.68024   1.72184   -2.000
 7138.00    1.68481   1.72457   -2.000
 7139.00    1.69709   1.72602   -2.000
 7140.00    1.73950   1.72697   -2.000
 7141.00    1.79314   1.72691   -2.000
 7142.00    1.74456   1.72669   -2.000
 7143.00    1.66370   1.72583   -2.000
 7144.00    1.63101   1.72524   -2.000
 7145.00    1.61103   1.72463   -2.000
 7146.00    1.64170   1.72479   -2.000
 7147.00    1.68328   1.72538   -2.000
 7148.00    1.66436   1.72717   -2.000
 7149.00    1.63510   1.72922   -2.000
 7150.00    1.64151   1.73253   -2.000
 7151.00    1.65254   1.73583   -2.000
 7152.00    1.64664   1.73972   -2.000
 7153.00    1.63921   1.74284   -2.000
 7154.00    1.66029   1.74606   -2.000
 7155.00    1.68293   1.74764   -2.000
 7156.00    1.64486   1.74903   -2.000
 7157.00    1.60637   1.74871   -2.000
 7158.00    1.64582   1.74851   -2.000
 7159.00    1.68568   1.74709   -2.000
 7160.00    1.73474   1.74587   -2.000
 7161.00    1.78287   1.74464   -2.000
 7162.00    1.81919   1.74395   -2.000
 7163.00    1.84860   1.74437   -2.000
 7164.00    1.81910   1.74542   -2.000
 7165.00    1.79074   1.74774   -2.000
 7166.00    1.76970   1.75053   -2.000
 7167.00    1.75865   1.75451   -2.000
 7168.00    1.79726   1.75850   -2.000
 7169.00    1.82407   1.76257   -2.000
 7170.00    1.80339   1.76587   -2.000
 7171.00    1.77920   1.76827   -2.000
 7172.00    1.74321   1.76965   -2.000
 7173.00    1.71624   1.76989   -2.000
 7174.00    1.71469   1.76907   -2.000
 7175.00    1.71456   1.76714   -2.000
 7176.00    1.71785   1.76451   -2.000
 7177.00    1.71790   1.76117   -2.000
 7178.00    1.71118   1.75771   -2.000
 7179.00    1.71835   1.75418   -2.000
 7180.00    1.75068   1.75063   -2.000
 7181.00    1.74034   1.74691   -2.000
 7182.00    1.66244   1.74350   -2.000
 7183.00    1.61757   1.74024   -2.000
 7184.00    1.61858   1.73764   -2.000
 7185.00    1.60442   1.73501   -2.000
 7186.00    1.57173   1.73291   -2.000
 7187.00    1.56195   1.73105   -2.000
 7188.00    1.57688   1.73003   -2.000
 7189.00    1.61186   1.72942   -2.000
 7190.00    1.66589   1.73023   -2.000
 7191.00    1.68953   1.73134   -2.000
 7192.00    1.68768   1.73361   -2.000
 7193.00    1.65727   1.73591   -2.000
 7194.00    1.60577   1.73857   -2.000
 7195.00    1.57566   1.74132   -2.000
 7196.00    1.55940   1.74400   -2.000
 7197.00    1.57288   1.74641   -2.000
 7198.00    1.60323   1.74807   -2.000
 7199.00    1.63201   1.74939   -2.000
 7200.00    1.66002   1.75011   -2.000
 7201.00    1.67023   1.75023   -2.000
 7202.00    1.67284   1.74981   -2.000
 7203.00    1.68569   1.74912   -2.000
 7204.00    1.70227   1.74833   -2.000
 7205.00    1.60421   1.74794   -2.000
 7206.00    1.47063   1.74774   -2.000
 7207.00    1.46269   1.74808   -2.000
 7208.00    1.48718   1.74908   -2.000
 7209.00    1.51416   1.75082   -2.000
 7210.00    1.54167   1.75404   -2.000
 7211.00    1.56221   1.75722   -2.000
 7212.00    1.58160   1.76165   -2.000
 7213.00    1.61026   1.76544   -2.000
 7214.00    1.64009   1.76972   -2.000
 7215.00    1.65971   1.77362   -2.000
 7216.00    1.67845   1.77777   -2.000
 7217.00    1.62913   1.78170   -2.000
 7218.00    1.57634   1.78571   -2.000
