###################################################################
## OUTPUT of StarlightChains_v04.for    [Cid@UFSC - 01/Apr/2007] ##
###################################################################

## Some input info
KUG0210-078._33_32.txt                   [arq_obs]
Base.CB07.vall.4m                        [arq_base]
Masks.EmLines.NEW.gm                     [arq_masks]
StCv04.C11.config                        [arq_config]
   66                                    [N_base]
    0                                    [N_YAV_components = # of components with extra extinction!]
    0                                    [i_FitPowerLaw (1/0 = Yes/No)]
-9.99                                    [alpha_PowerLaw]
CCM                                      [red_law_option]
 1.458241                                [q_norm = A(l_norm)/A(V)]

## (Re)Sampling Parameters
 3741.00                                 [l_ini (A)]
 7218.00                                 [l_fin (A)]
    1.00                                 [dl    (A)]     (OBS: dl_cushion =    50.00 A)

## Normalization info
 4020.00                                 [l_norm (A) - for base]
 4010.00                                 [llow_norm (A) - window for f_obs]
 4060.00                                 [lupp_norm (A) - window for f_obs]
9.837433E-17                             [fobs_norm (in input units)]

## S/N
 3691.00                                 [llow_SN (A) - window for S/N]
 7268.00                                 [lupp_SN (A) - window for S/N]
   5.356                                 [S/N in S/N window]
   4.936                                 [S/N in norm. window]
   0.173                                 [S/N_err in S/N window]
   0.160                                 [S/N_err in norm. window]
  1.0000                                 [fscale_chi2]

## etc...
    -2007507                             [idum_orig]
  2432                                   [NOl_eff]
  2298                                   [Nl_eff]
   134    NSIGMA                         [Ntot_cliped & clip_method]
 15029210                                [Nglobal_steps]
   7                                     [N_chains]
  10                                     [NEX0s_base = N_base in EX0s-fits]
 0   0   1      134   2.0   4.953E+04    [Clip-Bug, RC-Crash & Burn-In warning-flags, n_censored_weights, wei_nsig_threshold & wei_limit]
    95     94.433     93.660      0.773  [idt_all, wdt_TotTime, wdt_UsrTime & wdt_SysTime (sec)]

## Synthesis Results - Best model ##

 2.73275E-05                             [chi2/Nl_eff]
     1.92903                             [adev (%)]

   109.97572                             [sum-of-x (%)]
 3.33197E-17                             [Flux_tot (units of input spectrum!)]
 2.29712E-12                             [Mini_tot (???)]
 1.19855E-12                             [Mcor_tot (???)]

 -46.32                                  [v0_min  (km/s)]
 210.13                                  [vd_min  (km/s)]
-0.8769                                  [AV_min  (mag)]
 0.0000                                  [YAV_min (mag)]

# j     x_j(%)      Mini_j(%)     Mcor_j(%)     age_j(yr)     Z_j      (L/M)_j    YAV?  Mstars   component_j        a/Fe...       SSP_chi2r SSP_adev(%)   SSP_AV   SSP_x(%)
  1      0.0000     0.0000E+00    0.0000E+00    1.000000E+06  0.00400  1.094E-02    0   1.0000   age020_m42            0.0000     6.9589E-04     8.3533   3.3363    92.0325
  2      0.0000     0.0000E+00    0.0000E+00    3.160000E+06  0.00400  4.007E-02    0   0.9999   age045_m42            0.0000     6.5829E-04     8.6558   2.6525    96.3946
  3      0.0000     0.0000E+00    0.0000E+00    5.010000E+06  0.00400  2.539E-02    0   0.9488   age055_m42            0.0000     6.9755E-04     8.6607   2.9631    94.5022
  4      0.0000     0.0000E+00    0.0000E+00    6.610000E+06  0.00400  2.620E-02    0   0.9220   age061_m42            0.0000     6.8580E-04     8.9008   2.5913    96.0729
  5      0.0000     0.0000E+00    0.0000E+00    1.000000E+07  0.00400  1.322E-02    0   0.8862   age070_m42            0.0000     8.1198E-04    10.2153   2.3231    97.4073
  6      0.0000     0.0000E+00    0.0000E+00    1.445000E+07  0.00400  7.883E-03    0   0.8571   age078_m42            0.0000     8.1394E-04     9.9926   2.6356    95.5827
  7      0.0000     0.0000E+00    0.0000E+00    2.512000E+07  0.00400  5.251E-03    0   0.8174   age090_m42            0.0000     8.3941E-04    10.5530   2.1980    97.7076
  8      0.0000     0.0000E+00    0.0000E+00    4.000000E+07  0.00400  3.649E-03    0   0.7851   age104_m42            0.0000     8.0127E-04    10.3678   1.9733    98.4186
  9      0.0000     0.0000E+00    0.0000E+00    5.500000E+07  0.00400  3.098E-03    0   0.7629   age110_m42            0.0000     7.5034E-04     9.8619   2.1294    98.3186
 10      0.0000     0.0000E+00    0.0000E+00    1.015200E+08  0.00400  2.228E-03    0   0.7207   age116_m42            0.0000     7.1889E-04     9.5632   2.1537    98.3333
 11      0.0000     0.0000E+00    0.0000E+00    2.861200E+08  0.00400  1.093E-03    0   0.6648   age125_m42            0.0000     7.2854E-04    10.1979   1.5817   101.0733
 12      0.0000     0.0000E+00    0.0000E+00    5.088000E+08  0.00400  6.597E-04    0   0.6365   age130_m42            0.0000     6.3889E-04     9.4151   1.5704   102.0730
 13      0.0000     0.0000E+00    0.0000E+00    1.434000E+09  0.00400  2.132E-04    0   0.5798   age139_m42            0.0000     4.2571E-04     8.0324   0.5783   105.3360
 14      0.0000     0.0000E+00    0.0000E+00    4.250000E+09  0.00400  5.895E-05    0   0.5377   age158_m42            0.0000     2.3986E-04     5.7214   0.0839   103.9044
 15      0.0000     0.0000E+00    0.0000E+00    7.500000E+09  0.00400  3.510E-05    0   0.5212   age171_m42            0.0000     1.8409E-04     4.9465  -0.1210   103.9728
 16      0.0000     0.0000E+00    0.0000E+00    1.300000E+10  0.00400  2.005E-05    0   0.5034   age193_m42            0.0000     1.4210E-04     4.3257  -0.3032   104.1519
 17      0.0000     0.0000E+00    0.0000E+00    1.800000E+10  0.00400  1.525E-05    0   0.4967   age213_m42            0.0000     1.4688E-04     4.4104  -0.3273   103.7470
 18      0.0000     0.0000E+00    0.0000E+00    1.000000E+06  0.00800  1.238E-02    0   1.0000   age020_m52            0.0000     6.9605E-04     8.3447   3.3340    92.1735
 19      0.0000     0.0000E+00    0.0000E+00    3.160000E+06  0.00800  3.074E-02    0   0.9966   age045_m52            0.0000     6.9358E-04     8.3308   3.2623    92.8068
 20      0.0000     0.0000E+00    0.0000E+00    5.010000E+06  0.00800  2.668E-02    0   0.9443   age055_m52            0.0000     7.0666E-04     8.6241   3.0415    93.8504
 21      0.0000     0.0000E+00    0.0000E+00    6.610000E+06  0.00800  2.136E-02    0   0.9177   age061_m52            0.0000     6.6490E-04     9.2517   1.7974    99.8330
 22      0.0000     0.0000E+00    0.0000E+00    1.000000E+07  0.00800  1.215E-02    0   0.8827   age070_m52            0.0000     8.5971E-04    10.5926   2.4944    97.4430
 23      0.0000     0.0000E+00    0.0000E+00    1.445000E+07  0.00800  8.717E-03    0   0.8552   age078_m52            0.0000     8.1012E-04    10.0283   2.6054    96.7118
 24      0.0000     0.0000E+00    0.0000E+00    2.512000E+07  0.00800  5.592E-03    0   0.8162   age090_m52            0.0000     8.4695E-04    10.6651   2.2632    98.7365
 25      0.0000     0.0000E+00    0.0000E+00    4.000000E+07  0.00800  3.896E-03    0   0.7841   age104_m52            0.0000     8.0508E-04    10.4252   2.1774    99.3754
 26      0.0000     0.0000E+00    0.0000E+00    1.015200E+08  0.00800  2.148E-03    0   0.7226   age116_m52            0.0000     7.2624E-04     9.7514   2.1176    99.1953
 27      0.0000     0.0000E+00    0.0000E+00    2.861200E+08  0.00800  9.925E-04    0   0.6683   age125_m52            0.0000     6.4505E-04     9.4021   1.6416   102.7251
 28      0.0000     0.0000E+00    0.0000E+00    9.047900E+08  0.00800  3.141E-04    0   0.6138   age135_m52            0.0000     3.7642E-04     7.5780   0.8020   109.0527
 29      0.0000     0.0000E+00    0.0000E+00    1.434000E+09  0.00800  1.719E-04    0   0.5853   age139_m52            0.0000     2.9734E-04     6.6623   0.1986   107.9701
 30      0.0000     0.0000E+00    0.0000E+00    2.500000E+09  0.00800  7.872E-05    0   0.5600   age150_m52            0.0000     1.7052E-04     4.7802  -0.0954   106.5537
 31      0.0000     0.0000E+00    0.0000E+00    4.250000E+09  0.00800  4.336E-05    0   0.5426   age158_m52            0.0000     1.5518E-04     4.5490  -0.1213   106.0649
 32      0.0000     0.0000E+00    0.0000E+00    6.250000E+09  0.00800  3.159E-05    0   0.5319   age166_m52            0.0000     1.0262E-04     3.7364  -0.3400   106.8386
 33      0.0000     0.0000E+00    0.0000E+00    1.300000E+10  0.00800  1.361E-05    0   0.5073   age193_m52            0.0000     5.6437E-05     2.8032  -0.8259   106.9830
 34      0.0000     0.0000E+00    0.0000E+00    1.800000E+10  0.00800  9.886E-06    0   0.4990   age213_m52            0.0000     3.9086E-05     2.3576  -0.9490   107.1310
 35      0.0000     0.0000E+00    0.0000E+00    1.000000E+06  0.02000  1.544E-02    0   1.0000   age020_m62            0.0000     6.9637E-04     8.3273   3.3290    92.4417
 36      0.0000     0.0000E+00    0.0000E+00    3.160000E+06  0.02000  3.762E-02    0   0.9858   age045_m62            0.0000     7.0207E-04     8.3396   3.2705    93.1419
 37      0.0000     0.0000E+00    0.0000E+00    5.010000E+06  0.02000  3.296E-02    0   0.9342   age055_m62            0.0000     6.9039E-04     8.5744   2.9343    95.1781
 38      0.0000     0.0000E+00    0.0000E+00    8.710000E+06  0.02000  1.154E-02    0   0.8861   age067_m62            0.0000     1.2051E-03    13.5752   1.9417    99.9805
 39      0.0000     0.0000E+00    0.0000E+00    1.445000E+07  0.02000  7.663E-03    0   0.8472   age078_m62            0.0000     9.3326E-04    11.4700   2.1368    99.6203
 40      0.0000     0.0000E+00    0.0000E+00    2.512000E+07  0.02000  4.532E-03    0   0.8099   age090_m62            0.0000     9.8595E-04    11.8772   2.1382    98.8359
 41      0.0000     0.0000E+00    0.0000E+00    5.500000E+07  0.02000  2.733E-03    0   0.7595   age110_m62            0.0000     8.0389E-04    10.3467   2.1605    98.6847
 42      0.0000     0.0000E+00    0.0000E+00    1.609000E+08  0.02000  1.369E-03    0   0.6985   age120_m62            0.0000     7.2274E-04     9.7796   2.0125   100.7717
 43      0.0000     0.0000E+00    0.0000E+00    2.861200E+08  0.02000  9.013E-04    0   0.6714   age125_m62            0.0000     6.5631E-04     9.4196   1.7677   103.4382
 44      0.0000     0.0000E+00    0.0000E+00    5.088000E+08  0.02000  5.028E-04    0   0.6449   age130_m62            0.0000     4.6737E-04     8.0377   1.3635   107.5333
 45      0.0000     0.0000E+00    0.0000E+00    9.047900E+08  0.02000  2.428E-04    0   0.6179   age135_m62            0.0000     2.7690E-04     6.3144   0.7317   109.1607
 46      0.0000     0.0000E+00    0.0000E+00    1.434000E+09  0.02000  1.263E-04    0   0.5908   age139_m62            0.0000     1.9371E-04     5.1935   0.2633   108.8161
 47      0.0000     0.0000E+00    0.0000E+00    2.500000E+09  0.02000  5.985E-05    0   0.5673   age150_m62            0.0000     1.1107E-04     3.7672  -0.1300   108.6869
 48      0.0000     0.0000E+00    0.0000E+00    4.250000E+09  0.02000  3.271E-05    0   0.5468   age158_m62            0.0000     5.2209E-05     2.5969  -0.4578   108.8594
 49      0.0000     0.0000E+00    0.0000E+00    1.000000E+10  0.02000  1.360E-05    0   0.5167   age181_m62            0.0000     2.8288E-05     1.9774  -0.8316   109.5674
 50      9.7439     1.8040E+01    1.7332E+01    1.800000E+10  0.02000  7.124E-06    0   0.5013   age213_m62            0.0000     4.0503E-05     2.3248  -1.0000   107.5807
 51      0.0000     0.0000E+00    0.0000E+00    1.000000E+06  0.05000  2.592E-02    0   0.9998   age020_m72            0.0000     6.9811E-04     8.3079   3.3148    92.7148
 52      0.0000     0.0000E+00    0.0000E+00    3.160000E+06  0.05000  4.845E-02    0   0.9577   age045_m72            0.0000     7.0096E-04     8.3933   3.1716    93.5919
 53      0.0000     0.0000E+00    0.0000E+00    5.010000E+06  0.05000  3.072E-02    0   0.9147   age055_m72            0.0000     8.6171E-04    10.3916   2.6963    96.9143
 54      0.0000     0.0000E+00    0.0000E+00    6.610000E+06  0.05000  1.455E-02    0   0.8877   age061_m72            0.0000     1.5599E-03    16.2328   1.9586   100.8943
 55      0.0000     0.0000E+00    0.0000E+00    1.000000E+07  0.05000  9.074E-03    0   0.8524   age070_m72            0.0000     9.6527E-04    11.0334   2.8626    96.6762
 56      0.0000     0.0000E+00    0.0000E+00    2.512000E+07  0.05000  4.250E-03    0   0.7902   age090_m72            0.0000     9.3095E-04    11.1007   2.6009    97.1837
 57      0.0000     0.0000E+00    0.0000E+00    4.000000E+07  0.05000  3.087E-03    0   0.7618   age104_m72            0.0000     9.5559E-04    11.4879   2.3843    98.2598
 58      0.0000     0.0000E+00    0.0000E+00    1.015200E+08  0.05000  1.700E-03    0   0.7096   age116_m72            0.0000     8.0188E-04    10.4022   2.1559   100.1470
 59      0.0000     0.0000E+00    0.0000E+00    2.861200E+08  0.05000  7.384E-04    0   0.6633   age125_m72            0.0000     5.5826E-04     8.6942   1.6247   105.4242
 60      0.0000     0.0000E+00    0.0000E+00    5.088000E+08  0.05000  3.819E-04    0   0.6372   age130_m72            0.0000     3.3645E-04     6.8725   1.0908   109.3471
 61      0.0000     0.0000E+00    0.0000E+00    9.047900E+08  0.05000  1.676E-04    0   0.6110   age135_m72            0.0000     1.3759E-04     4.2884   0.3390   110.2906
 62      0.0000     0.0000E+00    0.0000E+00    1.434000E+09  0.05000  8.837E-05    0   0.5874   age139_m72            0.0000     9.7765E-05     3.5900  -0.1405   110.7166
 63     22.1787     6.9105E+00    7.4143E+00    2.500000E+09  0.05000  4.233E-05    0   0.5598   age150_m72            0.0000     4.1090E-05     2.3178  -0.4690   110.2882
 64     75.0600     6.8989E+01    6.9403E+01    6.250000E+09  0.05000  1.435E-05    0   0.5249   age166_m72            0.0000     2.7870E-05     1.9496  -0.9388   109.5717
 65      2.9931     6.0611E+00    5.8501E+00    1.300000E+10  0.05000  6.513E-06    0   0.5036   age193_m72            0.0000     1.3123E-04     4.8878  -1.0000   103.6237
 66      0.0000     0.0000E+00    0.0000E+00    1.800000E+10  0.05000  4.527E-06    0   0.4945   age213_m72            0.0000     3.1807E-04     7.7487  -1.0000    98.0997


## Synthesis Results - Average & Chains ##

# j      x_j: min, <> & last-chain-values for 1 ...  7 chains
  1      0.0000      0.3558      0.0314      0.3226      0.2081      0.1853      0.1628      0.1700      0.1663
  2      0.0000      0.3267      0.0000      0.3555      0.0451      0.0194      0.0454      0.0040      0.0000
  3      0.0000      0.2888      0.0819      0.0098      0.0099      0.0037      0.0129      0.0018      0.0574
  4      0.0000      0.3373      0.0255      0.0128      0.0072      0.0067      0.0000      0.0059      0.0190
  5      0.0000      0.3619      0.2116      0.0069      0.0265      0.0106      0.0029      0.0000      0.0000
  6      0.0000      0.2974      0.2973      0.0043      0.0038      0.0079      0.0004      0.0037      0.0100
  7      0.0000      0.2558      0.0000      0.0008      0.0086      0.0029      0.0000      0.0020      0.3748
  8      0.0000      0.2606      0.0297      0.0018      0.0247      0.0000      0.0084      0.0062      0.0726
  9      0.0000      0.2866      0.0000      0.0066      0.0157      0.0000      0.0066      0.0006      0.1129
 10      0.0000      0.3299      0.0644      0.0000      0.0175      0.0148      0.0000      0.0000      0.0000
 11      0.0000      0.4618      0.0000      0.0089      0.0032      0.0068      0.0112      0.0112      0.3022
 12      0.0000      0.3471      0.2704      0.0125      0.0000      0.0113      0.0034      0.0036      0.0000
 13      0.0000      0.3784      0.1755      0.0126      0.0000      0.0272      0.0027      0.0003      0.0374
 14      0.0000      0.3194      0.0739      0.0049      0.0038      0.0035      0.0230      0.0000      0.0290
 15      0.0000      0.2619      0.0000      0.0164      0.0043      0.0010      0.0038      0.0006      0.0988
 16      0.0000      0.2839      0.0206      0.0124      0.0215      0.0141      0.0000      0.0487      0.0000
 17      0.0000      0.2860      0.1666      0.0029      0.0009      0.0105      0.0000      0.0021      0.2423
 18      0.0000      0.9945      1.3680      1.8919      1.1811      0.2902      0.2738      1.1511      1.2586
 19      0.0000      0.6356      0.5562      0.1600      0.1182      0.0692      2.4547      0.0991      0.5850
 20      0.0000      0.5495      0.3139      0.0013      0.0300      0.0361      1.4521      0.2125      0.1794
 21      0.0000      0.3900      0.0684      0.0031      0.0220      0.0105      0.0017      0.0000      0.0000
 22      0.0000      0.2716      0.0234      0.0038      0.0012      0.0000      0.0000      0.0000      0.1059
 23      0.0000      0.2298      0.0041      0.0000      0.0000      0.0048      0.0187      0.0002      0.0328
 24      0.0000      0.3261      0.1836      0.0063      0.0024      0.0000      0.0012      0.0021      0.1948
 25      0.0000      0.2523      0.0000      0.0171      0.0025      0.0030      0.0000      0.0000      0.1122
 26      0.0000      0.2732      0.0000      0.0011      0.0000      0.0175      0.0031      0.0016      0.1440
 27      0.0000      0.3179      0.0000      0.0018      0.0030      0.0050      0.0126      0.0032      0.1307
 28      0.0000      0.2615      0.0574      0.0009      0.0134      0.0000      0.0014      0.0010      0.0810
 29      0.0000      0.3300      0.0947      0.0025      0.0417      0.0039      0.0055      0.0057      0.0743
 30      0.0000      0.3276      0.0541      0.0079      0.0190      0.0085      0.0181      0.0065      0.0759
 31      0.0000      1.4238      1.1896      0.6691      4.2438      0.5899      1.6739      0.0079      1.2236
 32      0.0000      0.3739      0.0000      0.0041      0.0087      0.0055      0.0045      0.0071      0.1778
 33      0.0000      0.2319      0.0000      0.0113      0.0010      0.0016      0.0065      0.0039      0.1026
 34      0.0000      1.1239      0.8647      0.0502      0.0655      0.0653      5.0506      0.0213      0.8981
 35      0.0000      0.8593      0.8245      0.5104      2.0962      0.9284      0.2835      0.6430      0.8749
 36      0.0000      0.3892      0.5543      0.0159      0.0000      0.8205      0.0268      0.0032      0.4543
 37      0.0000      0.3167      0.1424      0.0031      0.0497      0.0078      0.0147      0.0000      0.0360
 38      0.0000      0.3739      0.1541      0.0193      0.2878      0.0155      0.0176      0.0041      0.3599
 39      0.0000      0.3282      0.1762      0.0067      0.0053      0.0093      0.0057      0.0043      0.0646
 40      0.0000      0.2285      0.0000      0.0000      0.0074      0.0000      0.0000      0.0013      0.0000
 41      0.0000      0.2715      0.0409      0.0026      0.0000      0.0034      0.0004      0.0034      0.1277
 42      0.0000      0.3235      0.0244      0.0097      0.0160      0.0000      0.0055      0.0029      0.0448
 43      0.0000      0.3185      0.0199      0.0046      0.0118      0.0000      0.0058      0.0000      0.0577
 44      0.0000      0.2655      0.0272      0.0000      0.0128      0.0085      0.0000      0.0000      0.0668
 45      0.0000      0.5131      0.4114      0.6020      0.5418      0.9330      0.3649      0.0117      0.2291
 46      0.0000      0.3937      0.1714      0.3236      0.2070      0.1377      0.8118      0.0258      0.2390
 47      0.0000      1.7881      1.6657      1.6817      3.9094      2.5924      2.4217      0.0422      1.3926
 48      0.0000      0.3244      0.2368      0.0064      0.0000      0.0102      0.0060      0.0098      0.0914
 49      0.0000      0.6041      0.3426      0.0383      2.1527      0.0447      0.0856      0.0115      0.3169
 50      9.7439     13.2177     13.1094     10.7117     20.9079     14.9452     19.7141     11.7363     13.3714
 51      0.0000      1.5082      1.5097      1.3182      1.6462      3.1283      1.8151      1.3163      1.6801
 52      0.0000      0.3059      0.0085      0.0050      0.0000      0.0000      0.0013      0.0000      0.0425
 53      0.0000      0.2877      0.0000      0.0000      0.0038      0.0000      0.0040      0.0000      0.0000
 54      0.0000      0.3595      0.0000      0.0045      0.0027      0.0020      0.0000      0.0011      0.0000
 55      0.0000      0.2524      0.0671      0.0000      0.0020      0.0000      0.0322      0.0003      0.1664
 56      0.0000      0.3252      0.0779      0.0000      0.0000      0.0048      0.0094      0.0042      0.1327
 57      0.0000      0.2756      0.0000      0.0045      0.0011      0.0004      0.0032      0.0005      0.1988
 58      0.0000      0.2592      0.0301      0.0058      0.0142      0.0086      0.0000      0.0024      0.0000
 59      0.0000      0.3314      0.0150      0.0097      0.0023      0.0092      0.0066      0.0007      0.0000
 60      0.0000      0.2634      0.0435      0.0003      0.0141      0.0079      0.0185      0.0017      0.0194
 61      0.0000      0.3089      0.0545      0.0114      0.0312      0.0021      0.0053      0.0054      0.0562
 62      0.0000      0.3465      0.0018      0.0060      0.0106      0.0025      0.0206      0.0052      0.0640
 63     22.1787     22.7341     30.0616     27.3344      8.7028     28.8884     15.2898     49.7269     31.5659
 64     75.0600     32.0512     33.4213     50.7934     48.2134     37.7903     37.8063     31.4898     34.6518
 65      2.9931      4.4010      4.7697      2.9029      4.1615      7.4848      8.8493      1.6781      4.0936
 66      0.0000      1.3206      5.0586      0.1374      0.3234      0.1947      0.2888      1.5025      1.9522

# j      m_j: min, <> & last-chain-values for 1 ...  7 chains
  1  0.0000E+00  1.0624E-03  8.0539E-05  9.0850E-04  4.8952E-04  4.8990E-04  3.7231E-04  5.2970E-04  4.6570E-04
  2  0.0000E+00  2.6630E-04  0.0000E+00  2.7334E-04  2.8931E-05  1.4025E-05  2.8338E-05  3.3904E-06  0.0000E+00
  3  0.0000E+00  3.5257E-04  8.5872E-05  1.1251E-05  9.5159E-06  3.9650E-06  1.2029E-05  2.2324E-06  6.5717E-05
  4  0.0000E+00  3.8782E-04  2.5129E-05  1.3908E-05  6.4771E-06  6.8476E-06  0.0000E+00  7.0560E-06  2.0455E-05
  5  0.0000E+00  7.9245E-04  3.9773E-04  1.4237E-05  4.5768E-05  2.0466E-05  4.8386E-06  0.0000E+00  0.0000E+00
  6  0.0000E+00  1.0565E-03  9.0637E-04  1.4520E-05  1.0519E-05  2.4912E-05  1.1492E-06  1.3544E-05  3.3171E-05
  7  0.0000E+00  1.3010E-03  0.0000E+00  3.6355E-06  3.4638E-05  1.3239E-05  0.0000E+00  1.0804E-05  1.7876E-03
  8  0.0000E+00  1.8321E-03  1.7891E-04  1.2103E-05  1.3701E-04  0.0000E+00  4.5468E-05  4.5391E-05  4.7864E-04
  9  0.0000E+00  2.3054E-03  0.0000E+00  4.9863E-05  9.9367E-05  0.0000E+00  4.0573E-05  5.1978E-06  8.5202E-04
 10  0.0000E+00  3.4860E-03  5.8441E-04  0.0000E+00  1.4546E-04  1.3858E-04  0.0000E+00  0.0000E+00  0.0000E+00
 11  0.0000E+00  9.1753E-03  0.0000E+00  1.6618E-04  5.0815E-05  1.2031E-04  1.7101E-04  2.3244E-04  5.6316E-03
 12  0.0000E+00  1.0940E-02  7.3155E-03  3.7256E-04  0.0000E+00  3.1421E-04  8.2325E-05  1.1821E-04  0.0000E+00
 13  0.0000E+00  3.3621E-02  1.3385E-02  1.0528E-03  0.0000E+00  2.1372E-03  1.8263E-04  3.1537E-05  3.1191E-03
 14  0.0000E+00  9.5191E-02  1.8914E-02  1.3880E-03  8.9516E-04  9.1814E-04  5.2571E-03  0.0000E+00  8.1067E-03
 15  0.0000E+00  1.2705E-01  0.0000E+00  7.5233E-03  1.6487E-03  4.1972E-04  1.4055E-03  2.8157E-04  4.4935E-02
 16  0.0000E+00  2.3283E-01  1.4475E-02  9.6073E-03  1.3910E-02  1.0252E-02  0.0000E+00  4.1657E-02  0.0000E+00
 17  0.0000E+00  3.0427E-01  1.5218E-01  2.8936E-03  7.5802E-04  9.8655E-03  0.0000E+00  2.3423E-03  2.4180E-01
 18  0.0000E+00  2.6244E-03  3.0986E-03  4.7083E-03  2.4549E-03  6.7790E-04  5.5351E-04  3.1696E-03  3.1148E-03
 19  0.0000E+00  6.7322E-04  5.0570E-04  1.5977E-04  9.8575E-05  6.4862E-05  1.9914E-03  1.0952E-04  5.8109E-04
 20  0.0000E+00  6.3539E-04  3.1152E-04  1.3909E-06  2.7342E-05  3.7000E-05  1.2861E-03  2.5633E-04  1.9455E-04
 21  0.0000E+00  5.4741E-04  8.2373E-05  4.1387E-06  2.4269E-05  1.2995E-05  1.8222E-06  0.0000E+00  0.0000E+00
 22  0.0000E+00  6.4452E-04  4.7648E-05  8.4290E-06  2.2743E-06  0.0000E+00  0.0000E+00  0.0000E+00  2.3582E-04
 23  0.0000E+00  7.3666E-04  1.1221E-05  0.0000E+00  0.0000E+00  1.3604E-05  4.6006E-05  6.2642E-07  9.8623E-05
 24  0.0000E+00  1.5551E-03  7.5130E-04  2.8499E-05  8.9958E-06  0.0000E+00  4.3774E-06  1.0647E-05  8.7117E-04
 25  0.0000E+00  1.6587E-03  0.0000E+00  1.0601E-04  1.3083E-05  1.7577E-05  0.0000E+00  0.0000E+00  6.9162E-04
 26  0.0000E+00  3.0028E-03  0.0000E+00  1.1484E-05  0.0000E+00  1.7010E-04  2.5902E-05  1.8625E-05  1.4846E-03
 27  0.0000E+00  6.9934E-03  0.0000E+00  3.6831E-05  5.2393E-05  9.6972E-05  2.1310E-04  7.3867E-05  2.6970E-03
 28  0.0000E+00  1.6695E-02  3.1440E-03  5.4866E-05  6.7129E-04  0.0000E+00  7.0501E-05  6.9077E-05  4.8495E-03
 29  0.0000E+00  3.6704E-02  9.0444E-03  2.6283E-04  3.6491E-03  3.7948E-04  4.7281E-04  6.5728E-04  7.7529E-03
 30  0.0000E+00  7.6139E-02  1.0791E-02  1.7220E-03  3.4842E-03  1.7575E-03  3.2257E-03  1.5686E-03  1.6536E-02
 31  0.0000E+00  5.8207E-01  4.1746E-01  2.5796E-01  1.3665E+00  2.1349E-01  5.2417E-01  3.3513E-03  4.6911E-01
 32  0.0000E+00  2.0568E-01  0.0000E+00  2.1048E-03  3.7664E-03  2.6763E-03  1.8774E-03  4.0533E-03  9.1709E-02
 33  0.0000E+00  2.8245E-01  0.0000E+00  1.2929E-02  9.5968E-04  1.7626E-03  6.0161E-03  4.9591E-03  1.1718E-01
 34  0.0000E+00  1.8533E+00  1.2239E+00  7.8043E-02  8.5040E-02  9.5315E-02  6.3792E+00  3.6689E-02  1.3888E+00
 35  0.0000E+00  1.8182E-03  1.4974E-03  1.0185E-03  3.4934E-03  1.7391E-03  4.5946E-04  1.4196E-03  1.7361E-03
 36  0.0000E+00  3.3320E-04  4.0734E-04  1.2863E-05  0.0000E+00  6.2184E-04  1.7585E-05  2.8190E-06  3.6470E-04
 37  0.0000E+00  2.9321E-04  1.1322E-04  2.7077E-06  3.6278E-05  6.4208E-06  1.0413E-05  0.0000E+00  3.1249E-05
 38  0.0000E+00  9.3800E-04  3.3173E-04  4.5599E-05  5.6865E-04  3.4403E-05  3.3795E-05  1.0813E-05  8.4669E-04
 39  0.0000E+00  1.1854E-03  5.4625E-04  2.2910E-05  1.4942E-05  2.9722E-05  1.5858E-05  1.6223E-05  2.1879E-04
 40  0.0000E+00  1.3339E-03  0.0000E+00  0.0000E+00  3.3805E-05  0.0000E+00  0.0000E+00  7.8828E-06  0.0000E+00
 41  0.0000E+00  2.4648E-03  3.1846E-04  2.2066E-05  0.0000E+00  2.7620E-05  2.4576E-06  3.2143E-05  1.0868E-03
 42  0.0000E+00  5.3923E-03  3.4973E-04  1.5286E-04  2.1045E-04  0.0000E+00  7.0740E-05  5.0141E-05  7.0024E-04
 43  0.0000E+00  7.7518E-03  4.1470E-04  1.0651E-04  2.2675E-04  0.0000E+00  1.0844E-04  0.0000E+00  1.3167E-03
 44  0.0000E+00  1.1125E-02  9.7793E-04  0.0000E+00  4.2209E-04  3.1473E-04  0.0000E+00  3.3800E-07  2.6236E-03
 45  0.0000E+00  4.2663E-02  2.9361E-02  4.7203E-02  3.5478E-02  6.8671E-02  2.3240E-02  1.0137E-03  1.7863E-02
 46  0.0000E+00  6.0165E-02  2.2483E-02  4.6630E-02  2.4920E-02  1.8625E-02  9.5025E-02  4.1141E-03  3.4254E-02
 47  0.0000E+00  5.5371E-01  4.4274E-01  4.9111E-01  9.5348E-01  7.1071E-01  5.7440E-01  1.3642E-02  4.0441E-01
 48  0.0000E+00  1.7715E-01  1.1099E-01  3.2785E-03  0.0000E+00  4.9444E-03  2.5269E-03  5.5965E-03  4.6827E-02
 49  0.0000E+00  7.4984E-01  3.6504E-01  4.4811E-02  2.1044E+00  4.9105E-02  8.1376E-02  1.4868E-02  3.6885E-01
 50  1.7332E+01  3.0386E+01  2.5869E+01  2.3222E+01  3.7856E+01  3.0416E+01  3.4713E+01  2.8153E+01  2.8827E+01
 51  0.0000E+00  1.9005E-03  1.6330E-03  1.5665E-03  1.6338E-03  3.4900E-03  1.7520E-03  1.7308E-03  1.9855E-03
 52  0.0000E+00  1.9755E-04  4.7245E-06  3.0501E-06  0.0000E+00  0.0000E+00  6.2252E-07  0.0000E+00  2.5716E-05
 53  0.0000E+00  2.7988E-04  0.0000E+00  0.0000E+00  2.8993E-06  0.0000E+00  2.9441E-06  0.0000E+00  0.0000E+00
 54  0.0000E+00  7.1645E-04  0.0000E+00  8.4562E-06  4.2197E-06  3.5869E-06  0.0000E+00  2.3705E-06  0.0000E+00
 55  0.0000E+00  7.7470E-04  1.7663E-04  0.0000E+00  4.7319E-06  0.0000E+00  7.5590E-05  1.0207E-06  4.7895E-04
 56  0.0000E+00  1.9754E-03  4.0640E-04  0.0000E+00  0.0000E+00  2.5831E-05  4.3949E-05  2.6761E-05  7.5573E-04
 57  0.0000E+00  2.2216E-03  0.0000E+00  3.4191E-05  6.6921E-06  3.0134E-06  1.9570E-05  3.8114E-06  1.5027E-03
 58  0.0000E+00  3.5352E-03  3.5201E-04  7.4935E-05  1.5199E-04  1.0411E-04  0.0000E+00  3.3850E-05  0.0000E+00
 59  0.0000E+00  9.7251E-03  3.7801E-04  2.6752E-04  5.4039E-05  2.4012E-04  1.4774E-04  2.2925E-05  0.0000E+00
 60  0.0000E+00  1.4356E-02  2.0339E-03  1.7873E-05  6.0543E-04  3.8200E-04  7.7383E-04  9.4685E-05  9.9010E-04
 61  0.0000E+00  3.6786E-02  5.5701E-03  1.2807E-03  2.9282E-03  2.2192E-04  4.8330E-04  6.6708E-04  6.2742E-03
 62  0.0000E+00  7.5240E-02  3.3841E-04  1.2233E-03  1.8150E-03  4.8400E-04  3.4328E-03  1.1698E-03  1.3032E-02
 63  7.4143E+00  9.8220E+00  1.1148E+01  1.1137E+01  2.9614E+00  1.1049E+01  5.0598E+00  2.2418E+01  1.2790E+01
 64  6.9403E+01  3.8301E+01  3.4282E+01  5.7241E+01  4.5378E+01  3.9980E+01  3.4605E+01  3.9266E+01  3.8833E+01
 65  5.8501E+00  1.1117E+01  1.0342E+01  6.9154E+00  8.2796E+00  1.6739E+01  1.7122E+01  4.4232E+00  9.6974E+00
 66  0.0000E+00  4.7128E+00  1.5495E+01  4.6228E-01  9.0896E-01  6.1497E-01  7.8935E-01  5.5949E+00  6.5334E+00

# AV, chi2 & Mass for <> & i_chain = 1 ...  7 solutions
AV      -0.8769     -0.4729     -0.4715     -0.5211     -0.5495     -0.4911     -0.5392     -0.4646     -0.4321
chi2 2.7328E-05  2.9764E-04  1.5655E-04  1.3047E-04  1.3908E-04  1.4912E-04  1.4899E-04  1.3662E-04  1.5781E-04
Mass 1.1986E-12  1.5955E-12  1.8624E-12  1.5857E-12  1.8278E-12  1.7587E-12  1.9057E-12  1.5463E-12  1.7971E-12
 -46.32                                  [v0_min (km/s) before EX0s...]
 210.13                                  [vd_min (km/s) before EX0s...]


## Synthetic spectrum (Best Model) ##l_obs f_obs f_syn wei
 3478    [Nl_obs]
 3741.00    0.37043   0.50752    0.000
 3742.00    0.35843   0.49298    0.000
 3743.00    0.34353   0.46792    0.000
 3744.00    0.33135   0.43882    0.000
 3745.00    0.32075   0.41227   -1.000
 3746.00    0.35373   0.39400   -1.000
 3747.00    0.40885   0.38842   -1.000
 3748.00    0.44861   0.39828   -1.000
 3749.00    0.48162   0.42386   -1.000
 3750.00    0.49858   0.46219   -1.000
 3751.00    0.50949   0.50695   -1.000
 3752.00    0.48124   0.54949   -1.000
 3753.00    0.44044   0.58107   -1.000
 3754.00    0.49676   0.59570   -1.000
 3755.00    0.57910   0.59224   -1.000
 3756.00    0.58419   0.57498   -1.000
 3757.00    0.57232   0.55171   -1.000
 3758.00    0.53794   0.53046   -1.000
 3759.00    0.49963   0.51642   -1.000
 3760.00    0.49575   0.51064   -1.000
 3761.00    0.49644   0.51096   -1.000
 3762.00    0.48870   0.51430   -1.000
 3763.00    0.48017   0.51864   -1.000
 3764.00    0.46654   0.52377   -1.000
 3765.00    0.45262   0.53098   -1.000
 3766.00    0.48766   0.54194   -1.000
 3767.00    0.52380   0.55764   -1.000
 3768.00    0.55327   0.57782   -1.000
 3769.00    0.58149   0.60086   -1.000
 3770.00    0.57903   0.62420   -1.000
 3771.00    0.57757   0.64520   -1.000
 3772.00    0.58918   0.66197   -1.000
 3773.00    0.60142   0.67399   -1.000
 3774.00    0.61911   0.68221   -1.000
 3775.00    0.63415   0.68864   -1.000
 3776.00    0.63195   0.69547   -1.000
 3777.00    0.63295   0.70410   -1.000
 3778.00    0.65018   0.71449   -1.000
 3779.00    0.66156   0.72504   -1.000
 3780.00    0.64900   0.73291   -1.000
 3781.00    0.64361   0.73473   -1.000
 3782.00    0.66255   0.72749   -1.000
 3783.00    0.67420   0.70966   -1.000
 3784.00    0.66501   0.68205   -1.000
 3785.00    0.64584   0.64812   -1.000
 3786.00    0.60225   0.61314   -1.000
 3787.00    0.56026   0.58242   -1.000
 3788.00    0.52164   0.55955   -1.000
 3789.00    0.48693   0.54503   -1.000
 3790.00    0.45940   0.53661   -1.000
 3791.00    0.44523   0.53065   -1.000
 3792.00    0.45246   0.52405   -1.000
 3793.00    0.44784   0.51549   -1.000
 3794.00    0.42656   0.50568   -1.000
 3795.00    0.41902   0.49700   -1.000
 3796.00    0.42846   0.49263   -1.000
 3797.00    0.43463   0.49553   -1.000
 3798.00    0.43724   0.50740   -1.000
 3799.00    0.45381   0.52785   -1.000
 3800.00    0.48380   0.55416   -1.000
 3801.00    0.50569   0.58177   -1.000
 3802.00    0.52070   0.60577   -1.000
 3803.00    0.53294   0.62261   -1.000
 3804.00    0.54310   0.63142   -1.000
 3805.00    0.56384   0.63403   -1.000
 3806.00    0.59152   0.63352   -1.000
 3807.00    0.59660   0.63219   -1.000
 3808.00    0.58870   0.63006   -1.000
 3809.00    0.57555   0.62483   -1.000
 3810.00    0.55977   0.61346   -1.000
 3811.00    0.54574   0.59428   -1.000
 3812.00    0.53246   0.56819   -1.000
 3813.00    0.51073   0.53859   -1.000
 3814.00    0.48587   0.50968   -1.000
 3815.00    0.43938   0.48461   -1.000
 3816.00    0.38610   0.46443   -1.000
 3817.00    0.39597   0.44846   -1.000
 3818.00    0.42240   0.43538   -1.000
 3819.00    0.43720   0.42409   -1.000
 3820.00    0.44951   0.41382   -1.000
 3821.00    0.41682   0.40389   -1.000
 3822.00    0.37649   0.39371   -1.000
 3823.00    0.39587   0.38322   -1.000
 3824.00    0.42291   0.37322   -1.000
 3825.00    0.37482   0.36501   -1.000
 3826.00    0.31998   0.35973   -1.000
 3827.00    0.33679   0.35753   -1.000
 3828.00    0.35745   0.35734   -1.000
 3829.00    0.35291   0.35755   -1.000
 3830.00    0.34791   0.35706   -1.000
 3831.00    0.34752   0.35578   -1.000
 3832.00    0.34708   0.35451   -1.000
 3833.00    0.34545   0.35410   -1.000
 3834.00    0.34231   0.35473   -1.000
 3835.00    0.32023   0.35618   -1.000
 3836.00    0.30190   0.35851   -1.000
 3837.00    0.31519   0.36268   -1.000
 3838.00    0.33155   0.37057   -1.000
 3839.00    0.36728   0.38407   -1.000
 3840.00    0.39972   0.40374   -1.000
 3841.00    0.41593   0.42816   -1.000
 3842.00    0.43450   0.45410   -1.000
 3843.00    0.46256   0.47764   -1.000
 3844.00    0.48281   0.49564   -1.000
 3845.00    0.47714   0.50666   -1.000
 3846.00    0.47425   0.51099   -1.000
 3847.00    0.47915   0.51016    0.000
 3848.00    0.48312   0.50637    0.000
 3849.00    0.48485   0.50154    0.000
 3850.00    0.48426   0.49656    0.000
 3851.00    0.47884   0.49125    0.000
 3852.00    0.48293   0.48459    0.000
 3853.00    0.50416   0.47542    0.000
 3854.00    0.51510   0.46332    0.000
 3855.00    0.50982   0.44915    0.000
 3856.00    0.50376   0.43515    0.000
 3857.00    0.49663   0.42447    0.000
 3858.00    0.49292   0.42022    0.000
 3859.00    0.49341   0.42430    0.000
 3860.00    0.51100   0.43641    0.000
 3861.00    0.54697   0.45380    0.000
 3862.00    0.58319   0.47214    0.000
 3863.00    0.61966   0.48701    0.000
 3864.00    0.63200   0.49527    0.000
 3865.00    0.62421   0.49578    0.000
 3866.00    0.62176   0.48937    0.000
 3867.00    0.62324   0.47843    0.000
 3868.00    0.61117   0.46634    0.000
 3869.00    0.59035   0.45681    0.000
 3870.00    0.56834   0.45290    0.000
 3871.00    0.54565   0.45604    0.000
 3872.00    0.53012   0.46526    0.000
 3873.00    0.51811   0.47738    0.000
 3874.00    0.50145   0.48832    0.000
 3875.00    0.48283   0.49453    0.000
 3876.00    0.46817   0.49460    0.000
 3877.00    0.45495   0.48984    0.000
 3878.00    0.47194   0.48356    0.000
 3879.00    0.49824   0.47893    0.000
 3880.00    0.50232   0.47752    0.000
 3881.00    0.50070   0.47929   -1.000
 3882.00    0.53182   0.48297   -1.000
 3883.00    0.56978   0.48688   -1.000
 3884.00    0.56639   0.49045   -1.000
 3885.00    0.55618   0.49502   -1.000
 3886.00    0.55843   0.50316   -1.000
 3887.00    0.56223   0.51729   -1.000
 3888.00    0.57366   0.53831   -1.000
 3889.00    0.58576   0.56474   -1.000
 3890.00    0.59746   0.59302   -1.000
 3891.00    0.60914   0.61905   -1.000
 3892.00    0.62483   0.63956   -1.000
 3893.00    0.64080   0.65294   -1.000
 3894.00    0.67077   0.65962   -1.000
 3895.00    0.70114   0.66161   -1.000
 3896.00    0.73970   0.66123   -1.000
 3897.00    0.77170   0.65982   -1.000
 3898.00    0.72610   0.65783   -1.000
 3899.00    0.68219   0.65517   -1.000
 3900.00    0.65209   0.65101   -1.000
 3901.00    0.62986   0.64519   -1.000
 3902.00    0.65574   0.63906   -1.000
 3903.00    0.67678   0.63488   -1.000
 3904.00    0.67459   0.63522   -1.000
 3905.00    0.67092   0.64227   -1.000
 3906.00    0.66152   0.65679   -1.000
 3907.00    0.65523   0.67745    2.164
 3908.00    0.65915   0.70104    0.411
 3909.00    0.67782   0.72386    0.261
 3910.00    0.73718   0.74262    0.273
 3911.00    0.76984   0.75476    0.279
 3912.00    0.73944   0.75920    0.271
 3913.00    0.71341   0.75586    0.266
 3914.00    0.69629   0.74493    0.266
 3915.00    0.68679   0.72705    0.272
 3916.00    0.69083   0.70354    0.287
 3917.00    0.68101   0.67648    0.292
 3918.00    0.64965   0.64845    0.278
 3919.00    0.61614   0.62217    0.268
 3920.00    0.57971   0.59949    0.262
 3921.00    0.57284   0.58065    0.263
 3922.00    0.60147   0.56408    0.272
 3923.00    0.61741   0.54669    0.275
 3924.00    0.61990   0.52518    0.270
 3925.00    0.57788   0.49726    0.267
 3926.00    0.49429   0.46255    0.266
 3927.00    0.45341   0.42281    0.261
 3928.00    0.44771   0.38129    0.254
 3929.00    0.41145   0.34182    0.248
 3930.00    0.35305   0.30793    0.244
 3931.00    0.31251   0.28255    0.243
 3932.00    0.28335   0.26782    0.246
 3933.00    0.29213   0.26498    0.248
 3934.00    0.32203   0.27431    0.250
 3935.00    0.33222   0.29487    0.250
 3936.00    0.33287   0.32424    0.248
 3937.00    0.34274   0.35892    0.247
 3938.00    0.35647   0.39487    0.246
 3939.00    0.42550   0.42859    0.254
 3940.00    0.51430   0.45865    0.265
 3941.00    0.54555   0.48576    0.269
 3942.00    0.55939   0.51143    0.271
 3943.00    0.58387   0.53721    0.268
 3944.00    0.61101   0.56449    0.264
 3945.00    0.63483   0.59380    0.267
 3946.00    0.65797   0.62414    0.272
 3947.00    0.68720   0.65330    0.271
 3948.00    0.71741   0.67926    0.270
 3949.00    0.75483   0.70117    0.276
 3950.00    0.79311   0.71856    0.284
 3951.00    0.76818   0.73066    0.284
 3952.00    0.73811   0.73718    0.284
 3953.00    0.74855   0.73867    0.279
 3954.00    0.76085   0.73556    0.274
 3955.00    0.73848   0.72730    0.270
 3956.00    0.71532   0.71235    0.266
 3957.00    0.67432   0.68937    0.265
 3958.00    0.63525   0.65828    0.264
 3959.00    0.63294   0.62003    0.262
 3960.00    0.62635   0.57615    0.000
 3961.00    0.57158   0.52886    0.000
 3962.00    0.51684   0.48089    0.000
 3963.00    0.46237   0.43486    0.000
 3964.00    0.41149   0.39302    0.000
 3965.00    0.38192   0.35757    0.000
 3966.00    0.35232   0.33089    0.000
 3967.00    0.32259   0.31533    0.000
 3968.00    0.31001   0.31269    0.000
 3969.00    0.36315   0.32384    0.000
 3970.00    0.41179   0.34855    0.000
 3971.00    0.44603   0.38528    0.000
 3972.00    0.47479   0.43131    0.000
 3973.00    0.48867   0.48362    0.000
 3974.00    0.51708   0.53939    0.000
 3975.00    0.57919   0.59587    0.000
 3976.00    0.63444   0.65019    0.000
 3977.00    0.67588   0.69932    0.000
 3978.00    0.72593   0.74089    0.000
 3979.00    0.79104   0.77389    0.000
 3980.00    0.83593   0.79863    0.000
 3981.00    0.84988   0.81673    0.273
 3982.00    0.86805   0.83050    0.274
 3983.00    0.89188   0.84270    0.277
 3984.00    0.89848   0.85549    0.277
 3985.00    0.88467   0.86889    0.276
 3986.00    0.87849   0.88230    0.274
 3987.00    0.88028   0.89544    0.270
 3988.00    0.89922   0.90750    0.270
 3989.00    0.93396   0.91750    0.271
 3990.00    0.94092   0.92463    0.269
 3991.00    0.92532   0.92841    0.263
 3992.00    0.93356   0.92875    0.262
 3993.00    0.95882   0.92620    0.265
 3994.00    0.95914   0.92288    0.265
 3995.00    0.94383   0.92213    0.262
 3996.00    0.94321   0.92602    0.260
 3997.00    0.95066   0.93481    0.259
 3998.00    0.95354   0.94794    0.259
 3999.00    0.95425   0.96256    0.259
 4000.00    0.95326   0.97329    0.261
 4001.00    0.95158   0.97573    0.263
 4002.00    0.96543   0.97010    0.261
 4003.00    0.98474   0.95994    0.258
 4004.00    1.01198   0.94947    0.263
 4005.00    1.04158   0.94281    0.271
 4006.00    1.01587   0.94313    0.268
 4007.00    0.97657   0.95140    0.263
 4008.00    0.98471   0.96593    0.264
 4009.00    1.00227   0.98362    0.266
 4010.00    1.02617   1.00152    0.266
 4011.00    1.05105   1.01787    0.266
 4012.00    1.05125   1.03111    0.266
 4013.00    1.04861   1.04020    0.266
 4014.00    1.01431   1.04652    0.268
 4015.00    0.97755   1.05176    0.270
 4016.00    0.99155   1.05560    0.272
 4017.00    1.00768   1.05763    0.274
 4018.00    1.02659   1.05813    0.274
 4019.00    1.04514   1.05709    0.273
 4020.00    1.04673   1.05425    0.274
 4021.00    1.04944   1.05055    0.274
 4022.00    1.07169   1.04783    0.272
 4023.00    1.09263   1.04710    0.270
 4024.00    1.09953   1.04766    0.272
 4025.00    1.10076   1.04640    0.273
 4026.00    1.05901   1.03871    0.271
 4027.00    1.01814   1.02204    0.270
 4028.00    0.98233   0.99663    0.277
 4029.00    0.94816   0.96497    0.282
 4030.00    0.92147   0.93298    0.273
 4031.00    0.89309   0.90830    0.266
 4032.00    0.85832   0.89775    0.263
 4033.00    0.85302   0.90478    0.262
 4034.00    0.94013   0.92752    0.266
 4035.00    1.01986   0.95987    0.270
 4036.00    1.07994   0.99378    0.272
 4037.00    1.10843   1.02178    0.272
 4038.00    1.06479   1.03894    0.267
 4039.00    1.02967   1.04162    0.264
 4040.00    1.01141   1.02731    0.263
 4041.00    0.99951   0.99738    0.264
 4042.00    0.99860   0.95907    0.267
 4043.00    0.97951   0.92320    0.268
 4044.00    0.93303   0.89858    0.264
 4045.00    0.90163   0.88991    0.262
 4046.00    0.89022   0.89851    0.260
 4047.00    0.90995   0.92117    0.260
 4048.00    0.96601   0.95080    0.262
 4049.00    1.00120   0.97940    0.264
 4050.00    1.01490   1.00014    0.264
 4051.00    1.01082   1.00882    0.263
 4052.00    0.99059   1.00515    0.260
 4053.00    0.98817   0.99174    0.258
 4054.00    1.00000   0.97314    0.257
 4055.00    0.99792   0.95493    0.257
 4056.00    0.98604   0.94093    0.258
 4057.00    0.95638   0.93127    0.257
 4058.00    0.91573   0.92261    0.254
 4059.00    0.89754   0.91138    0.253
 4060.00    0.89146   0.89771    0.254
 4061.00    0.89128   0.88510    0.253
 4062.00    0.89387   0.87623    0.252
 4063.00    0.89387   0.87260    0.253
 4064.00    0.89281   0.87632    0.253
 4065.00    0.92170   0.88843    0.255
 4066.00    0.96091   0.90550    0.258
 4067.00    0.96596   0.92140    0.258
 4068.00    0.96109   0.93271    0.257
 4069.00    0.94100   0.93997    0.256
 4070.00    0.91725   0.94347    0.256
 4071.00    0.91032   0.94247    0.254
 4072.00    0.90665   0.93694    0.252
 4073.00    0.91410   0.92796    0.251
 4074.00    0.92321   0.91852    0.251
 4075.00    0.88123   0.91331    0.248
 4076.00    0.83359   0.91634    0.245
 4077.00    0.86556   0.92882    0.247
 4078.00    0.90337   0.94842    0.250
 4079.00    0.94680   0.97146    0.254
 4080.00    0.99045   0.99495    0.258
 4081.00    0.99326   1.01669    0.259
 4082.00    0.99682   1.03549    0.260
 4083.00    1.03715   1.05208    0.257
 4084.00    1.07582   1.06825    0.255
 4085.00    1.08728   1.08488    0.259
 4086.00    1.09819   1.10111    0.262
 4087.00    1.10354   1.11535    0.264
 4088.00    1.10300   1.12553    0.265
 4089.00    1.05928   1.12957    0.260
 4090.00    1.02865   1.12650    0.256
 4091.00    1.07150   1.11519    0.257
 4092.00    1.09563   1.09511    0.000
 4093.00    1.03596   1.06880    0.000
 4094.00    0.99029   1.03985    0.000
 4095.00    0.99604   1.01026    0.000
 4096.00    0.98199   0.98044    0.000
 4097.00    0.90708   0.95071    0.000
 4098.00    0.85885   0.92341    0.000
 4099.00    0.88034   0.90293    0.000
 4100.00    0.88485   0.89291    0.000
 4101.00    0.85121   0.89436    0.000
 4102.00    0.84871   0.90665    0.000
 4103.00    0.90681   0.92730    0.000
 4104.00    0.94939   0.95176    0.000
 4105.00    0.96563   0.97547    0.000
 4106.00    0.97655   0.99484    0.000
 4107.00    0.97955   1.00768    0.000
 4108.00    0.97982   1.01442    0.000
 4109.00    0.97650   1.01807    0.000
 4110.00    0.98182   1.02190    0.000
 4111.00    0.99708   1.02727    0.000
 4112.00    1.01799   1.03442    0.000
 4113.00    1.04463   1.04246    0.246
 4114.00    1.06363   1.04839    0.246
 4115.00    1.07577   1.04943    0.242
 4116.00    1.06610   1.04606    0.242
 4117.00    1.03921   1.04048    0.245
 4118.00    1.02905   1.03342    0.247
 4119.00    1.03051   1.02610    0.247
 4120.00    1.02325   1.02118    0.248
 4121.00    1.01067   1.02000    0.251
 4122.00    1.01304   1.02120    0.251
 4123.00    1.02334   1.02214    0.251
 4124.00    1.03556   1.02070    0.252
 4125.00    1.04866   1.01535    0.252
 4126.00    1.04232   1.00586    0.249
 4127.00    1.02825   0.99246    0.243
 4128.00    0.98923   0.97540    0.241
 4129.00    0.94176   0.95640    0.239
 4130.00    0.93251   0.94009    0.239
 4131.00    0.93413   0.93098    0.238
 4132.00    0.94983   0.93196    0.236
 4133.00    0.96884   0.94251    0.234
 4134.00    0.98926   0.95908    0.235
 4135.00    1.00995   0.97887    0.237
 4136.00    1.00354   0.99813    0.239
 4137.00    0.99318   1.01192    0.241
 4138.00    1.00874   1.01513    0.243
 4139.00    1.02705   1.00474    0.244
 4140.00    1.02173   0.98328    0.245
 4141.00    1.01478   0.95906    0.246
 4142.00    0.93321   0.94008    0.241
 4143.00    0.84907   0.92860    0.236
 4144.00    0.90097   0.92447    0.238
 4145.00    0.95183   0.92660    0.241
 4146.00    0.95950   0.93192    0.243
 4147.00    0.96671   0.93803    0.245
 4148.00    0.96698   0.94312    0.246
 4149.00    0.96622   0.94430    0.247
 4150.00    0.95527   0.94063    0.245
 4151.00    0.94441   0.93413    0.245
 4152.00    0.93412   0.92817    0.245
 4153.00    0.92890   0.92485    0.246
 4154.00    0.95134   0.92608    0.247
 4155.00    0.96533   0.93378    0.247
 4156.00    0.94238   0.94708    0.240
 4157.00    0.92798   0.96406    0.236
 4158.00    0.94429   0.98326    0.240
 4159.00    0.95890   1.00385    0.243
 4160.00    0.96835   1.02223    0.240
 4161.00    0.97319   1.03445    0.238
 4162.00    0.96621   1.03971    0.240
 4163.00    0.96426   1.03770    0.240
 4164.00    0.97344   1.02906    0.238
 4165.00    0.97470   1.01757    0.236
 4166.00    0.96077   1.00598    0.237
 4167.00    0.95723   0.99289    0.238
 4168.00    0.97106   0.97659    0.240
 4169.00    0.96395   0.95716    0.239
 4170.00    0.92617   0.93734    0.235
 4171.00    0.90788   0.92041    0.234
 4172.00    0.91470   0.90754    0.237
 4173.00    0.91637   0.89832    0.239
 4174.00    0.91217   0.89264    0.241
 4175.00    0.91409   0.89198    0.241
 4176.00    0.92212   0.89752    0.237
 4177.00    0.91851   0.90716    0.233
 4178.00    0.90461   0.91688    0.229
 4179.00    0.91185   0.92527    0.228
 4180.00    0.93553   0.93387    0.231
 4181.00    0.94685   0.94366    0.231
 4182.00    0.94971   0.95380    0.231
 4183.00    0.94535   0.96043    0.231
 4184.00    0.93665   0.96180    0.230
 4185.00    0.92971   0.96270    0.230
 4186.00    0.92371   0.96658    0.230
 4187.00    0.94839   0.97153    0.229
 4188.00    0.98700   0.97571    0.227
 4189.00    0.99201   0.98101    0.225
 4190.00    0.98392   0.98780    0.224
 4191.00    0.97080   0.99183    0.223
 4192.00    0.95602   0.98878    0.223
 4193.00    0.96228   0.97760    0.223
 4194.00    0.97440   0.95994    0.224
 4195.00    0.94019   0.93868    0.223
 4196.00    0.89535   0.91821    0.222
 4197.00    0.87698   0.90154    0.222
 4198.00    0.86348   0.88910    0.221
 4199.00    0.89021   0.88365    0.222
 4200.00    0.92264   0.88870    0.222
 4201.00    0.92958   0.90274    0.220
 4202.00    0.93393   0.92286    0.218
 4203.00    0.94058   0.94742    0.220
 4204.00    0.94739   0.97359    0.222
 4205.00    0.97752   0.99862    0.222
 4206.00    1.00833   1.01955    0.221
 4207.00    1.01094   1.03422    0.223
 4208.00    1.01331   1.04330    0.224
 4209.00    1.00861   1.04761    0.225
 4210.00    1.00479   1.04609    0.226
 4211.00    1.01385   1.03847    0.223
 4212.00    1.02261   1.02701    0.221
 4213.00    1.02845   1.01855    0.221
 4214.00    1.03120   1.01953    0.222
 4215.00    1.01267   1.02874    0.221
 4216.00    0.99901   1.04143    0.221
 4217.00    1.01125   1.05457    0.222
 4218.00    1.02104   1.06441    0.222
 4219.00    1.02032   1.06465    0.222
 4220.00    1.01525   1.05014    0.221
 4221.00    0.99479   1.01865    0.220
 4222.00    0.97249   0.97203    0.219
 4223.00    0.94471   0.91766    0.219
 4224.00    0.91281   0.86870    0.219
 4225.00    0.87051   0.83878    0.218
 4226.00    0.84746   0.83247    0.217
 4227.00    0.86628   0.84689    0.218
 4228.00    0.89062   0.87654    0.219
 4229.00    0.92538   0.91222    0.218
 4230.00    0.95944   0.94574    0.217
 4231.00    0.99237   0.97344    0.216
 4232.00    1.01415   0.99056    0.215
 4233.00    1.01985   0.99510    0.215
 4234.00    1.01875   0.99356    0.215
 4235.00    1.00900   0.99201    0.215
 4236.00    1.00830   0.99358    0.214
 4237.00    1.01770   1.00201    0.212
 4238.00    1.03123   1.01848    0.212
 4239.00    1.04883   1.03964    0.212
 4240.00    1.07154   1.06300    0.214
 4241.00    1.09868   1.08720    0.216
 4242.00    1.10526   1.10733    0.218
 4243.00    1.09607   1.11769    0.220
 4244.00    1.10606   1.11597    0.222
 4245.00    1.12897   1.10302    0.224
 4246.00    1.11913   1.08152    0.224
 4247.00    1.08996   1.05457    0.223
 4248.00    1.04624   1.02749    0.223
 4249.00    0.99503   1.00589    0.223
 4250.00    0.98816   0.99031    0.226
 4251.00    1.00109   0.97908    0.229
 4252.00    1.00535   0.97362    0.227
 4253.00    1.00628   0.97627    0.223
 4254.00    1.00100   0.98507    0.221
 4255.00    0.99369   0.99271    0.219
 4256.00    0.97383   0.99409    0.216
 4257.00    0.95054   0.99181    0.213
 4258.00    0.95709   0.99330    0.214
 4259.00    0.97033   1.00435    0.216
 4260.00    1.01114   1.02369    0.219
 4261.00    1.05689   1.04629    0.222
 4262.00    1.03715   1.07005    0.221
 4263.00    1.00845   1.09272    0.219
 4264.00    1.01295   1.10783    0.221
 4265.00    1.02069   1.10913    0.223
 4266.00    1.03254   1.09365    0.222
 4267.00    1.04465   1.06120    0.221
 4268.00    1.01666   1.01598    0.218
 4269.00    0.98754   0.96803    0.216
 4270.00    0.94653   0.92807    0.214
 4271.00    0.90686   0.90088    0.211
 4272.00    0.90251   0.88885    0.211
 4273.00    0.90038   0.89492    0.210
 4274.00    0.92860   0.91798    0.215
 4275.00    0.95817   0.95212    0.220
 4276.00    1.00000   0.98770    0.221
 4277.00    1.04062   1.01545    0.222
 4278.00    1.07312   1.03471    0.222
 4279.00    1.09824   1.04778    0.222
 4280.00    1.08519   1.05343    0.220
 4281.00    1.07454   1.05095    0.217
 4282.00    1.07389   1.04085   -2.000
 4283.00    1.06494   1.02606   -2.000
 4284.00    1.02734   1.01102   -2.000
 4285.00    0.99645   0.99490   -2.000
 4286.00    0.98506   0.97442   -2.000
 4287.00    0.96961   0.95206   -2.000
 4288.00    0.94408   0.93482   -2.000
 4289.00    0.93568   0.92772   -2.000
 4290.00    0.96388   0.92896   -2.000
 4291.00    0.98495   0.93171   -2.000
 4292.00    0.99275   0.93301   -2.000
 4293.00    0.99470   0.93330   -2.000
 4294.00    0.98714   0.92884   -2.000
 4295.00    0.96927   0.91383   -2.000
 4296.00    0.93671   0.88636   -2.000
 4297.00    0.89883   0.85136   -2.000
 4298.00    0.85431   0.81831    0.211
 4299.00    0.82051   0.79065    0.207
 4300.00    0.79854   0.76736    0.204
 4301.00    0.78431   0.74981    0.202
 4302.00    0.77761   0.73790    0.202
 4303.00    0.76404   0.72981    0.202
 4304.00    0.74458   0.72329    0.201
 4305.00    0.72875   0.71648    0.201
 4306.00    0.71567   0.71304    0.200
 4307.00    0.71525   0.71900    0.200
 4308.00    0.72323   0.73672    0.201
 4309.00    0.76910   0.76728    0.202
 4310.00    0.83701   0.81101    0.204
 4311.00    0.88498   0.86648    0.204
 4312.00    0.92284   0.93241    0.203
 4313.00    0.97716   1.00630    0.204
 4314.00    1.03870   1.08026    0.206
 4315.00    1.07253   1.14378    0.207
 4316.00    1.09591   1.19087    0.209
 4317.00    1.11732   1.21910    0.212
 4318.00    1.13809   1.22767    0.216
 4319.00    1.14642   1.21722    0.217
 4320.00    1.15142   1.18743    0.218
 4321.00    1.13175   1.14204    0.214
 4322.00    1.10667   1.09165    0.209
 4323.00    1.05132   1.04920    0.208
 4324.00    0.99071   1.02700    0.206
 4325.00    1.00071   1.02991    0.208
 4326.00    1.02005   1.05170    0.210
 4327.00    1.07376   1.08417    0.211
 4328.00    1.13068   1.12332    0.213
 4329.00    1.16868   1.16619    0.213
 4330.00    1.20559   1.20590    0.000
 4331.00    1.23162   1.23308    0.000
 4332.00    1.25681   1.24352    0.000
 4333.00    1.21608   1.23698    0.000
 4334.00    1.17630   1.21357    0.000
 4335.00    1.15926   1.17631    0.000
 4336.00    1.13901   1.13234    0.000
 4337.00    1.07700   1.08880    0.000
 4338.00    1.02045   1.05285    0.000
 4339.00    1.01164   1.03177    0.000
 4340.00    1.00982   1.02802    0.000
 4341.00    1.05317   1.04038    0.000
 4342.00    1.09290   1.06633    0.000
 4343.00    1.11430   1.10028    0.000
 4344.00    1.13294   1.13526    0.000
 4345.00    1.14026   1.16607    0.000
 4346.00    1.14758   1.18906    0.000
 4347.00    1.15491   1.20066    0.000
 4348.00    1.16022   1.19740    0.000
 4349.00    1.15976   1.18146    0.000
 4350.00    1.15296   1.16441    0.000
 4351.00    1.13068   1.15502    0.213
 4352.00    1.11773   1.15141    0.214
 4353.00    1.12443   1.15157    0.215
 4354.00    1.13001   1.15886    0.217
 4355.00    1.13353   1.17399    0.218
 4356.00    1.14258   1.19162    0.220
 4357.00    1.16046   1.20821    0.223
 4358.00    1.18544   1.22600    0.225
 4359.00    1.22038   1.24541    0.223
 4360.00    1.25459   1.26217    0.222
 4361.00    1.28790   1.27522    0.222
 4362.00    1.29951   1.28771    0.219
 4363.00    1.28752   1.29787    0.214
 4364.00    1.26989   1.29861    0.212
 4365.00    1.24684   1.28835    0.213
 4366.00    1.22315   1.27291    0.212
 4367.00    1.19893   1.25656    0.210
 4368.00    1.19355   1.23809    0.211
 4369.00    1.20221   1.21722    0.213
 4370.00    1.18209   1.19618    0.213
 4371.00    1.14313   1.17620    0.211
 4372.00    1.12341   1.15819    0.209
 4373.00    1.11471   1.14513    0.207
 4374.00    1.09966   1.14023    0.207
 4375.00    1.08145   1.14039    0.208
 4376.00    1.09412   1.13799    0.209
 4377.00    1.12012   1.12911    0.209
 4378.00    1.10343   1.11411    0.209
 4379.00    1.07095   1.09112    0.209
 4380.00    1.02475   1.05532    0.206
 4381.00    0.97425   1.01024    0.202
 4382.00    0.95921   0.97144    0.203
 4383.00    0.95345   0.95119    0.205
 4384.00    0.96035   0.94846    0.203
 4385.00    0.96995   0.95583    0.199
 4386.00    0.98724   0.97142    0.199
 4387.00    1.00584   0.99674    0.200
 4388.00    1.05053   1.02761    0.202
 4389.00    1.09856   1.05735    0.204
 4390.00    1.11613   1.08219    0.205
 4391.00    1.13097   1.10213    0.206
 4392.00    1.12625   1.11921    0.206
 4393.00    1.12049   1.13687    0.206
 4394.00    1.12344   1.15798    0.207
 4395.00    1.12696   1.17778    0.207
 4396.00    1.16255   1.18785    0.207
 4397.00    1.19651   1.18585    0.207
 4398.00    1.19482   1.17610    0.209
 4399.00    1.19116   1.16436    0.210
 4400.00    1.16331   1.14810    0.209
 4401.00    1.13327   1.11991    0.208
 4402.00    1.08490   1.08510    0.206
 4403.00    1.04294   1.05968    0.205
 4404.00    1.04122   1.05117    0.206
 4405.00    1.04029   1.05313    0.206
 4406.00    1.04323   1.06084    0.205
 4407.00    1.05254   1.07995    0.204
 4408.00    1.08733   1.11219    0.203
 4409.00    1.12350   1.14770    0.202
 4410.00    1.16428   1.17570    0.204
 4411.00    1.19713   1.19209    0.206
 4412.00    1.20775   1.19716    0.208
 4413.00    1.21591   1.19595    0.208
 4414.00    1.21822   1.19552    0.207
 4415.00    1.21518   1.19786    0.207
 4416.00    1.20108   1.20262    0.209
 4417.00    1.18966   1.21000    0.209
 4418.00    1.18303   1.21905    0.205
 4419.00    1.18801   1.22628    0.204
 4420.00    1.21125   1.22835    0.204
 4421.00    1.22731   1.22791    0.204
 4422.00    1.23345   1.22681    0.204
 4423.00    1.24382   1.22242    0.205
 4424.00    1.25933   1.21621    0.206
 4425.00    1.25500   1.21303    0.205
 4426.00    1.22939   1.21387    0.204
 4427.00    1.19970   1.21274    0.204
 4428.00    1.16616   1.20604    0.203
 4429.00    1.16284   1.19938    0.204
 4430.00    1.18474   1.19448    0.205
 4431.00    1.19593   1.18658    0.206
 4432.00    1.19927   1.17553    0.205
 4433.00    1.19419   1.16838    0.206
 4434.00    1.18369   1.17275    0.208
 4435.00    1.19030   1.18614    0.208
 4436.00    1.20657   1.20113    0.207
 4437.00    1.21726   1.21474    0.208
 4438.00    1.22521   1.22548    0.210
 4439.00    1.21744   1.23202    0.209
 4440.00    1.20300   1.23472    0.206
 4441.00    1.21768   1.23654    0.206
 4442.00    1.24293   1.24187    0.208
 4443.00    1.25546   1.25129    0.208
 4444.00    1.26407   1.26183    0.208
 4445.00    1.28505   1.27306    0.208
 4446.00    1.30919   1.28638    0.209
 4447.00    1.31520   1.29643    0.209
 4448.00    1.31744   1.29626    0.209
 4449.00    1.30422   1.28669    0.208
 4450.00    1.28847   1.27016    0.207
 4451.00    1.27337   1.24594    0.205
 4452.00    1.25834   1.21376    0.203
 4453.00    1.22745   1.17962    0.202
 4454.00    1.19520   1.15135    0.201
 4455.00    1.16290   1.12819    0.200
 4456.00    1.13060   1.10786    0.199
 4457.00    1.12826   1.09373    0.197
 4458.00    1.12637   1.08883    0.195
 4459.00    1.12281   1.09125    0.196
 4460.00    1.12074   1.10068    0.197
 4461.00    1.14903   1.11838    0.000
 4462.00    1.17598   1.13891    0.000
 4463.00    1.18728   1.15708    0.000
 4464.00    1.19933   1.17430    0.000
 4465.00    1.21754   1.19252    0.000
 4466.00    1.23270   1.20894    0.000
 4467.00    1.22935   1.22048    0.000
 4468.00    1.23086   1.23210    0.000
 4469.00    1.25572   1.24881    0.000
 4470.00    1.28157   1.27001    0.000
 4471.00    1.31124   1.29315    0.000
 4472.00    1.33518   1.31511    0.000
 4473.00    1.34047   1.33389    0.000
 4474.00    1.34562   1.34947    0.000
 4475.00    1.35039   1.36031    0.000
 4476.00    1.34702   1.36144    0.000
 4477.00    1.32449   1.35038    0.000
 4478.00    1.30464   1.33249    0.000
 4479.00    1.29022   1.31645    0.000
 4480.00    1.28227   1.30671    0.000
 4481.00    1.28578   1.30398    0.000
 4482.00    1.29422   1.30696    0.197
 4483.00    1.31032   1.31429    0.199
 4484.00    1.31938   1.32427    0.200
 4485.00    1.31886   1.33188    0.199
 4486.00    1.32469   1.33193    0.199
 4487.00    1.33813   1.32370    0.198
 4488.00    1.33127   1.31211    0.197
 4489.00    1.30293   1.30169    0.197
 4490.00    1.29076   1.29192    0.197
 4491.00    1.29366   1.28071    0.197
 4492.00    1.28758   1.27007    0.196
 4493.00    1.27410   1.26623    0.195
 4494.00    1.27689   1.27040    0.195
 4495.00    1.29145   1.27979    0.196
 4496.00    1.30150   1.29355    0.197
 4497.00    1.30869   1.31166    0.198
 4498.00    1.32215   1.33287    0.199
 4499.00    1.33908   1.35472    0.199
 4500.00    1.34627   1.37962    0.198
 4501.00    1.34877   1.40765    0.196
 4502.00    1.35324   1.43138    0.196
 4503.00    1.35854   1.44712    0.196
 4504.00    1.37708   1.45746    0.197
 4505.00    1.40034   1.46468    0.196
 4506.00    1.42404   1.46736    0.197
 4507.00    1.44789   1.46399    0.198
 4508.00    1.43255   1.45629    0.196
 4509.00    1.40739   1.44514    0.194
 4510.00    1.39380   1.43034    0.194
 4511.00    1.38255   1.41405    0.194
 4512.00    1.35466   1.39921    0.193
 4513.00    1.32412   1.38769    0.191
 4514.00    1.32924   1.37930    0.192
 4515.00    1.33859   1.37189    0.193
 4516.00    1.33680   1.36720    0.193
 4517.00    1.33411   1.36880    0.193
 4518.00    1.32958   1.37331    0.193
 4519.00    1.32497   1.37380    0.193
 4520.00    1.32853   1.36497    0.192
 4521.00    1.33215   1.34928    0.192
 4522.00    1.33452   1.33047    0.193
 4523.00    1.33544   1.30461    0.194
 4524.00    1.30918   1.27105    0.192
 4525.00    1.28167   1.23602    0.190
 4526.00    1.24022   1.20623    0.189
 4527.00    1.20326   1.18387    0.188
 4528.00    1.20155   1.16869    0.187
 4529.00    1.19656   1.16178    0.186
 4530.00    1.17218   1.16513    0.186
 4531.00    1.15545   1.17422    0.185
 4532.00    1.17451   1.18486    0.187
 4533.00    1.19324   1.19890    0.189
 4534.00    1.21070   1.22077    0.190
 4535.00    1.22581   1.24870    0.191
 4536.00    1.23337   1.27219    0.192
 4537.00    1.24883   1.28819    0.193
 4538.00    1.28561   1.30082    0.192
 4539.00    1.31638   1.31242    0.192
 4540.00    1.33319   1.32132    0.192
 4541.00    1.34270   1.32360    0.192
 4542.00    1.33755   1.31780    0.190
 4543.00    1.32694   1.30927    0.189
 4544.00    1.30680   1.30478    0.189
 4545.00    1.29054   1.30212    0.189
 4546.00    1.28021   1.29530    0.188
 4547.00    1.27724   1.28489    0.189
 4548.00    1.28417   1.27914    0.191
 4549.00    1.28273   1.27947    0.192
 4550.00    1.27139   1.27894    0.000
 4551.00    1.26689   1.27783    0.000
 4552.00    1.26953   1.28078    0.000
 4553.00    1.27330   1.28984    0.000
 4554.00    1.27810   1.30472    0.000
 4555.00    1.28660   1.32380    0.000
 4556.00    1.29810   1.34344    0.000
 4557.00    1.32460   1.36045    0.000
 4558.00    1.36181   1.37380    0.000
 4559.00    1.37311   1.38393    0.000
 4560.00    1.36818   1.38880    0.000
 4561.00    1.36830   1.38462    0.000
 4562.00    1.37117   1.37445    0.000
 4563.00    1.36659   1.36617    0.000
 4564.00    1.35846   1.36395    0.000
 4565.00    1.35859   1.36615    0.000
 4566.00    1.36211   1.36897    0.000
 4567.00    1.37173   1.37306    0.000
 4568.00    1.38349   1.37834    0.000
 4569.00    1.39032   1.38080    0.000
 4570.00    1.39569   1.38337    0.000
 4571.00    1.39866   1.38937    0.000
 4572.00    1.40104   1.39150    0.000
 4573.00    1.38888   1.38675    0.000
 4574.00    1.37384   1.38151    0.000
 4575.00    1.37027   1.37731    0.000
 4576.00    1.36847   1.36775    0.000
 4577.00    1.35980   1.34987    0.000
 4578.00    1.35034   1.32977    0.000
 4579.00    1.33490   1.31437    0.000
 4580.00    1.31900   1.30466    0.000
 4581.00    1.32684   1.29750    0.000
 4582.00    1.33567   1.29359    0.000
 4583.00    1.34194   1.29591    0.000
 4584.00    1.34811   1.30362    0.000
 4585.00    1.35095   1.31538    0.000
 4586.00    1.35461   1.32829    0.000
 4587.00    1.37248   1.33871    0.000
 4588.00    1.38778   1.34356    0.000
 4589.00    1.37563   1.34251    0.000
 4590.00    1.36269   1.33774    0.000
 4591.00    1.34387   1.33071    0.000
 4592.00    1.32589   1.32048    0.000
 4593.00    1.31281   1.30798    0.000
 4594.00    1.30024   1.29789    0.000
 4595.00    1.29007   1.29250    0.000
 4596.00    1.27997   1.29099    0.000
 4597.00    1.27017   1.29196    0.000
 4598.00    1.27006   1.29198    0.000
 4599.00    1.30025   1.29346    0.000
 4600.00    1.32463   1.29956    0.000
 4601.00    1.33360   1.30736    0.000
 4602.00    1.33293   1.31518    0.000
 4603.00    1.31029   1.32460    0.000
 4604.00    1.30669   1.33902    0.000
 4605.00    1.34063   1.35797    0.000
 4606.00    1.37327   1.37889    0.000
 4607.00    1.40369   1.39776    0.000
 4608.00    1.41911   1.41143    0.000
 4609.00    1.41196   1.42085    0.000
 4610.00    1.41130   1.42728    0.000
 4611.00    1.41926   1.42966    0.000
 4612.00    1.41442   1.42967    0.000
 4613.00    1.39469   1.42946    0.000
 4614.00    1.39188   1.42883    0.000
 4615.00    1.40647   1.43051    0.000
 4616.00    1.41709   1.43332    0.000
 4617.00    1.42412   1.43383    0.000
 4618.00    1.41770   1.43512    0.000
 4619.00    1.40052   1.43843    0.000
 4620.00    1.39422   1.43848    0.000
 4621.00    1.39556   1.43611    0.000
 4622.00    1.40875   1.43536    0.000
 4623.00    1.42922   1.43332    0.000
 4624.00    1.43991   1.42891    0.000
 4625.00    1.44532   1.42666    0.000
 4626.00    1.43216   1.42521    0.000
 4627.00    1.41032   1.41978    0.000
 4628.00    1.41039   1.41464    0.000
 4629.00    1.41930   1.41382    0.000
 4630.00    1.41658   1.40982    0.000
 4631.00    1.40986   1.39802    0.000
 4632.00    1.39512   1.38549    0.000
 4633.00    1.37804   1.37529    0.000
 4634.00    1.35790   1.36238    0.000
 4635.00    1.33702   1.34576    0.000
 4636.00    1.32945   1.33103    0.000
 4637.00    1.32446   1.31989    0.000
 4638.00    1.31187   1.31014    0.000
 4639.00    1.29814   1.30339    0.000
 4640.00    1.28818   1.29782    0.000
 4641.00    1.27863   1.28909    0.000
 4642.00    1.28478   1.27845    0.000
 4643.00    1.29207   1.26824    0.000
 4644.00    1.28073   1.25632    0.000
 4645.00    1.26868   1.24483    0.000
 4646.00    1.25707   1.23991    0.000
 4647.00    1.24604   1.24280    0.000
 4648.00    1.25621   1.25040    0.000
 4649.00    1.26773   1.26150    0.000
 4650.00    1.30135   1.27642    0.000
 4651.00    1.33348   1.29257    0.000
 4652.00    1.35030   1.30518    0.000
 4653.00    1.36275   1.31509    0.000
 4654.00    1.34331   1.32563    0.000
 4655.00    1.33098   1.33761    0.000
 4656.00    1.35838   1.35042    0.000
 4657.00    1.38086   1.36238    0.000
 4658.00    1.38142   1.37077    0.000
 4659.00    1.38417   1.37212    0.000
 4660.00    1.39497   1.36402    0.000
 4661.00    1.39620   1.34620    0.000
 4662.00    1.36806   1.32245    0.000
 4663.00    1.33875   1.29542    0.000
 4664.00    1.30637   1.26444    0.000
 4665.00    1.27797   1.23456    0.000
 4666.00    1.25848   1.21638    0.000
 4667.00    1.24835   1.21274    0.000
 4668.00    1.25639   1.21765    0.000
 4669.00    1.26307   1.22860    0.000
 4670.00    1.26746   1.24597    0.000
 4671.00    1.27304   1.26638    0.000
 4672.00    1.28038   1.28467    0.000
 4673.00    1.29745   1.29928    0.000
 4674.00    1.32721   1.31006    0.000
 4675.00    1.33548   1.31401    0.000
 4676.00    1.31904   1.31083    0.000
 4677.00    1.30238   1.30562    0.000
 4678.00    1.28550   1.30079    0.000
 4679.00    1.28114   1.29475    0.000
 4680.00    1.28797   1.28953    0.000
 4681.00    1.29143   1.28917    0.000
 4682.00    1.29224   1.29186    0.000
 4683.00    1.29531   1.29495    0.000
 4684.00    1.29996   1.29897    0.000
 4685.00    1.30722   1.30231    0.000
 4686.00    1.31605   1.30337    0.000
 4687.00    1.31919   1.30394    0.000
 4688.00    1.31931   1.30428    0.000
 4689.00    1.30165   1.30340    0.000
 4690.00    1.27582   1.30396    0.000
 4691.00    1.27743   1.30695    0.000
 4692.00    1.28990   1.30912    0.000
 4693.00    1.29458   1.31016    0.000
 4694.00    1.29663   1.31108    0.000
 4695.00    1.28521   1.30768    0.000
 4696.00    1.26996   1.29689    0.000
 4697.00    1.27054   1.28375    0.000
 4698.00    1.27482   1.27328    0.000
 4699.00    1.28295   1.26232    0.000
 4700.00    1.29181   1.24910    0.000
 4701.00    1.25519   1.23865    0.000
 4702.00    1.21195   1.23616    0.000
 4703.00    1.22277   1.23765    0.000
 4704.00    1.23931   1.23809    0.000
 4705.00    1.26468   1.23890    0.000
 4706.00    1.29066   1.24337    0.000
 4707.00    1.26750   1.24944    0.000
 4708.00    1.24268   1.25526    0.000
 4709.00    1.28425   1.26319    0.000
 4710.00    1.32409   1.27308    0.000
 4711.00    1.30424   1.28223    0.000
 4712.00    1.28583   1.29092    0.000
 4713.00    1.28955   1.30368    0.000
 4714.00    1.29621   1.32146    0.000
 4715.00    1.33163   1.33929    0.000
 4716.00    1.36145   1.35510    0.000
 4717.00    1.35156   1.37278    0.000
 4718.00    1.34767   1.39198    0.000
 4719.00    1.37645   1.40594    0.000
 4720.00    1.39878   1.41139    0.000
 4721.00    1.39308   1.41092    0.000
 4722.00    1.39081   1.40650    0.000
 4723.00    1.40083   1.39642    0.000
 4724.00    1.40344   1.37849    0.000
 4725.00    1.38375   1.35393    0.000
 4726.00    1.36500   1.32928    0.000
 4727.00    1.34865   1.30912    0.000
 4728.00    1.32994   1.29275    0.000
 4729.00    1.30602   1.28074    0.000
 4730.00    1.29337   1.27644    0.000
 4731.00    1.30226   1.27975    0.000
 4732.00    1.31100   1.28849    0.000
 4733.00    1.31948   1.30077    0.000
 4734.00    1.32314   1.31122    0.000
 4735.00    1.31975   1.31929    0.000
 4736.00    1.32571   1.33096    0.000
 4737.00    1.34368   1.34379    0.000
 4738.00    1.36059   1.34996    0.000
 4739.00    1.37627   1.35335    0.000
 4740.00    1.38241   1.36199    0.000
 4741.00    1.37901   1.37216    0.000
 4742.00    1.38977   1.37715    0.000
 4743.00    1.41301   1.37989    0.000
 4744.00    1.40806   1.38674    0.000
 4745.00    1.38121   1.39453    0.000
 4746.00    1.38112   1.39665    0.000
 4747.00    1.39928   1.39512    0.000
 4748.00    1.40828   1.39420    0.000
 4749.00    1.41180   1.39060    0.000
 4750.00    1.39935   1.38132    0.000
 4751.00    1.37856   1.37061    0.000
 4752.00    1.36984   1.36105    0.000
 4753.00    1.36660   1.35212    0.000
 4754.00    1.36489   1.34425    0.000
 4755.00    1.36376   1.33846    0.000
 4756.00    1.35864   1.33363    0.000
 4757.00    1.35220   1.32966    0.000
 4758.00    1.35927   1.32571    0.000
 4759.00    1.37010   1.31771    0.000
 4760.00    1.36652   1.30504    0.000
 4761.00    1.35965   1.29304    0.181
 4762.00    1.33584   1.28294    0.181
 4763.00    1.30892   1.27203    0.181
 4764.00    1.30585   1.26397    0.181
 4765.00    1.30614   1.26447    0.180
 4766.00    1.30187   1.27143    0.180
 4767.00    1.29713   1.28211    0.180
 4768.00    1.32139   1.29706    0.180
 4769.00    1.34753   1.31325    0.180
 4770.00    1.34624   1.32796    0.180
 4771.00    1.34421   1.34384    0.180
 4772.00    1.38380   1.36118    0.180
 4773.00    1.42138   1.37382    0.180
 4774.00    1.40060   1.38118    0.179
 4775.00    1.38061   1.38928    0.178
 4776.00    1.37180   1.39635    0.177
 4777.00    1.36522   1.39503    0.177
 4778.00    1.37970   1.38780    0.177
 4779.00    1.39082   1.38110    0.176
 4780.00    1.37903   1.37092    0.177
 4781.00    1.36846   1.35477    0.177
 4782.00    1.36430   1.34129    0.175
 4783.00    1.35754   1.33270    0.173
 4784.00    1.33969   1.32213    0.173
 4785.00    1.32585   1.31345    0.173
 4786.00    1.32609   1.31382    0.175
 4787.00    1.32755   1.31822    0.176
 4788.00    1.33261   1.32349    0.176
 4789.00    1.33898   1.33483    0.176
 4790.00    1.34865   1.35088    0.174
 4791.00    1.36451   1.36656    0.174
 4792.00    1.39375   1.38226    0.175
 4793.00    1.40937   1.39581    0.175
 4794.00    1.39938   1.40296    0.175
 4795.00    1.39702   1.40516    0.175
 4796.00    1.40720   1.40449    0.175
 4797.00    1.41046   1.39990    0.176
 4798.00    1.40374   1.39289    0.177
 4799.00    1.39010   1.38794    0.177
 4800.00    1.36769   1.38581    0.176
 4801.00    1.36203   1.38354    0.175
 4802.00    1.37506   1.37922    0.176
 4803.00    1.37628   1.37446    0.176
 4804.00    1.36586   1.37118    0.175
 4805.00    1.36295   1.36640    0.176
 4806.00    1.36658   1.35920    0.177
 4807.00    1.36452   1.35492    0.177
 4808.00    1.35811   1.35626    0.176
 4809.00    1.35727   1.35907    0.176
 4810.00    1.36018   1.36273    0.174
 4811.00    1.36163   1.37000    0.175
 4812.00    1.36223   1.37983    0.176
 4813.00    1.36949   1.38938    0.175
 4814.00    1.38016   1.39857    0.174
 4815.00    1.39550   1.40730    0.175
 4816.00    1.41293   1.41419    0.177
 4817.00    1.40945   1.41765    0.177
 4818.00    1.39799   1.41644    0.176
 4819.00    1.40283   1.41175    0.176
 4820.00    1.41297   1.40436    0.176
 4821.00    1.41272   1.39261    0.177
 4822.00    1.40964   1.37932    0.178
 4823.00    1.38381   1.37048    0.177
 4824.00    1.35290   1.36482    0.175
 4825.00    1.34103   1.35767    0.174
 4826.00    1.33256   1.35110    0.174
 4827.00    1.33258   1.34878    0.174
 4828.00    1.33377   1.34912    0.174
 4829.00    1.34384   1.34700    0.175
 4830.00    1.35478   1.34224    0.175
 4831.00    1.35916   1.34134    0.175
 4832.00    1.36315   1.34521    0.175
 4833.00    1.35738   1.34603    0.174
 4834.00    1.35129   1.34284    0.174
 4835.00    1.33489   1.34247    0.173
 4836.00    1.31964   1.34295    0.173
 4837.00    1.33443   1.33774    0.172
 4838.00    1.34754   1.32995    0.172
 4839.00    1.33777   1.32719    0.173
 4840.00    1.33022   1.32700    0.175
 4841.00    1.34272   1.32444    0.175
 4842.00    1.35403   1.32391    0.174
 4843.00    1.35745   1.32908    0.173
 4844.00    1.35894   1.33474    0.172
 4845.00    1.35050   1.33628    0.173
 4846.00    1.34426   1.33529    0.174
 4847.00    1.34716   1.33456    0.173
 4848.00    1.34544   1.33361    0.000
 4849.00    1.32779   1.32721    0.000
 4850.00    1.31776   1.31463    0.000
 4851.00    1.32982   1.30254    0.000
 4852.00    1.32699   1.28970    0.000
 4853.00    1.28727   1.26850    0.000
 4854.00    1.25502   1.24372    0.000
 4855.00    1.23869   1.22148    0.000
 4856.00    1.22507   1.19673    0.000
 4857.00    1.21648   1.16938    0.000
 4858.00    1.20289   1.14599    0.000
 4859.00    1.18121   1.12783    0.000
 4860.00    1.16490   1.11769    0.000
 4861.00    1.15622   1.11809    0.000
 4862.00    1.15884   1.12349    0.000
 4863.00    1.17557   1.13357    0.000
 4864.00    1.19054   1.15261    0.000
 4865.00    1.20356   1.17171    0.000
 4866.00    1.21234   1.18155    0.000
 4867.00    1.21698   1.18937    0.000
 4868.00    1.21597   1.19612    0.000
 4869.00    1.21010   1.19419    0.000
 4870.00    1.21193   1.19065    0.000
 4871.00    1.21957   1.19667    0.000
 4872.00    1.22230   1.20559    0.000
 4873.00    1.22180   1.21245    0.000
 4874.00    1.23992   1.22742    0.000
 4875.00    1.26886   1.24900    0.173
 4876.00    1.28101   1.26510    0.173
 4877.00    1.28468   1.27835    0.173
 4878.00    1.29820   1.29157    0.173
 4879.00    1.31605   1.29539    0.174
 4880.00    1.31728   1.29026    0.175
 4881.00    1.31228   1.28604    0.175
 4882.00    1.29423   1.27773    0.174
 4883.00    1.27202   1.26036    0.172
 4884.00    1.26241   1.24357    0.172
 4885.00    1.25616   1.23210    0.172
 4886.00    1.24317   1.22160    0.173
 4887.00    1.22871   1.21467    0.174
 4888.00    1.23753   1.21463    0.174
 4889.00    1.25039   1.22091    0.174
 4890.00    1.22926   1.23734    0.173
 4891.00    1.20367   1.26347    0.172
 4892.00    1.24188   1.29162    0.173
 4893.00    1.28602   1.31921    0.174
 4894.00    1.31763   1.34779    0.175
 4895.00    1.34853   1.37176    0.176
 4896.00    1.36988   1.38752    0.178
 4897.00    1.39078   1.39428    0.181
 4898.00    1.38604   1.39181    0.180
 4899.00    1.38104   1.38725    0.178
 4900.00    1.36953   1.38345    0.178
 4901.00    1.35763   1.37532    0.177
 4902.00    1.34064   1.36605    0.177
 4903.00    1.32632   1.36285    0.176
 4904.00    1.33527   1.36028    0.177
 4905.00    1.34166   1.35206    0.177
 4906.00    1.33161   1.34321    0.175
 4907.00    1.32468   1.33678    0.175
 4908.00    1.33346   1.32882    0.177
 4909.00    1.33617   1.32000    0.178
 4910.00    1.31421   1.31526    0.176
 4911.00    1.30341   1.31251    0.175
 4912.00    1.33024   1.30763    0.175
 4913.00    1.34510   1.30187    0.176
 4914.00    1.32588   1.29337    0.177
 4915.00    1.30587   1.27742    0.177
 4916.00    1.28394   1.25555    0.174
 4917.00    1.26106   1.23341    0.173
 4918.00    1.23622   1.21261    0.173
 4919.00    1.22394   1.19635    0.173
 4920.00    1.23457   1.19096    0.172
 4921.00    1.23580   1.19679    0.172
 4922.00    1.22202   1.20930    0.172
 4923.00    1.22927   1.23042    0.172
 4924.00    1.26595   1.26127    0.172
 4925.00    1.29240   1.29087    0.173
 4926.00    1.30626   1.31454    0.173
 4927.00    1.33470   1.33695    0.173
 4928.00    1.37897   1.35370    0.174
 4929.00    1.40053   1.36012    0.175
 4930.00    1.40034   1.36061    0.174
 4931.00    1.39048   1.35373    0.173
 4932.00    1.37244   1.33758    0.171
 4933.00    1.35288   1.32153    0.171
 4934.00    1.33220   1.30740    0.171
 4935.00    1.31837   1.29106    0.170
 4936.00    1.30901   1.27854    0.167
 4937.00    1.29740   1.27551    0.168
 4938.00    1.28450   1.28084    0.170
 4939.00    1.28778   1.29209    0.170
 4940.00    1.29911   1.30536    0.000
 4941.00    1.32056   1.32220    0.000
 4942.00    1.34637   1.34514    0.000
 4943.00    1.35868   1.36512    0.000
 4944.00    1.36602   1.37712    0.000
 4945.00    1.37911   1.38908    0.000
 4946.00    1.39402   1.40103    0.000
 4947.00    1.40230   1.40524    0.000
 4948.00    1.40887   1.40414    0.000
 4949.00    1.40719   1.40324    0.000
 4950.00    1.40375   1.39801    0.000
 4951.00    1.40284   1.38362    0.000
 4952.00    1.40235   1.36264    0.000
 4953.00    1.37755   1.34284    0.000
 4954.00    1.34967   1.32456    0.000
 4955.00    1.32730   1.30245    0.000
 4956.00    1.30542   1.28443    0.000
 4957.00    1.32002   1.28109    0.000
 4958.00    1.33654   1.28548    0.000
 4959.00    1.33182   1.28662    0.000
 4960.00    1.32688   1.29128    0.000
 4961.00    1.33707   1.30335    0.000
 4962.00    1.34660   1.31073    0.000
 4963.00    1.34188   1.30820    0.000
 4964.00    1.33559   1.30383    0.000
 4965.00    1.31000   1.30245    0.000
 4966.00    1.28820   1.30041    0.000
 4967.00    1.29818   1.29841    0.000
 4968.00    1.30886   1.30135    0.000
 4969.00    1.32393   1.30893    0.000
 4970.00    1.33388   1.31725    0.000
 4971.00    1.31869   1.32528    0.000
 4972.00    1.31016   1.33137    0.000
 4973.00    1.32811   1.33251    0.000
 4974.00    1.34368   1.32813    0.000
 4975.00    1.35134   1.31853    0.000
 4976.00    1.35363   1.30230    0.000
 4977.00    1.34096   1.27878    0.000
 4978.00    1.31698   1.25445    0.000
 4979.00    1.26593   1.23238    0.000
 4980.00    1.23242   1.20870    0.000
 4981.00    1.23510   1.18946    0.000
 4982.00    1.23155   1.18279    0.000
 4983.00    1.21679   1.18306    0.000
 4984.00    1.20841   1.18646    0.000
 4985.00    1.21003   1.19830    0.000
 4986.00    1.21184   1.21611    0.000
 4987.00    1.21391   1.23283    0.000
 4988.00    1.22620   1.24672    0.000
 4989.00    1.25093   1.25839    0.000
 4990.00    1.27041   1.26820    0.000
 4991.00    1.28427   1.27423    0.000
 4992.00    1.29323   1.27500    0.000
 4993.00    1.29756   1.27424    0.000
 4994.00    1.29519   1.27291    0.000
 4995.00    1.28723   1.26609    0.000
 4996.00    1.28525   1.25551    0.000
 4997.00    1.28763   1.24415    0.000
 4998.00    1.27082   1.22935    0.000
 4999.00    1.24164   1.21327    0.000
 5000.00    1.23046   1.19776    0.000
 5001.00    1.22940   1.18155    0.000
 5002.00    1.24962   1.16951    0.000
 5003.00    1.28027   1.16270    0.000
 5004.00    1.28350   1.15622    0.000
 5005.00    1.27511   1.15315    0.000
 5006.00    1.28662   1.15596    0.000
 5007.00    1.30534   1.15708    0.000
 5008.00    1.28801   1.15442    0.000
 5009.00    1.25963   1.15252    0.000
 5010.00    1.25132   1.14990    0.000
 5011.00    1.24813   1.14301    0.000
 5012.00    1.21508   1.13386    0.000
 5013.00    1.17583   1.12704    0.000
 5014.00    1.16666   1.12419    0.000
 5015.00    1.16240   1.12404    0.000
 5016.00    1.16051   1.12506    0.000
 5017.00    1.15891   1.12986    0.000
 5018.00    1.17088   1.13945    0.000
 5019.00    1.18400   1.14806    0.000
 5020.00    1.18163   1.15475    0.000
 5021.00    1.17849   1.16441    0.000
 5022.00    1.17757   1.17465    0.000
 5023.00    1.17699   1.18293    0.000
 5024.00    1.19441   1.19256    0.000
 5025.00    1.21190   1.20328    0.000
 5026.00    1.23078   1.21327    0.000
 5027.00    1.24782   1.22531    0.000
 5028.00    1.24358   1.23913    0.000
 5029.00    1.24075   1.24896    0.168
 5030.00    1.24922   1.25546    0.166
 5031.00    1.25603   1.26062    0.165
 5032.00    1.25267   1.26050    0.164
 5033.00    1.24736   1.25139    0.164
 5034.00    1.23265   1.23504    0.164
 5035.00    1.21917   1.21665    0.163
 5036.00    1.21049   1.19631    0.163
 5037.00    1.19784   1.17525    0.163
 5038.00    1.17227   1.15991    0.163
 5039.00    1.15343   1.15232    0.163
 5040.00    1.15305   1.15277    0.162
 5041.00    1.15951   1.16370    0.161
 5042.00    1.18206   1.17953    0.162
 5043.00    1.20232   1.19453    0.162
 5044.00    1.21795   1.21280    0.160
 5045.00    1.22345   1.22936    0.160
 5046.00    1.21105   1.23506    0.161
 5047.00    1.20883   1.23526    0.161
 5048.00    1.22236   1.23626    0.162
 5049.00    1.23072   1.23586    0.162
 5050.00    1.23204   1.23455    0.164
 5051.00    1.23624   1.23819    0.165
 5052.00    1.24387   1.24847    0.165
 5053.00    1.25033   1.26149    0.164
 5054.00    1.25556   1.27473    0.163
 5055.00    1.26063   1.28890    0.163
 5056.00    1.26556   1.30283    0.164
 5057.00    1.28199   1.31294    0.164
 5058.00    1.30785   1.31762    0.165
 5059.00    1.30870   1.31711    0.165
 5060.00    1.29150   1.31199    0.163
 5061.00    1.27684   1.30324    0.164
 5062.00    1.26378   1.28983    0.166
 5063.00    1.26257   1.27231    0.166
 5064.00    1.26793   1.25711    0.165
 5065.00    1.25439   1.24651    0.165
 5066.00    1.23174   1.23444    0.165
 5067.00    1.22419   1.22384    0.166
 5068.00    1.22293   1.22264    0.166
 5069.00    1.21825   1.22366    0.166
 5070.00    1.21236   1.21937    0.166
 5071.00    1.20764   1.21650    0.166
 5072.00    1.20326   1.21821    0.166
 5073.00    1.21728   1.21468    0.167
 5074.00    1.23589   1.20307    0.167
 5075.00    1.23295   1.19341    0.168
 5076.00    1.22563   1.18595    0.169
 5077.00    1.20582   1.17256    0.167
 5078.00    1.18403   1.15781    0.165
 5079.00    1.16297   1.15169    0.165
 5080.00    1.14200   1.15132    0.164
 5081.00    1.15419   1.15112    0.165
 5082.00    1.16904   1.15672    0.165
 5083.00    1.18349   1.17107    0.163
 5084.00    1.19793   1.18736    0.161
 5085.00    1.19527   1.20198    0.163
 5086.00    1.19288   1.21735    0.164
 5087.00    1.21422   1.23349    0.163
 5088.00    1.23425   1.24680    0.161
 5089.00    1.23008   1.25551    0.162
 5090.00    1.22646   1.26111    0.162
 5091.00    1.22898   1.26406    0.162
 5092.00    1.22989   1.26195    0.162
 5093.00    1.21835   1.25386    0.162
 5094.00    1.20863   1.24234    0.162
 5095.00    1.20956   1.23020    0.164
 5096.00    1.20877   1.21739    0.165
 5097.00    1.19991   1.20454    0.164
 5098.00    1.19256   1.19553    0.163
 5099.00    1.19094   1.19183    0.164
 5100.00    1.19050   1.19039    0.164
 5101.00    1.19381   1.18965    0.162
 5102.00    1.19387   1.18999    0.160
 5103.00    1.18518   1.19043    0.161
 5104.00    1.18002   1.18942    0.163
 5105.00    1.18299   1.18547    0.164
 5106.00    1.18222   1.18196    0.164
 5107.00    1.17396   1.18249    0.164
 5108.00    1.17402   1.18371    0.163
 5109.00    1.18858   1.18678    0.162
 5110.00    1.20453   1.19657    0.161
 5111.00    1.22259   1.20860    0.163
 5112.00    1.22763   1.21995    0.163
 5113.00    1.21521   1.23385    0.162
 5114.00    1.21346   1.24606    0.163
 5115.00    1.22430   1.25275    0.166
 5116.00    1.24179   1.25621    0.168
 5117.00    1.26620   1.25438    0.168
 5118.00    1.26313   1.24508    0.167
 5119.00    1.23485   1.23099    0.165
 5120.00    1.21865   1.21417    0.162
 5121.00    1.21223   1.19489    0.160
 5122.00    1.19900   1.17462    0.160
 5123.00    1.18093   1.15790    0.160
 5124.00    1.16833   1.14619    0.161
 5125.00    1.15916   1.13731    0.162
 5126.00    1.15061   1.13377    0.161
 5127.00    1.14242   1.13692    0.159
 5128.00    1.14340   1.14229    0.158
 5129.00    1.14873   1.14968    0.158
 5130.00    1.16112   1.16054    0.160
 5131.00    1.17638   1.16982    0.163
 5132.00    1.17947   1.17608    0.162
 5133.00    1.17830   1.18227    0.161
 5134.00    1.18029   1.18395    0.160
 5135.00    1.18322   1.18005    0.159
 5136.00    1.18378   1.17645    0.160
 5137.00    1.18376   1.16993    0.161
 5138.00    1.17931   1.15960    0.161
 5139.00    1.17398   1.15393    0.160
 5140.00    1.16082   1.14853    0.161
 5141.00    1.14645   1.13932    0.162
 5142.00    1.13668   1.13634    0.161
 5143.00    1.12743   1.13571    0.160
 5144.00    1.12311   1.13028    0.160
 5145.00    1.11916   1.12808    0.160
 5146.00    1.14892   1.12878    0.162
 5147.00    1.18008   1.12732    0.163
 5148.00    1.16958   1.12738    0.162
 5149.00    1.15863   1.12917    0.161
 5150.00    1.14270   1.13212    0.162
 5151.00    1.12751   1.13824    0.164
 5152.00    1.12519   1.14615    0.163
 5153.00    1.12494   1.15587    0.163
 5154.00    1.14665   1.16769    0.163
 5155.00    1.16799   1.17955    0.164
 5156.00    1.18652   1.18981    0.166
 5157.00    1.20094   1.19494    0.168
 5158.00    1.19175   1.19359    0.166
 5159.00    1.18244   1.18637    0.164
 5160.00    1.17254   1.16871    0.164
 5161.00    1.15482   1.14065    0.163
 5162.00    1.10790   1.10793    0.162
 5163.00    1.06910   1.06920    0.161
 5164.00    1.05563   1.02581    0.162
 5165.00    1.03208   0.98625    0.162
 5166.00    0.98183   0.95172    0.160
 5167.00    0.94332   0.92199    0.159
 5168.00    0.93147   0.90305    0.158
 5169.00    0.91803   0.89630    0.157
 5170.00    0.90142   0.89764    0.158
 5171.00    0.90272   0.90731    0.159
 5172.00    0.93474   0.92812    0.159
 5173.00    0.95624   0.95500    0.160
 5174.00    0.96192   0.98028    0.159
 5175.00    0.98719   1.00404    0.158
 5176.00    1.03832   1.02533    0.159
 5177.00    1.07135   1.03651    0.159
 5178.00    1.08332   1.03507    0.157
 5179.00    1.07068   1.02778    0.156
 5180.00    1.03280   1.01858    0.155
 5181.00    1.00832   1.00636    0.155
 5182.00    0.99597   0.99703    0.155
 5183.00    0.99242   0.99859    0.154
 5184.00    0.99589   1.00886    0.153
 5185.00    1.00995   1.02449    0.154
 5186.00    1.03145   1.04492    0.156
 5187.00    1.06794   1.06511    0.157
 5188.00    1.11366   1.08341    0.158
 5189.00    1.13551   1.09841    0.159
 5190.00    1.14452   1.10458    0.000
 5191.00    1.13424   1.10880    0.000
 5192.00    1.11494   1.11713    0.000
 5193.00    1.12243   1.12144    0.000
 5194.00    1.14069   1.12539    0.000
 5195.00    1.16115   1.13755    0.000
 5196.00    1.18237   1.14894    0.000
 5197.00    1.18115   1.15461    0.000
 5198.00    1.17345   1.16075    0.000
 5199.00    1.17596   1.16306    0.000
 5200.00    1.18091   1.15504    0.000
 5201.00    1.17855   1.14236    0.000
 5202.00    1.17479   1.12813    0.000
 5203.00    1.16416   1.10818    0.000
 5204.00    1.15251   1.08806    0.000
 5205.00    1.12019   1.07651    0.000
 5206.00    1.08561   1.06941    0.000
 5207.00    1.07789   1.06669    0.000
 5208.00    1.07211   1.07607    0.000
 5209.00    1.08994   1.09232    0.000
 5210.00    1.10866   1.10885    0.000
 5211.00    1.13036   1.12901    0.160
 5212.00    1.15219   1.15003    0.160
 5213.00    1.17840   1.16662    0.160
 5214.00    1.20317   1.18051    0.161
 5215.00    1.20466   1.19249    0.160
 5216.00    1.20777   1.20121    0.159
 5217.00    1.22731   1.20698    0.161
 5218.00    1.24361   1.20919    0.162
 5219.00    1.23624   1.20666    0.163
 5220.00    1.22917   1.20009    0.164
 5221.00    1.22373   1.18869    0.164
 5222.00    1.21437   1.17205    0.164
 5223.00    1.18751   1.15579    0.163
 5224.00    1.16437   1.14254    0.162
 5225.00    1.15478   1.13034    0.163
 5226.00    1.15097   1.12527    0.163
 5227.00    1.16485   1.13015    0.164
 5228.00    1.16970   1.13659    0.164
 5229.00    1.15109   1.14656    0.163
 5230.00    1.14971   1.16307    0.163
 5231.00    1.18684   1.17665    0.164
 5232.00    1.21065   1.18909    0.165
 5233.00    1.20862   1.20527    0.164
 5234.00    1.21570   1.21895    0.163
 5235.00    1.23819   1.23149    0.162
 5236.00    1.25755   1.24608    0.162
 5237.00    1.27226   1.25820    0.164
 5238.00    1.27863   1.26695    0.165
 5239.00    1.27416   1.27389    0.165
 5240.00    1.28011   1.27785    0.164
 5241.00    1.29802   1.27664    0.163
 5242.00    1.30022   1.27047    0.162
 5243.00    1.28652   1.26283    0.161
 5244.00    1.26772   1.25291    0.160
 5245.00    1.24438   1.23777    0.159
 5246.00    1.23670   1.22330    0.159
 5247.00    1.24133   1.21350    0.160
 5248.00    1.24366   1.20304    0.160
 5249.00    1.24440   1.19470    0.160
 5250.00    1.23978   1.19435    0.159
 5251.00    1.23189   1.19738    0.158
 5252.00    1.22681   1.20222    0.158
 5253.00    1.22322   1.21055    0.159
 5254.00    1.22386   1.21948    0.159
 5255.00    1.22645   1.22711    0.159
 5256.00    1.23801   1.23023    0.159
 5257.00    1.25311   1.22639    0.159
 5258.00    1.24880   1.21578    0.159
 5259.00    1.23796   1.19709    0.159
 5260.00    1.23430   1.17085    0.159
 5261.00    1.23267   1.13896    0.158
 5262.00    1.19403   1.10527    0.160
 5263.00    1.14674   1.07505    0.161
 5264.00    1.11573   1.04676    0.162
 5265.00    1.08777   1.02298    0.163
 5266.00    1.08725   1.01233    0.163
 5267.00    1.09070   1.00903    0.162
 5268.00    1.06959   1.00858    0.162
 5269.00    1.04589   1.02152    0.162
 5270.00    1.05463   1.04353    0.163
 5271.00    1.06558   1.06359    0.163
 5272.00    1.09970   1.08970    0.165
 5273.00    1.13460   1.12141    0.167
 5274.00    1.15238   1.14689    0.164
 5275.00    1.17034   1.17022    0.163
 5276.00    1.19447   1.19309    0.163
 5277.00    1.21818   1.20827    0.164
 5278.00    1.23560   1.21890    0.164
 5279.00    1.25056   1.22729    0.163
 5280.00    1.24146   1.23250    0.162
 5281.00    1.23356   1.23860    0.162
 5282.00    1.23416   1.24609    0.164
 5283.00    1.23702   1.25554    0.165
 5284.00    1.25210   1.26963    0.164
 5285.00    1.26499   1.28489    0.163
 5286.00    1.26839   1.29894    0.164
 5287.00    1.27981   1.31240    0.165
 5288.00    1.31993   1.32204    0.166
 5289.00    1.34939   1.32540    0.166
 5290.00    1.34684   1.32317    0.165
 5291.00    1.34323   1.31523    0.165
 5292.00    1.33693   1.30168    0.165
 5293.00    1.32428   1.28420    0.165
 5294.00    1.29762   1.26551    0.164
 5295.00    1.27719   1.24809    0.163
 5296.00    1.26864   1.23285    0.164
 5297.00    1.25312   1.22322    0.163
 5298.00    1.22601   1.22216    0.160
 5299.00    1.21365   1.22645    0.159
 5300.00    1.22281   1.23605    0.159
 5301.00    1.23956   1.25284    0.158
 5302.00    1.26604   1.27147    0.157
 5303.00    1.28804   1.28916    0.157
 5304.00    1.30498   1.30752    0.159
 5305.00    1.31732   1.32338    0.160
 5306.00    1.32508   1.33456    0.159
 5307.00    1.34724   1.34344    0.159
 5308.00    1.38208   1.34904    0.160
 5309.00    1.38328   1.34991    0.159
 5310.00    1.35841   1.34892    0.159
 5311.00    1.33955   1.34576    0.158
 5312.00    1.32480   1.33909    0.158
 5313.00    1.32258   1.33208    0.157
 5314.00    1.32784   1.32457    0.156
 5315.00    1.32703   1.31491    0.157
 5316.00    1.32307   1.30569    0.157
 5317.00    1.32544   1.29620    0.157
 5318.00    1.33068   1.28452    0.156
 5319.00    1.32234   1.27135    0.156
 5320.00    1.30871   1.25564    0.157
 5321.00    1.28579   1.23792    0.156
 5322.00    1.25980   1.21843    0.154
 5323.00    1.24300   1.19621    0.154
 5324.00    1.22875   1.17591    0.154
 5325.00    1.21029   1.16043    0.153
 5326.00    1.19086   1.14755    0.153
 5327.00    1.17443   1.14157    0.154
 5328.00    1.15855   1.14653    0.156
 5329.00    1.16838   1.15732    0.156
 5330.00    1.18181   1.17284    0.156
 5331.00    1.20046   1.19360    0.156
 5332.00    1.21964   1.21404    0.156
 5333.00    1.22852   1.23150    0.156
 5334.00    1.23673   1.24543    0.155
 5335.00    1.25692   1.25311    0.156
 5336.00    1.27739   1.25504    0.156
 5337.00    1.26641   1.25470    0.157
 5338.00    1.25596   1.25093    0.158
 5339.00    1.26045   1.24475    0.158
 5340.00    1.26419   1.24227    0.158
 5341.00    1.25719   1.24063    0.158
 5342.00    1.25068   1.23850    0.158
 5343.00    1.24873   1.24097    0.158
 5344.00    1.24699   1.24368    0.158
 5345.00    1.24671   1.24593    0.157
 5346.00    1.24667   1.25237    0.155
 5347.00    1.24789   1.25944    0.155
 5348.00    1.24832   1.26772    0.154
 5349.00    1.24541   1.28061    0.156
 5350.00    1.24553   1.29565    0.158
 5351.00    1.25627   1.31119    0.158
 5352.00    1.27217   1.32760    0.157
 5353.00    1.30328   1.34402    0.156
 5354.00    1.33045   1.35711    0.155
 5355.00    1.34769   1.36588    0.156
 5356.00    1.36292   1.37164    0.156
 5357.00    1.37382   1.37165    0.157
 5358.00    1.37900   1.36614    0.157
 5359.00    1.37347   1.35797    0.157
 5360.00    1.36673   1.34487    0.157
 5361.00    1.35802   1.32868    0.154
 5362.00    1.34186   1.31276    0.153
 5363.00    1.31498   1.29398    0.154
 5364.00    1.29642   1.27495    0.154
 5365.00    1.28837   1.25874    0.153
 5366.00    1.27727   1.24213    0.152
 5367.00    1.26276   1.22824    0.151
 5368.00    1.24817   1.22052   -2.000
 5369.00    1.23348   1.21636   -2.000
 5370.00    1.22711   1.21726   -2.000
 5371.00    1.22797   1.22622   -2.000
 5372.00    1.23970   1.23869   -2.000
 5373.00    1.25973   1.25230   -2.000
 5374.00    1.27435   1.26928   -2.000
 5375.00    1.28534   1.28403   -2.000
 5376.00    1.29552   1.29383   -2.000
 5377.00    1.30524   1.30268   -2.000
 5378.00    1.31181   1.30733   -2.000
 5379.00    1.31676   1.30667   -2.000
 5380.00    1.31428   1.30622   -2.000
 5381.00    1.30850   1.30420   -2.000
 5382.00    1.30588   1.29886   -2.000
 5383.00    1.30447   1.29488    0.154
 5384.00    1.30310   1.29032    0.154
 5385.00    1.30174   1.28249    0.154
 5386.00    1.29725   1.27463    0.155
 5387.00    1.29191   1.26568    0.156
 5388.00    1.28654   1.25427    0.155
 5389.00    1.28116   1.24232    0.154
 5390.00    1.25619   1.23001    0.153
 5391.00    1.22775   1.21872    0.152
 5392.00    1.21794   1.20784    0.153
 5393.00    1.21065   1.19729    0.153
 5394.00    1.21024   1.19141    0.154
 5395.00    1.21050   1.18680    0.155
 5396.00    1.21187   1.18154    0.154
 5397.00    1.21331   1.18114    0.154
 5398.00    1.21043   1.18093    0.154
 5399.00    1.20747   1.17696    0.154
 5400.00    1.21095   1.17409    0.153
 5401.00    1.21335   1.16987    0.152
 5402.00    1.18784   1.16156    0.151
 5403.00    1.16382   1.15436    0.150
 5404.00    1.16015   1.14920    0.149
 5405.00    1.15635   1.14482    0.149
 5406.00    1.15135   1.14533    0.148
 5407.00    1.14731   1.15166    0.148
 5408.00    1.14959   1.16096    0.149
 5409.00    1.15632   1.17454    0.149
 5410.00    1.18602   1.19193    0.149
 5411.00    1.21116   1.20940    0.149
 5412.00    1.21741   1.22731    0.147
 5413.00    1.22539   1.24410    0.146
 5414.00    1.23926   1.25754    0.148
 5415.00    1.25359   1.26905    0.148
 5416.00    1.26924   1.27628    0.146
 5417.00    1.28220   1.27933    0.146
 5418.00    1.28851   1.28156    0.148
 5419.00    1.29209   1.27971    0.149
 5420.00    1.28984   1.27561    0.147
 5421.00    1.28479   1.27359    0.146
 5422.00    1.27459   1.26835    0.147
 5423.00    1.26457   1.26261    0.147
 5424.00    1.25487   1.25947    0.147
 5425.00    1.25041   1.25136    0.146
 5426.00    1.25340   1.24332    0.146
 5427.00    1.25746   1.23727    0.146
 5428.00    1.26284   1.22565    0.147
 5429.00    1.26435   1.21646    0.147
 5430.00    1.26159   1.21109    0.147
 5431.00    1.25237   1.20443    0.148
 5432.00    1.23688   1.20354    0.149
 5433.00    1.22967   1.20819    0.148
 5434.00    1.22955   1.21566    0.146
 5435.00    1.23381   1.22825    0.146
 5436.00    1.24137   1.24367    0.146
 5437.00    1.25559   1.25943    0.147
 5438.00    1.27421   1.27411    0.149
 5439.00    1.28735   1.28501    0.149
 5440.00    1.29732   1.29055    0.148
 5441.00    1.29372   1.29107    0.148
 5442.00    1.28328   1.28562    0.147
 5443.00    1.28056   1.27593    0.148
 5444.00    1.28121   1.26615    0.148
 5445.00    1.27960   1.25514    0.150
 5446.00    1.27714   1.24567    0.152
 5447.00    1.26765   1.24069    0.151
 5448.00    1.25592   1.23601    0.149
 5449.00    1.24759   1.23338    0.148
 5450.00    1.24018   1.23276    0.147
 5451.00    1.23859   1.22970    0.148
 5452.00    1.23828   1.22756    0.150
 5453.00    1.23049   1.22658    0.148
 5454.00    1.22141   1.22434    0.147
 5455.00    1.23670   1.22439    0.148
 5456.00    1.25517   1.22580    0.149
 5457.00    1.25072   1.22765    0.148
 5458.00    1.24416   1.23056    0.147
 5459.00    1.23415   1.23153    0.146
 5460.00    1.22395   1.23326    0.145
 5461.00    1.23043   1.23515    0.146
 5462.00    1.23727   1.23408    0.148
 5463.00    1.24232   1.23485    0.146
 5464.00    1.24682   1.23663    0.144
 5465.00    1.23824   1.23616    0.143
 5466.00    1.23094   1.23539    0.142
 5467.00    1.24011   1.23470    0.142
 5468.00    1.24949   1.23180    0.142
 5469.00    1.26076   1.22473    0.142
 5470.00    1.26959   1.21739    0.142
 5471.00    1.26286   1.21018    0.143
 5472.00    1.25625   1.19867    0.144
 5473.00    1.25020   1.18875    0.143
 5474.00    1.24385   1.18243    0.143
 5475.00    1.23631   1.17554    0.145
 5476.00    1.22562   1.17201    0.146
 5477.00    1.20438   1.17258    0.145
 5478.00    1.18821   1.17552   -2.000
 5479.00    1.18643   1.18082   -2.000
 5480.00    1.19151   1.18717   -2.000
 5481.00    1.21324   1.19579   -2.000
 5482.00    1.22976   1.20444   -2.000
 5483.00    1.23540   1.21082   -2.000
 5484.00    1.21905   1.21818   -2.000
 5485.00    1.16265   1.22443   -2.000
 5486.00    1.13625   1.22675   -2.000
 5487.00    1.15759   1.23001   -2.000
 5488.00    1.17760   1.23336   -2.000
 5489.00    1.19577   1.23317   -2.000
 5490.00    1.22681   1.23401   -2.000
 5491.00    1.27367   1.23619   -2.000
 5492.00    1.30050   1.23624   -2.000
 5493.00    1.30561   1.23580   -2.000
 5494.00    1.29784   1.23641   -2.000
 5495.00    1.27775   1.23660   -2.000
 5496.00    1.25956   1.23495   -2.000
 5497.00    1.24296   1.23311   -2.000
 5498.00    1.25124   1.23147   -2.000
 5499.00    1.27800   1.22759   -2.000
 5500.00    1.28083   1.22351   -2.000
 5501.00    1.26805   1.22016   -2.000
 5502.00    1.25964   1.21436    0.145
 5503.00    1.25371   1.21015    0.144
 5504.00    1.23526   1.20795    0.144
 5505.00    1.21059   1.20282    0.144
 5506.00    1.20541   1.20003    0.143
 5507.00    1.20860   1.19886    0.143
 5508.00    1.20621   1.19462    0.142
 5509.00    1.20176   1.19295    0.141
 5510.00    1.20362   1.19232    0.140
 5511.00    1.20745   1.19127    0.140
 5512.00    1.21415   1.19400    0.138
 5513.00    1.22160   1.19817    0.136
 5514.00    1.22111   1.20502    0.138
 5515.00    1.21894   1.21465    0.139
 5516.00    1.22079   1.22397    0.140
 5517.00    1.22331   1.23438    0.140
 5518.00    1.23070   1.24333    0.142
 5519.00    1.23870   1.24932    0.143
 5520.00    1.25717   1.25303    0.143
 5521.00    1.27655   1.25244    0.142
 5522.00    1.27227   1.24950    0.142
 5523.00    1.26676   1.24455    0.143
 5524.00    1.24876   1.23646    0.143
 5525.00    1.23065   1.22983    0.143
 5526.00    1.22139   1.22481    0.142
 5527.00    1.21287   1.21947    0.141
 5528.00    1.22050   1.21715    0.143
 5529.00    1.22785   1.21787    0.144
 5530.00    1.23186   1.21918    0.144
 5531.00    1.23581   1.22126    0.145
 5532.00    1.23930   1.22530    0.145
 5533.00    1.24349   1.22932    0.145
 5534.00    1.25212   1.23236    0.146
 5535.00    1.26016   1.23703    0.148
 5536.00    1.26531   1.24130    0.146
 5537.00    1.26859   1.24514    0.145
 5538.00    1.26441   1.24981    0.145
 5539.00    1.26247   1.25262    0.164
 5540.00    1.26797   1.25599    0.387
 5541.00    1.27020   1.25975   -1.000
 5542.00    1.26333   1.26093   -1.000
 5543.00    1.26026   1.26355   -1.000
 5544.00    1.26627   1.26756   -1.000
 5545.00    1.27085   1.26981   -1.000
 5546.00    1.27247   1.27313   -1.000
 5547.00    1.27205   1.27695    0.809
 5548.00    1.26796   1.27892    0.213
 5549.00    1.26959   1.28037    0.146
 5550.00    1.28021   1.28004    0.145
 5551.00    1.28513   1.27807    0.143
 5552.00    1.28221   1.27583    0.142
 5553.00    1.28421   1.27148    0.141
 5554.00    1.29219   1.26665    0.139
 5555.00    1.29045   1.26277    0.139
 5556.00    1.27832   1.25757    0.141
 5557.00    1.26536   1.25270    0.141
 5558.00    1.25162   1.24788    0.140
 5559.00    1.24447   1.24178    0.138
 5560.00    1.24281   1.23700    0.137
 5561.00    1.23684   1.23142    0.137
 5562.00    1.22772   1.22454    0.138
 5563.00    1.22398   1.22003    0.138
 5564.00    1.22370   1.21618    0.139
 5565.00    1.22237   1.21116    0.138
 5566.00    1.22044   1.20841    0.138
 5567.00    1.21788   1.20896    0.138
 5568.00    1.21501   1.20756    0.138
 5569.00    1.20848   1.20698    0.138
 5570.00    1.20040   1.21172    0.138
 5571.00    1.20856   1.21413    0.138
 5572.00    1.22259   1.21599    0.139
 5573.00    1.22227   1.22243    0.140
 5574.00    1.21754   1.22604    0.141
 5575.00    1.21541   1.22860    0.141
 5576.00    1.21393   1.23340    0.140
 5577.00    1.21871   1.23371    0.141
 5578.00    1.22477   1.23196    0.142
 5579.00    1.23613   1.23015    0.142
 5580.00    1.24836   1.22290    0.142
 5581.00    1.23749   1.21333    0.142
 5582.00    1.22380   1.20236    0.143
 5583.00    1.20634   1.18775    0.142
 5584.00    1.18857   1.17416    0.141
 5585.00    1.18244   1.16126    0.141
 5586.00    1.17688   1.14973    0.141
 5587.00    1.16082   1.14298    0.140
 5588.00    1.14495   1.13892    0.139
 5589.00    1.14969   1.13934    0.139
 5590.00    1.15438   1.14291    0.138
 5591.00    1.15809   1.14827    0.141
 5592.00    1.16149   1.15726    0.143
 5593.00    1.16131   1.16388    0.141
 5594.00    1.16132   1.16806    0.140
 5595.00    1.16282   1.17377    0.141
 5596.00    1.16585   1.17622    0.141
 5597.00    1.17813   1.17610    0.140
 5598.00    1.18789   1.17734    0.140
 5599.00    1.18567   1.17843    0.142
 5600.00    1.18290   1.18235    0.143
 5601.00    1.17803   1.18928    0.141
 5602.00    1.17582   1.19743    0.139
 5603.00    1.18221   1.20939    0.138
 5604.00    1.19182   1.22245    0.138
 5605.00    1.21027   1.23442    0.138
 5606.00    1.22664   1.24531    0.138
 5607.00    1.23813   1.25296    0.138
 5608.00    1.24751   1.25660    0.138
 5609.00    1.25260   1.25629    0.138
 5610.00    1.25346   1.25116    0.137
 5611.00    1.24682   1.24082    0.137
 5612.00    1.23812   1.23027    0.137
 5613.00    1.22623   1.22010    0.137
 5614.00    1.21056   1.20744    0.137
 5615.00    1.18976   1.19770    0.138
 5616.00    1.17711   1.19159    0.138
 5617.00    1.17422   1.18697    0.138
 5618.00    1.17651   1.18523    0.138
 5619.00    1.18426   1.18439    0.138
 5620.00    1.18916   1.18352    0.138
 5621.00    1.19139   1.18451    0.139
 5622.00    1.19004   1.18680    0.139
 5623.00    1.18575   1.18804    0.139
 5624.00    1.18259   1.19080    0.138
 5625.00    1.18024   1.19679    0.138
 5626.00    1.18052   1.20282    0.138
 5627.00    1.18248   1.20932    0.137
 5628.00    1.18448   1.21644    0.137
 5629.00    1.18652   1.22197    0.136
 5630.00    1.19426   1.22587    0.136
 5631.00    1.20475   1.22738    0.136
 5632.00    1.21592   1.22575    0.136
 5633.00    1.22739   1.22207    0.137
 5634.00    1.22227   1.21717    0.137
 5635.00    1.21127   1.21167    0.136
 5636.00    1.19897   1.20589    0.135
 5637.00    1.18629   1.20029    0.133
 5638.00    1.19020   1.19704    0.134
 5639.00    1.19825   1.19547    0.136
 5640.00    1.19471   1.19420    0.134
 5641.00    1.18882   1.19544    0.131
 5642.00    1.19420   1.19782    0.132
 5643.00    1.20137   1.20079    0.133
 5644.00    1.20512   1.20496    0.133
 5645.00    1.20847   1.20795    0.134
 5646.00    1.20329   1.21113    0.133
 5647.00    1.19743   1.21450    0.132
 5648.00    1.21239   1.21566    0.132
 5649.00    1.22828   1.21574    0.132
 5650.00    1.22129   1.21411    0.133
 5651.00    1.21400   1.21001    0.134
 5652.00    1.20509   1.20594    0.133
 5653.00    1.19665   1.19945    0.132
 5654.00    1.19673   1.18928    0.134
 5655.00    1.19666   1.18194    0.136
 5656.00    1.19487   1.17644    0.136
 5657.00    1.19224   1.16884    0.136
 5658.00    1.18311   1.16423    0.136
 5659.00    1.17484   1.16385    0.136
 5660.00    1.17163   1.16541    0.136
 5661.00    1.16987   1.16904    0.135
 5662.00    1.17482   1.17364    0.136
 5663.00    1.17845   1.17939    0.137
 5664.00    1.17706   1.18699    0.137
 5665.00    1.17405   1.19406    0.136
 5666.00    1.16592   1.19994    0.134
 5667.00    1.16456   1.20677    0.134
 5668.00    1.18142   1.21420    0.134
 5669.00    1.19597   1.22153    0.135
 5670.00    1.20519   1.22841    0.136
 5671.00    1.21487   1.23462    0.137
 5672.00    1.22544   1.24109    0.137
 5673.00    1.23132   1.24621    0.136
 5674.00    1.22906   1.24839    0.135
 5675.00    1.22872   1.24890    0.135
 5676.00    1.23131   1.24795    0.136
 5677.00    1.23460   1.24464    0.136
 5678.00    1.23881   1.23856    0.136
 5679.00    1.23901   1.23175    0.135
 5680.00    1.23446   1.22548    0.134
 5681.00    1.23187   1.21853    0.134
 5682.00    1.23131   1.21190    0.136
 5683.00    1.22565   1.20698    0.136
 5684.00    1.21532   1.20420    0.134
 5685.00    1.20898   1.20331    0.132
 5686.00    1.20586   1.20412    0.132
 5687.00    1.20204   1.20654    0.132
 5688.00    1.19773   1.21140    0.132
 5689.00    1.20075   1.21717    0.133
 5690.00    1.20836   1.22183    0.133
 5691.00    1.22359   1.22644    0.133
 5692.00    1.24298   1.22966    0.132
 5693.00    1.25058   1.23056    0.134
 5694.00    1.25259   1.22858    0.138
 5695.00    1.24964   1.22476    0.139
 5696.00    1.24467   1.21961    0.138
 5697.00    1.23150   1.21112    0.138
 5698.00    1.21548   1.20274    0.138
 5699.00    1.20792   1.19456    0.137
 5700.00    1.20285   1.18534    0.136
 5701.00    1.19869   1.17725    0.136
 5702.00    1.19476   1.16835    0.135
 5703.00    1.19340   1.16056    0.135
 5704.00    1.19254   1.15408    0.134
 5705.00    1.19043   1.14608    0.135
 5706.00    1.18813   1.14141    0.136
 5707.00    1.17839   1.13885    0.136
 5708.00    1.16781   1.13703    0.136
 5709.00    1.16392   1.14134    0.135
 5710.00    1.16053   1.14758    0.134
 5711.00    1.17873   1.15568    0.133
 5712.00    1.19781   1.16909    0.133
 5713.00    1.20492   1.18233    0.133
 5714.00    1.21166   1.19615    0.133
 5715.00    1.20725   1.21137    0.132
 5716.00    1.20388   1.22390    0.131
 5717.00    1.21840   1.23555    0.132
 5718.00    1.23277   1.24638    0.132
 5719.00    1.24552   1.25394    0.133
 5720.00    1.25713   1.25979    0.133
 5721.00    1.26022   1.26408    0.133
 5722.00    1.26306   1.26561    0.133
 5723.00    1.26445   1.26509    0.132
 5724.00    1.26390   1.26408    0.131
 5725.00    1.25459   1.26199    0.130
 5726.00    1.24911   1.25854    0.130
 5727.00    1.25789   1.25550    0.132
 5728.00    1.26588   1.25333    0.134
 5729.00    1.27147   1.25237    0.133
 5730.00    1.27561   1.25141    0.133
 5731.00    1.27591   1.25089    0.135
 5732.00    1.27418   1.25223    0.135
 5733.00    1.26782   1.25358    0.135
 5734.00    1.26390   1.25481    0.134
 5735.00    1.26477   1.25552    0.135
 5736.00    1.26544   1.25562    0.135
 5737.00    1.26577   1.25630    0.134
 5738.00    1.26702   1.25611    0.133
 5739.00    1.26964   1.25513    0.135
 5740.00    1.26916   1.25482    0.000
 5741.00    1.26459   1.25407    0.000
 5742.00    1.26276   1.25283    0.000
 5743.00    1.26409   1.25150    0.000
 5744.00    1.26783   1.24930    0.000
 5745.00    1.27403   1.24730    0.000
 5746.00    1.27423   1.24458    0.000
 5747.00    1.26899   1.24015    0.000
 5748.00    1.26522   1.23623    0.000
 5749.00    1.26260   1.23269    0.000
 5750.00    1.25768   1.22902    0.000
 5751.00    1.25116   1.22613    0.000
 5752.00    1.25106   1.22378    0.000
 5753.00    1.25492   1.22231    0.000
 5754.00    1.25821   1.22296    0.000
 5755.00    1.26121   1.22404    0.000
 5756.00    1.25933   1.22419    0.000
 5757.00    1.25518   1.22455    0.000
 5758.00    1.25211   1.22465    0.000
 5759.00    1.24948   1.22478    0.000
 5760.00    1.24689   1.22658    0.000
 5761.00    1.24432   1.22842    0.000
 5762.00    1.24659   1.23089    0.000
 5763.00    1.25025   1.23602    0.000
 5764.00    1.25652   1.24132    0.000
 5765.00    1.26342   1.24617    0.000
 5766.00    1.26342   1.25078    0.000
 5767.00    1.26209   1.25406    0.000
 5768.00    1.26207   1.25578    0.000
 5769.00    1.26225   1.25625    0.000
 5770.00    1.26725   1.25452    0.000
 5771.00    1.27278   1.25073    0.000
 5772.00    1.27849   1.24692    0.000
 5773.00    1.28422   1.24135    0.000
 5774.00    1.28188   1.23427    0.000
 5775.00    1.27925   1.22657    0.000
 5776.00    1.26804   1.21646    0.000
 5777.00    1.25685   1.20537    0.000
 5778.00    1.24735   1.19425    0.000
 5779.00    1.23785   1.18221    0.000
 5780.00    1.22851   1.17110    0.000
 5781.00    1.22011   1.16225    0.000
 5782.00    1.22132   1.15670    0.000
 5783.00    1.22103   1.15527    0.000
 5784.00    1.20982   1.15555    0.000
 5785.00    1.20006   1.15970    0.000
 5786.00    1.19832   1.16767    0.000
 5787.00    1.19855   1.17616    0.000
 5788.00    1.20750   1.18662    0.000
 5789.00    1.21508   1.19590    0.000
 5790.00    1.21771   1.20449    0.000
 5791.00    1.22083   1.21442   -2.000
 5792.00    1.22544   1.22181   -2.000
 5793.00    1.22842   1.22833   -2.000
 5794.00    1.22717   1.23446   -2.000
 5795.00    1.22569   1.23925   -2.000
 5796.00    1.22367   1.24384   -2.000
 5797.00    1.22635   1.24712   -2.000
 5798.00    1.23815   1.25049   -2.000
 5799.00    1.24801   1.25337   -2.000
 5800.00    1.25457   1.25416   -2.000
 5801.00    1.26487   1.25444   -2.000
 5802.00    1.28067   1.25354   -2.000
 5803.00    1.28939   1.25189   -2.000
 5804.00    1.28891   1.25091   -2.000
 5805.00    1.28706   1.24913   -2.000
 5806.00    1.28367   1.24802   -2.000
 5807.00    1.28155   1.24773   -2.000
 5808.00    1.28074   1.24671   -2.000
 5809.00    1.27627   1.24692   -2.000
 5810.00    1.26855   1.24721   -2.000
 5811.00    1.26666   1.24692    0.000
 5812.00    1.26933   1.24719    0.000
 5813.00    1.26327   1.24742    0.000
 5814.00    1.25117   1.24840    0.000
 5815.00    1.24295   1.24982    0.000
 5816.00    1.23707   1.25215    0.000
 5817.00    1.24357   1.25597    0.000
 5818.00    1.25660   1.25983    0.000
 5819.00    1.26909   1.26362    0.000
 5820.00    1.28132   1.26714    0.000
 5821.00    1.28979   1.27040    0.000
 5822.00    1.29678   1.27319    0.000
 5823.00    1.29339   1.27511    0.000
 5824.00    1.28652   1.27636    0.000
 5825.00    1.28304   1.27696    0.000
 5826.00    1.28053   1.27704    0.000
 5827.00    1.27846   1.27648    0.000
 5828.00    1.27649   1.27570    0.000
 5829.00    1.27764   1.27453    0.000
 5830.00    1.27937   1.27263    0.000
 5831.00    1.27291   1.27057    0.000
 5832.00    1.26526   1.26870    0.000
 5833.00    1.26676   1.26690    0.000
 5834.00    1.26922   1.26521    0.000
 5835.00    1.27207   1.26474    0.000
 5836.00    1.27495   1.26509    0.000
 5837.00    1.27727   1.26534    0.000
 5838.00    1.27958   1.26605    0.000
 5839.00    1.28090   1.26686    0.000
 5840.00    1.28226   1.26741    0.000
 5841.00    1.28446   1.26701    0.000
 5842.00    1.28601   1.26482    0.000
 5843.00    1.27764   1.26136    0.000
 5844.00    1.26954   1.25710    0.000
 5845.00    1.26407   1.25157    0.000
 5846.00    1.25871   1.24475    0.000
 5847.00    1.25411   1.23725    0.000
 5848.00    1.25053   1.22936    0.000
 5849.00    1.25253   1.22130    0.000
 5850.00    1.25271   1.21326    0.000
 5851.00    1.24495   1.20477    0.000
 5852.00    1.23950   1.19635    0.000
 5853.00    1.24230   1.18916    0.000
 5854.00    1.24475   1.18353    0.000
 5855.00    1.24617   1.17955    0.000
 5856.00    1.24175   1.17582    0.000
 5857.00    1.22240   1.17429    0.000
 5858.00    1.20682   1.17571    0.000
 5859.00    1.19953   1.17864    0.000
 5860.00    1.19484   1.18313    0.000
 5861.00    1.19508   1.18682    0.000
 5862.00    1.19620   1.19132    0.000
 5863.00    1.19876   1.19704    0.000
 5864.00    1.20169   1.20254    0.000
 5865.00    1.20517   1.20732    0.000
 5866.00    1.20655   1.21120    0.000
 5867.00    1.20523   1.21521    0.000
 5868.00    1.20320   1.21909    0.000
 5869.00    1.20037   1.22223    0.000
 5870.00    1.20123   1.22381    0.000
 5871.00    1.20576   1.22420    0.000
 5872.00    1.20806   1.22338    0.000
 5873.00    1.20839   1.22173    0.000
 5874.00    1.21316   1.21857    0.000
 5875.00    1.22134   1.21365    0.000
 5876.00    1.22030   1.20790    0.000
 5877.00    1.21298   1.20073    0.000
 5878.00    1.20492   1.19263    0.000
 5879.00    1.19643   1.18278    0.000
 5880.00    1.19011   1.17091    0.000
 5881.00    1.18494   1.15725    0.000
 5882.00    1.16932   1.14021    0.000
 5883.00    1.14899   1.11858    0.000
 5884.00    1.12419   1.09349    0.000
 5885.00    1.09765   1.06664    0.000
 5886.00    1.07236   1.03823    0.000
 5887.00    1.04749   1.01021    0.000
 5888.00    1.02037   0.98300    0.000
 5889.00    0.99262   0.95834    0.000
 5890.00    0.96918   0.94288    0.000
 5891.00    0.94672   0.93500    0.000
 5892.00    0.93579   0.93256    0.000
 5893.00    0.92695   0.93794    0.000
 5894.00    0.93357   0.94710    0.000
 5895.00    0.94235   0.96233    0.000
 5896.00    0.95718   0.98598    0.000
 5897.00    0.97262   1.01122    0.000
 5898.00    0.99944   1.03730    0.000
 5899.00    1.02699   1.06308    0.000
 5900.00    1.05798   1.08694    0.000
 5901.00    1.08905   1.11017    0.127
 5902.00    1.11026   1.13060    0.125
 5903.00    1.13117   1.14644    0.124
 5904.00    1.14361   1.15849    0.125
 5905.00    1.15585   1.16774    0.125
 5906.00    1.16541   1.17455    0.127
 5907.00    1.17479   1.17906    0.128
 5908.00    1.18259   1.18128    0.130
 5909.00    1.18929   1.18180    0.131
 5910.00    1.18855   1.18109    0.130
 5911.00    1.18687   1.18024    0.129
 5912.00    1.18020   1.17865    0.129
 5913.00    1.17595   1.17641    0.129
 5914.00    1.18197   1.17584    0.127
 5915.00    1.18504   1.17555    0.126
 5916.00    1.17783   1.17686    0.125
 5917.00    1.17356   1.17911    0.125
 5918.00    1.17791   1.18101    0.124
 5919.00    1.18293   1.18430    0.124
 5920.00    1.18962   1.18718    0.124
 5921.00    1.19367   1.18924    0.124
 5922.00    1.19200   1.19117    0.126
 5923.00    1.19234   1.19194    0.127
 5924.00    1.19646   1.19166    0.127
 5925.00    1.20039   1.19166    0.126
 5926.00    1.20401   1.19035    0.125
 5927.00    1.20388   1.18894    0.123
 5928.00    1.19834   1.18757    0.123
 5929.00    1.19095   1.18545    0.122
 5930.00    1.18123   1.18549    0.123
 5931.00    1.17984   1.18550    0.124
 5932.00    1.18772   1.18582    0.124
 5933.00    1.18868   1.18640    0.123
 5934.00    1.18283   1.18660    0.123
 5935.00    1.17925   1.18834    0.123
 5936.00    1.17762   1.18981    0.125
 5937.00    1.18544   1.19082    0.126
 5938.00    1.20045   1.19189    0.127
 5939.00    1.21401   1.19231    0.127
 5940.00    1.22659   1.19258    0.127
 5941.00    1.22710   1.19290    0.128
 5942.00    1.22053   1.19266    0.129
 5943.00    1.20837   1.19222    0.128
 5944.00    1.19334   1.19174    0.127
 5945.00    1.18940   1.19065    0.126
 5946.00    1.19038   1.18881    0.125
 5947.00    1.19213   1.18632    0.126
 5948.00    1.19416   1.18374    0.128
 5949.00    1.18830   1.18189    0.127
 5950.00    1.17988   1.18031    0.126
 5951.00    1.17786   1.17827    0.125
 5952.00    1.17757   1.17655    0.125
 5953.00    1.17552   1.17663    0.124
 5954.00    1.17307   1.17796    0.122
 5955.00    1.17596   1.17982    0.121
 5956.00    1.17979   1.18221    0.121
 5957.00    1.18609   1.18528    0.121
 5958.00    1.19274   1.18966    0.121
 5959.00    1.20183   1.19427    0.123
 5960.00    1.21116   1.19840    0.124
 5961.00    1.20813   1.20259    0.125
 5962.00    1.20436   1.20605    0.125
 5963.00    1.19536   1.20943    0.123
 5964.00    1.18633   1.21220    0.121
 5965.00    1.19352   1.21399    0.123
 5966.00    1.20056   1.21626    0.125
 5967.00    1.20356   1.21753    0.124
 5968.00    1.20664   1.21816    0.123
 5969.00    1.21079   1.21801    0.124
 5970.00    1.21466   1.21626    0.125
 5971.00    1.21607   1.21394    0.125
 5972.00    1.21679   1.21051    0.126
 5973.00    1.21295   1.20612    0.127
 5974.00    1.20835   1.20155    0.128
 5975.00    1.19990   1.19624    0.126
 5976.00    1.19248   1.19146    0.125
 5977.00    1.18932   1.18706    0.126
 5978.00    1.18635   1.18265    0.127
 5979.00    1.18401   1.17982    0.126
 5980.00    1.18041   1.17708    0.125
 5981.00    1.17317   1.17468    0.125
 5982.00    1.16859   1.17317    0.125
 5983.00    1.17055   1.17169    0.124
 5984.00    1.17216   1.17233    0.123
 5985.00    1.17300   1.17412    0.123
 5986.00    1.17321   1.17597    0.123
 5987.00    1.17224   1.17935    0.121
 5988.00    1.17404   1.18258    0.120
 5989.00    1.18030   1.18608    0.119
 5990.00    1.18878   1.18894    0.119
 5991.00    1.20042   1.19032    0.121
 5992.00    1.20824   1.19172    0.122
 5993.00    1.21131   1.19203    0.122
 5994.00    1.21007   1.19127    0.122
 5995.00    1.20411   1.18954    0.123
 5996.00    1.19608   1.18647    0.123
 5997.00    1.18604   1.18331    0.122
 5998.00    1.17873   1.18105    0.122
 5999.00    1.17373   1.17838    0.122
 6000.00    1.17253   1.17564    0.123
 6001.00    1.17420   1.17243    0.124
 6002.00    1.17254   1.16833    0.124
 6003.00    1.16869   1.16643    0.125
 6004.00    1.16849   1.16462    0.125
 6005.00    1.17040   1.16229    0.126
 6006.00    1.16914   1.16038    0.126
 6007.00    1.16628   1.15743    0.124
 6008.00    1.16353   1.15698    0.125
 6009.00    1.16082   1.15759    0.126
 6010.00    1.15807   1.15681    0.125
 6011.00    1.15530   1.15617    0.123
 6012.00    1.15567   1.15478    0.123
 6013.00    1.15704   1.15387    0.123
 6014.00    1.15953   1.15345    0.123
 6015.00    1.16232   1.15213    0.123
 6016.00    1.15493   1.15109    0.123
 6017.00    1.14532   1.15103    0.123
 6018.00    1.13817   1.15094    0.122
 6019.00    1.13144   1.15212    0.122
 6020.00    1.13442   1.15447    0.121
 6021.00    1.13866   1.15717    0.120
 6022.00    1.14742   1.16208    0.121
 6023.00    1.15659   1.16690    0.121
 6024.00    1.15810   1.17287    0.122
 6025.00    1.15918   1.17926    0.123
 6026.00    1.16589   1.18502    0.123
 6027.00    1.17278   1.19179    0.123
 6028.00    1.18518   1.19756    0.123
 6029.00    1.19714   1.20286    0.124
 6030.00    1.19892   1.20744    0.123
 6031.00    1.20115   1.21116    0.123
 6032.00    1.20910   1.21449    0.124
 6033.00    1.21637   1.21667    0.125
 6034.00    1.21775   1.21802    0.126
 6035.00    1.21836   1.21900    0.126
 6036.00    1.21403   1.21928    0.125
 6037.00    1.20975   1.21968    0.125
 6038.00    1.20580   1.21990    0.124
 6039.00    1.20248   1.21993    0.124
 6040.00    1.20179   1.22073    0.125
 6041.00    1.20141   1.22142    0.125
 6042.00    1.20211   1.22289    0.123
 6043.00    1.20348   1.22440    0.122
 6044.00    1.20672   1.22574    0.122
 6045.00    1.20958   1.22690    0.122
 6046.00    1.21151   1.22721    0.122
 6047.00    1.21434   1.22680    0.121
 6048.00    1.21904   1.22536    0.120
 6049.00    1.22221   1.22354    0.120
 6050.00    1.22262   1.22058    0.121
 6051.00    1.22169   1.21709    0.121
 6052.00    1.21866   1.21322    0.121
 6053.00    1.21506   1.20942    0.121
 6054.00    1.21067   1.20622    0.123
 6055.00    1.20695   1.20286    0.123
 6056.00    1.20403   1.20029    0.123
 6057.00    1.20109   1.19804    0.123
 6058.00    1.19813   1.19636    0.123
 6059.00    1.19494   1.19471    0.123
 6060.00    1.19154   1.19343    0.125
 6061.00    1.18921   1.19327    0.126
 6062.00    1.18778   1.19319    0.125
 6063.00    1.19208   1.19450    0.126
 6064.00    1.20063   1.19614    0.127
 6065.00    1.20745   1.19960    0.127
 6066.00    1.21316   1.20516    0.126
 6067.00    1.21931   1.21033    0.125
 6068.00    1.22571   1.21582    0.124
 6069.00    1.23038   1.22012    0.124
 6070.00    1.23419   1.22327    0.125
 6071.00    1.23448   1.22531    0.124
 6072.00    1.23328   1.22483    0.123
 6073.00    1.22341   1.22271    0.122
 6074.00    1.21035   1.21901    0.122
 6075.00    1.20082   1.21340    0.122
 6076.00    1.19239   1.20693    0.121
 6077.00    1.19059   1.19997    0.121
 6078.00    1.19052   1.19333    0.120
 6079.00    1.18744   1.18780    0.119
 6080.00    1.18372   1.18255    0.118
 6081.00    1.18002   1.17804    0.119
 6082.00    1.17631   1.17514    0.120
 6083.00    1.17871   1.17307    0.121
 6084.00    1.18187   1.17119    0.121
 6085.00    1.18474   1.17018    0.121
 6086.00    1.18758   1.16963    0.121
 6087.00    1.18497   1.16958    0.121
 6088.00    1.18207   1.16952    0.122
 6089.00    1.17780   1.16945    0.123
 6090.00    1.17339   1.17009    0.124
 6091.00    1.16107   1.17092    0.123
 6092.00    1.14956   1.17205    0.122
 6093.00    1.15507   1.17322    0.123
 6094.00    1.16109   1.17441    0.123
 6095.00    1.17314   1.17416    0.124
 6096.00    1.18378   1.17237    0.125
 6097.00    1.18263   1.16987    0.124
 6098.00    1.18011   1.16784    0.123
 6099.00    1.16911   1.16517    0.123
 6100.00    1.15914   1.16211    0.123
 6101.00    1.15415   1.15876    0.123
 6102.00    1.14988   1.15617    0.122
 6103.00    1.14842   1.15794    0.121
 6104.00    1.14873   1.16053    0.120
 6105.00    1.15492   1.16397    0.119
 6106.00    1.16331   1.16814    0.119
 6107.00    1.17781   1.17210    0.119
 6108.00    1.18992   1.17712    0.119
 6109.00    1.19632   1.18139    0.119
 6110.00    1.20103   1.18400    0.119
 6111.00    1.20224   1.18582    0.121
 6112.00    1.20334   1.18645    0.122
 6113.00    1.20421   1.18534    0.123
 6114.00    1.20251   1.18262    0.123
 6115.00    1.19678   1.17803    0.123
 6116.00    1.18868   1.17253    0.122
 6117.00    1.17735   1.16735    0.121
 6118.00    1.16402   1.16179    0.121
 6119.00    1.14828   1.15605    0.122
 6120.00    1.13947   1.15160    0.123
 6121.00    1.13803   1.14748    0.124
 6122.00    1.14151   1.14631    0.124
 6123.00    1.14962   1.14741    0.123
 6124.00    1.15735   1.14857    0.123
 6125.00    1.16476   1.15068    0.125
 6126.00    1.16727   1.15225    0.124
 6127.00    1.16620   1.15357    0.122
 6128.00    1.16407   1.15398    0.120
 6129.00    1.16127   1.15282    0.120
 6130.00    1.16093   1.15026    0.120
 6131.00    1.16197   1.14532    0.120
 6132.00    1.15523   1.13985    0.120
 6133.00    1.14469   1.13383    0.119
 6134.00    1.13634   1.12740    0.119
 6135.00    1.12892   1.12187    0.120
 6136.00    1.12640   1.11758    0.120
 6137.00    1.12566   1.11813    0.120
 6138.00    1.12712   1.12213    0.120
 6139.00    1.12925   1.12760    0.121
 6140.00    1.13543   1.13375    0.121
 6141.00    1.14263   1.13975    0.121
 6142.00    1.14696   1.14713    0.121
 6143.00    1.15069   1.15368    0.122
 6144.00    1.15011   1.15862    0.122
 6145.00    1.14883   1.16215    0.122
 6146.00    1.14325   1.16328    0.122
 6147.00    1.13714   1.16278    0.122
 6148.00    1.13094   1.16085    0.122
 6149.00    1.12473   1.15808    0.121
 6150.00    1.12798   1.15509    0.122
 6151.00    1.13169   1.15093    0.122
 6152.00    1.14051   1.14591    0.123
 6153.00    1.14925   1.13899    0.124
 6154.00    1.14954   1.13037    0.123
 6155.00    1.14964   1.12089    0.122
 6156.00    1.14605   1.10995    0.123
 6157.00    1.14121   1.09843    0.124
 6158.00    1.12204   1.08667    0.124
 6159.00    1.10251   1.07527    0.124
 6160.00    1.08016   1.06393    0.120
 6161.00    1.06057   1.05478    0.118
 6162.00    1.05764   1.04955    0.117
 6163.00    1.05626   1.04728    0.117
 6164.00    1.06220   1.04799    0.117
 6165.00    1.06636   1.05013    0.118
 6166.00    1.06355   1.05449    0.117
 6167.00    1.06204   1.05943    0.117
 6168.00    1.06468   1.06413    0.117
 6169.00    1.06993   1.07008    0.118
 6170.00    1.08229   1.07764    0.117
 6171.00    1.09250   1.08535    0.118
 6172.00    1.09767   1.09188    0.119
 6173.00    1.09928   1.09874    0.121
 6174.00    1.09367   1.10508    0.121
 6175.00    1.08822   1.11084    0.121
 6176.00    1.08305   1.11593    0.122
 6177.00    1.08012   1.12096    0.122
 6178.00    1.08067   1.12504    0.122
 6179.00    1.08338   1.12680    0.121
 6180.00    1.08903   1.12779    0.121
 6181.00    1.09292   1.12751    0.120
 6182.00    1.09470   1.12537    0.120
 6183.00    1.09565   1.12153    0.120
 6184.00    1.09570   1.11687    0.121
 6185.00    1.09355   1.11080    0.122
 6186.00    1.08935   1.10449    0.123
 6187.00    1.08299   1.09914    0.123
 6188.00    1.07486   1.09466    0.121
 6189.00    1.06884   1.09192    0.120
 6190.00    1.06432   1.08967    0.119
 6191.00    1.06317   1.08990    0.118
 6192.00    1.06415   1.09316    0.117
 6193.00    1.06472   1.09674    0.117
 6194.00    1.06506   1.10132    0.118
 6195.00    1.06110   1.10603    0.123
 6196.00    1.05507   1.11063   -2.000
 6197.00    1.05738   1.11455   -2.000
 6198.00    1.06316   1.11752   -2.000
 6199.00    1.07632   1.12063   -2.000
 6200.00    1.09211   1.12396   -2.000
 6201.00    1.11296   1.12697   -2.000
 6202.00    1.13532   1.12925   -2.000
 6203.00    1.13630   1.13067   -2.000
 6204.00    1.13198   1.13093   -2.000
 6205.00    1.13015   1.12975   -2.000
 6206.00    1.12883   1.12705   -2.000
 6207.00    1.13133   1.12272   -2.000
 6208.00    1.13442   1.11683    0.124
 6209.00    1.12937   1.10946    0.124
 6210.00    1.12336   1.10075    0.124
 6211.00    1.10868   1.09192    0.123
 6212.00    1.09331   1.08264    0.121
 6213.00    1.07930   1.07411    0.118
 6214.00    1.06534   1.06742    0.115
 6215.00    1.05913   1.06240    0.116
 6216.00    1.05312   1.05940    0.116
 6217.00    1.05242   1.05814    0.116
 6218.00    1.05206   1.05735    0.115
 6219.00    1.05796   1.05778    0.115
 6220.00    1.06382   1.05923    0.116
 6221.00    1.06918   1.06097    0.115
 6222.00    1.07350   1.06257    0.115
 6223.00    1.06976   1.06273    0.116
 6224.00    1.06608   1.06274    0.117
 6225.00    1.06281   1.06163    0.117
 6226.00    1.06064   1.06008    0.117
 6227.00    1.06363   1.05862    0.118
 6228.00    1.06436   1.05692    0.120
 6229.00    1.05654   1.05534    0.120
 6230.00    1.05128   1.05437    0.121
 6231.00    1.05413   1.05591    0.121
 6232.00    1.05771   1.05719    0.121
 6233.00    1.06329   1.05980    0.121
 6234.00    1.06677   1.06181    0.120
 6235.00    1.06544   1.06219    0.120
 6236.00    1.06271   1.06162    0.119
 6237.00    1.05722   1.05922    0.118
 6238.00    1.05390   1.05668    0.116
 6239.00    1.05439   1.05291    0.116
 6240.00    1.05443   1.04988    0.116
 6241.00    1.05381   1.04761    0.116
 6242.00    1.04971   1.04466    0.116
 6243.00    1.04098   1.04365    0.115
 6244.00    1.03484   1.04338    0.115
 6245.00    1.03174   1.04345    0.113
 6246.00    1.03248   1.04407    0.113
 6247.00    1.03720   1.04471    0.114
 6248.00    1.04134   1.04393    0.115
 6249.00    1.04494   1.04154    0.116
 6250.00    1.04640   1.03809    0.117
 6251.00    1.04614   1.03310    0.117
 6252.00    1.04289   1.02859    0.117
 6253.00    1.03753   1.02424    0.117
 6254.00    1.03377   1.02146    0.118
 6255.00    1.03100   1.01983    0.120
 6256.00    1.02524   1.01968    0.121
 6257.00    1.01786   1.02172    0.120
 6258.00    1.01691   1.02556    0.122
 6259.00    1.01899   1.03259    0.124
 6260.00    1.03546   1.03956    0.131
 6261.00    1.05780   1.04724    0.140
 6262.00    1.06759   1.05486    0.144
 6263.00    1.07302   1.06142    0.146
 6264.00    1.07395   1.06662    0.142
 6265.00    1.07356   1.07139    0.137
 6266.00    1.07591   1.07595    0.131
 6267.00    1.07891   1.07925    0.125
 6268.00    1.07978   1.08174    0.121
 6269.00    1.08023   1.08396    0.117
 6270.00    1.08478   1.08584    0.116
 6271.00    1.08995   1.08732    0.116
 6272.00    1.09710   1.08843    0.116
 6273.00    1.10447   1.08902    0.116
 6274.00    1.10663   1.08915    0.116
 6275.00    1.10839   1.08898    0.116
 6276.00    1.10892   1.08861    0.117
 6277.00    1.10940   1.08799    0.118
 6278.00    1.10587   1.08798    0.119
 6279.00    1.10224   1.08783    0.121
 6280.00    1.09594   1.08882    0.000
 6281.00    1.08989   1.09105    0.000
 6282.00    1.08805   1.09350    0.000
 6283.00    1.08678   1.09693    0.000
 6284.00    1.09160   1.09969    0.000
 6285.00    1.09651   1.10236    0.000
 6286.00    1.10221   1.10472    0.000
 6287.00    1.10783   1.10587    0.000
 6288.00    1.11302   1.10603    0.000
 6289.00    1.11692   1.10441    0.000
 6290.00    1.11498   1.10145    0.000
 6291.00    1.11303   1.09800    0.000
 6292.00    1.11103   1.09338    0.000
 6293.00    1.10857   1.08877    0.000
 6294.00    1.10471   1.08403    0.000
 6295.00    1.10046   1.07903    0.000
 6296.00    1.09518   1.07464    0.000
 6297.00    1.08994   1.07130    0.000
 6298.00    1.08480   1.06945    0.000
 6299.00    1.08103   1.06884    0.000
 6300.00    1.07993   1.06898    0.000
 6301.00    1.08086   1.07041    0.000
 6302.00    1.08522   1.07328    0.000
 6303.00    1.09056   1.07694    0.000
 6304.00    1.09738   1.08056    0.000
 6305.00    1.09886   1.08385    0.000
 6306.00    1.09331   1.08691    0.000
 6307.00    1.08915   1.08834    0.000
 6308.00    1.08659   1.08838    0.000
 6309.00    1.08469   1.08675    0.000
 6310.00    1.08347   1.08361    0.000
 6311.00    1.08153   1.07981    0.000
 6312.00    1.07891   1.07569    0.000
 6313.00    1.07616   1.07158    0.000
 6314.00    1.07330   1.06712    0.000
 6315.00    1.06772   1.06443    0.000
 6316.00    1.06023   1.06338    0.000
 6317.00    1.06260   1.06263    0.000
 6318.00    1.07102   1.06453    0.000
 6319.00    1.07793   1.06818    0.000
 6320.00    1.08402   1.07278    0.000
 6321.00    1.08586   1.07799    0.117
 6322.00    1.08572   1.08329    0.116
 6323.00    1.08869   1.08936    0.116
 6324.00    1.09291   1.09410    0.115
 6325.00    1.10042   1.09833    0.115
 6326.00    1.10906   1.10126    0.114
 6327.00    1.11237   1.10256    0.116
 6328.00    1.11415   1.10343    0.118
 6329.00    1.11256   1.10203    0.119
 6330.00    1.11017   1.10021    0.119
 6331.00    1.11126   1.09755    0.119
 6332.00    1.11302   1.09434    0.119
 6333.00    1.11113   1.09091    0.120
 6334.00    1.10869   1.08657    0.121
 6335.00    1.10421   1.08330    0.122
 6336.00    1.09950   1.08103    0.123
 6337.00    1.09335   1.08027    0.121
 6338.00    1.08709   1.07952    0.119
 6339.00    1.08600   1.07995    0.120
 6340.00    1.08510   1.08110    0.121
 6341.00    1.07919   1.08201    0.119
 6342.00    1.07354   1.08348    0.118
 6343.00    1.07788   1.08491    0.117
 6344.00    1.08249   1.08754    0.117
 6345.00    1.09161   1.09020    0.116
 6346.00    1.10045   1.09231    0.115
 6347.00    1.10651   1.09411    0.114
 6348.00    1.11175   1.09504    0.114
 6349.00    1.11115   1.09464    0.113
 6350.00    1.11002   1.09291    0.113
 6351.00    1.10597   1.08970    0.114
 6352.00    1.10178   1.08503    0.114
 6353.00    1.09699   1.07877    0.116
 6354.00    1.09168   1.07149    0.118
 6355.00    1.08449   1.06442    0.118
 6356.00    1.07617   1.05742    0.118
 6357.00    1.06441   1.05041    0.118
 6358.00    1.05379   1.04468    0.119
 6359.00    1.04607   1.04114    0.120
 6360.00    1.04026   1.03948    0.121
 6361.00    1.03868   1.03981    0.122
 6362.00    1.04147   1.04273    0.122
 6363.00    1.05269   1.04799    0.123
 6364.00    1.06042   1.05485    0.123
 6365.00    1.06227   1.06296    0.122
 6366.00    1.06580   1.07149    0.121
 6367.00    1.07180   1.08050    0.120
 6368.00    1.07904   1.08866    0.120
 6369.00    1.08791   1.09588    0.119
 6370.00    1.09394   1.10210    0.118
 6371.00    1.09674   1.10728    0.116
 6372.00    1.10055   1.11130    0.116
 6373.00    1.10536   1.11345    0.115
 6374.00    1.10843   1.11457    0.115
 6375.00    1.10994   1.11463    0.115
 6376.00    1.10772   1.11423    0.116
 6377.00    1.10257   1.11295    0.116
 6378.00    1.09638   1.11160    0.117
 6379.00    1.08945   1.11077    0.116
 6380.00    1.08445   1.10983    0.116
 6381.00    1.08060   1.10971    0.117
 6382.00    1.08075   1.10957    0.117
 6383.00    1.08301   1.10927    0.117
 6384.00    1.08803   1.10895    0.119
 6385.00    1.09431   1.10868    0.120
 6386.00    1.09855   1.10790    0.121
 6387.00    1.10199   1.10632    0.121
 6388.00    1.10065   1.10425    0.120
 6389.00    1.09770   1.10167    0.119
 6390.00    1.09491   1.09853    0.118
 6391.00    1.09216   1.09525    0.117
 6392.00    1.09033   1.09160    0.118
 6393.00    1.08872   1.08904    0.119
 6394.00    1.09040   1.08805    0.119
 6395.00    1.09268   1.08714    0.118
 6396.00    1.09863   1.08690    0.119
 6397.00    1.10511   1.08671    0.120
 6398.00    1.10560   1.08703    0.120
 6399.00    1.10547   1.08692    0.120
 6400.00    1.09913   1.08875    0.119
 6401.00    1.09238   1.09128    0.117
 6402.00    1.09628   1.09264    0.118
 6403.00    1.10053   1.09402    0.118
 6404.00    1.10297   1.09434    0.119
 6405.00    1.10522   1.09417    0.120
 6406.00    1.10172   1.09328    0.120
 6407.00    1.09830   1.09186    0.120
 6408.00    1.09603   1.09112    0.120
 6409.00    1.09333   1.09050    0.120
 6410.00    1.08645   1.08910    0.120
 6411.00    1.08020   1.08809    0.120
 6412.00    1.07833   1.08792    0.122
 6413.00    1.07715   1.08761    0.123
 6414.00    1.07973   1.08735    0.119
 6415.00    1.08153   1.08759    0.117
 6416.00    1.08001   1.08761    0.119
 6417.00    1.07918   1.08800    0.119
 6418.00    1.08075   1.08862    0.118
 6419.00    1.08231   1.08941    0.117
 6420.00    1.08383   1.09090    0.117
 6421.00    1.08306   1.09337    0.117
 6422.00    1.07647   1.09661    0.116
 6423.00    1.07220   1.09881    0.115
 6424.00    1.07303   1.10060    0.115
 6425.00    1.07538   1.10165    0.116
 6426.00    1.08059   1.10221    0.118
 6427.00    1.08517   1.10176    0.119
 6428.00    1.08870   1.10045    0.119
 6429.00    1.09172   1.09850    0.119
 6430.00    1.09398   1.09653    0.120
 6431.00    1.09619   1.09606    0.120
 6432.00    1.09831   1.09578    0.120
 6433.00    1.09854   1.09602    0.121
 6434.00    1.09663   1.09662    0.122
 6435.00    1.09540   1.09779    0.123
 6436.00    1.09483   1.09936    0.122
 6437.00    1.09266   1.10105    0.121
 6438.00    1.08909   1.10267    0.121
 6439.00    1.08898   1.10550    0.120
 6440.00    1.09154   1.10834    0.119
 6441.00    1.09479   1.11007    0.119
 6442.00    1.09851   1.11067    0.119
 6443.00    1.10008   1.10985    0.119
 6444.00    1.10036   1.10778    0.118
 6445.00    1.09273   1.10448    0.116
 6446.00    1.08099   1.10020    0.115
 6447.00    1.07300   1.09524    0.116
 6448.00    1.06670   1.09021    0.118
 6449.00    1.06494   1.08582    0.119
 6450.00    1.06494   1.08450    0.119
 6451.00    1.06632   1.08437    0.119
 6452.00    1.06816   1.08535    0.119
 6453.00    1.07263   1.08723    0.119
 6454.00    1.07784   1.08921    0.120
 6455.00    1.08382   1.09149    0.121
 6456.00    1.08998   1.09409    0.123
 6457.00    1.09115   1.09625    0.123
 6458.00    1.09142   1.09769    0.123
 6459.00    1.09363   1.09824    0.122
 6460.00    1.09610   1.09842    0.122
 6461.00    1.09516   1.09756    0.122
 6462.00    1.09388   1.09705    0.121
 6463.00    1.09253   1.09832    0.121
 6464.00    1.09118   1.09920    0.120
 6465.00    1.09289   1.10066    0.118
 6466.00    1.09468   1.10175    0.115
 6467.00    1.09172   1.10332    0.116
 6468.00    1.08885   1.10400    0.117
 6469.00    1.08827   1.10484    0.115
 6470.00    1.08801   1.10521    0.114
 6471.00    1.09230   1.10524    0.116
 6472.00    1.09682   1.10575    0.117
 6473.00    1.10340   1.10522    0.118
 6474.00    1.10908   1.10417    0.119
 6475.00    1.10867   1.10265    0.119
 6476.00    1.10811   1.10142    0.119
 6477.00    1.10671   1.09910    0.120
 6478.00    1.10493   1.09672    0.120
 6479.00    1.10148   1.09418    0.120
 6480.00    1.09551   1.09146    0.119
 6481.00    1.08071   1.08850    0.120
 6482.00    1.06805   1.08611    0.120
 6483.00    1.06166   1.08401    0.119
 6484.00    1.05965   1.08125    0.118
 6485.00    1.06857   1.07760    0.119
 6486.00    1.07675   1.07251    0.119
 6487.00    1.08331   1.06588    0.118
 6488.00    1.08290   1.05752    0.118
 6489.00    1.06946   1.04723    0.118
 6490.00    1.05523   1.03618    0.118
 6491.00    1.03970   1.02469    0.117
 6492.00    1.02633   1.01396    0.117
 6493.00    1.01606   1.00403    0.116
 6494.00    1.01005   0.99713    0.116
 6495.00    1.00940   0.99449    0.115
 6496.00    1.00683   0.99484    0.115
 6497.00    1.00212   0.99939    0.116
 6498.00    1.00380   1.00591    0.116
 6499.00    1.01176   1.01532    0.116
 6500.00    1.02127   1.02624    0.117
 6501.00    1.03214   1.03734    0.118
 6502.00    1.04354   1.04836    0.119
 6503.00    1.05536   1.05829    0.119
 6504.00    1.06130   1.06713    0.120
 6505.00    1.06331   1.07431    0.121
 6506.00    1.06544   1.07988    0.121
 6507.00    1.06764   1.08358    0.121
 6508.00    1.07271   1.08610    0.121
 6509.00    1.07925   1.08751    0.121
 6510.00    1.07936   1.08807    0.119
 6511.00    1.07664   1.08747    0.116
 6512.00    1.08054   1.08651    0.115
 6513.00    1.08696   1.08521    0.115
 6514.00    1.09631   1.08371    0.115
 6515.00    1.10660   1.08238    0.115
 6516.00    1.10425   1.08163    0.115
 6517.00    1.09849   1.08142    0.116
 6518.00    1.09385   1.08151    0.115
 6519.00    1.08947   1.08285    0.114
 6520.00    1.08667   1.08396    0.115
 6521.00    1.08414   1.08529    0.116
 6522.00    1.08630   1.08618    0.118
 6523.00    1.08908   1.08705    0.120
 6524.00    1.09418   1.08752    0.120
 6525.00    1.09950   1.08750    0.120
 6526.00    1.10009   1.08699    0.120
 6527.00    1.10040   1.08682    0.120
 6528.00    1.10034   1.08682    0.000
 6529.00    1.10027   1.08679    0.000
 6530.00    1.10045   1.08699    0.000
 6531.00    1.10056   1.08723    0.000
 6532.00    1.09875   1.08795    0.000
 6533.00    1.09724   1.08903    0.000
 6534.00    1.09963   1.09031    0.000
 6535.00    1.10192   1.09133    0.000
 6536.00    1.10338   1.09160    0.000
 6537.00    1.10496   1.09140    0.000
 6538.00    1.10727   1.09059    0.000
 6539.00    1.10848   1.08891    0.000
 6540.00    1.10401   1.08602    0.000
 6541.00    1.10104   1.08227    0.000
 6542.00    1.10424   1.07810    0.000
 6543.00    1.10756   1.07334    0.000
 6544.00    1.11128   1.06879    0.000
 6545.00    1.11387   1.06365    0.000
 6546.00    1.11319   1.05919    0.000
 6547.00    1.11239   1.05504    0.000
 6548.00    1.11131   1.05053    0.000
 6549.00    1.10915   1.04578    0.000
 6550.00    1.10470   1.04008    0.000
 6551.00    1.10025   1.03378    0.000
 6552.00    1.09577   1.02660    0.000
 6553.00    1.08901   1.01806    0.000
 6554.00    1.07855   1.00854    0.000
 6555.00    1.06576   0.99787    0.000
 6556.00    1.04966   0.98697    0.000
 6557.00    1.03967   0.97538    0.000
 6558.00    1.03726   0.96433    0.000
 6559.00    1.03824   0.95419    0.000
 6560.00    1.04291   0.94605    0.000
 6561.00    1.04411   0.94036    0.000
 6562.00    1.04194   0.93781    0.000
 6563.00    1.03812   0.94136    0.000
 6564.00    1.03288   0.94804    0.000
 6565.00    1.03145   0.95647    0.000
 6566.00    1.03289   0.96621    0.000
 6567.00    1.03643   0.97637    0.000
 6568.00    1.04138   0.98594    0.000
 6569.00    1.04279   0.99484    0.000
 6570.00    1.04218   1.00290    0.000
 6571.00    1.03970   1.00973    0.000
 6572.00    1.03628   1.01538    0.000
 6573.00    1.04179   1.02076    0.000
 6574.00    1.05117   1.02560    0.000
 6575.00    1.05669   1.03076    0.000
 6576.00    1.06076   1.03549    0.000
 6577.00    1.07658   1.03985    0.000
 6578.00    1.09612   1.04366    0.000
 6579.00    1.12365   1.04698    0.000
 6580.00    1.15329   1.04973    0.000
 6581.00    1.17729   1.05218    0.000
 6582.00    1.20008   1.05416    0.000
 6583.00    1.20938   1.05518    0.000
 6584.00    1.21637   1.05548    0.000
 6585.00    1.20200   1.05485    0.000
 6586.00    1.18484   1.05339    0.000
 6587.00    1.15627   1.05152    0.000
 6588.00    1.12665   1.04852    0.000
 6589.00    1.10172   1.04530    0.000
 6590.00    1.07705   1.04173    0.000
 6591.00    1.06208   1.03844    0.000
 6592.00    1.04741   1.03571    0.000
 6593.00    1.04137   1.03453    0.000
 6594.00    1.03550   1.03501    0.000
 6595.00    1.03344   1.03607    0.000
 6596.00    1.03191   1.03794    0.000
 6597.00    1.03720   1.04023    0.000
 6598.00    1.04242   1.04270    0.000
 6599.00    1.04710   1.04513    0.000
 6600.00    1.05162   1.04686    0.000
 6601.00    1.05513   1.04770    0.000
 6602.00    1.05838   1.04756    0.000
 6603.00    1.06028   1.04684    0.000
 6604.00    1.06204   1.04554    0.000
 6605.00    1.06319   1.04447    0.000
 6606.00    1.06360   1.04353    0.000
 6607.00    1.06154   1.04333    0.000
 6608.00    1.05854   1.04382    0.000
 6609.00    1.05287   1.04547    0.116
 6610.00    1.04845   1.04823    0.117
 6611.00    1.04708   1.05113    0.117
 6612.00    1.04722   1.05438    0.118
 6613.00    1.05053   1.05735    0.118
 6614.00    1.05620   1.06047    0.119
 6615.00    1.06615   1.06286    0.121
 6616.00    1.07239   1.06429    0.122
 6617.00    1.07274   1.06497    0.122
 6618.00    1.07267   1.06470    0.122
 6619.00    1.07202   1.06371    0.123
 6620.00    1.07158   1.06163    0.123
 6621.00    1.07141   1.05913    0.122
 6622.00    1.07124   1.05573    0.122
 6623.00    1.07107   1.05236    0.123
 6624.00    1.07017   1.04848    0.122
 6625.00    1.06858   1.04531    0.120
 6626.00    1.06295   1.04184    0.119
 6627.00    1.05392   1.03858    0.119
 6628.00    1.04130   1.03547    0.118
 6629.00    1.02604   1.03268    0.116
 6630.00    1.01604   1.03032    0.115
 6631.00    1.00946   1.02846    0.116
 6632.00    1.00699   1.02723    0.116
 6633.00    1.00685   1.02663    0.115
 6634.00    1.01114   1.02704    0.116
 6635.00    1.01761   1.02788    0.118
 6636.00    1.02673   1.02897    0.119
 6637.00    1.03696   1.03003    0.119
 6638.00    1.04358   1.03110    0.121
 6639.00    1.04887   1.03194    0.123
 6640.00    1.04660   1.03278    0.123
 6641.00    1.04198   1.03346    0.123
 6642.00    1.03838   1.03372    0.123
 6643.00    1.03506   1.03410    0.124
 6644.00    1.03768   1.03487    0.122
 6645.00    1.04157   1.03553    0.121
 6646.00    1.04215   1.03618    0.121
 6647.00    1.04217   1.03675    0.121
 6648.00    1.04179   1.03744    0.119
 6649.00    1.04136   1.03783    0.117
 6650.00    1.03724   1.03799    0.118
 6651.00    1.03280   1.03771    0.118
 6652.00    1.03205   1.03722    0.118
 6653.00    1.03149   1.03619    0.118
 6654.00    1.03453   1.03475    0.117
 6655.00    1.03761   1.03284    0.116
 6656.00    1.03888   1.03027    0.117
 6657.00    1.04030   1.02759    0.118
 6658.00    1.04483   1.02441    0.118
 6659.00    1.04831   1.02135    0.118
 6660.00    1.03918   1.01817    0.120
 6661.00    1.03046   1.01575    0.121
 6662.00    1.02522   1.01365    0.121
 6663.00    1.02044   1.01265    0.122
 6664.00    1.01848   1.01274    0.122
 6665.00    1.01556   1.01350    0.122
 6666.00    1.00796   1.01498    0.121
 6667.00    1.00290   1.01687    0.121
 6668.00    1.00788   1.01899    0.121
 6669.00    1.01490   1.02082    0.120
 6670.00    1.02863   1.02210    0.120
 6671.00    1.03807   1.02250    0.120
 6672.00    1.03563   1.02219    0.119
 6673.00    1.03046   1.02102    0.119
 6674.00    1.01881   1.01941    0.119
 6675.00    1.01190   1.01733    0.119
 6676.00    1.01471   1.01550    0.118
 6677.00    1.01682   1.01393    0.118
 6678.00    1.01767   1.01348    0.119
 6679.00    1.01890   1.01407    0.119
 6680.00    1.02071   1.01501    0.120
 6681.00    1.01960   1.01670    0.121
 6682.00    1.01450   1.01877    0.121
 6683.00    1.01044   1.02091    0.121
 6684.00    1.00763   1.02303    0.122
 6685.00    1.00898   1.02454    0.122
 6686.00    1.01477   1.02585    0.122
 6687.00    1.01766   1.02623    0.122
 6688.00    1.01782   1.02630    0.124
 6689.00    1.02006   1.02555    0.124
 6690.00    1.02402   1.02436    0.123
 6691.00    1.02388   1.02260    0.122
 6692.00    1.02075   1.02064    0.121
 6693.00    1.01927   1.01842    0.120
 6694.00    1.01884   1.01636    0.120
 6695.00    1.01370   1.01434    0.120
 6696.00    1.00592   1.01284    0.000
 6697.00    1.00020   1.01187    0.000
 6698.00    0.99549   1.01106    0.000
 6699.00    0.99284   1.01075    0.000
 6700.00    0.99105   1.01028    0.000
 6701.00    0.99063   1.00993    0.000
 6702.00    0.99070   1.00940    0.000
 6703.00    0.99492   1.00874    0.000
 6704.00    1.00040   1.00795    0.000
 6705.00    1.00198   1.00682    0.000
 6706.00    1.00257   1.00542    0.000
 6707.00    1.00243   1.00336    0.000
 6708.00    1.00213   1.00112    0.000
 6709.00    1.01101   0.99829    0.000
 6710.00    1.02136   0.99520    0.000
 6711.00    1.02534   0.99212    0.000
 6712.00    1.02854   0.98891    0.000
 6713.00    1.03452   0.98616    0.000
 6714.00    1.04073   0.98396    0.000
 6715.00    1.04354   0.98253    0.000
 6716.00    1.04619   0.98226    0.000
 6717.00    1.04254   0.98278    0.000
 6718.00    1.03869   0.98464    0.000
 6719.00    1.02855   0.98675    0.000
 6720.00    1.01849   0.98959    0.000
 6721.00    1.01014   0.99231    0.000
 6722.00    1.00177   0.99538    0.000
 6723.00    0.99316   0.99800    0.000
 6724.00    0.98718   1.00046    0.000
 6725.00    1.00220   1.00241    0.000
 6726.00    1.01666   1.00415    0.000
 6727.00    1.02778   1.00556    0.000
 6728.00    1.03802   1.00645    0.000
 6729.00    1.04406   1.00705    0.000
 6730.00    1.04751   1.00706    0.000
 6731.00    1.04093   1.00680    0.000
 6732.00    1.03343   1.00592    0.000
 6733.00    1.02290   1.00487    0.000
 6734.00    1.01545   1.00334    0.000
 6735.00    1.01636   1.00165    0.000
 6736.00    1.01096   0.99965    0.000
 6737.00    0.99082   0.99758    0.000
 6738.00    0.97627   0.99562    0.000
 6739.00    0.97301   0.99367    0.000
 6740.00    0.97357   0.99196    0.000
 6741.00    0.98087   0.99022    0.000
 6742.00    0.98699   0.98875    0.000
 6743.00    0.99131   0.98727    0.000
 6744.00    0.98899   0.98626    0.000
 6745.00    0.97769   0.98504    0.000
 6746.00    0.97454   0.98443    0.000
 6747.00    0.98110   0.98383    0.000
 6748.00    0.98317   0.98399    0.000
 6749.00    0.98052   0.98448    0.000
 6750.00    0.97497   0.98558    0.000
 6751.00    0.96672   0.98751    0.000
 6752.00    0.96643   0.98963    0.000
 6753.00    0.97265   0.99261    0.133
 6754.00    0.97413   0.99563    0.135
 6755.00    0.97221   0.99890    0.136
 6756.00    0.96611   1.00186    0.136
 6757.00    0.95737   1.00451    0.136
 6758.00    0.96618   1.00646    0.136
 6759.00    0.98465   1.00762    0.135
 6760.00    1.02473   1.00803    0.138
 6761.00    1.07517   1.00754    0.141
 6762.00    1.10985   1.00647    0.144
 6763.00    1.13800   1.00481    0.146
 6764.00    1.13972   1.00291    0.147
 6765.00    1.13209   1.00098    0.147
 6766.00    1.13033   0.99942    0.147
 6767.00    1.13033   0.99841    0.147
 6768.00    1.13599   0.99808    0.146
 6769.00    1.14306   0.99858    0.145
 6770.00    1.12457   0.99964    0.143
 6771.00    1.10095   1.00144    0.141
 6772.00    1.08374   1.00347    0.138
 6773.00    1.06754   1.00563    0.136
 6774.00    1.06115   1.00736    0.134
 6775.00    1.05591   1.00855    0.131
 6776.00    1.03264   1.00899    0.131
 6777.00    1.00794   1.00839    0.131
 6778.00    1.02726   1.00706    0.133
 6779.00    1.04850   1.00473    0.134
 6780.00    1.05045   1.00194    0.134
 6781.00    1.05174   0.99877    0.133
 6782.00    1.03168   0.99577    0.132
 6783.00    1.01260   0.99316    0.131
 6784.00    1.01135   0.99112    0.131
 6785.00    1.01075   0.98995    0.131
 6786.00    1.01747   0.98916    0.133
 6787.00    1.02379   0.98915    0.135
 6788.00    1.02711   0.98931    0.135
 6789.00    1.03193   0.98983    0.135
 6790.00    1.04543   0.99034    0.136
 6791.00    1.05702   0.99087    0.137
 6792.00    1.05975   0.99148    0.137
 6793.00    1.06348   0.99190    0.138
 6794.00    1.07101   0.99266    0.138
 6795.00    1.07168   0.99323    0.137
 6796.00    1.05065   0.99406    0.134
 6797.00    1.03729   0.99481    0.132
 6798.00    1.04449   0.99562    0.131
 6799.00    1.04327   0.99630    0.131
 6800.00    1.02267   0.99686    0.130
 6801.00    1.00885   0.99713    0.130
 6802.00    1.00846   0.99728    0.131
 6803.00    1.00892   0.99714    0.132
 6804.00    1.01085   0.99683    0.133
 6805.00    1.01134   0.99649    0.133
 6806.00    1.00966   0.99596    0.132
 6807.00    1.00945   0.99550    0.132
 6808.00    1.01119   0.99510    0.132
 6809.00    1.01314   0.99484    0.133
 6810.00    1.01534   0.99466    0.133
 6811.00    1.01605   0.99478    0.135
 6812.00    1.01523   0.99489    0.138
 6813.00    1.01899   0.99542    0.140
 6814.00    1.02694   0.99605    0.141
 6815.00    1.02458   0.99692    0.139
 6816.00    1.01392   0.99790    0.135
 6817.00    1.00842   0.99885    0.133
 6818.00    1.00659   0.99991    0.130
 6819.00    1.00905   1.00085    0.129
 6820.00    1.01420   1.00181    0.128
 6821.00    1.02371   1.00242    0.128
 6822.00    1.03558   1.00293    0.128
 6823.00    1.03545   1.00297    0.127
 6824.00    1.02966   1.00289    0.126
 6825.00    1.02742   1.00237    0.127
 6826.00    1.02662   1.00186    0.128
 6827.00    1.01841   1.00119    0.131
 6828.00    1.00763   1.00047    0.134
 6829.00    1.01133   0.99964    0.135
 6830.00    1.01928   0.99853    0.136
 6831.00    1.02870   0.99724    0.137
 6832.00    1.03847   0.99547    0.137
 6833.00    1.03601   0.99335    0.136
 6834.00    1.03116   0.99059    0.135
 6835.00    1.02178   0.98764    0.135
 6836.00    1.01172   0.98416    0.136
 6837.00    1.01901   0.98102    0.136
 6838.00    1.02824   0.97790    0.136
 6839.00    1.02268   0.97566    0.137
 6840.00    1.01601   0.97413    0.139
 6841.00    1.00020   0.97372    0.135
 6842.00    0.98402   0.97420    0.132
 6843.00    0.97250   0.97546    0.129
 6844.00    0.96161   0.97722    0.126
 6845.00    0.97422   0.97914    0.125
 6846.00    0.98695   0.98096    0.124
 6847.00    1.00166   0.98228    0.129
 6848.00    1.01619   0.98304    0.133
 6849.00    1.02879   0.98296    0.133
 6850.00    1.03849   0.98220    0.134
 6851.00    1.02664   0.98064    0.134
 6852.00    1.01505   0.97856    0.134
 6853.00    1.00497   0.97623    0.133
 6854.00    0.99516   0.97397    0.133
 6855.00    0.98664   0.97177    0.133
 6856.00    0.97699   0.97010    0.132
 6857.00    0.96321   0.96871    0.131
 6858.00    0.95411   0.96783    0.130
 6859.00    0.95951   0.96739    0.131
 6860.00    0.96449   0.96750    0.131
 6861.00    0.96841   0.96786    0.130
 6862.00    0.97089   0.96824    0.129
 6863.00    0.97014   0.96865    0.127
 6864.00    0.97026   0.96882    0.127
 6865.00    0.97210   0.96890    0.129
 6866.00    0.97340   0.96887    0.131
 6867.00    0.97378   0.96894    0.133
 6868.00    0.97347   0.96885    0.134
 6869.00    0.97212   0.96887    0.134
 6870.00    0.97209   0.96900    0.133
 6871.00    0.97378   0.96940    0.133
 6872.00    0.97842   0.96987    0.132
 6873.00    0.98645   0.97055    0.132
 6874.00    0.98894   0.97126    0.133
 6875.00    0.98577   0.97210    0.134
 6876.00    0.98001   0.97271    0.134
 6877.00    0.97192   0.97344    0.133
 6878.00    0.97033   0.97390    0.133
 6879.00    0.97390   0.97462    0.132
 6880.00    0.97778   0.97528    0.131
 6881.00    0.98188   0.97656    0.129
 6882.00    0.98467   0.97794    0.128
 6883.00    0.98667   0.97982    0.128
 6884.00    0.98925   0.98195    0.127
 6885.00    0.99215   0.98452    0.127
 6886.00    0.98924   0.98710    0.127
 6887.00    0.98363   0.98971    0.127
 6888.00    0.97985   0.99213    0.129
 6889.00    0.97679   0.99420    0.131
 6890.00    0.97492   0.99580    0.132
 6891.00    0.97346   0.99702    0.133
 6892.00    0.97545   0.99781    0.133
 6893.00    0.97843   0.99823    0.133
 6894.00    0.97311   0.99847    0.133
 6895.00    0.96584   0.99860    0.133
 6896.00    0.96686   0.99873    0.132
 6897.00    0.96946   0.99879    0.131
 6898.00    0.96537   0.99910    0.132
 6899.00    0.96029   0.99952    0.134
 6900.00    0.96324   1.00010    0.134
 6901.00    0.96705   1.00058    0.133
 6902.00    0.97608   1.00117    0.132
 6903.00    0.98549   1.00152    0.130
 6904.00    0.98729   1.00189    0.129
 6905.00    0.98883   1.00172    0.128
 6906.00    0.99242   1.00137    0.128
 6907.00    0.99558   1.00049    0.129
 6908.00    0.98323   0.99931    0.130
 6909.00    0.97141   0.99774    0.131
 6910.00    0.96784   0.99601    0.131
 6911.00    0.96449   0.99425    0.130
 6912.00    0.96323   0.99251    0.131
 6913.00    0.96225   0.99131    0.132
 6914.00    0.96322   0.99002    0.133
 6915.00    0.96371   0.98949    0.135
 6916.00    0.96147   0.98892    0.135
 6917.00    0.96091   0.98882    0.135
 6918.00    0.96780   0.98857    0.134
 6919.00    0.97258   0.98832    0.133
 6920.00    0.96971   0.98791    0.133
 6921.00    0.96807   0.98718    0.132
 6922.00    0.97014   0.98650    0.131
 6923.00    0.97159   0.98564    0.131
 6924.00    0.97143   0.98506    0.129
 6925.00    0.96945   0.98447    0.129
 6926.00    0.96339   0.98419    0.129
 6927.00    0.95891   0.98412    0.129
 6928.00    0.95744   0.98429    0.131
 6929.00    0.96163   0.98475    0.132
 6930.00    0.97534   0.98530    0.134
 6931.00    0.98066   0.98612    0.135
 6932.00    0.97365   0.98696    0.135
 6933.00    0.96224   0.98784    0.135
 6934.00    0.94514   0.98858    0.136
 6935.00    0.93998   0.98921    0.136
 6936.00    0.94845   0.98958    0.136
 6937.00    0.95991   0.98967    0.136
 6938.00    0.97438   0.98935    0.136
 6939.00    0.97568   0.98869    0.135
 6940.00    0.96529   0.98762    0.135
 6941.00    0.96316   0.98643    0.134
 6942.00    0.96748   0.98504    0.133
 6943.00    0.97269   0.98378    0.133
 6944.00    0.97852   0.98262    0.133
 6945.00    0.97626   0.98166    0.132
 6946.00    0.96914   0.98089    0.132
 6947.00    0.96756   0.98039    0.132
 6948.00    0.96889   0.98013    0.133
 6949.00    0.96907   0.98010    0.134
 6950.00    0.96873   0.98043    0.135
 6951.00    0.97232   0.98094    0.136
 6952.00    0.97747   0.98188    0.137
 6953.00    0.97674   0.98300    0.136
 6954.00    0.97405   0.98455    0.136
 6955.00    0.96982   0.98619    0.136
 6956.00    0.96514   0.98818    0.137
 6957.00    0.96392   0.99015    0.138
 6958.00    0.96349   0.99222    0.140
 6959.00    0.96785   0.99416    0.139
 6960.00    0.97308   0.99592    0.138
 6961.00    0.96556   0.99746    0.136
 6962.00    0.95621   0.99867    0.135
 6963.00    0.95524   0.99963    0.133
 6964.00    0.95514   1.00010    0.132
 6965.00    0.95014   1.00024    0.133
 6966.00    0.94481   0.99974    0.133
 6967.00    0.95768   0.99873    0.135
 6968.00    0.97114   0.99710    0.136
 6969.00    0.97108   0.99472    0.136
 6970.00    0.97083   0.99180    0.136
 6971.00    0.96476   0.98811    0.139
 6972.00    0.95906   0.98426    0.142
 6973.00    0.95888   0.97999    0.140
 6974.00    0.95725   0.97623    0.138
 6975.00    0.94159   0.97290    0.139
 6976.00    0.92789   0.97074    0.139
 6977.00    0.92781   0.96956    0.138
 6978.00    0.92761   0.96989    0.137
 6979.00    0.92677   0.97127    0.136
 6980.00    0.92771   0.97390    0.135
 6981.00    0.93634   0.97714    0.135
 6982.00    0.94436   0.98095    0.134
 6983.00    0.95024   0.98469    0.133
 6984.00    0.95496   0.98824    0.133
 6985.00    0.95619   0.99125    0.134
 6986.00    0.95535   0.99376    0.134
 6987.00    0.94921   0.99559    0.133
 6988.00    0.94654   0.99682    0.133
 6989.00    0.95146   0.99747    0.135
 6990.00    0.95850   0.99762    0.137
 6991.00    0.96959   0.99738    0.138
 6992.00    0.97426   0.99670    0.139
 6993.00    0.96831   0.99564    0.140
 6994.00    0.96423   0.99419    0.141
 6995.00    0.96285   0.99243    0.140
 6996.00    0.96028   0.99049    0.140
 6997.00    0.95621   0.98839    0.139
 6998.00    0.95370   0.98630    0.139
 6999.00    0.95294   0.98419    0.140
 7000.00    0.95139   0.98238    0.140
 7001.00    0.94906   0.98077    0.139
 7002.00    0.91318   0.97956    0.138
 7003.00    0.84796   0.97861    0.137
 7004.00    0.84106   0.97797    0.137
 7005.00    0.87912   0.97751    0.138
 7006.00    0.89138   0.97707    0.138
 7007.00    0.88617   0.97671    0.139
 7008.00    0.87530   0.97606    0.139
 7009.00    0.86108   0.97539    0.140
 7010.00    0.85901   0.97432    0.141
 7011.00    0.86323   0.97335    0.143
 7012.00    0.86429   0.97213    0.144
 7013.00    0.86394   0.97130    0.145
 7014.00    0.86679   0.97042    0.145
 7015.00    0.87088   0.97012    0.145
 7016.00    0.87656   0.96987    0.144
 7017.00    0.88275   0.97027    0.144
 7018.00    0.88358   0.97061    0.144
 7019.00    0.88293   0.97150    0.145
 7020.00    0.87977   0.97216    0.145
 7021.00    0.87604   0.97325    0.145
 7022.00    0.88694   0.97402    0.143
 7023.00    0.90047   0.97519    0.141
 7024.00    0.90082   0.97612    0.141
 7025.00    0.89933   0.97745    0.142
 7026.00    0.89196   0.97858    0.140
 7027.00    0.88400   0.98006    0.139
 7028.00    0.89537   0.98132    0.141
 7029.00    0.90795   0.98279    0.143
 7030.00    0.89974   0.98400    0.144
 7031.00    0.89096   0.98533    0.146
 7032.00    0.88817   0.98651    0.147
 7033.00    0.88540   0.98796    0.149
 7034.00    0.88290   0.98946    0.148
 7035.00    0.88058   0.99138    0.146
 7036.00    0.88063   0.99354    0.148
 7037.00    0.88157   0.99621    0.150
 7038.00    0.89070   0.99911    0.148
 7039.00    0.89781   1.00231    0.147
 7040.00    0.89124   1.00547    0.145
 7041.00    0.88895   1.00844    0.144
 7042.00    0.90908   1.01093    0.145
 7043.00    0.92542   1.01261    0.146
 7044.00    0.92585   1.01341    0.146
 7045.00    0.92551   1.01293    0.146
 7046.00    0.92245   1.01132    0.145
 7047.00    0.91920   1.00826    0.145
 7048.00    0.91538   1.00411    0.148
 7049.00    0.91478   0.99873    0.151
 7050.00    0.92218   0.99260   -2.000
 7051.00    0.92335   0.98581   -2.000
 7052.00    0.91114   0.97881   -2.000
 7053.00    0.90216   0.97185   -2.000
 7054.00    0.89922   0.96520   -2.000
 7055.00    0.90781   0.95910   -2.000
 7056.00    0.93523   0.95362   -2.000
 7057.00    0.94340   0.94888   -2.000
 7058.00    0.92404   0.94484   -2.000
 7059.00    0.92148   0.94146   -2.000
 7060.00    0.94008   0.93873   -2.000
 7061.00    0.95409   0.93648   -2.000
 7062.00    0.96302   0.93485   -2.000
 7063.00    0.97400   0.93361   -2.000
 7064.00    0.98700   0.93305   -2.000
 7065.00    0.97239   0.93292   -2.000
 7066.00    0.93396   0.93355   -2.000
 7067.00    0.91668   0.93463   -2.000
 7068.00    0.91548   0.93643   -2.000
 7069.00    0.92936   0.93855   -2.000
 7070.00    0.95333   0.94111   -2.000
 7071.00    0.98106   0.94368   -2.000
 7072.00    1.01100   0.94620   -2.000
 7073.00    1.02373   0.94828   -2.000
 7074.00    1.02769   0.94977   -2.000
 7075.00    1.00520   0.95038   -2.000
 7076.00    0.97103   0.94998   -2.000
 7077.00    0.97176   0.94846   -2.000
 7078.00    0.98571   0.94577   -2.000
 7079.00    0.98790   0.94200   -2.000
 7080.00    0.98631   0.93721   -2.000
 7081.00    0.98979   0.93174   -2.000
 7082.00    0.99463   0.92567   -2.000
 7083.00    0.98031   0.91954   -2.000
 7084.00    0.96175   0.91336   -2.000
 7085.00    0.93786   0.90777   -2.000
 7086.00    0.91304   0.90260   -2.000
 7087.00    0.90068   0.89843   -2.000
 7088.00    0.88999   0.89495   -2.000
 7089.00    0.88692   0.89260   -2.000
 7090.00    0.88457   0.89098   -2.000
 7091.00    0.88570   0.89034   -2.000
 7092.00    0.88704   0.89038   -2.000
 7093.00    0.89900   0.89103   -2.000
 7094.00    0.91106   0.89230   -2.000
 7095.00    0.90213   0.89368   -2.000
 7096.00    0.89344   0.89558   -2.000
 7097.00    0.89104   0.89711   -2.000
 7098.00    0.88681   0.89904   -2.000
 7099.00    0.85838   0.90025   -2.000
 7100.00    0.83149   0.90171   -2.000
 7101.00    0.81814   0.90228   -2.000
 7102.00    0.80874   0.90299   -2.000
 7103.00    0.82509   0.90288   -2.000
 7104.00    0.84060   0.90286   -2.000
 7105.00    0.85178   0.90226   -2.000
 7106.00    0.85545   0.90179   -2.000
 7107.00    0.82817   0.90105   -2.000
 7108.00    0.80291   0.90055   -2.000
 7109.00    0.78450   0.90005   -2.000
 7110.00    0.77671   0.89984   -2.000
 7111.00    0.79946   0.89977   -2.000
 7112.00    0.81335   0.89991   -2.000
 7113.00    0.80548   0.90011   -2.000
 7114.00    0.80499   0.90034   -2.000
 7115.00    0.82012   0.90038   -2.000
 7116.00    0.83104   0.90026   -2.000
 7117.00    0.83423   0.89970   -2.000
 7118.00    0.84295   0.89886   -2.000
 7119.00    0.86055   0.89748   -2.000
 7120.00    0.87782   0.89576   -2.000
 7121.00    0.89459   0.89362   -2.000
 7122.00    0.89937   0.89118   -2.000
 7123.00    0.88929   0.88862   -2.000
 7124.00    0.88821   0.88590   -2.000
 7125.00    0.89699   0.88347   -2.000
 7126.00    0.88518   0.88112   -2.000
 7127.00    0.85351   0.87943   -2.000
 7128.00    0.84748   0.87810   -2.000
 7129.00    0.86325   0.87764   -2.000
 7130.00    0.85942   0.87771   -2.000
 7131.00    0.84092   0.87858   -2.000
 7132.00    0.83489   0.87990   -2.000
 7133.00    0.83708   0.88167   -2.000
 7134.00    0.82654   0.88365   -2.000
 7135.00    0.80868   0.88559   -2.000
 7136.00    0.82289   0.88744   -2.000
 7137.00    0.85319   0.88886   -2.000
 7138.00    0.86842   0.88998   -2.000
 7139.00    0.87710   0.89051   -2.000
 7140.00    0.87311   0.89069   -2.000
 7141.00    0.86440   0.89036   -2.000
 7142.00    0.85036   0.88983   -2.000
 7143.00    0.83464   0.88904   -2.000
 7144.00    0.82165   0.88837   -2.000
 7145.00    0.80938   0.88776   -2.000
 7146.00    0.80848   0.88760   -2.000
 7147.00    0.81004   0.88776   -2.000
 7148.00    0.82362   0.88854   -2.000
 7149.00    0.83925   0.88968   -2.000
 7150.00    0.83932   0.89133   -2.000
 7151.00    0.83737   0.89312   -2.000
 7152.00    0.82347   0.89505   -2.000
 7153.00    0.80849   0.89675   -2.000
 7154.00    0.81875   0.89819   -2.000
 7155.00    0.83040   0.89909   -2.000
 7156.00    0.84110   0.89948   -2.000
 7157.00    0.85169   0.89931   -2.000
 7158.00    0.85354   0.89865   -2.000
 7159.00    0.85736   0.89773   -2.000
 7160.00    0.90575   0.89659   -2.000
 7161.00    0.94895   0.89568   -2.000
 7162.00    0.92685   0.89494   -2.000
 7163.00    0.90482   0.89484   -2.000
 7164.00    0.88347   0.89514   -2.000
 7165.00    0.86348   0.89621   -2.000
 7166.00    0.85221   0.89764   -2.000
 7167.00    0.84871   0.89956   -2.000
 7168.00    0.88385   0.90154   -2.000
 7169.00    0.91009   0.90350   -2.000
 7170.00    0.90052   0.90513   -2.000
 7171.00    0.88776   0.90626   -2.000
 7172.00    0.86436   0.90683   -2.000
 7173.00    0.84655   0.90669   -2.000
 7174.00    0.84454   0.90600   -2.000
 7175.00    0.84884   0.90470   -2.000
 7176.00    0.86838   0.90305   -2.000
 7177.00    0.87911   0.90106   -2.000
 7178.00    0.87149   0.89896   -2.000
 7179.00    0.86105   0.89676   -2.000
 7180.00    0.84553   0.89462   -2.000
 7181.00    0.83387   0.89251   -2.000
 7182.00    0.82833   0.89054   -2.000
 7183.00    0.81676   0.88860   -2.000
 7184.00    0.79679   0.88690   -2.000
 7185.00    0.78443   0.88526   -2.000
 7186.00    0.78135   0.88401   -2.000
 7187.00    0.77832   0.88292   -2.000
 7188.00    0.77536   0.88236   -2.000
 7189.00    0.79053   0.88206   -2.000
 7190.00    0.82292   0.88236   -2.000
 7191.00    0.82867   0.88291   -2.000
 7192.00    0.81208   0.88395   -2.000
 7193.00    0.79428   0.88514   -2.000
 7194.00    0.77559   0.88655   -2.000
 7195.00    0.77102   0.88795   -2.000
 7196.00    0.77561   0.88925   -2.000
 7197.00    0.78181   0.89041   -2.000
 7198.00    0.78892   0.89123   -2.000
 7199.00    0.79749   0.89180   -2.000
 7200.00    0.80677   0.89193   -2.000
 7201.00    0.81554   0.89185   -2.000
 7202.00    0.82410   0.89136   -2.000
 7203.00    0.80414   0.89088   -2.000
 7204.00    0.77375   0.89019   -2.000
 7205.00    0.76934   0.88979   -2.000
 7206.00    0.77298   0.88949   -2.000
 7207.00    0.76956   0.88966   -2.000
 7208.00    0.76434   0.89016   -2.000
 7209.00    0.75611   0.89112   -2.000
 7210.00    0.74726   0.89248   -2.000
 7211.00    0.75670   0.89406   -2.000
 7212.00    0.76917   0.89594   -2.000
 7213.00    0.78043   0.89780   -2.000
 7214.00    0.79153   0.89976   -2.000
 7215.00    0.78785   0.90155   -2.000
 7216.00    0.78289   0.90334   -2.000
 7217.00    0.79350   0.90495   -2.000
 7218.00    0.80490   0.90657   -2.000
