###################################################################
## OUTPUT of StarlightChains_v04.for    [Cid@UFSC - 01/Apr/2007] ##
###################################################################

## Some input info
KUG0210-078._27_37.txt                   [arq_obs]
Base.CB07.vall.4m                        [arq_base]
Masks.EmLines.NEW.gm                     [arq_masks]
StCv04.C11.config                        [arq_config]
   66                                    [N_base]
    0                                    [N_YAV_components = # of components with extra extinction!]
    0                                    [i_FitPowerLaw (1/0 = Yes/No)]
-9.99                                    [alpha_PowerLaw]
CCM                                      [red_law_option]
 1.458241                                [q_norm = A(l_norm)/A(V)]

## (Re)Sampling Parameters
 3741.00                                 [l_ini (A)]
 7218.00                                 [l_fin (A)]
    1.00                                 [dl    (A)]     (OBS: dl_cushion =    50.00 A)

## Normalization info
 4020.00                                 [l_norm (A) - for base]
 4010.00                                 [llow_norm (A) - window for f_obs]
 4060.00                                 [lupp_norm (A) - window for f_obs]
5.284666E-17                             [fobs_norm (in input units)]

## S/N
 3691.00                                 [llow_SN (A) - window for S/N]
 7268.00                                 [lupp_SN (A) - window for S/N]
   4.601                                 [S/N in S/N window]
   3.180                                 [S/N in norm. window]
   0.116                                 [S/N_err in S/N window]
   0.080                                 [S/N_err in norm. window]
  1.0000                                 [fscale_chi2]

## etc...
    -2007357                             [idum_orig]
  2432                                   [NOl_eff]
  2238                                   [Nl_eff]
   194    NSIGMA                         [Ntot_cliped & clip_method]
 15298570                                [Nglobal_steps]
   7                                     [N_chains]
  19                                     [NEX0s_base = N_base in EX0s-fits]
 0   0   1      194   2.0   3.234E+04    [Clip-Bug, RC-Crash & Burn-In warning-flags, n_censored_weights, wei_nsig_threshold & wei_limit]
   103    102.941    102.254      0.687  [idt_all, wdt_TotTime, wdt_UsrTime & wdt_SysTime (sec)]

## Synthesis Results - Best model ##

 1.02958E-04                             [chi2/Nl_eff]
     6.92894                             [adev (%)]

   112.78375                             [sum-of-x (%)]
 2.00131E-15                             [Flux_tot (units of input spectrum!)]
 1.37800E-13                             [Mini_tot (???)]
 1.25230E-13                             [Mcor_tot (???)]

-126.18                                  [v0_min  (km/s)]
 381.22                                  [vd_min  (km/s)]
 2.6163                                  [AV_min  (mag)]
 0.0000                                  [YAV_min (mag)]

# j     x_j(%)      Mini_j(%)     Mcor_j(%)     age_j(yr)     Z_j      (L/M)_j    YAV?  Mstars   component_j        a/Fe...       SSP_chi2r SSP_adev(%)   SSP_AV   SSP_x(%)
  1      1.1486     1.3519E+00    1.4876E+00    1.000000E+06  0.00400  1.094E-02    0   1.0000   age020_m42            0.0000     3.0860E-04    11.3033   3.9675    96.5576
  2      0.0000     0.0000E+00    0.0000E+00    3.160000E+06  0.00400  4.007E-02    0   0.9999   age045_m42            0.0000     2.7845E-04    10.7603   3.2920   100.7188
  3      0.0000     0.0000E+00    0.0000E+00    5.010000E+06  0.00400  2.539E-02    0   0.9488   age055_m42            0.0000     2.8741E-04    10.8843   3.5875    99.4060
  4      0.0000     0.0000E+00    0.0000E+00    6.610000E+06  0.00400  2.620E-02    0   0.9220   age061_m42            0.0000     2.6637E-04    10.4778   3.2166   100.9815
  5      0.0000     0.0000E+00    0.0000E+00    1.000000E+07  0.00400  1.322E-02    0   0.8862   age070_m42            0.0000     2.1928E-04     9.3639   2.9032   104.4298
  6      0.0000     0.0000E+00    0.0000E+00    1.445000E+07  0.00400  7.883E-03    0   0.8571   age078_m42            0.0000     2.2807E-04     9.5907   3.2180   102.4096
  7      0.0000     0.0000E+00    0.0000E+00    2.512000E+07  0.00400  5.251E-03    0   0.8174   age090_m42            0.0000     2.1164E-04     9.1817   2.7731   105.0028
  8      0.0000     0.0000E+00    0.0000E+00    4.000000E+07  0.00400  3.649E-03    0   0.7851   age104_m42            0.0000     2.1392E-04     9.2181   2.5579   105.2851
  9      0.0000     0.0000E+00    0.0000E+00    5.500000E+07  0.00400  3.098E-03    0   0.7629   age110_m42            0.0000     2.2922E-04     9.5561   2.7302   104.4299
 10      0.0000     0.0000E+00    0.0000E+00    1.015200E+08  0.00400  2.228E-03    0   0.7207   age116_m42            0.0000     2.3736E-04     9.7497   2.7649   103.9645
 11      0.0000     0.0000E+00    0.0000E+00    2.861200E+08  0.00400  1.093E-03    0   0.6648   age125_m42            0.0000     1.9195E-04     8.7197   2.1921   106.8282
 12      0.0000     0.0000E+00    0.0000E+00    5.088000E+08  0.00400  6.597E-04    0   0.6365   age130_m42            0.0000     2.1096E-04     9.1771   2.2062   106.6670
 13      0.0000     0.0000E+00    0.0000E+00    1.434000E+09  0.00400  2.132E-04    0   0.5798   age139_m42            0.0000     2.2044E-04     9.3027   1.2706   107.2140
 14      0.0000     0.0000E+00    0.0000E+00    4.250000E+09  0.00400  5.895E-05    0   0.5377   age158_m42            0.0000     2.5408E-04     9.9932   0.8427   102.7064
 15      0.0000     0.0000E+00    0.0000E+00    7.500000E+09  0.00400  3.510E-05    0   0.5212   age171_m42            0.0000     2.6301E-04    10.1532   0.6647   101.5748
 16      0.0000     0.0000E+00    0.0000E+00    1.300000E+10  0.00400  2.005E-05    0   0.5034   age193_m42            0.0000     2.7000E-04    10.2918   0.5070   100.6739
 17      0.0000     0.0000E+00    0.0000E+00    1.800000E+10  0.00400  1.525E-05    0   0.4967   age213_m42            0.0000     2.6768E-04    10.2620   0.4794   100.4295
 18     10.4278     1.0847E+01    1.1935E+01    1.000000E+06  0.00800  1.238E-02    0   1.0000   age020_m52            0.0000     3.0921E-04    11.3268   3.9653    96.6984
 19      0.0000     0.0000E+00    0.0000E+00    3.160000E+06  0.00800  3.074E-02    0   0.9966   age045_m52            0.0000     3.1130E-04    11.3661   3.8936    97.3587
 20      0.0000     0.0000E+00    0.0000E+00    5.010000E+06  0.00800  2.668E-02    0   0.9443   age055_m52            0.0000     2.8860E-04    10.9316   3.6624    98.8865
 21      0.0000     0.0000E+00    0.0000E+00    6.610000E+06  0.00800  2.136E-02    0   0.9177   age061_m52            0.0000     2.2893E-04     9.5659   2.4131   105.2650
 22      0.0000     0.0000E+00    0.0000E+00    1.000000E+07  0.00800  1.215E-02    0   0.8827   age070_m52            0.0000     2.0230E-04     9.0318   3.0634   105.0145
 23      0.0000     0.0000E+00    0.0000E+00    1.445000E+07  0.00800  8.717E-03    0   0.8552   age078_m52            0.0000     2.2452E-04     9.5150   3.1876   103.6253
 24      0.0000     0.0000E+00    0.0000E+00    2.512000E+07  0.00800  5.592E-03    0   0.8162   age090_m52            0.0000     2.0152E-04     8.9816   2.8343   106.2876
 25      0.0000     0.0000E+00    0.0000E+00    4.000000E+07  0.00800  3.896E-03    0   0.7841   age104_m52            0.0000     2.0142E-04     8.9625   2.7612   106.3571
 26      0.0000     0.0000E+00    0.0000E+00    1.015200E+08  0.00800  2.148E-03    0   0.7226   age116_m52            0.0000     2.1702E-04     9.3549   2.7237   105.1108
 27      0.0000     0.0000E+00    0.0000E+00    2.861200E+08  0.00800  9.925E-04    0   0.6683   age125_m52            0.0000     2.0879E-04     9.1557   2.2720   107.6142
 28      0.0000     0.0000E+00    0.0000E+00    9.047900E+08  0.00800  3.141E-04    0   0.6138   age135_m52            0.0000     2.1562E-04     9.2715   1.5196   109.7972
 29      0.0000     0.0000E+00    0.0000E+00    1.434000E+09  0.00800  1.719E-04    0   0.5853   age139_m52            0.0000     2.0903E-04     9.1508   0.9341   107.8069
 30      0.0000     0.0000E+00    0.0000E+00    2.500000E+09  0.00800  7.872E-05    0   0.5600   age150_m52            0.0000     2.6156E-04    10.1688   0.6922   104.0235
 31      0.0000     0.0000E+00    0.0000E+00    4.250000E+09  0.00800  4.336E-05    0   0.5426   age158_m52            0.0000     2.6465E-04    10.2299   0.6769   103.0722
 32      0.0000     0.0000E+00    0.0000E+00    6.250000E+09  0.00800  3.159E-05    0   0.5319   age166_m52            0.0000     2.8185E-04    10.5811   0.4914   102.3495
 33      0.0000     0.0000E+00    0.0000E+00    1.300000E+10  0.00800  1.361E-05    0   0.5073   age193_m52            0.0000     3.1105E-04    11.1291   0.0468   100.7051
 34      0.0000     0.0000E+00    0.0000E+00    1.800000E+10  0.00800  9.886E-06    0   0.4990   age213_m52            0.0000     3.3281E-04    11.5594  -0.0458    99.5892
 35      6.3953     5.3338E+00    5.8691E+00    1.000000E+06  0.02000  1.544E-02    0   1.0000   age020_m62            0.0000     3.1051E-04    11.3486   3.9593    97.0108
 36      1.5223     5.2109E-01    5.6525E-01    3.160000E+06  0.02000  3.762E-02    0   0.9858   age045_m62            0.0000     3.1207E-04    11.3783   3.8995    97.8143
 37      0.0000     0.0000E+00    0.0000E+00    5.010000E+06  0.02000  3.296E-02    0   0.9342   age055_m62            0.0000     2.8896E-04    10.9104   3.5587   100.1172
 38      0.0000     0.0000E+00    0.0000E+00    8.710000E+06  0.02000  1.154E-02    0   0.8861   age067_m62            0.0000     1.4461E-04     7.8051   2.4346   111.5372
 39      0.0000     0.0000E+00    0.0000E+00    1.445000E+07  0.02000  7.663E-03    0   0.8472   age078_m62            0.0000     1.6806E-04     8.2806   2.6872   108.2353
 40      0.0000     0.0000E+00    0.0000E+00    2.512000E+07  0.02000  4.532E-03    0   0.8099   age090_m62            0.0000     1.5917E-04     8.0693   2.6762   107.9965
 41      0.0000     0.0000E+00    0.0000E+00    5.500000E+07  0.02000  2.733E-03    0   0.7595   age110_m62            0.0000     2.0150E-04     8.9681   2.7398   105.8169
 42      0.0000     0.0000E+00    0.0000E+00    1.609000E+08  0.02000  1.369E-03    0   0.6985   age120_m62            0.0000     2.1561E-04     9.2542   2.6178   106.8058
 43      0.0000     0.0000E+00    0.0000E+00    2.861200E+08  0.02000  9.013E-04    0   0.6714   age125_m62            0.0000     2.2717E-04     9.4301   2.3939   108.5832
 44      0.0000     0.0000E+00    0.0000E+00    5.088000E+08  0.02000  5.028E-04    0   0.6449   age130_m62            0.0000     2.4996E-04     9.8998   2.0554   109.5863
 45      0.0000     0.0000E+00    0.0000E+00    9.047900E+08  0.02000  2.428E-04    0   0.6179   age135_m62            0.0000     2.4569E-04     9.8371   1.4812   108.3923
 46      0.0000     0.0000E+00    0.0000E+00    1.434000E+09  0.02000  1.263E-04    0   0.5908   age139_m62            0.0000     2.5642E-04    10.0440   1.0428   106.6074
 47      0.0000     0.0000E+00    0.0000E+00    2.500000E+09  0.02000  5.985E-05    0   0.5673   age150_m62            0.0000     2.9016E-04    10.7318   0.6945   104.4508
 48      0.0000     0.0000E+00    0.0000E+00    4.250000E+09  0.02000  3.271E-05    0   0.5468   age158_m62            0.0000     3.2541E-04    11.3895   0.4147   102.5275
 49      0.0000     0.0000E+00    0.0000E+00    1.000000E+10  0.02000  1.360E-05    0   0.5167   age181_m62            0.0000     3.5947E-04    12.0109   0.0918   101.0224
 50      0.0000     0.0000E+00    0.0000E+00    1.800000E+10  0.02000  7.124E-06    0   0.5013   age213_m62            0.0000     3.9006E-04    12.5816  -0.1002    99.4823
 51      1.5908     7.9032E-01    8.6947E-01    1.000000E+06  0.05000  2.592E-02    0   0.9998   age020_m72            0.0000     3.1150E-04    11.3795   3.9461    97.2631
 52      0.0000     0.0000E+00    0.0000E+00    3.160000E+06  0.05000  4.845E-02    0   0.9577   age045_m72            0.0000     3.0786E-04    11.2883   3.7990    98.3555
 53      0.0000     0.0000E+00    0.0000E+00    5.010000E+06  0.05000  3.072E-02    0   0.9147   age055_m72            0.0000     1.8034E-04     8.7500   3.2691   104.3046
 54     91.6990     8.1156E+01    7.9273E+01    6.610000E+06  0.05000  1.455E-02    0   0.8877   age061_m72            0.0000     1.0424E-04     6.9303   2.4095   114.8207
 55      0.0000     0.0000E+00    0.0000E+00    1.000000E+07  0.05000  9.074E-03    0   0.8524   age070_m72            0.0000     1.4203E-04     8.1416   3.4213   104.7348
 56      0.0000     0.0000E+00    0.0000E+00    2.512000E+07  0.05000  4.250E-03    0   0.7902   age090_m72            0.0000     1.5643E-04     8.2665   3.1599   105.2454
 57      0.0000     0.0000E+00    0.0000E+00    4.000000E+07  0.05000  3.087E-03    0   0.7618   age104_m72            0.0000     1.5095E-04     8.1174   2.9380   106.6508
 58      0.0000     0.0000E+00    0.0000E+00    1.015200E+08  0.05000  1.700E-03    0   0.7096   age116_m72            0.0000     1.9643E-04     8.8952   2.7420   107.0837
 59      0.0000     0.0000E+00    0.0000E+00    2.861200E+08  0.05000  7.384E-04    0   0.6633   age125_m72            0.0000     2.3652E-04     9.5488   2.2802   109.2006
 60      0.0000     0.0000E+00    0.0000E+00    5.088000E+08  0.05000  3.819E-04    0   0.6372   age130_m72            0.0000     2.6354E-04    10.0710   1.8197   109.5941
 61      0.0000     0.0000E+00    0.0000E+00    9.047900E+08  0.05000  1.676E-04    0   0.6110   age135_m72            0.0000     3.0568E-04    10.9085   1.1537   106.4649
 62      0.0000     0.0000E+00    0.0000E+00    1.434000E+09  0.05000  8.837E-05    0   0.5874   age139_m72            0.0000     2.9094E-04    10.7564   0.6970   105.8116
 63      0.0000     0.0000E+00    0.0000E+00    2.500000E+09  0.05000  4.233E-05    0   0.5598   age150_m72            0.0000     3.3830E-04    11.6118   0.4192   103.1940
 64      0.0000     0.0000E+00    0.0000E+00    6.250000E+09  0.05000  1.435E-05    0   0.5249   age166_m72            0.0000     3.7465E-04    12.3166   0.0003   100.3990
 65      0.0000     0.0000E+00    0.0000E+00    1.300000E+10  0.05000  6.513E-06    0   0.5036   age193_m72            0.0000     4.1287E-04    13.0494  -0.2585   100.4380
 66      0.0000     0.0000E+00    0.0000E+00    1.800000E+10  0.05000  4.527E-06    0   0.4945   age213_m72            0.0000     4.3899E-04    13.5334  -0.4071    99.6875


## Synthesis Results - Average & Chains ##

# j      x_j: min, <> & last-chain-values for 1 ...  7 chains
  1      1.1486     26.0879     35.1656     21.5838     32.2346     30.2637     23.6474     39.1948     32.0242
  2      0.0000     17.2373     21.6206     21.2009     20.9863     19.0514     22.6764     14.0203     20.3150
  3      0.0000      0.4272      0.0716      0.1616      0.0696      0.0796      0.0313      0.6102      0.0313
  4      0.0000      0.3273      0.0173      0.1664      0.1091      0.1706      0.0576      0.0000      0.0331
  5      0.0000      0.2926      0.0299      0.1573      0.1480      0.0358      0.0394      0.1249      0.2259
  6      0.0000      0.3019      0.0715      0.0000      0.0124      0.0721      0.0163      0.1548      0.0300
  7      0.0000      0.3054      0.0000      0.0366      0.0628      0.1149      0.0191      0.0537      0.0612
  8      0.0000      0.3566      0.0803      0.0472      0.0430      0.1879      0.0004      0.2703      0.0563
  9      0.0000      0.3037      0.0841      0.0532      0.0117      0.1216      0.0125      0.0000      0.0933
 10      0.0000      0.3650      0.0109      0.0000      0.0453      0.3091      0.0191      0.3607      0.0229
 11      0.0000      0.2838      0.0000      0.0318      0.1305      0.1567      0.0039      0.0000      0.1328
 12      0.0000      0.3826      0.0349      0.0575      0.0618      0.0510      0.0597      0.0083      0.1060
 13      0.0000      0.4845      0.3667      0.2966      0.4183      0.2148      0.1265      0.5872      0.2949
 14      0.0000      0.3673      0.0195      0.0517      0.1328      0.0459      0.0066      0.0000      0.0112
 15      0.0000      0.2957      0.0311      0.0911      0.0000      0.0755      0.0000      0.2766      0.1523
 16      0.0000      0.2996      0.0000      0.0000      0.0500      0.1080      0.0024      0.1381      0.0593
 17      0.0000      0.3272      0.0734      0.0000      0.0450      0.1032      0.0292      0.2828      0.2301
 18     10.4278     14.0902     13.9361     24.3220     15.6949     15.1809     21.7138      9.6735     15.4704
 19      0.0000      0.2828      0.0000      0.0162      0.0011      0.3548      0.0106      0.0815      0.0000
 20      0.0000      0.2684      0.1275      0.0964      0.1138      0.0155      0.0085      0.0458      0.1309
 21      0.0000      0.2684      0.0991      0.0000      0.0000      0.0926      0.0000      0.6300      0.0000
 22      0.0000      0.3167      0.0000      0.0129      0.1691      0.0182      0.0094      0.0000      0.0805
 23      0.0000      0.4068      0.0240      0.0000      0.0482      0.2467      0.0025      0.6561      0.1095
 24      0.0000      0.3261      0.0833      0.0001      0.2084      0.0000      0.0290      0.0000      0.0358
 25      0.0000      0.3018      0.1009      0.0155      0.0287      0.1767      0.0383      0.0000      0.0018
 26      0.0000      0.3759      0.1647      0.1604      0.0000      0.2193      0.0000      0.0000      0.0782
 27      0.0000      0.2773      0.0598      0.0254      0.1009      0.3909      0.0019      0.2327      0.0348
 28      0.0000      0.3025      0.0045      0.0000      0.0198      0.1428      0.0175      0.4214      0.0000
 29      0.0000      0.2715      0.0094      0.0546      0.1217      0.0479      0.0143      0.0000      0.0829
 30      0.0000      0.2345      0.0160      0.0533      0.0718      0.0183      0.0296      0.0000      0.0496
 31      0.0000      0.4384      0.0259      0.0916      0.0353      0.0000      0.0225      0.0046      0.0745
 32      0.0000      0.2822      0.0138      0.0462      0.2471      0.0532      0.0096      0.0000      0.0582
 33      0.0000      0.2533      0.0623      0.0508      0.0498      0.0000      0.0462      0.0000      0.0544
 34      0.0000      0.3399      0.2326      0.0024      0.2128      0.1337      0.4856      0.1301      0.2793
 35      6.3953      5.1841      8.3192      1.4275      4.1483      5.9658      8.9954      6.1610      6.7363
 36      1.5223      0.4293      0.2228      0.1540      0.1661      0.4556      0.0881      0.4161      0.3009
 37      0.0000      0.2728      0.0333      0.0545      0.0432      0.2736      0.0249      0.2389      0.0242
 38      0.0000      0.3127      0.0630      0.0260      0.1588      0.2154      0.0000      0.2317      0.1297
 39      0.0000      0.3194      0.0000      0.1200      0.0000      0.4581      0.0152      0.9899      0.0532
 40      0.0000      0.3017      0.0128      0.0919      0.1136      0.1314      0.0053      0.1666      0.0000
 41      0.0000      0.3131      0.0000      0.0507      0.0000      0.0335      0.0202      0.0000      0.0969
 42      0.0000      0.2792      0.0000      0.1061      0.0756      0.1928      0.0688      0.0000      0.0998
 43      0.0000      0.3576      0.0426      0.0314      0.0092      0.2579      0.0415      0.0000      0.0422
 44      0.0000      0.2353      0.0529      0.0000      0.0000      0.0000      0.0402      0.0000      0.0711
 45      0.0000      0.2811      0.0367      0.0803      0.0000      0.2298      0.0003      0.0000      0.0392
 46      0.0000      0.4154      0.0276      0.0617      0.0351      0.2198      0.0276      1.0618      0.1156
 47      0.0000      0.3762      0.1075      0.1006      0.0419      0.1045      0.0201      0.0975      0.0315
 48      0.0000      0.2248      0.0000      0.0000      0.0000      0.0962      0.0000      0.0808      0.0523
 49      0.0000      0.3107      0.0072      0.0062      0.0527      0.1931      0.0000      0.4705      0.0699
 50      0.0000      0.3730      0.0602      0.0401      0.1096      0.0589      0.0000      0.2527      0.1614
 51      1.5908      8.1426      5.4435     14.2585     12.4603      8.2495      8.4540      8.8477      8.5105
 52      0.0000      0.2538      0.0000      0.1052      0.0044      0.2044      0.0406      0.0000      0.0081
 53      0.0000      0.3954      0.0727      0.0791      0.0376      0.0000      0.0025      0.0000      0.0669
 54     91.6990      0.2488      0.0319      0.0108      0.1579      0.8654      0.0813      0.3643      0.0300
 55      0.0000      0.3259      0.0000      0.0880      0.0664      0.2417      0.0092      0.2707      0.0000
 56      0.0000      0.2971      0.0430      0.0059      0.0947      0.1208      0.0051      0.0000      0.0625
 57      0.0000      0.3401      0.0847      0.0672      0.0000      0.0552      0.0862      0.1371      0.0820
 58      0.0000      0.4191      0.0000      0.1698      0.0325      0.0000      0.0133      0.0786      0.0697
 59      0.0000      0.9329      0.3445      0.2656      0.8704      0.8956      0.1085      2.0681      0.8718
 60      0.0000      0.4063      0.0641      0.0351      0.0000      0.3066      0.0356      0.0000      0.0002
 61      0.0000      0.2973      0.0000      0.0000      0.2140      0.1009      0.0000      0.3571      0.0376
 62      0.0000      0.3122      0.0304      0.0450      0.0211      0.0000      0.0000      0.2487      0.1635
 63      0.0000      0.3185      0.0039      0.0030      0.0574      0.1396      0.0018      0.0388      0.0145
 64      0.0000      2.9243      1.2527      2.6334      4.0796      3.6407      3.7425      3.2445      4.2541
 65      0.0000      8.7349     10.6678      3.6549      6.5136      9.3718     14.5675      9.2083     11.0451
 66      0.0000     10.8512     13.1012     19.9438     11.5407     11.3941      6.1572      9.4867      9.1743

# j      m_j: min, <> & last-chain-values for 1 ...  7 chains
  1  1.4876E+00  1.1360E-01  1.3778E-01  7.6610E-02  1.5068E-01  1.2899E-01  1.0970E-01  1.8399E-01  1.4164E-01
  2  0.0000E+00  2.0490E-02  2.3126E-02  2.0543E-02  2.6781E-02  2.2168E-02  2.8718E-02  1.7967E-02  2.4529E-02
  3  0.0000E+00  7.6050E-04  1.1475E-04  2.3443E-04  1.3307E-04  1.3864E-04  5.9347E-05  1.1710E-03  5.6595E-05
  4  0.0000E+00  5.4861E-04  2.6067E-05  2.2741E-04  1.9643E-04  2.8001E-04  1.0294E-04  0.0000E+00  5.6333E-05
  5  0.0000E+00  9.3424E-04  8.5793E-05  4.0936E-04  5.0736E-04  1.1179E-04  1.3387E-04  4.2995E-04  7.3279E-04
  6  0.0000E+00  1.5638E-03  3.3332E-04  0.0000E+00  6.9053E-05  3.6538E-04  8.9789E-05  8.6453E-04  1.5763E-04
  7  0.0000E+00  2.2646E-03  0.0000E+00  2.2150E-04  5.0004E-04  8.3419E-04  1.5082E-04  4.2940E-04  4.6134E-04
  8  0.0000E+00  3.6545E-03  7.4083E-04  3.9417E-04  4.7305E-04  1.8853E-03  4.7659E-06  2.9869E-03  5.8573E-04
  9  0.0000E+00  3.5621E-03  8.8791E-04  5.0906E-04  1.4785E-04  1.3964E-03  1.5589E-04  0.0000E+00  1.1113E-03
 10  0.0000E+00  5.6240E-03  1.5051E-04  0.0000E+00  7.4958E-04  4.6630E-03  3.1292E-04  5.9916E-03  3.5814E-04
 11  0.0000E+00  8.2229E-03  0.0000E+00  7.5096E-04  4.0590E-03  4.4430E-03  1.2164E-04  0.0000E+00  3.9090E-03
 12  0.0000E+00  1.7587E-02  1.4423E-03  2.1532E-03  3.0493E-03  2.2937E-03  2.9250E-03  4.1253E-04  4.9493E-03
 13  0.0000E+00  6.2767E-02  4.2741E-02  3.1320E-02  5.8172E-02  2.7233E-02  1.7456E-02  8.2013E-02  3.8807E-02
 14  0.0000E+00  1.5962E-01  7.6297E-03  1.8295E-02  6.1968E-02  1.9542E-02  3.0651E-03  0.0000E+00  4.9575E-03
 15  0.0000E+00  2.0916E-01  1.9817E-02  5.2508E-02  0.0000E+00  5.2306E-02  0.0000E+00  2.1093E-01  1.0941E-01
 16  0.0000E+00  3.5834E-01  0.0000E+00  0.0000E+00  6.4204E-02  1.2649E-01  3.0085E-03  1.7812E-01  7.2043E-02
 17  0.0000E+00  5.0764E-01  1.0244E-01  0.0000E+00  7.5037E-02  1.5677E-01  4.8279E-02  4.7300E-01  3.6257E-01
 18  1.1935E+01  5.4217E-02  4.8251E-02  7.6288E-02  6.4833E-02  5.7180E-02  8.9015E-02  4.0128E-02  6.0465E-02
 19  0.0000E+00  4.3671E-04  0.0000E+00  2.0445E-05  1.8929E-06  5.3645E-04  1.7456E-05  1.3562E-04  0.0000E+00
 20  0.0000E+00  4.5251E-04  1.9343E-04  1.3254E-04  2.0591E-04  2.5585E-05  1.5186E-05  8.3191E-05  2.2418E-04
 21  0.0000E+00  5.4928E-04  1.8247E-04  0.0000E+00  0.0000E+00  1.8551E-04  0.0000E+00  1.3900E-03  0.0000E+00
 22  0.0000E+00  1.0962E-03  0.0000E+00  3.6510E-05  6.2828E-04  6.1715E-05  3.4628E-05  0.0000E+00  2.8314E-04
 23  0.0000E+00  1.9011E-03  1.0113E-04  0.0000E+00  2.4190E-04  1.1284E-03  1.2654E-05  3.3057E-03  5.1988E-04
 24  0.0000E+00  2.2676E-03  5.2122E-04  3.6664E-07  1.5556E-03  0.0000E+00  2.1508E-04  0.0000E+00  2.5301E-04
 25  0.0000E+00  2.8934E-03  8.7046E-04  1.2081E-04  2.9535E-04  1.6578E-03  3.9110E-04  0.0000E+00  1.7233E-05
 26  0.0000E+00  6.0243E-03  2.3751E-03  2.0948E-03  0.0000E+00  3.4408E-03  0.0000E+00  0.0000E+00  1.2734E-03
 27  0.0000E+00  8.8957E-03  1.7248E-03  6.6350E-04  3.4757E-03  1.2274E-02  6.6466E-05  8.0477E-03  1.1338E-03
 28  0.0000E+00  2.8160E-02  3.8015E-04  0.0000E+00  1.9758E-03  1.3015E-02  1.7404E-03  4.2292E-02  0.0000E+00
 29  0.0000E+00  4.4034E-02  1.3703E-03  7.2210E-03  2.1194E-02  7.6034E-03  2.4642E-03  0.0000E+00  1.3665E-02
 30  0.0000E+00  7.9460E-02  4.8903E-03  1.4725E-02  2.6119E-02  6.0668E-03  1.0690E-02  0.0000E+00  1.7079E-02
 31  0.0000E+00  2.6136E-01  1.3915E-02  4.4486E-02  2.2595E-02  0.0000E+00  1.4265E-02  2.9663E-03  4.5126E-02
 32  0.0000E+00  2.2631E-01  9.9779E-03  3.0187E-02  2.1275E-01  4.1790E-02  8.1975E-03  0.0000E+00  4.7391E-02
 33  0.0000E+00  4.4969E-01  9.9487E-02  7.3502E-02  9.4979E-02  0.0000E+00  8.7411E-02  0.0000E+00  9.8166E-02
 34  0.0000E+00  8.1727E-01  5.0329E-01  4.6842E-03  5.4930E-01  3.1457E-01  1.2439E+00  3.3730E-01  6.8226E-01
 35  5.8691E+00  1.5994E-02  2.3095E-02  3.5900E-03  1.3740E-02  1.8017E-02  2.9568E-02  2.0492E-02  2.1110E-02
 36  5.6525E-01  5.3591E-04  2.5027E-04  1.5669E-04  2.2260E-04  5.5668E-04  1.1715E-04  5.5992E-04  3.8154E-04
 37  0.0000E+00  3.6833E-04  4.0396E-05  5.9940E-05  6.2660E-05  3.6163E-04  3.5763E-05  3.4773E-04  3.3185E-05
 38  0.0000E+00  1.1439E-03  2.0727E-04  7.7652E-05  6.2353E-04  7.7118E-04  0.0000E+00  9.1362E-04  4.8172E-04
 39  0.0000E+00  1.6822E-03  0.0000E+00  5.1496E-04  0.0000E+00  2.3616E-03  8.5292E-05  5.6202E-03  2.8445E-04
 40  0.0000E+00  2.5683E-03  9.8007E-05  6.3804E-04  1.0378E-03  1.0951E-03  4.8036E-05  1.5289E-03  0.0000E+00
 41  0.0000E+00  4.1446E-03  0.0000E+00  5.4676E-04  0.0000E+00  4.3353E-04  2.8555E-04  0.0000E+00  1.3029E-03
 42  0.0000E+00  6.7855E-03  0.0000E+00  2.1015E-03  1.9720E-03  4.5867E-03  1.7809E-03  0.0000E+00  2.4631E-03
 43  0.0000E+00  1.2689E-02  1.3611E-03  9.0886E-04  3.5034E-04  8.9599E-03  1.5693E-03  0.0000E+00  1.5208E-03
 44  0.0000E+00  1.4375E-02  2.9089E-03  0.0000E+00  0.0000E+00  0.0000E+00  2.6198E-03  0.0000E+00  4.4113E-03
 45  0.0000E+00  3.4082E-02  4.0085E-03  7.9332E-03  0.0000E+00  2.7272E-02  3.2868E-05  0.0000E+00  4.8317E-03
 46  0.0000E+00  9.2569E-02  5.5244E-03  1.1204E-02  8.4065E-03  4.7935E-02  6.5520E-03  2.5508E-01  2.6160E-02
 47  0.0000E+00  1.6987E-01  4.3665E-02  3.7031E-02  2.0300E-02  4.6178E-02  9.6676E-03  4.7463E-02  1.4465E-02
 48  0.0000E+00  1.7899E-01  0.0000E+00  0.0000E+00  0.0000E+00  7.4980E-02  0.0000E+00  6.9349E-02  4.2315E-02
 49  0.0000E+00  5.6225E-01  1.1684E-02  9.2026E-03  1.0248E-01  3.4211E-01  0.0000E+00  9.1808E-01  1.2842E-01
 50  0.0000E+00  1.2504E+00  1.8157E-01  1.0965E-01  3.9447E-01  1.9334E-01  0.0000E+00  9.1317E-01  5.4959E-01
 51  8.6947E-01  1.4962E-02  9.0001E-03  2.1356E-02  2.4579E-02  1.4838E-02  1.6550E-02  1.7526E-02  1.5884E-02
 52  0.0000E+00  2.3899E-04  0.0000E+00  8.0762E-05  4.4892E-06  1.8844E-04  4.0723E-05  0.0000E+00  7.7110E-06
 53  0.0000E+00  5.6082E-04  9.2726E-05  9.1425E-05  5.7205E-05  0.0000E+00  3.8378E-06  0.0000E+00  9.6454E-05
 54  7.9273E+01  7.2300E-04  8.3409E-05  2.5498E-05  4.9262E-04  2.4619E-03  2.5165E-04  1.1415E-03  8.8454E-05
 55  0.0000E+00  1.4585E-03  0.0000E+00  3.2117E-04  3.1886E-04  1.0586E-03  4.3645E-05  1.3061E-03  0.0000E+00
 56  0.0000E+00  2.6311E-03  3.4270E-04  4.2842E-05  9.0036E-04  1.0470E-03  4.8455E-05  0.0000E+00  5.6259E-04
 57  0.0000E+00  3.9981E-03  8.9622E-04  6.4383E-04  0.0000E+00  6.3541E-04  1.0799E-03  1.7379E-03  9.7911E-04
 58  0.0000E+00  8.3326E-03  0.0000E+00  2.7517E-03  6.9279E-04  0.0000E+00  2.8113E-04  1.6846E-03  1.4083E-03
 59  0.0000E+00  3.9919E-02  1.3264E-02  9.2634E-03  3.9983E-02  3.7513E-02  4.9484E-03  9.5405E-02  3.7895E-02
 60  0.0000E+00  3.2296E-02  4.5843E-03  2.2713E-03  0.0000E+00  2.3855E-02  3.0107E-03  0.0000E+00  1.7647E-05
 61  0.0000E+00  5.1632E-02  0.0000E+00  0.0000E+00  3.9900E-02  1.7146E-02  0.0000E+00  6.6855E-02  6.6360E-03
 62  0.0000E+00  9.8858E-02  8.6490E-03  1.1623E-02  7.1758E-03  0.0000E+00  0.0000E+00  8.4897E-02  5.2601E-02
 63  0.0000E+00  2.0063E-01  2.2238E-03  1.5337E-03  3.8817E-02  8.6088E-02  1.2136E-03  2.6340E-02  9.2638E-03
 64  0.0000E+00  5.0955E+00  1.9640E+00  3.7404E+00  7.6313E+00  6.2097E+00  6.9476E+00  6.0948E+00  7.5294E+00
 65  0.0000E+00  3.2174E+01  3.5356E+01  1.0974E+01  2.5756E+01  3.3791E+01  5.7166E+01  3.6565E+01  4.1323E+01
 66  0.0000E+00  5.6464E+01  6.1341E+01  8.4594E+01  6.4469E+01  5.8037E+01  3.4134E+01  5.3217E+01  4.8490E+01

# AV, chi2 & Mass for <> & i_chain = 1 ...  7 solutions
AV       2.6163      1.6256      1.6060      1.5396      1.7394      1.6187      1.6887      1.6934      1.6371
chi2 1.0296E-04  1.8352E-04  1.6891E-04  1.6926E-04  1.6774E-04  1.6998E-04  1.6934E-04  1.6913E-04  1.7065E-04
Mass 1.2523E-13  9.8466E-12  1.0658E-11  1.0762E-11  1.0686E-11  9.9661E-12  1.0060E-11  1.0005E-11  9.8443E-12
-126.18                                  [v0_min (km/s) before EX0s...]
 381.22                                  [vd_min (km/s) before EX0s...]


## Synthetic spectrum (Best Model) ##l_obs f_obs f_syn wei
 3478    [Nl_obs]
 3741.00    0.82399   0.96642    0.000
 3742.00    0.87957   0.96288    0.000
 3743.00    0.91572   0.95678    0.000
 3744.00    0.91325   0.94874    0.000
 3745.00    0.88828   0.94025   -1.000
 3746.00    0.88820   0.93235   -1.000
 3747.00    0.90076   0.92661   -1.000
 3748.00    0.89086   0.92379   -1.000
 3749.00    0.87108   0.92480   -1.000
 3750.00    0.88940   0.92957   -1.000
 3751.00    0.92209   0.93800   -1.000
 3752.00    0.92484   0.94919   -1.000
 3753.00    0.91799   0.96221   -1.000
 3754.00    0.93813   0.97582   -1.000
 3755.00    0.96549   0.98874   -1.000
 3756.00    0.96503   0.99995   -1.000
 3757.00    0.95845   1.00842   -1.000
 3758.00    0.93424   1.01350   -1.000
 3759.00    0.90694   1.01469   -1.000
 3760.00    0.96241   1.01188   -1.000
 3761.00    1.02887   1.00529   -1.000
 3762.00    0.96216   0.99530   -1.000
 3763.00    0.88294   0.98293   -1.000
 3764.00    0.85141   0.96903   -1.000
 3765.00    0.82262   0.95513   -1.000
 3766.00    0.87957   0.94235   -1.000
 3767.00    0.93783   0.93230   -1.000
 3768.00    0.90825   0.92588   -1.000
 3769.00    0.87653   0.92407   -1.000
 3770.00    0.79306   0.92713   -1.000
 3771.00    0.71653   0.93496   -1.000
 3772.00    0.73100   0.94701   -1.000
 3773.00    0.74114   0.96230   -1.000
 3774.00    0.71330   0.97971   -1.000
 3775.00    0.68794   0.99802   -1.000
 3776.00    0.67865   1.01605   -1.000
 3777.00    0.67430   1.03284   -1.000
 3778.00    0.69500   1.04755   -1.000
 3779.00    0.73450   1.05975   -1.000
 3780.00    0.85096   1.06898   -1.000
 3781.00    0.94068   1.07514   -1.000
 3782.00    0.93969   1.07799   -1.000
 3783.00    0.94169   1.07763   -1.000
 3784.00    0.95224   1.07398   -1.000
 3785.00    0.98077   1.06707   -1.000
 3786.00    1.05323   1.05702   -1.000
 3787.00    1.09907   1.04383   -1.000
 3788.00    1.08885   1.02801   -1.000
 3789.00    1.06617   1.00979   -1.000
 3790.00    1.02068   0.99021   -1.000
 3791.00    0.98653   0.96996   -1.000
 3792.00    0.97054   0.95052   -1.000
 3793.00    0.96984   0.93295   -1.000
 3794.00    0.99059   0.91873   -1.000
 3795.00    1.01172   0.90885   -1.000
 3796.00    1.03332   0.90416   -1.000
 3797.00    1.02455   0.90501   -1.000
 3798.00    0.98269   0.91123   -1.000
 3799.00    0.94510   0.92238   -1.000
 3800.00    0.91163   0.93736   -1.000
 3801.00    0.87325   0.95522   -1.000
 3802.00    0.83073   0.97452   -1.000
 3803.00    0.81255   0.99429   -1.000
 3804.00    0.81255   1.01330   -1.000
 3805.00    0.87016   1.03092   -1.000
 3806.00    0.96553   1.04633   -1.000
 3807.00    0.99444   1.05926   -1.000
 3808.00    0.98523   1.06932   -1.000
 3809.00    0.96839   1.07646   -1.000
 3810.00    0.94773   1.08070   -1.000
 3811.00    0.95779   1.08215   -1.000
 3812.00    0.98112   1.08126   -1.000
 3813.00    1.00760   1.07833   -1.000
 3814.00    1.03525   1.07415   -1.000
 3815.00    1.00370   1.06912   -1.000
 3816.00    0.95355   1.06410   -1.000
 3817.00    0.91407   1.05933   -1.000
 3818.00    0.87740   1.05531   -1.000
 3819.00    0.87861   1.05184   -1.000
 3820.00    0.88795   1.04877   -1.000
 3821.00    0.87382   1.04549   -1.000
 3822.00    0.85570   1.04127   -1.000
 3823.00    0.79087   1.03541   -1.000
 3824.00    0.72003   1.02718   -1.000
 3825.00    0.74077   1.01622   -1.000
 3826.00    0.76974   1.00239   -1.000
 3827.00    0.82493   0.98607   -1.000
 3828.00    0.88153   0.96799   -1.000
 3829.00    0.82377   0.94929   -1.000
 3830.00    0.76446   0.93139   -1.000
 3831.00    0.76823   0.91575   -1.000
 3832.00    0.77341   0.90383   -1.000
 3833.00    0.80978   0.89677   -1.000
 3834.00    0.84189   0.89528   -1.000
 3835.00    0.82109   0.89962   -1.000
 3836.00    0.81211   0.90945   -1.000
 3837.00    0.90308   0.92402   -1.000
 3838.00    0.98988   0.94215   -1.000
 3839.00    1.05042   0.96253   -1.000
 3840.00    1.09196   0.98380   -1.000
 3841.00    1.03975   1.00474   -1.000
 3842.00    0.98060   1.02438   -1.000
 3843.00    0.89369   1.04199   -1.000
 3844.00    0.84357   1.05723   -1.000
 3845.00    0.91576   1.06992   -1.000
 3846.00    0.96350   1.08019   -1.000
 3847.00    0.94255   1.08825    0.000
 3848.00    0.94171   1.09440    0.000
 3849.00    0.98917   1.09901    0.000
 3850.00    0.99028   1.10233    0.000
 3851.00    0.89525   1.10471    0.000
 3852.00    0.82703   1.10627    0.000
 3853.00    0.80715   1.10729    0.000
 3854.00    0.81487   1.10775    0.000
 3855.00    0.86611   1.10786    0.000
 3856.00    0.91203   1.10751    0.000
 3857.00    0.95058   1.10688    0.000
 3858.00    0.95559   1.10588    0.000
 3859.00    0.91973   1.10465    0.000
 3860.00    0.88511   1.10317    0.000
 3861.00    0.85184   1.10154    0.000
 3862.00    0.83820   1.09981    0.000
 3863.00    0.84317   1.09798    0.000
 3864.00    0.84387   1.09616    0.000
 3865.00    0.84100   1.09423    0.000
 3866.00    0.80443   1.09225    0.000
 3867.00    0.74310   1.09010    0.000
 3868.00    0.65875   1.08769    0.000
 3869.00    0.55953   1.08504    0.000
 3870.00    0.53221   1.08182    0.000
 3871.00    0.54552   1.07821    0.000
 3872.00    0.58440   1.07366    0.000
 3873.00    0.63585   1.06842    0.000
 3874.00    0.66626   1.06178    0.000
 3875.00    0.68772   1.05393    0.000
 3876.00    0.70624   1.04417    0.000
 3877.00    0.72369   1.03259    0.000
 3878.00    0.79367   1.01880    0.000
 3879.00    0.87983   1.00300    0.000
 3880.00    0.91780   0.98535    0.000
 3881.00    0.94339   0.96641   -1.000
 3882.00    0.94454   0.94707   -1.000
 3883.00    0.94059   0.92832   -1.000
 3884.00    0.99723   0.91153   -1.000
 3885.00    1.06385   0.89783   -1.000
 3886.00    1.01892   0.88851   -1.000
 3887.00    0.96018   0.88425   -1.000
 3888.00    0.98736   0.88566   -1.000
 3889.00    1.02189   0.89250   -1.000
 3890.00    0.96204   0.90445   -1.000
 3891.00    0.89749   0.92044   -1.000
 3892.00    0.89838   0.93950   -1.000
 3893.00    0.89983   0.96020   -1.000
 3894.00    0.86763   0.98152   -1.000
 3895.00    0.83698   1.00227   -1.000
 3896.00    0.83806   1.02184   -1.000
 3897.00    0.83802   1.03952   -1.000
 3898.00    0.82474   1.05522   -1.000
 3899.00    0.80632   1.06868   -1.000
 3900.00    0.74610   1.08013   -1.000
 3901.00    0.68998   1.08954   -1.000
 3902.00    0.65899   1.09723   -1.000
 3903.00    0.62106   1.10328   -1.000
 3904.00    0.54973   1.10796   -1.000
 3905.00    0.49494   1.11137   -1.000
 3906.00    0.50493   1.11365   -1.000
 3907.00    0.54008   1.11498   -1.000
 3908.00    0.65722   1.11531   -1.000
 3909.00    0.76767   1.11490   -1.000
 3910.00    0.85970   1.11359   -1.000
 3911.00    0.94131   1.11167   -1.000
 3912.00    0.99829   1.10897   -1.000
 3913.00    1.01980   1.10582   -1.000
 3914.00    0.96895   1.10217   -1.000
 3915.00    0.93193   1.09834   -1.000
 3916.00    0.91950   1.09445   -1.000
 3917.00    0.93347   1.09077   -1.000
 3918.00    0.98848   1.08752   -1.000
 3919.00    1.01843   1.08480   -1.000
 3920.00    1.01421   1.08287   -1.000
 3921.00    1.01377   1.08160   -1.000
 3922.00    1.01789   1.08123   -1.000
 3923.00    1.04744   1.08139   -1.000
 3924.00    1.10392   1.08237   -1.000
 3925.00    1.13614   1.08362   -1.000
 3926.00    1.14572   1.08548   -1.000
 3927.00    1.15452   1.08736   -1.000
 3928.00    1.16268   1.08966   -1.000
 3929.00    1.13734   1.09185   -1.000
 3930.00    1.08773   1.09428   -1.000
 3931.00    1.03946   1.09660   -1.000
 3932.00    0.99205   1.09903   -1.000
 3933.00    0.96610   1.10136   -1.000
 3934.00    0.95209   1.10365   -1.000
 3935.00    0.97392   1.10577   -1.000
 3936.00    1.01310   1.10770   -1.000
 3937.00    1.03180   1.10930   -1.000
 3938.00    1.04194   1.11061   -1.000
 3939.00    1.05052   1.11146   -1.000
 3940.00    1.05854   1.11198   -1.000
 3941.00    1.10265   1.11204   -1.000
 3942.00    1.15765   1.11180   -1.000
 3943.00    1.09018   1.11121   -1.000
 3944.00    0.99194   1.11030   -1.000
 3945.00    1.06922   1.10919   -1.000
 3946.00    1.18231   1.10766   -1.000
 3947.00    1.23544   1.10598   -1.000
 3948.00    1.27897   1.10367   -1.000
 3949.00    1.24462   1.10115   -1.000
 3950.00    1.20096   1.09775   -1.000
 3951.00    1.16005   1.09392   -1.000
 3952.00    1.11937   1.08893   -1.000
 3953.00    1.17171   1.08307   -1.000
 3954.00    1.22832   1.07569   -1.000
 3955.00    1.17585   1.06686   -1.000
 3956.00    1.12262   1.05607   -1.000
 3957.00    1.10229   1.04329   -1.000
 3958.00    1.08322   1.02830   -1.000
 3959.00    1.08804   1.01117   -1.000
 3960.00    1.09306   0.99215    0.000
 3961.00    1.10021   0.97165    0.000
 3962.00    1.11753   0.95045    0.000
 3963.00    1.21486   0.92940    0.000
 3964.00    1.28379   0.90972    0.000
 3965.00    1.18422   0.89249    0.000
 3966.00    1.09637   0.87897    0.000
 3967.00    1.06360   0.87005    0.000
 3968.00    1.05030   0.86644    0.000
 3969.00    1.11164   0.86845    0.000
 3970.00    1.15835   0.87590    0.000
 3971.00    1.15829   0.88831    0.000
 3972.00    1.15844   0.90467    0.000
 3973.00    1.15914   0.92398    0.000
 3974.00    1.16880   0.94491    0.000
 3975.00    1.19925   0.96640    0.000
 3976.00    1.21837   0.98737    0.000
 3977.00    1.21474   1.00711    0.000
 3978.00    1.20613   1.02509    0.000
 3979.00    1.18884   1.04103    0.000
 3980.00    1.19880   1.05492    0.000
 3981.00    1.25051   1.06678   -1.000
 3982.00    1.25669   1.07685   -1.000
 3983.00    1.20162   1.08526   -1.000
 3984.00    1.10679   1.09225    0.589
 3985.00    0.96486   1.09800    0.185
 3986.00    0.89772   1.10260    0.136
 3987.00    0.90867   1.10629    0.135
 3988.00    0.91094   1.10902    0.133
 3989.00    0.90520   1.11117    0.131
 3990.00    0.95322   1.11252    0.130
 3991.00    1.04489   1.11358    0.131
 3992.00    1.06638   1.11401    0.131
 3993.00    1.03772   1.11438    0.131
 3994.00    0.99654   1.11424    0.130
 3995.00    0.94752   1.11410    0.129
 3996.00    0.96214   1.11346    0.129
 3997.00    1.01164   1.11272    0.130
 3998.00    1.05657   1.11146    0.132
 3999.00    1.09931   1.10995    0.133
 4000.00    1.04780   1.10799    0.131
 4001.00    0.95753   1.10578    0.129
 4002.00    0.92624   1.10338    0.129
 4003.00    0.91567   1.10099    0.129
 4004.00    0.96868   1.09886    0.130
 4005.00    1.04054   1.09715    0.132
 4006.00    1.03358   1.09613    0.131
 4007.00    1.00726   1.09585    0.130
 4008.00    1.05153   1.09639    0.131
 4009.00    1.10983   1.09761    0.132
 4010.00    1.02066   1.09932    0.129
 4011.00    0.90859   1.10118    0.127
 4012.00    0.91330   1.10280    0.127
 4013.00    0.93144   1.10381    0.128
 4014.00    0.91437   1.10381    0.130
 4015.00    0.89458   1.10254    0.132
 4016.00    0.88400   1.09979    0.130
 4017.00    0.87381   1.09564    0.129
 4018.00    0.90754   1.09019    0.128
 4019.00    0.94146   1.08393    0.127
 4020.00    0.96646   1.07719    0.128
 4021.00    0.99285   1.07078    0.129
 4022.00    1.04371   1.06513    0.128
 4023.00    1.09164   1.06094    0.128
 4024.00    1.10807   1.05855    0.129
 4025.00    1.12258   1.05819    0.130
 4026.00    1.12264   1.05999    0.130
 4027.00    1.11303   1.06352    0.130
 4028.00    1.04771   1.06877    0.130
 4029.00    0.99838   1.07481    0.131
 4030.00    1.02231   1.08167    0.129
 4031.00    1.02158   1.08831    0.128
 4032.00    0.92828   1.09486    0.127
 4033.00    0.85717   1.10054    0.125
 4034.00    0.85564   1.10562    0.123
 4035.00    0.86900   1.10961    0.121
 4036.00    0.92199   1.11290    0.121
 4037.00    0.95542   1.11526    0.121
 4038.00    0.94422   1.11713    0.122
 4039.00    0.95127   1.11840    0.123
 4040.00    0.99443   1.11943    0.124
 4041.00    1.01566   1.12019    0.125
 4042.00    0.99913   1.12091    0.127
 4043.00    0.98944   1.12156    0.129
 4044.00    0.99008   1.12223    0.130
 4045.00    1.00498   1.12286    0.130
 4046.00    1.03881   1.12343    0.130
 4047.00    1.05913   1.12387    0.129
 4048.00    1.06370   1.12414    0.128
 4049.00    1.06643   1.12417    0.128
 4050.00    1.06728   1.12396    0.129
 4051.00    1.05420   1.12349    0.130
 4052.00    1.02845   1.12279    0.130
 4053.00    1.00000   1.12191    0.129
 4054.00    0.96938   1.12085    0.129
 4055.00    1.00390   1.11971    0.129
 4056.00    1.08427   1.11848    0.129
 4057.00    1.12954   1.11719    0.130
 4058.00    1.15311   1.11583    0.133
 4059.00    1.13969   1.11431    0.133
 4060.00    1.10630   1.11265    0.132
 4061.00    1.09664   1.11081    0.131
 4062.00    1.09811   1.10862    0.130
 4063.00    1.07139   1.10629    0.129
 4064.00    1.03329   1.10349    0.128
 4065.00    1.01262   1.10060    0.128
 4066.00    0.99795   1.09735    0.127
 4067.00    1.02971   1.09440    0.127
 4068.00    1.07496   1.09127    0.126
 4069.00    1.05658   1.08877    0.127
 4070.00    1.02292   1.08646    0.128
 4071.00    1.05231   1.08490    0.128
 4072.00    1.09393   1.08382    0.128
 4073.00    1.08539   1.08339    0.127
 4074.00    1.06931   1.08344    0.125
 4075.00    1.04418   1.08385    0.125
 4076.00    1.01805   1.08453    0.125
 4077.00    1.07687   1.08512    0.125
 4078.00    1.14191   1.08567    0.125
 4079.00    1.10201   1.08566    0.124
 4080.00    1.05809   1.08533    0.123
 4081.00    1.04172   1.08408    0.123
 4082.00    1.02709   1.08231    0.122
 4083.00    1.07257   1.07939    0.122
 4084.00    1.11262   1.07557    0.122
 4085.00    1.06344   1.07038    0.121
 4086.00    1.02075   1.06393    0.121
 4087.00    1.04496   1.05579    0.122
 4088.00    1.07637   1.04584    0.124
 4089.00    1.16056   1.03400    0.124
 4090.00    1.21973   1.02007    0.124
 4091.00    1.13856   1.00427    0.122
 4092.00    1.08620   0.98663    0.000
 4093.00    1.16277   0.96781    0.000
 4094.00    1.21805   0.94851    0.000
 4095.00    1.19512   0.93003    0.000
 4096.00    1.15619   0.91292    0.000
 4097.00    1.06802   0.89859    0.000
 4098.00    1.00669   0.88774    0.000
 4099.00    1.01548   0.88144    0.000
 4100.00    1.02742   0.87981    0.000
 4101.00    1.04646   0.88338    0.000
 4102.00    1.05685   0.89141    0.000
 4103.00    1.05041   0.90378    0.000
 4104.00    1.02740   0.91914    0.000
 4105.00    0.97631   0.93692    0.000
 4106.00    0.97254   0.95547    0.000
 4107.00    1.03909   0.97428    0.000
 4108.00    1.10341   0.99191    0.000
 4109.00    1.16481   1.00835    0.000
 4110.00    1.21297   1.02242    0.000
 4111.00    1.24589   1.03448    0.000
 4112.00    1.21061   1.04407    0.000
 4113.00    1.10609   1.05178    0.122
 4114.00    1.09730   1.05788    0.123
 4115.00    1.17421   1.06268    0.124
 4116.00    1.14255   1.06670    0.124
 4117.00    1.02522   1.07020    0.123
 4118.00    1.00302   1.07346    0.123
 4119.00    1.04683   1.07680    0.124
 4120.00    1.10230   1.08001    0.126
 4121.00    1.16487   1.08370    0.129
 4122.00    1.16110   1.08691    0.129
 4123.00    1.12208   1.09064    0.128
 4124.00    1.07541   1.09357    0.126
 4125.00    1.02521   1.09677    0.125
 4126.00    1.07020   1.09912    0.125
 4127.00    1.15298   1.10153    0.126
 4128.00    1.14175   1.10319    0.126
 4129.00    1.09870   1.10468    0.125
 4130.00    1.06032   1.10557    0.123
 4131.00    1.02328   1.10607    0.121
 4132.00    1.02202   1.10608    0.120
 4133.00    1.02916   1.10555    0.119
 4134.00    1.03202   1.10441    0.120
 4135.00    1.03408   1.10267    0.121
 4136.00    1.05622   1.10038    0.120
 4137.00    1.08130   1.09777    0.120
 4138.00    1.12292   1.09499    0.120
 4139.00    1.16630   1.09283    0.121
 4140.00    1.15703   1.09080    0.121
 4141.00    1.14411   1.08965    0.122
 4142.00    1.06844   1.08905    0.121
 4143.00    0.99061   1.08961    0.120
 4144.00    1.05491   1.09075    0.120
 4145.00    1.11603   1.09299    0.121
 4146.00    1.06254   1.09570    0.119
 4147.00    1.01311   1.09884    0.117
 4148.00    1.02645   1.10233    0.118
 4149.00    1.04496   1.10599    0.119
 4150.00    1.11450   1.10935    0.121
 4151.00    1.17620   1.11278    0.123
 4152.00    1.18218   1.11576    0.122
 4153.00    1.17510   1.11865    0.120
 4154.00    1.09670   1.12085    0.119
 4155.00    1.02683   1.12296    0.118
 4156.00    0.99430   1.12430    0.116
 4157.00    0.96798   1.12547    0.114
 4158.00    0.96403   1.12598    0.113
 4159.00    0.97219   1.12624    0.112
 4160.00    1.01693   1.12602    0.112
 4161.00    1.05478   1.12554    0.113
 4162.00    1.07494   1.12471    0.116
 4163.00    1.09415   1.12364    0.117
 4164.00    1.11126   1.12293    0.116
 4165.00    1.11621   1.12199    0.116
 4166.00    1.09785   1.12134    0.115
 4167.00    1.07682   1.12080    0.114
 4168.00    1.05130   1.12063    0.114
 4169.00    1.03591   1.12069    0.114
 4170.00    1.03535   1.12105    0.115
 4171.00    1.02767   1.12170    0.115
 4172.00    1.01082   1.12260    0.115
 4173.00    1.01721   1.12363    0.116
 4174.00    1.04996   1.12481    0.117
 4175.00    1.05571   1.12597    0.117
 4176.00    1.03444   1.12710    0.117
 4177.00    1.02285   1.12804    0.116
 4178.00    1.01982   1.12890    0.114
 4179.00    1.03984   1.12927    0.114
 4180.00    1.07780   1.12975    0.115
 4181.00    1.07156   1.12972    0.115
 4182.00    1.03509   1.12991    0.115
 4183.00    1.03708   1.12949    0.116
 4184.00    1.06213   1.12937    0.117
 4185.00    1.06308   1.12915    0.117
 4186.00    1.05143   1.12907    0.118
 4187.00    1.08122   1.12902    0.118
 4188.00    1.12981   1.12904    0.118
 4189.00    1.13735   1.12903    0.117
 4190.00    1.12887   1.12904    0.115
 4191.00    1.13122   1.12903    0.116
 4192.00    1.13716   1.12893    0.118
 4193.00    1.05335   1.12881    0.116
 4194.00    0.94453   1.12854    0.114
 4195.00    0.97529   1.12855    0.116
 4196.00    1.03808   1.12845    0.119
 4197.00    1.09041   1.12877    0.121
 4198.00    1.14082   1.12914    0.122
 4199.00    1.15931   1.12983    0.121
 4200.00    1.17330   1.13080    0.119
 4201.00    1.16559   1.13187    0.117
 4202.00    1.15566   1.13332    0.114
 4203.00    1.09553   1.13460    0.114
 4204.00    1.03213   1.13610    0.114
 4205.00    1.02779   1.13727    0.114
 4206.00    1.02528   1.13842    0.113
 4207.00    1.03882   1.13925    0.113
 4208.00    1.05204   1.13981    0.113
 4209.00    1.05576   1.14013    0.115
 4210.00    1.06256   1.13999    0.116
 4211.00    1.11418   1.13983    0.116
 4212.00    1.15753   1.13905    0.116
 4213.00    1.12266   1.13845    0.116
 4214.00    1.09009   1.13720    0.116
 4215.00    1.07330   1.13616    0.114
 4216.00    1.05950   1.13452    0.112
 4217.00    1.06157   1.13316    0.113
 4218.00    1.05886   1.13141    0.113
 4219.00    1.03580   1.12981    0.111
 4220.00    1.02366   1.12831    0.110
 4221.00    1.05002   1.12664    0.111
 4222.00    1.06908   1.12556    0.112
 4223.00    1.06647   1.12429    0.112
 4224.00    1.04924   1.12380    0.112
 4225.00    0.99509   1.12318    0.112
 4226.00    0.95202   1.12328    0.111
 4227.00    0.93303   1.12325    0.109
 4228.00    0.92863   1.12375    0.107
 4229.00    0.95171   1.12428    0.106
 4230.00    0.97770   1.12495    0.106
 4231.00    1.00848   1.12578    0.106
 4232.00    1.00565   1.12656    0.105
 4233.00    0.95431   1.12741    0.103
 4234.00    0.94684   1.12836    0.102
 4235.00    0.99507   1.12928    0.103
 4236.00    1.00998   1.13015    0.102
 4237.00    0.98759   1.13107    0.101
 4238.00    0.96624   1.13188    0.099
 4239.00    0.94591   1.13298    0.098
 4240.00    0.96043   1.13362    0.098
 4241.00    1.00529   1.13437    0.099
 4242.00    1.01424   1.13458    0.101
 4243.00    0.99564   1.13482    0.103
 4244.00    1.02275   1.13471    0.105
 4245.00    1.08066   1.13429    0.107
 4246.00    1.13244   1.13373    0.108
 4247.00    1.18061   1.13267    0.109
 4248.00    1.22639   1.13192    0.110
 4249.00    1.27094   1.13067    0.110
 4250.00    1.25430   1.12968    0.112
 4251.00    1.21037   1.12928    0.114
 4252.00    1.15948   1.12879    0.112
 4253.00    1.10591   1.12864    0.109
 4254.00    1.08987   1.12825    0.108
 4255.00    1.08606   1.12834    0.108
 4256.00    1.06999   1.12793    0.107
 4257.00    1.05058   1.12781    0.105
 4258.00    1.09058   1.12703    0.107
 4259.00    1.14389   1.12629    0.109
 4260.00    1.15984   1.12481    0.111
 4261.00    1.16912   1.12311    0.112
 4262.00    1.19008   1.12107    0.112
 4263.00    1.21263   1.11837    0.111
 4264.00    1.18689   1.11712    0.111
 4265.00    1.15643   1.11591    0.110
 4266.00    1.11030   1.11477    0.109
 4267.00    1.06321   1.11387    0.108
 4268.00    1.00711   1.11343    0.106
 4269.00    0.95088   1.11328    0.105
 4270.00    0.91716   1.11350    0.104
 4271.00    0.88663   1.11384    0.102
 4272.00    0.94025   1.11448    0.104
 4273.00    0.99053   1.11540    0.106
 4274.00    0.99499   1.11668    0.106
 4275.00    1.00215   1.11805    0.106
 4276.00    1.03384   1.11918    0.108
 4277.00    1.06319   1.12024    0.110
 4278.00    1.07689   1.12109    0.110
 4279.00    1.09500   1.12190    0.109
 4280.00    1.13590   1.12262    0.109
 4281.00    1.16252   1.12346    0.108
 4282.00    1.12951   1.12423   -2.000
 4283.00    1.10669   1.12517   -2.000
 4284.00    1.11902   1.12575   -2.000
 4285.00    1.12177   1.12643   -2.000
 4286.00    1.09671   1.12725   -2.000
 4287.00    1.09867   1.12818   -2.000
 4288.00    1.16766   1.12906   -2.000
 4289.00    1.19700   1.13026   -2.000
 4290.00    1.14156   1.13078   -2.000
 4291.00    1.12349   1.13163   -2.000
 4292.00    1.17481   1.13244   -2.000
 4293.00    1.19704   1.13305   -2.000
 4294.00    1.17211   1.13342   -2.000
 4295.00    1.17406   1.13341   -2.000
 4296.00    1.21426   1.13324   -2.000
 4297.00    1.23754   1.13281   -2.000
 4298.00    1.23964   1.13234    0.117
 4299.00    1.21035   1.13116    0.116
 4300.00    1.14643   1.13050    0.113
 4301.00    1.12286   1.12987    0.111
 4302.00    1.13854   1.12939    0.112
 4303.00    1.14043   1.12878    0.112
 4304.00    1.13048   1.12850    0.113
 4305.00    1.12058   1.12827    0.114
 4306.00    1.11072   1.12846    0.114
 4307.00    1.11343   1.12871    0.113
 4308.00    1.12449   1.12904    0.112
 4309.00    1.12241   1.12910    0.110
 4310.00    1.11270   1.12919    0.108
 4311.00    1.13119   1.12938    0.107
 4312.00    1.16399   1.12947    0.107
 4313.00    1.16780   1.12945    0.107
 4314.00    1.15890   1.12926    0.107
 4315.00    1.14943   1.12910    0.106
 4316.00    1.13973   1.12853    0.105
 4317.00    1.16547   1.12842    0.107
 4318.00    1.20253   1.12752    0.109
 4319.00    1.20075   1.12648    0.110
 4320.00    1.18858   1.12476    0.111
 4321.00    1.20947   1.12207    0.111
 4322.00    1.23759   1.11895    0.111
 4323.00    1.21871   1.11497    0.110
 4324.00    1.19164   1.11002    0.109
 4325.00    1.17166   1.10329    0.109
 4326.00    1.15262   1.09534    0.111
 4327.00    1.13993   1.08522    0.109
 4328.00    1.12783   1.07358    0.108
 4329.00    1.21240   1.06002    0.108
 4330.00    1.30250   1.04497    0.000
 4331.00    1.28577   1.02861    0.000
 4332.00    1.26655   1.01114    0.000
 4333.00    1.24761   0.99337    0.000
 4334.00    1.23013   0.97613    0.000
 4335.00    1.24769   0.96047    0.000
 4336.00    1.26130   0.94642    0.000
 4337.00    1.22342   0.93692    0.000
 4338.00    1.19294   0.93174    0.000
 4339.00    1.22707   0.93099    0.000
 4340.00    1.25776   0.93437    0.000
 4341.00    1.26618   0.94164    0.000
 4342.00    1.26777   0.95242    0.000
 4343.00    1.23492   0.96584    0.000
 4344.00    1.21282   0.98158    0.000
 4345.00    1.23467   0.99840    0.000
 4346.00    1.25644   1.01613    0.000
 4347.00    1.27796   1.03339    0.000
 4348.00    1.28823   1.05052    0.000
 4349.00    1.26640   1.06701    0.000
 4350.00    1.24390   1.08188    0.000
 4351.00    1.21981   1.09548    0.109
 4352.00    1.21519   1.10737    0.131
 4353.00    1.25151   1.11785    0.333
 4354.00    1.27437   1.12679   -1.000
 4355.00    1.27261   1.13432   -1.000
 4356.00    1.27432   1.14072   -1.000
 4357.00    1.28159   1.14576   -1.000
 4358.00    1.29778   1.14990   -1.000
 4359.00    1.32647   1.15329   -1.000
 4360.00    1.34081   1.15542    0.488
 4361.00    1.33744   1.15731    0.151
 4362.00    1.32517   1.15791    0.110
 4363.00    1.30322   1.15830    0.107
 4364.00    1.27782   1.15849    0.106
 4365.00    1.24911   1.15817    0.105
 4366.00    1.23386   1.15817    0.105
 4367.00    1.22999   1.15774    0.106
 4368.00    1.22018   1.15738    0.106
 4369.00    1.20595   1.15713    0.108
 4370.00    1.21573   1.15688    0.107
 4371.00    1.24121   1.15670    0.107
 4372.00    1.24247   1.15653    0.106
 4373.00    1.22987   1.15639    0.107
 4374.00    1.17150   1.15577    0.106
 4375.00    1.09029   1.15484    0.104
 4376.00    1.12483   1.15394    0.104
 4377.00    1.20931   1.15236    0.105
 4378.00    1.26708   1.15055    0.107
 4379.00    1.31496   1.14827    0.109
 4380.00    1.29189   1.14591    0.108
 4381.00    1.24657   1.14363    0.106
 4382.00    1.21596   1.14163    0.105
 4383.00    1.18919   1.13960    0.104
 4384.00    1.18751   1.13808    0.104
 4385.00    1.19118   1.13837    0.103
 4386.00    1.24306   1.13909    0.102
 4387.00    1.30310   1.14119    0.102
 4388.00    1.28621   1.14425    0.102
 4389.00    1.25950   1.14743    0.101
 4390.00    1.22713   1.15154    0.103
 4391.00    1.19425   1.15525    0.105
 4392.00    1.22836   1.15949    0.104
 4393.00    1.26603   1.16345    0.104
 4394.00    1.28021   1.16732    0.105
 4395.00    1.29418   1.17071    0.105
 4396.00    1.32898   1.17335    0.105
 4397.00    1.36247   1.17550    0.105
 4398.00    1.36708   1.17676    0.105
 4399.00    1.37065   1.17750    0.105
 4400.00    1.36130   1.17754    0.105
 4401.00    1.34954   1.17718    0.105
 4402.00    1.31749   1.17649    0.106
 4403.00    1.29204   1.17569    0.106
 4404.00    1.30797   1.17464    0.106
 4405.00    1.32445   1.17366    0.106
 4406.00    1.34365   1.17260    0.105
 4407.00    1.35691   1.17147    0.104
 4408.00    1.34642   1.17058    0.103
 4409.00    1.33051   1.16990    0.102
 4410.00    1.29664   1.16894    0.102
 4411.00    1.27026   1.16863    0.101
 4412.00    1.26484   1.16861    0.101
 4413.00    1.26809   1.16891    0.101
 4414.00    1.29207   1.17021    0.103
 4415.00    1.30837   1.17161    0.104
 4416.00    1.30876   1.17327    0.103
 4417.00    1.29483   1.17533    0.102
 4418.00    1.25510   1.17711    0.102
 4419.00    1.24482   1.17899    0.101
 4420.00    1.28089   1.18062    0.101
 4421.00    1.32147   1.18215    0.101
 4422.00    1.36831   1.18328    0.101
 4423.00    1.38651   1.18406    0.101
 4424.00    1.36988   1.18449    0.101
 4425.00    1.33990   1.18453    0.101
 4426.00    1.29558   1.18425    0.101
 4427.00    1.28552   1.18384    0.101
 4428.00    1.30787   1.18349    0.101
 4429.00    1.32742   1.18278    0.101
 4430.00    1.34465   1.18259    0.101
 4431.00    1.35256   1.18198    0.102
 4432.00    1.35364   1.18200    0.103
 4433.00    1.35848   1.18193    0.103
 4434.00    1.36575   1.18248    0.103
 4435.00    1.36851   1.18325    0.102
 4436.00    1.36872   1.18389    0.103
 4437.00    1.37314   1.18524    0.103
 4438.00    1.37963   1.18594    0.103
 4439.00    1.38540   1.18701    0.103
 4440.00    1.39086   1.18805    0.103
 4441.00    1.36118   1.18920    0.102
 4442.00    1.31874   1.19036    0.102
 4443.00    1.33242   1.19136    0.102
 4444.00    1.36336   1.19234    0.102
 4445.00    1.35677   1.19311    0.102
 4446.00    1.34056   1.19379    0.102
 4447.00    1.35267   1.19466    0.102
 4448.00    1.37068   1.19493    0.103
 4449.00    1.35365   1.19546    0.103
 4450.00    1.33085   1.19572    0.103
 4451.00    1.32854   1.19548    0.102
 4452.00    1.32874   1.19555    0.100
 4453.00    1.36410   1.19496    0.101
 4454.00    1.40244   1.19455    0.102
 4455.00    1.37577   1.19351    0.102
 4456.00    1.34589   1.19221    0.101
 4457.00    1.35315   1.19034    0.101
 4458.00    1.36063   1.18783    0.101
 4459.00    1.34482   1.18505    0.100
 4460.00    1.32992   1.18096    0.099
 4461.00    1.33335   1.17694    0.000
 4462.00    1.33450   1.17306    0.000
 4463.00    1.30899   1.16844    0.000
 4464.00    1.28546   1.16411    0.000
 4465.00    1.27810   1.15978    0.000
 4466.00    1.27968   1.15622    0.000
 4467.00    1.33572   1.15259    0.000
 4468.00    1.37911   1.15065    0.000
 4469.00    1.36179   1.14996    0.000
 4470.00    1.34910   1.15048    0.000
 4471.00    1.35446   1.15408    0.000
 4472.00    1.37316   1.15758    0.000
 4473.00    1.43519   1.16186    0.000
 4474.00    1.46988   1.16659    0.000
 4475.00    1.42931   1.17154    0.000
 4476.00    1.37719   1.17615    0.000
 4477.00    1.29780   1.18075    0.000
 4478.00    1.25610   1.18628    0.000
 4479.00    1.29118   1.19104    0.000
 4480.00    1.32815   1.19569    0.000
 4481.00    1.36848   1.20029    0.000
 4482.00    1.38736   1.20392    0.097
 4483.00    1.37297   1.20704    0.097
 4484.00    1.36327   1.20971    0.098
 4485.00    1.35994   1.21183    0.099
 4486.00    1.34816   1.21378    0.099
 4487.00    1.32623   1.21611    0.099
 4488.00    1.32334   1.21829    0.099
 4489.00    1.34058   1.22026    0.098
 4490.00    1.35150   1.22156    0.098
 4491.00    1.35652   1.22292    0.098
 4492.00    1.35888   1.22414    0.098
 4493.00    1.35906   1.22519    0.098
 4494.00    1.37379   1.22684    0.098
 4495.00    1.39904   1.22818    0.097
 4496.00    1.40213   1.23000    0.097
 4497.00    1.39116   1.23139    0.098
 4498.00    1.38634   1.23268    0.098
 4499.00    1.38493   1.23398    0.098
 4500.00    1.39816   1.23494    0.098
 4501.00    1.41846   1.23606    0.097
 4502.00    1.41415   1.23656    0.098
 4503.00    1.39957   1.23675    0.098
 4504.00    1.42979   1.23659    0.099
 4505.00    1.47600   1.23624    0.100
 4506.00    1.44133   1.23563    0.099
 4507.00    1.38227   1.23512    0.098
 4508.00    1.36040   1.23436    0.096
 4509.00    1.34784   1.23356    0.095
 4510.00    1.37593   1.23268    0.095
 4511.00    1.41229   1.23176    0.095
 4512.00    1.40042   1.23153    0.096
 4513.00    1.38086   1.23094    0.098
 4514.00    1.41352   1.23089    0.097
 4515.00    1.45240   1.23062    0.097
 4516.00    1.42154   1.23011    0.096
 4517.00    1.38504   1.22973    0.095
 4518.00    1.38028   1.22886    0.096
 4519.00    1.37695   1.22812    0.096
 4520.00    1.37680   1.22681    0.096
 4521.00    1.37702   1.22544    0.096
 4522.00    1.39387   1.22416    0.096
 4523.00    1.40839   1.22254    0.097
 4524.00    1.37941   1.22105    0.097
 4525.00    1.35365   1.21958    0.098
 4526.00    1.36393   1.21829    0.098
 4527.00    1.37086   1.21744    0.098
 4528.00    1.35162   1.21721    0.097
 4529.00    1.34128   1.21755    0.096
 4530.00    1.38365   1.21807    0.097
 4531.00    1.41912   1.21863    0.098
 4532.00    1.42232   1.21942    0.098
 4533.00    1.42004   1.22051    0.098
 4534.00    1.39684   1.22203    0.098
 4535.00    1.38165   1.22395    0.097
 4536.00    1.39202   1.22546    0.097
 4537.00    1.40590   1.22679    0.097
 4538.00    1.42927   1.22762    0.097
 4539.00    1.44011   1.22858    0.098
 4540.00    1.42193   1.22936    0.097
 4541.00    1.40793   1.23050    0.096
 4542.00    1.40232   1.23141    0.096
 4543.00    1.39736   1.23141    0.096
 4544.00    1.39351   1.23181    0.097
 4545.00    1.38497   1.23185    0.097
 4546.00    1.36925   1.23241    0.096
 4547.00    1.37277   1.23262    0.097
 4548.00    1.40211   1.23340    0.097
 4549.00    1.41475   1.23444    0.098
 4550.00    1.40764   1.23477    0.000
 4551.00    1.41244   1.23607    0.000
 4552.00    1.42965   1.23809    0.000
 4553.00    1.44383   1.24034    0.000
 4554.00    1.45523   1.24235    0.000
 4555.00    1.43249   1.24488    0.000
 4556.00    1.38208   1.24721    0.000
 4557.00    1.36395   1.24912    0.000
 4558.00    1.36885   1.25099    0.000
 4559.00    1.37585   1.25279    0.000
 4560.00    1.38416   1.25467    0.000
 4561.00    1.38655   1.25566    0.000
 4562.00    1.38569   1.25663    0.000
 4563.00    1.36924   1.25734    0.000
 4564.00    1.34539   1.25792    0.000
 4565.00    1.34780   1.25832    0.000
 4566.00    1.36098   1.25827    0.000
 4567.00    1.36795   1.25914    0.000
 4568.00    1.37274   1.25953    0.000
 4569.00    1.38782   1.25967    0.000
 4570.00    1.40594   1.25995    0.000
 4571.00    1.40500   1.26046    0.000
 4572.00    1.39940   1.26090    0.000
 4573.00    1.42037   1.26086    0.000
 4574.00    1.44661   1.26172    0.000
 4575.00    1.46916   1.26194    0.000
 4576.00    1.49114   1.26187    0.000
 4577.00    1.47491   1.26163    0.000
 4578.00    1.45431   1.26152    0.000
 4579.00    1.43147   1.26152    0.000
 4580.00    1.40846   1.26114    0.000
 4581.00    1.39538   1.26060    0.000
 4582.00    1.38271   1.25956    0.000
 4583.00    1.40765   1.25871    0.000
 4584.00    1.43259   1.25772    0.000
 4585.00    1.44370   1.25673    0.000
 4586.00    1.45263   1.25565    0.000
 4587.00    1.42356   1.25447    0.000
 4588.00    1.40083   1.25325    0.000
 4589.00    1.44601   1.25194    0.000
 4590.00    1.47911   1.25132    0.000
 4591.00    1.42094   1.25100    0.000
 4592.00    1.37275   1.24997    0.000
 4593.00    1.38197   1.24957    0.000
 4594.00    1.39027   1.24938    0.000
 4595.00    1.39438   1.24976    0.000
 4596.00    1.39182   1.25063    0.000
 4597.00    1.36432   1.25079    0.000
 4598.00    1.35206   1.25188    0.000
 4599.00    1.38744   1.25229    0.000
 4600.00    1.42265   1.25345    0.000
 4601.00    1.45739   1.25533    0.000
 4602.00    1.48185   1.25709    0.000
 4603.00    1.48291   1.25909    0.000
 4604.00    1.48718   1.26019    0.000
 4605.00    1.49780   1.26193    0.000
 4606.00    1.49542   1.26424    0.000
 4607.00    1.47068   1.26620    0.000
 4608.00    1.45067   1.26839    0.000
 4609.00    1.43778   1.27004    0.000
 4610.00    1.43661   1.27137    0.000
 4611.00    1.45094   1.27249    0.000
 4612.00    1.45480   1.27373    0.000
 4613.00    1.44644   1.27542    0.000
 4614.00    1.44156   1.27623    0.000
 4615.00    1.44026   1.27701    0.000
 4616.00    1.45087   1.27707    0.000
 4617.00    1.47229   1.27672    0.000
 4618.00    1.47974   1.27695    0.000
 4619.00    1.47603   1.27732    0.000
 4620.00    1.45551   1.27700    0.000
 4621.00    1.42317   1.27641    0.000
 4622.00    1.42363   1.27557    0.000
 4623.00    1.44430   1.27462    0.000
 4624.00    1.44963   1.27320    0.000
 4625.00    1.44669   1.27166    0.000
 4626.00    1.44663   1.27041    0.000
 4627.00    1.44791   1.26845    0.000
 4628.00    1.45046   1.26622    0.000
 4629.00    1.45352   1.26381    0.000
 4630.00    1.45777   1.26183    0.000
 4631.00    1.46242   1.25926    0.000
 4632.00    1.46618   1.25629    0.000
 4633.00    1.46968   1.25358    0.000
 4634.00    1.46291   1.25100    0.000
 4635.00    1.45368   1.24844    0.000
 4636.00    1.45441   1.24542    0.000
 4637.00    1.45706   1.24239    0.000
 4638.00    1.45867   1.23997    0.000
 4639.00    1.46013   1.23734    0.000
 4640.00    1.45041   1.23495    0.000
 4641.00    1.43946   1.23336    0.000
 4642.00    1.43647   1.23222    0.000
 4643.00    1.43407   1.23166    0.000
 4644.00    1.43766   1.23109    0.000
 4645.00    1.44148   1.23084    0.000
 4646.00    1.44669   1.23193    0.000
 4647.00    1.45251   1.23346    0.000
 4648.00    1.48071   1.23572    0.000
 4649.00    1.50749   1.23923    0.000
 4650.00    1.51129   1.24315    0.000
 4651.00    1.51061   1.24776    0.000
 4652.00    1.46400   1.25089    0.000
 4653.00    1.42525   1.25484    0.000
 4654.00    1.44390   1.25908    0.000
 4655.00    1.45788   1.26291    0.000
 4656.00    1.44572   1.26692    0.000
 4657.00    1.44011   1.26966    0.000
 4658.00    1.46369   1.27185    0.000
 4659.00    1.48056   1.27249    0.000
 4660.00    1.47282   1.27291    0.000
 4661.00    1.47288   1.27375    0.000
 4662.00    1.49685   1.27413    0.000
 4663.00    1.50907   1.27381    0.000
 4664.00    1.49067   1.27275    0.000
 4665.00    1.47334   1.27145    0.000
 4666.00    1.45840   1.27023    0.000
 4667.00    1.46316   1.26952    0.000
 4668.00    1.50617   1.26904    0.000
 4669.00    1.52440   1.26879    0.000
 4670.00    1.50069   1.26811    0.000
 4671.00    1.49989   1.26718    0.000
 4672.00    1.53308   1.26675    0.000
 4673.00    1.54644   1.26655    0.000
 4674.00    1.53391   1.26682    0.000
 4675.00    1.51239   1.26694    0.000
 4676.00    1.48054   1.26722    0.000
 4677.00    1.47166   1.26712    0.000
 4678.00    1.48607   1.26735    0.000
 4679.00    1.48071   1.26764    0.000
 4680.00    1.45768   1.26834    0.000
 4681.00    1.45099   1.26940    0.000
 4682.00    1.45717   1.27016    0.000
 4683.00    1.48614   1.27094    0.000
 4684.00    1.53089   1.27164    0.000
 4685.00    1.52369   1.27353    0.000
 4686.00    1.48493   1.27536    0.000
 4687.00    1.45421   1.27701    0.000
 4688.00    1.42776   1.27866    0.000
 4689.00    1.43091   1.27930    0.000
 4690.00    1.44770   1.28069    0.000
 4691.00    1.45891   1.28183    0.000
 4692.00    1.46793   1.28258    0.000
 4693.00    1.47476   1.28343    0.000
 4694.00    1.48084   1.28353    0.000
 4695.00    1.48807   1.28346    0.000
 4696.00    1.49563   1.28274    0.000
 4697.00    1.48647   1.28176    0.000
 4698.00    1.47339   1.28173    0.000
 4699.00    1.44846   1.28144    0.000
 4700.00    1.42131   1.28054    0.000
 4701.00    1.43560   1.28000    0.000
 4702.00    1.45592   1.27916    0.000
 4703.00    1.46064   1.27844    0.000
 4704.00    1.46370   1.27792    0.000
 4705.00    1.44774   1.27779    0.000
 4706.00    1.43047   1.27754    0.000
 4707.00    1.42435   1.27741    0.000
 4708.00    1.41862   1.27794    0.000
 4709.00    1.45871   1.27905    0.000
 4710.00    1.49641   1.27990    0.000
 4711.00    1.45366   1.28012    0.000
 4712.00    1.41292   1.28237    0.000
 4713.00    1.40306   1.28611    0.000
 4714.00    1.39604   1.28794    0.000
 4715.00    1.41695   1.29099    0.000
 4716.00    1.43876   1.29361    0.000
 4717.00    1.46697   1.29680    0.000
 4718.00    1.49546   1.29998    0.000
 4719.00    1.52543   1.30207    0.000
 4720.00    1.54011   1.30436    0.000
 4721.00    1.48813   1.30583    0.000
 4722.00    1.44906   1.30748    0.000
 4723.00    1.45631   1.30867    0.000
 4724.00    1.46450   1.30948    0.000
 4725.00    1.47556   1.30964    0.000
 4726.00    1.47995   1.30963    0.000
 4727.00    1.46723   1.30995    0.000
 4728.00    1.46083   1.31045    0.000
 4729.00    1.46835   1.31094    0.000
 4730.00    1.46855   1.31117    0.000
 4731.00    1.45473   1.31178    0.000
 4732.00    1.45033   1.31218    0.000
 4733.00    1.46163   1.31311    0.000
 4734.00    1.46080   1.31394    0.000
 4735.00    1.44221   1.31452    0.000
 4736.00    1.49064   1.31579    0.000
 4737.00    1.62521   1.31686    0.000
 4738.00    1.72908   1.31775    0.000
 4739.00    1.79817   1.31859    0.000
 4740.00    1.91772   1.31939    0.000
 4741.00    2.08768   1.32079    0.000
 4742.00    2.11340   1.32208    0.000
 4743.00    2.01202   1.32269    0.000
 4744.00    1.86359   1.32365    0.000
 4745.00    1.67864   1.32426    0.000
 4746.00    1.55935   1.32489    0.000
 4747.00    1.48488   1.32533    0.000
 4748.00    1.47480   1.32535    0.000
 4749.00    1.50323   1.32525    0.000
 4750.00    1.48426   1.32430    0.000
 4751.00    1.44053   1.32351    0.000
 4752.00    1.45275   1.32215    0.000
 4753.00    1.49030   1.32074    0.000
 4754.00    1.47820   1.31884    0.000
 4755.00    1.44677   1.31625    0.000
 4756.00    1.45425   1.31376    0.000
 4757.00    1.47462   1.31102    0.000
 4758.00    1.47339   1.30859    0.000
 4759.00    1.46616   1.30582    0.000
 4760.00    1.49312   1.30304    0.000
 4761.00    1.52791   1.30075    0.090
 4762.00    1.48526   1.29869    0.089
 4763.00    1.42843   1.29695    0.088
 4764.00    1.41424   1.29539    0.089
 4765.00    1.40605   1.29435    0.090
 4766.00    1.41042   1.29383    0.090
 4767.00    1.41605   1.29358    0.089
 4768.00    1.44000   1.29359    0.089
 4769.00    1.46513   1.29359    0.089
 4770.00    1.46188   1.29376    0.089
 4771.00    1.45776   1.29420    0.089
 4772.00    1.45282   1.29459    0.089
 4773.00    1.44849   1.29517    0.088
 4774.00    1.46213   1.29538    0.088
 4775.00    1.47252   1.29565    0.088
 4776.00    1.43598   1.29582    0.087
 4777.00    1.40198   1.29569    0.087
 4778.00    1.39199   1.29617    0.087
 4779.00    1.37552   1.29633    0.086
 4780.00    1.31463   1.29670    0.085
 4781.00    1.24866   1.29705    0.083
 4782.00    1.15573   1.29744    0.082
 4783.00    1.08544   1.29877    0.081
 4784.00    1.11156   1.29965    0.081
 4785.00    1.14281   1.30077    0.081
 4786.00    1.19206   1.30225    0.083
 4787.00    1.24405   1.30369    0.084
 4788.00    1.30413   1.30581    0.084
 4789.00    1.35321   1.30736    0.084
 4790.00    1.37460   1.30875    0.085
 4791.00    1.39801   1.31041    0.086
 4792.00    1.42578   1.31173    0.086
 4793.00    1.43275   1.31298    0.086
 4794.00    1.40059   1.31386    0.086
 4795.00    1.38800   1.31406    0.086
 4796.00    1.40755   1.31415    0.087
 4797.00    1.41941   1.31388    0.087
 4798.00    1.42018   1.31328    0.087
 4799.00    1.42845   1.31286    0.087
 4800.00    1.44622   1.31165    0.088
 4801.00    1.43905   1.31033    0.088
 4802.00    1.40401   1.30923    0.087
 4803.00    1.42052   1.30783    0.087
 4804.00    1.48780   1.30688    0.088
 4805.00    1.50141   1.30567    0.088
 4806.00    1.46842   1.30455    0.088
 4807.00    1.45473   1.30392    0.087
 4808.00    1.45581   1.30336    0.087
 4809.00    1.44317   1.30324    0.086
 4810.00    1.42131   1.30324    0.085
 4811.00    1.40448   1.30315    0.086
 4812.00    1.39061   1.30322    0.086
 4813.00    1.39862   1.30375    0.086
 4814.00    1.41787   1.30456    0.086
 4815.00    1.43316   1.30569    0.086
 4816.00    1.44668   1.30599    0.086
 4817.00    1.46012   1.30602    0.087
 4818.00    1.47352   1.30686    0.088
 4819.00    1.47414   1.30794    0.087
 4820.00    1.47060   1.30879    0.086
 4821.00    1.49464   1.30841    0.087
 4822.00    1.52619   1.30827    0.088
 4823.00    1.50816   1.30922    0.088
 4824.00    1.47906   1.30995    0.087
 4825.00    1.46474   1.30995    0.087
 4826.00    1.45305   1.30966    0.088
 4827.00    1.44584   1.30975    0.088
 4828.00    1.43924   1.31074    0.088
 4829.00    1.44511   1.31136    0.087
 4830.00    1.45220   1.31101    0.087
 4831.00    1.43842   1.31118    0.087
 4832.00    1.42337   1.31130    0.086
 4833.00    1.43651   1.31153    0.086
 4834.00    1.45037   1.31142    0.086
 4835.00    1.46138   1.31044    0.087
 4836.00    1.47108   1.30920    0.087
 4837.00    1.44687   1.30762    0.086
 4838.00    1.42211   1.30589    0.085
 4839.00    1.38997   1.30346    0.085
 4840.00    1.36334   1.29995    0.085
 4841.00    1.38662   1.29516    0.085
 4842.00    1.40620   1.28988    0.085
 4843.00    1.40133   1.28414    0.084
 4844.00    1.40085   1.27672    0.084
 4845.00    1.42309   1.26815    0.086
 4846.00    1.44799   1.25780    0.087
 4847.00    1.48393   1.24627    0.086
 4848.00    1.50095   1.23342    0.000
 4849.00    1.45279   1.21858    0.000
 4850.00    1.41962   1.20391    0.000
 4851.00    1.42991   1.18842    0.000
 4852.00    1.43717   1.17220    0.000
 4853.00    1.43697   1.15510    0.000
 4854.00    1.43688   1.13783    0.000
 4855.00    1.43705   1.12488    0.000
 4856.00    1.43074   1.11486    0.000
 4857.00    1.41241   1.10613    0.000
 4858.00    1.40192   1.09908    0.000
 4859.00    1.40411   1.09444    0.000
 4860.00    1.41729   1.09639    0.000
 4861.00    1.44607   1.10348    0.000
 4862.00    1.45299   1.11227    0.000
 4863.00    1.43262   1.12277    0.000
 4864.00    1.42370   1.13471    0.000
 4865.00    1.42740   1.15020    0.000
 4866.00    1.44194   1.16818    0.000
 4867.00    1.46702   1.18568    0.000
 4868.00    1.46047   1.20199    0.000
 4869.00    1.42681   1.21717    0.000
 4870.00    1.40729   1.23259    0.000
 4871.00    1.39842   1.24741    0.000
 4872.00    1.40549   1.26074    0.000
 4873.00    1.42312   1.27153    0.000
 4874.00    1.44923   1.28049    0.000
 4875.00    1.48025   1.28949    0.087
 4876.00    1.46693   1.29727    0.087
 4877.00    1.43118   1.30397    0.087
 4878.00    1.40860   1.30871    0.087
 4879.00    1.39179   1.31206    0.086
 4880.00    1.42218   1.31653    0.086
 4881.00    1.47031   1.32036    0.087
 4882.00    1.48357   1.32350    0.087
 4883.00    1.48570   1.32575    0.088
 4884.00    1.46147   1.32711    0.087
 4885.00    1.43022   1.33047    0.087
 4886.00    1.43166   1.33374    0.087
 4887.00    1.44023   1.33622    0.088
 4888.00    1.45033   1.33870    0.087
 4889.00    1.46068   1.34052    0.087
 4890.00    1.47245   1.34413    0.087
 4891.00    1.48441   1.34768    0.086
 4892.00    1.48378   1.34991    0.086
 4893.00    1.48197   1.35244    0.087
 4894.00    1.49143   1.35452    0.087
 4895.00    1.50152   1.35718    0.087
 4896.00    1.47991   1.35958    0.087
 4897.00    1.45776   1.36067    0.087
 4898.00    1.45668   1.36205    0.087
 4899.00    1.45462   1.36346    0.086
 4900.00    1.42951   1.36463    0.086
 4901.00    1.40617   1.36546    0.086
 4902.00    1.40559   1.36571    0.085
 4903.00    1.40764   1.36619    0.085
 4904.00    1.43255   1.36674    0.085
 4905.00    1.45138   1.36682    0.085
 4906.00    1.43116   1.36635    0.085
 4907.00    1.41798   1.36561    0.085
 4908.00    1.44021   1.36480    0.086
 4909.00    1.46010   1.36316    0.087
 4910.00    1.47044   1.36144    0.087
 4911.00    1.47877   1.35892    0.087
 4912.00    1.48029   1.35624    0.087
 4913.00    1.48306   1.35370    0.086
 4914.00    1.48941   1.34958    0.086
 4915.00    1.48825   1.34700    0.086
 4916.00    1.46886   1.34477    0.085
 4917.00    1.45404   1.34312    0.085
 4918.00    1.44883   1.34200    0.085
 4919.00    1.44774   1.34069    0.085
 4920.00    1.45417   1.34181    0.085
 4921.00    1.46177   1.34436    0.085
 4922.00    1.47124   1.34805    0.085
 4923.00    1.46150   1.35088    0.085
 4924.00    1.42489   1.35514    0.085
 4925.00    1.41229   1.36018    0.085
 4926.00    1.42928   1.36486    0.084
 4927.00    1.45540   1.37021    0.084
 4928.00    1.49142   1.37367    0.085
 4929.00    1.50286   1.37800    0.086
 4930.00    1.49076   1.38136    0.087
 4931.00    1.47224   1.38304    0.088
 4932.00    1.44832   1.38513    0.089
 4933.00    1.43019   1.38676    0.090
 4934.00    1.41637   1.38876    0.090
 4935.00    1.42346   1.38929    0.090
 4936.00    1.44420   1.38941    0.089
 4937.00    1.44775   1.39040    0.087
 4938.00    1.44147   1.39196    0.084
 4939.00    1.44038   1.39388    0.084
 4940.00    1.44188   1.39435    0.000
 4941.00    1.43428   1.39512    0.000
 4942.00    1.42275   1.39648    0.000
 4943.00    1.46281   1.39770    0.000
 4944.00    1.52190   1.39836    0.000
 4945.00    1.51867   1.39762    0.000
 4946.00    1.49596   1.39642    0.000
 4947.00    1.47060   1.39475    0.000
 4948.00    1.44456   1.39230    0.000
 4949.00    1.45926   1.38890    0.000
 4950.00    1.48265   1.38442    0.000
 4951.00    1.47494   1.37951    0.000
 4952.00    1.46199   1.37439    0.000
 4953.00    1.45788   1.36898    0.000
 4954.00    1.45489   1.36375    0.000
 4955.00    1.44367   1.35843    0.000
 4956.00    1.43173   1.35365    0.000
 4957.00    1.41119   1.34990    0.000
 4958.00    1.39019   1.34642    0.000
 4959.00    1.40273   1.34382    0.000
 4960.00    1.41597   1.34180    0.000
 4961.00    1.43386   1.34047    0.000
 4962.00    1.44993   1.34053    0.000
 4963.00    1.42655   1.34055    0.000
 4964.00    1.40735   1.34112    0.000
 4965.00    1.43941   1.34220    0.000
 4966.00    1.46709   1.34316    0.000
 4967.00    1.45807   1.34510    0.000
 4968.00    1.44615   1.34652    0.000
 4969.00    1.41606   1.34780    0.000
 4970.00    1.39115   1.34928    0.000
 4971.00    1.39163   1.34990    0.000
 4972.00    1.39789   1.35100    0.000
 4973.00    1.42714   1.35174    0.000
 4974.00    1.45220   1.35179    0.000
 4975.00    1.46341   1.35187    0.000
 4976.00    1.46757   1.35135    0.000
 4977.00    1.45204   1.35133    0.000
 4978.00    1.43167   1.35149    0.000
 4979.00    1.39972   1.35087    0.000
 4980.00    1.38585   1.35050    0.000
 4981.00    1.40936   1.35019    0.000
 4982.00    1.42265   1.35059    0.000
 4983.00    1.41759   1.35121    0.000
 4984.00    1.42089   1.35072    0.000
 4985.00    1.43733   1.35090    0.000
 4986.00    1.45122   1.35120    0.000
 4987.00    1.46160   1.35129    0.000
 4988.00    1.46287   1.35144    0.000
 4989.00    1.45311   1.35026    0.000
 4990.00    1.44072   1.34956    0.000
 4991.00    1.42552   1.34897    0.000
 4992.00    1.42262   1.34680    0.000
 4993.00    1.43131   1.34493    0.000
 4994.00    1.44001   1.34244    0.000
 4995.00    1.44870   1.33959    0.000
 4996.00    1.44245   1.33784    0.000
 4997.00    1.42524   1.33413    0.000
 4998.00    1.40681   1.33090    0.000
 4999.00    1.38759   1.32810    0.000
 5000.00    1.38961   1.32450    0.000
 5001.00    1.40358   1.32345    0.000
 5002.00    1.44216   1.32066    0.000
 5003.00    1.49280   1.31758    0.000
 5004.00    1.47431   1.31592    0.000
 5005.00    1.42655   1.31337    0.000
 5006.00    1.42955   1.31368    0.000
 5007.00    1.45095   1.31300    0.000
 5008.00    1.45660   1.31056    0.000
 5009.00    1.45741   1.31070    0.000
 5010.00    1.42176   1.31067    0.000
 5011.00    1.37679   1.31198    0.000
 5012.00    1.39361   1.31362    0.000
 5013.00    1.42327   1.31305    0.000
 5014.00    1.46040   1.31549    0.000
 5015.00    1.49875   1.31890    0.000
 5016.00    1.46758   1.32217    0.000
 5017.00    1.42788   1.32533    0.000
 5018.00    1.42799   1.32747    0.000
 5019.00    1.43147   1.33166    0.000
 5020.00    1.41993   1.33596    0.000
 5021.00    1.40766   1.33994    0.000
 5022.00    1.42320   1.34340    0.000
 5023.00    1.43872   1.34644    0.000
 5024.00    1.42670   1.34998    0.000
 5025.00    1.41667   1.35199    0.000
 5026.00    1.44647   1.35411    0.000
 5027.00    1.47417   1.35699    0.000
 5028.00    1.47721   1.35818    0.000
 5029.00    1.47677   1.35902    0.082
 5030.00    1.44823   1.35913    0.082
 5031.00    1.42449   1.35917    0.082
 5032.00    1.42989   1.36029    0.082
 5033.00    1.43589   1.35955    0.082
 5034.00    1.44473   1.35813    0.082
 5035.00    1.45401   1.35806    0.082
 5036.00    1.46496   1.35819    0.083
 5037.00    1.46787   1.35816    0.083
 5038.00    1.44471   1.35737    0.082
 5039.00    1.42259   1.35658    0.082
 5040.00    1.40332   1.35779    0.082
 5041.00    1.39686   1.35946    0.082
 5042.00    1.42054   1.35982    0.082
 5043.00    1.42909   1.36054    0.081
 5044.00    1.40689   1.36189    0.080
 5045.00    1.39475   1.36354    0.080
 5046.00    1.40040   1.36556    0.080
 5047.00    1.40024   1.36732    0.080
 5048.00    1.39108   1.36953    0.080
 5049.00    1.39529   1.37127    0.080
 5050.00    1.41768   1.37300    0.081
 5051.00    1.42381   1.37506    0.081
 5052.00    1.41047   1.37753    0.081
 5053.00    1.41255   1.37980    0.081
 5054.00    1.43090   1.38061    0.081
 5055.00    1.44253   1.38238    0.080
 5056.00    1.44789   1.38525    0.080
 5057.00    1.43403   1.38604    0.080
 5058.00    1.40440   1.38664    0.080
 5059.00    1.40530   1.38739    0.080
 5060.00    1.42825   1.38795    0.080
 5061.00    1.44179   1.38956    0.080
 5062.00    1.44935   1.38852    0.081
 5063.00    1.43049   1.38795    0.081
 5064.00    1.39698   1.38890    0.081
 5065.00    1.40129   1.38852    0.081
 5066.00    1.42384   1.38805    0.081
 5067.00    1.40217   1.38719    0.081
 5068.00    1.36210   1.38678    0.081
 5069.00    1.36531   1.38694    0.081
 5070.00    1.38394   1.38615    0.081
 5071.00    1.40149   1.38541    0.081
 5072.00    1.41872   1.38505    0.080
 5073.00    1.43167   1.38485    0.081
 5074.00    1.44355   1.38426    0.082
 5075.00    1.43193   1.38353    0.083
 5076.00    1.41553   1.38368    0.083
 5077.00    1.44006   1.38342    0.083
 5078.00    1.47109   1.38338    0.082
 5079.00    1.42714   1.38395    0.082
 5080.00    1.37433   1.38430    0.081
 5081.00    1.36030   1.38526    0.081
 5082.00    1.34938   1.38598    0.080
 5083.00    1.33248   1.38712    0.080
 5084.00    1.31530   1.38871    0.080
 5085.00    1.29010   1.38960    0.079
 5086.00    1.26568   1.39080    0.079
 5087.00    1.28474   1.39246    0.079
 5088.00    1.30288   1.39355    0.078
 5089.00    1.30377   1.39395    0.078
 5090.00    1.30492   1.39435    0.078
 5091.00    1.30896   1.39538    0.078
 5092.00    1.31634   1.39579    0.078
 5093.00    1.34981   1.39523    0.079
 5094.00    1.38203   1.39452    0.080
 5095.00    1.40681   1.39433    0.080
 5096.00    1.42000   1.39469    0.080
 5097.00    1.37907   1.39347    0.080
 5098.00    1.34549   1.39237    0.080
 5099.00    1.33990   1.39236    0.079
 5100.00    1.33291   1.39181    0.078
 5101.00    1.32146   1.39190    0.078
 5102.00    1.32088   1.39127    0.078
 5103.00    1.34958   1.39074    0.079
 5104.00    1.37191   1.39194    0.079
 5105.00    1.37952   1.39211    0.079
 5106.00    1.38409   1.39240    0.080
 5107.00    1.38257   1.39377    0.080
 5108.00    1.37273   1.39402    0.080
 5109.00    1.34837   1.39515    0.080
 5110.00    1.33479   1.39663    0.080
 5111.00    1.33765   1.39655    0.080
 5112.00    1.36557   1.39780    0.080
 5113.00    1.42706   1.39828    0.081
 5114.00    1.44989   1.39789    0.081
 5115.00    1.42711   1.39906    0.080
 5116.00    1.41259   1.39807    0.080
 5117.00    1.40669   1.39671    0.080
 5118.00    1.40340   1.39667    0.081
 5119.00    1.40251   1.39527    0.081
 5120.00    1.40732   1.39455    0.080
 5121.00    1.41675   1.39384    0.079
 5122.00    1.40094   1.39217    0.078
 5123.00    1.36717   1.39204    0.078
 5124.00    1.34702   1.39196    0.078
 5125.00    1.33538   1.39177    0.079
 5126.00    1.34084   1.39221    0.079
 5127.00    1.35565   1.39299    0.078
 5128.00    1.36127   1.39397    0.078
 5129.00    1.36253   1.39518    0.079
 5130.00    1.36408   1.39662    0.079
 5131.00    1.36575   1.39769    0.080
 5132.00    1.37396   1.39846    0.080
 5133.00    1.38445   1.39977    0.078
 5134.00    1.40201   1.40038    0.079
 5135.00    1.42165   1.40065    0.079
 5136.00    1.42380   1.40066    0.079
 5137.00    1.42168   1.39957    0.079
 5138.00    1.41756   1.39967    0.079
 5139.00    1.41304   1.39995    0.079
 5140.00    1.39394   1.39781    0.079
 5141.00    1.37259   1.39656    0.078
 5142.00    1.37144   1.39614    0.078
 5143.00    1.37259   1.39532    0.078
 5144.00    1.35718   1.39578    0.078
 5145.00    1.34051   1.39505    0.078
 5146.00    1.35124   1.39462    0.078
 5147.00    1.36310   1.39649    0.079
 5148.00    1.37118   1.39745    0.079
 5149.00    1.37886   1.39770    0.080
 5150.00    1.37072   1.39953    0.080
 5151.00    1.36353   1.40158    0.079
 5152.00    1.37274   1.40330    0.079
 5153.00    1.38504   1.40456    0.080
 5154.00    1.43010   1.40479    0.080
 5155.00    1.46640   1.40492    0.081
 5156.00    1.43669   1.40524    0.081
 5157.00    1.41148   1.40261    0.081
 5158.00    1.41209   1.39944    0.081
 5159.00    1.41076   1.39673    0.080
 5160.00    1.40062   1.39183    0.081
 5161.00    1.39218   1.38619    0.081
 5162.00    1.39015   1.37907    0.080
 5163.00    1.38674   1.37155    0.079
 5164.00    1.37906   1.36504    0.080
 5165.00    1.37316   1.35745    0.080
 5166.00    1.37198   1.34992    0.081
 5167.00    1.37366   1.34374    0.082
 5168.00    1.38188   1.33809    0.082
 5169.00    1.37657   1.33317    0.082
 5170.00    1.34461   1.32844    0.082
 5171.00    1.33335   1.32513    0.082
 5172.00    1.35763   1.32383    0.082
 5173.00    1.37244   1.32273    0.081
 5174.00    1.37302   1.32224    0.081
 5175.00    1.36733   1.32271    0.081
 5176.00    1.35337   1.32396    0.081
 5177.00    1.34389   1.32595    0.080
 5178.00    1.33962   1.32761    0.079
 5179.00    1.33356   1.32979    0.078
 5180.00    1.32564   1.33324    0.078
 5181.00    1.30517   1.33604    0.077
 5182.00    1.27334   1.33855    0.077
 5183.00    1.25835   1.34192    0.077
 5184.00    1.25679   1.34519    0.076
 5185.00    1.29206   1.34843    0.076
 5186.00    1.35315   1.35107    0.077
 5187.00    1.36165   1.35323    0.077
 5188.00    1.33779   1.35634    0.077
 5189.00    1.34133   1.35899    0.078
 5190.00    1.35959   1.36027    0.000
 5191.00    1.36950   1.36204    0.000
 5192.00    1.37551   1.36348    0.000
 5193.00    1.37771   1.36431    0.000
 5194.00    1.37839   1.36491    0.000
 5195.00    1.36476   1.36414    0.000
 5196.00    1.34623   1.36352    0.000
 5197.00    1.36286   1.36343    0.000
 5198.00    1.38965   1.36217    0.000
 5199.00    1.38252   1.36074    0.000
 5200.00    1.36728   1.35946    0.000
 5201.00    1.38712   1.35866    0.000
 5202.00    1.41371   1.35821    0.000
 5203.00    1.38595   1.35733    0.000
 5204.00    1.35007   1.35766    0.000
 5205.00    1.36845   1.35916    0.000
 5206.00    1.39278   1.36104    0.000
 5207.00    1.39227   1.36356    0.000
 5208.00    1.38996   1.36670    0.000
 5209.00    1.38916   1.37103    0.000
 5210.00    1.38842   1.37567    0.000
 5211.00    1.39500   1.37972    0.079
 5212.00    1.40133   1.38501    0.079
 5213.00    1.39746   1.39008    0.079
 5214.00    1.39540   1.39400    0.078
 5215.00    1.42275   1.39867    0.078
 5216.00    1.44448   1.40274    0.079
 5217.00    1.40907   1.40614    0.078
 5218.00    1.37590   1.40958    0.078
 5219.00    1.35902   1.41167    0.078
 5220.00    1.34803   1.41417    0.079
 5221.00    1.36978   1.41672    0.079
 5222.00    1.39229   1.41777    0.080
 5223.00    1.41814   1.42032    0.080
 5224.00    1.43709   1.42298    0.080
 5225.00    1.43083   1.42435    0.080
 5226.00    1.42071   1.42735    0.080
 5227.00    1.39880   1.42974    0.080
 5228.00    1.38629   1.43141    0.079
 5229.00    1.39825   1.43414    0.080
 5230.00    1.39923   1.43584    0.080
 5231.00    1.37564   1.43820    0.080
 5232.00    1.36757   1.44079    0.080
 5233.00    1.38956   1.44132    0.079
 5234.00    1.41202   1.44255    0.079
 5235.00    1.43525   1.44368    0.079
 5236.00    1.44203   1.44311    0.078
 5237.00    1.42447   1.44263    0.078
 5238.00    1.40283   1.44167    0.077
 5239.00    1.37587   1.44079    0.076
 5240.00    1.36583   1.44054    0.076
 5241.00    1.37518   1.43795    0.076
 5242.00    1.37870   1.43533    0.076
 5243.00    1.37630   1.43525    0.076
 5244.00    1.36443   1.43389    0.076
 5245.00    1.34410   1.43144    0.077
 5246.00    1.34829   1.43072    0.077
 5247.00    1.37176   1.43052    0.076
 5248.00    1.38022   1.43086    0.076
 5249.00    1.37829   1.43038    0.077
 5250.00    1.36508   1.42887    0.077
 5251.00    1.34504   1.43030    0.077
 5252.00    1.33988   1.43136    0.077
 5253.00    1.34259   1.42982    0.077
 5254.00    1.35071   1.43014    0.077
 5255.00    1.36131   1.43002    0.076
 5256.00    1.38486   1.42868    0.076
 5257.00    1.41352   1.42798    0.076
 5258.00    1.41730   1.42545    0.076
 5259.00    1.41271   1.42371    0.076
 5260.00    1.41515   1.42266    0.077
 5261.00    1.41958   1.41976    0.078
 5262.00    1.39921   1.41875    0.079
 5263.00    1.37306   1.41809    0.080
 5264.00    1.34372   1.41596    0.080
 5265.00    1.31379   1.41611    0.079
 5266.00    1.33251   1.41751    0.080
 5267.00    1.35828   1.41848    0.081
 5268.00    1.37398   1.42035    0.081
 5269.00    1.38863   1.42373    0.081
 5270.00    1.40495   1.42759    0.081
 5271.00    1.42139   1.43129    0.081
 5272.00    1.40551   1.43604    0.081
 5273.00    1.38854   1.44091    0.080
 5274.00    1.39619   1.44588    0.080
 5275.00    1.40436   1.45126    0.081
 5276.00    1.42836   1.45542    0.080
 5277.00    1.44976   1.46027    0.079
 5278.00    1.43167   1.46511    0.078
 5279.00    1.41476   1.46812    0.078
 5280.00    1.40940   1.47235    0.079
 5281.00    1.40315   1.47636    0.080
 5282.00    1.39064   1.47861    0.079
 5283.00    1.37830   1.48108    0.078
 5284.00    1.36683   1.48286    0.077
 5285.00    1.36372   1.48417    0.077
 5286.00    1.39699   1.48554    0.077
 5287.00    1.42192   1.48577    0.077
 5288.00    1.41707   1.48571    0.077
 5289.00    1.41822   1.48618    0.077
 5290.00    1.43740   1.48584    0.077
 5291.00    1.43847   1.48494    0.077
 5292.00    1.39324   1.48407    0.077
 5293.00    1.37431   1.48328    0.077
 5294.00    1.41321   1.48320    0.077
 5295.00    1.43363   1.48318    0.077
 5296.00    1.41878   1.48264    0.078
 5297.00    1.41842   1.48361    0.078
 5298.00    1.44220   1.48489    0.078
 5299.00    1.44410   1.48589    0.077
 5300.00    1.41407   1.48760    0.076
 5301.00    1.39766   1.48911    0.076
 5302.00    1.39875   1.49081    0.076
 5303.00    1.40304   1.49300    0.076
 5304.00    1.41096   1.49460    0.076
 5305.00    1.41565   1.49615    0.075
 5306.00    1.41714   1.49768    0.075
 5307.00    1.41242   1.49868    0.074
 5308.00    1.40223   1.49932    0.074
 5309.00    1.40148   1.49956    0.074
 5310.00    1.40805   1.49952    0.074
 5311.00    1.39916   1.49887    0.074
 5312.00    1.37974   1.49783    0.074
 5313.00    1.37658   1.49693    0.074
 5314.00    1.38312   1.49523    0.073
 5315.00    1.38193   1.49262    0.073
 5316.00    1.37670   1.49087    0.073
 5317.00    1.37588   1.48886    0.073
 5318.00    1.37705   1.48626    0.073
 5319.00    1.36976   1.48333    0.073
 5320.00    1.35918   1.48068    0.073
 5321.00    1.36160   1.47939    0.073
 5322.00    1.36832   1.47679    0.073
 5323.00    1.36018   1.47289    0.073
 5324.00    1.34791   1.47227    0.074
 5325.00    1.35342   1.47202    0.073
 5326.00    1.36299   1.47049    0.073
 5327.00    1.37650   1.47015    0.074
 5328.00    1.39073   1.47026    0.076
 5329.00    1.38873   1.47129    0.076
 5330.00    1.38445   1.47231    0.075
 5331.00    1.40051   1.47233    0.075
 5332.00    1.41863   1.47365    0.074
 5333.00    1.41617   1.47562    0.075
 5334.00    1.41239   1.47664    0.075
 5335.00    1.40656   1.47719    0.075
 5336.00    1.40064   1.47866    0.074
 5337.00    1.38161   1.48064    0.075
 5338.00    1.36395   1.48163    0.075
 5339.00    1.38572   1.48381    0.075
 5340.00    1.40718   1.48477    0.075
 5341.00    1.42433   1.48616    0.074
 5342.00    1.43933   1.49001    0.073
 5343.00    1.43426   1.49188    0.073
 5344.00    1.42780   1.49369    0.073
 5345.00    1.41179   1.49806    0.074
 5346.00    1.39854   1.50155    0.074
 5347.00    1.39987   1.50555    0.074
 5348.00    1.39736   1.50904    0.074
 5349.00    1.37859   1.51258    0.074
 5350.00    1.36540   1.51751    0.074
 5351.00    1.37176   1.52000    0.074
 5352.00    1.38068   1.52237    0.073
 5353.00    1.39712   1.52569    0.073
 5354.00    1.41075   1.52720    0.073
 5355.00    1.41736   1.52829    0.073
 5356.00    1.42589   1.52865    0.073
 5357.00    1.43860   1.52832    0.073
 5358.00    1.44100   1.52846    0.073
 5359.00    1.42401   1.52695    0.072
 5360.00    1.40935   1.52529    0.072
 5361.00    1.39848   1.52416    0.073
 5362.00    1.39497   1.52211    0.073
 5363.00    1.40204   1.52050    0.073
 5364.00    1.40007   1.51916    0.072
 5365.00    1.38666   1.51756    0.072
 5366.00    1.37073   1.51625    0.072
 5367.00    1.35198   1.51587    0.073
 5368.00    1.36283   1.51649   -2.000
 5369.00    1.40279   1.51718   -2.000
 5370.00    1.41995   1.51814   -2.000
 5371.00    1.41735   1.51934   -2.000
 5372.00    1.40556   1.52048   -2.000
 5373.00    1.38676   1.52256   -2.000
 5374.00    1.40037   1.52461   -2.000
 5375.00    1.43574   1.52573   -2.000
 5376.00    1.45853   1.52714   -2.000
 5377.00    1.47392   1.52858   -2.000
 5378.00    1.45430   1.52902   -2.000
 5379.00    1.41671   1.52960   -2.000
 5380.00    1.41162   1.52998   -2.000
 5381.00    1.42097   1.52911   -2.000
 5382.00    1.42210   1.52837   -2.000
 5383.00    1.42009   1.52724    0.073
 5384.00    1.40613   1.52527    0.072
 5385.00    1.38829   1.52351    0.072
 5386.00    1.39475   1.52112    0.072
 5387.00    1.40781   1.51912    0.072
 5388.00    1.41429   1.51743    0.072
 5389.00    1.41930   1.51391    0.072
 5390.00    1.40652   1.51235    0.072
 5391.00    1.39057   1.51097    0.072
 5392.00    1.40251   1.50686    0.072
 5393.00    1.41822   1.50571    0.072
 5394.00    1.40863   1.50532    0.073
 5395.00    1.39660   1.50267    0.073
 5396.00    1.39154   1.50103    0.072
 5397.00    1.38690   1.49976    0.072
 5398.00    1.37257   1.49893    0.072
 5399.00    1.35817   1.49840    0.072
 5400.00    1.37335   1.49638    0.071
 5401.00    1.38791   1.49575    0.071
 5402.00    1.38631   1.49684    0.072
 5403.00    1.38459   1.49702    0.072
 5404.00    1.38137   1.49704    0.072
 5405.00    1.37893   1.49852    0.071
 5406.00    1.38345   1.50138    0.071
 5407.00    1.38649   1.50344    0.071
 5408.00    1.37968   1.50616    0.072
 5409.00    1.37138   1.51035    0.072
 5410.00    1.35540   1.51378    0.071
 5411.00    1.34412   1.51792    0.070
 5412.00    1.35238   1.52218    0.071
 5413.00    1.36267   1.52557    0.071
 5414.00    1.37991   1.53050    0.070
 5415.00    1.39515   1.53373    0.070
 5416.00    1.40457   1.53528    0.070
 5417.00    1.41322   1.53931    0.070
 5418.00    1.41992   1.54088    0.070
 5419.00    1.41785   1.54102    0.069
 5420.00    1.39708   1.54287    0.069
 5421.00    1.39114   1.54137    0.069
 5422.00    1.41260   1.54090    0.069
 5423.00    1.42301   1.54166    0.069
 5424.00    1.41560   1.53750    0.069
 5425.00    1.40839   1.53607    0.069
 5426.00    1.40148   1.53654    0.069
 5427.00    1.39961   1.53305    0.069
 5428.00    1.40401   1.53222    0.069
 5429.00    1.40597   1.53194    0.069
 5430.00    1.40525   1.53019    0.069
 5431.00    1.40572   1.53076    0.069
 5432.00    1.40734   1.53039    0.070
 5433.00    1.40772   1.53025    0.070
 5434.00    1.40705   1.53167    0.069
 5435.00    1.39826   1.53074    0.069
 5436.00    1.38335   1.53003    0.069
 5437.00    1.38449   1.53038    0.070
 5438.00    1.39625   1.52849    0.070
 5439.00    1.39252   1.52598    0.070
 5440.00    1.37983   1.52344    0.069
 5441.00    1.37646   1.51898    0.068
 5442.00    1.37781   1.51368    0.068
 5443.00    1.38830   1.50898    0.068
 5444.00    1.40277   1.50293    0.069
 5445.00    1.40064   1.49621    0.069
 5446.00    1.39227   1.49020    0.069
 5447.00    1.40142   1.48348    0.069
 5448.00    1.41615   1.47717    0.069
 5449.00    1.42370   1.47179    0.069
 5450.00    1.42935   1.46628    0.069
 5451.00    1.42445   1.46247    0.070
 5452.00    1.41725   1.45873    0.070
 5453.00    1.40747   1.45572    0.070
 5454.00    1.39724   1.45498    0.070
 5455.00    1.41040   1.45347    0.070
 5456.00    1.42664   1.45303    0.070
 5457.00    1.41289   1.45447    0.069
 5458.00    1.39638   1.45444    0.069
 5459.00    1.40047   1.45563    0.069
 5460.00    1.40572   1.45812    0.069
 5461.00    1.40348   1.45885    0.068
 5462.00    1.40119   1.46044    0.068
 5463.00    1.41167   1.46266    0.069
 5464.00    1.42187   1.46427    0.069
 5465.00    1.42526   1.46531    0.069
 5466.00    1.42836   1.46626    0.069
 5467.00    1.42768   1.46817    0.068
 5468.00    1.42713   1.46898    0.068
 5469.00    1.42775   1.46902    0.069
 5470.00    1.42688   1.47102    0.069
 5471.00    1.41645   1.47213    0.069
 5472.00    1.40950   1.47238    0.069
 5473.00    1.42006   1.47387    0.069
 5474.00    1.43037   1.47536    0.069
 5475.00    1.43970   1.47722    0.069
 5476.00    1.44134   1.47824    0.069
 5477.00    1.41709   1.47959    0.069
 5478.00    1.39847   1.48273   -2.000
 5479.00    1.39581   1.48399   -2.000
 5480.00    1.39519   1.48525   -2.000
 5481.00    1.39951   1.48874   -2.000
 5482.00    1.42323   1.48976   -2.000
 5483.00    1.48760   1.49068   -2.000
 5484.00    1.51411   1.49369   -2.000
 5485.00    1.47165   1.49437   -2.000
 5486.00    1.39759   1.49489   -2.000
 5487.00    1.27322   1.49648   -2.000
 5488.00    1.22639   1.49652   -2.000
 5489.00    1.28790   1.49627   -2.000
 5490.00    1.35784   1.49633   -2.000
 5491.00    1.43816   1.49610   -2.000
 5492.00    1.48961   1.49530   -2.000
 5493.00    1.50977   1.49364   -2.000
 5494.00    1.49981   1.49299   -2.000
 5495.00    1.46107   1.49219   -2.000
 5496.00    1.42385   1.48996   -2.000
 5497.00    1.38792   1.48906   -2.000
 5498.00    1.38359   1.48780   -2.000
 5499.00    1.40273   1.48596   -2.000
 5500.00    1.40447   1.48571   -2.000
 5501.00    1.39487   1.48403   -2.000
 5502.00    1.38682   1.48303    0.067
 5503.00    1.37967   1.48354    0.067
 5504.00    1.38227   1.48195    0.067
 5505.00    1.38973   1.48227    0.067
 5506.00    1.39774   1.48353    0.067
 5507.00    1.40597   1.48259    0.067
 5508.00    1.39527   1.48436    0.067
 5509.00    1.37758   1.48625    0.067
 5510.00    1.36308   1.48680    0.067
 5511.00    1.34956   1.49007    0.067
 5512.00    1.35676   1.49212    0.066
 5513.00    1.36936   1.49385    0.066
 5514.00    1.39115   1.49792    0.067
 5515.00    1.41490   1.50016    0.067
 5516.00    1.42103   1.50262    0.067
 5517.00    1.42420   1.50613    0.068
 5518.00    1.43381   1.50819    0.067
 5519.00    1.44422   1.51084    0.067
 5520.00    1.44718   1.51308    0.067
 5521.00    1.44948   1.51459    0.067
 5522.00    1.42983   1.51713    0.067
 5523.00    1.40902   1.51844    0.067
 5524.00    1.39381   1.51924    0.066
 5525.00    1.37890   1.52119    0.066
 5526.00    1.37965   1.52219    0.066
 5527.00    1.38067   1.52252    0.067
 5528.00    1.38767   1.52388    0.067
 5529.00    1.39518   1.52528    0.066
 5530.00    1.40897   1.52573    0.066
 5531.00    1.42151   1.52681    0.066
 5532.00    1.42371   1.52856    0.066
 5533.00    1.42347   1.52963    0.067
 5534.00    1.40807   1.53087    0.066
 5535.00    1.39942   1.53229    0.066
 5536.00    1.42376   1.53365    0.066
 5537.00    1.43934   1.53542    0.066
 5538.00    1.42014   1.53631    0.067
 5539.00    1.40421   1.53729    0.067
 5540.00    1.39908   1.53929    0.067
 5541.00    1.39704   1.53984    0.078
 5542.00    1.40363   1.54010    0.188
 5543.00    1.41007   1.54146   -1.000
 5544.00    1.41615   1.54160   -1.000
 5545.00    1.42132   1.54125   -1.000
 5546.00    1.42462   1.54148   -1.000
 5547.00    1.42486   1.54110    0.372
 5548.00    1.41964   1.54040    0.098
 5549.00    1.42345   1.53944    0.068
 5550.00    1.44145   1.53840    0.067
 5551.00    1.44681   1.53761    0.067
 5552.00    1.43477   1.53610    0.067
 5553.00    1.42676   1.53451    0.067
 5554.00    1.42362   1.53352    0.067
 5555.00    1.42289   1.53197    0.066
 5556.00    1.42473   1.53048    0.066
 5557.00    1.41448   1.52954    0.066
 5558.00    1.39282   1.52808    0.066
 5559.00    1.38130   1.52693    0.066
 5560.00    1.37822   1.52655    0.065
 5561.00    1.37942   1.52559    0.065
 5562.00    1.38375   1.52459    0.065
 5563.00    1.37727   1.52506    0.065
 5564.00    1.36386   1.52481    0.065
 5565.00    1.36155   1.52376    0.065
 5566.00    1.36549   1.52490    0.065
 5567.00    1.37650   1.52524    0.065
 5568.00    1.39098   1.52419    0.065
 5569.00    1.39948   1.52573    0.065
 5570.00    1.40546   1.52603    0.065
 5571.00    1.40894   1.52470    0.065
 5572.00    1.41153   1.52627    0.065
 5573.00    1.41062   1.52604    0.065
 5574.00    1.40865   1.52436    0.066
 5575.00    1.42406   1.52539    0.066
 5576.00    1.44390   1.52411    0.067
 5577.00    1.43637   1.52224    0.067
 5578.00    1.42318   1.52244    0.066
 5579.00    1.41888   1.52009    0.066
 5580.00    1.41604   1.51809    0.066
 5581.00    1.41998   1.51725    0.066
 5582.00    1.42475   1.51459    0.066
 5583.00    1.40838   1.51288    0.066
 5584.00    1.39023   1.51108    0.066
 5585.00    1.40091   1.50871    0.067
 5586.00    1.41298   1.50747    0.067
 5587.00    1.40913   1.50497    0.067
 5588.00    1.40477   1.50336    0.067
 5589.00    1.38448   1.50261    0.066
 5590.00    1.36542   1.49980    0.066
 5591.00    1.37064   1.49874    0.066
 5592.00    1.37757   1.49828    0.067
 5593.00    1.40438   1.49612    0.067
 5594.00    1.42824   1.49572    0.068
 5595.00    1.42828   1.49532    0.068
 5596.00    1.42592   1.49408    0.068
 5597.00    1.40903   1.49433    0.068
 5598.00    1.39667   1.49415    0.068
 5599.00    1.40590   1.49395    0.068
 5600.00    1.41336   1.49499    0.068
 5601.00    1.41395   1.49507    0.067
 5602.00    1.41691   1.49555    0.067
 5603.00    1.42754   1.49700    0.067
 5604.00    1.43535   1.49713    0.067
 5605.00    1.43542   1.49784    0.066
 5606.00    1.43690   1.49927    0.066
 5607.00    1.44169   1.49898    0.065
 5608.00    1.44066   1.49914    0.065
 5609.00    1.42785   1.50000    0.064
 5610.00    1.41504   1.49942    0.064
 5611.00    1.40224   1.49910    0.064
 5612.00    1.39402   1.49906    0.065
 5613.00    1.39288   1.49790    0.065
 5614.00    1.39335   1.49721    0.065
 5615.00    1.39601   1.49676    0.065
 5616.00    1.38790   1.49545    0.065
 5617.00    1.36694   1.49467    0.065
 5618.00    1.36456   1.49413    0.065
 5619.00    1.38178   1.49302    0.065
 5620.00    1.38698   1.49252    0.065
 5621.00    1.38102   1.49219    0.064
 5622.00    1.37730   1.49139    0.064
 5623.00    1.37541   1.49127    0.064
 5624.00    1.37931   1.49117    0.064
 5625.00    1.38738   1.49042    0.064
 5626.00    1.39261   1.49050    0.064
 5627.00    1.39604   1.49063    0.065
 5628.00    1.40202   1.48982    0.065
 5629.00    1.40942   1.48976    0.065
 5630.00    1.41018   1.48977    0.064
 5631.00    1.40775   1.48917    0.064
 5632.00    1.40027   1.48906    0.064
 5633.00    1.39070   1.48888    0.064
 5634.00    1.40153   1.48859    0.064
 5635.00    1.41961   1.48867    0.065
 5636.00    1.42005   1.48877    0.065
 5637.00    1.41520   1.48913    0.066
 5638.00    1.39802   1.48970    0.066
 5639.00    1.37778   1.49060    0.065
 5640.00    1.37810   1.49190    0.066
 5641.00    1.38259   1.49310    0.066
 5642.00    1.39150   1.49498    0.066
 5643.00    1.40112   1.49708    0.065
 5644.00    1.41472   1.49848    0.065
 5645.00    1.42878   1.50096    0.064
 5646.00    1.42605   1.50352    0.064
 5647.00    1.42196   1.50442    0.065
 5648.00    1.42032   1.50642    0.065
 5649.00    1.41877   1.50886    0.064
 5650.00    1.40914   1.50906    0.064
 5651.00    1.39971   1.50978    0.064
 5652.00    1.40444   1.51119    0.063
 5653.00    1.40868   1.51067    0.063
 5654.00    1.40404   1.51007    0.064
 5655.00    1.39991   1.51041    0.065
 5656.00    1.40144   1.50945    0.064
 5657.00    1.40204   1.50797    0.064
 5658.00    1.39546   1.50778    0.064
 5659.00    1.38999   1.50701    0.064
 5660.00    1.39105   1.50566    0.064
 5661.00    1.39130   1.50556    0.064
 5662.00    1.38776   1.50544    0.064
 5663.00    1.38393   1.50506    0.064
 5664.00    1.37901   1.50564    0.064
 5665.00    1.37633   1.50616    0.064
 5666.00    1.38078   1.50696    0.064
 5667.00    1.38695   1.50857    0.064
 5668.00    1.39779   1.50960    0.064
 5669.00    1.40339   1.51114    0.063
 5670.00    1.39693   1.51366    0.063
 5671.00    1.39347   1.51507    0.063
 5672.00    1.39604   1.51676    0.063
 5673.00    1.40077   1.51973    0.063
 5674.00    1.40927   1.52131    0.063
 5675.00    1.41317   1.52280    0.064
 5676.00    1.41005   1.52568    0.065
 5677.00    1.41053   1.52731    0.065
 5678.00    1.41582   1.52856    0.065
 5679.00    1.41586   1.53109    0.065
 5680.00    1.40971   1.53260    0.065
 5681.00    1.40340   1.53354    0.065
 5682.00    1.39692   1.53557    0.064
 5683.00    1.40067   1.53687    0.063
 5684.00    1.41378   1.53750    0.064
 5685.00    1.41653   1.53895    0.064
 5686.00    1.41091   1.53983    0.063
 5687.00    1.40542   1.54008    0.063
 5688.00    1.40002   1.54087    0.063
 5689.00    1.39794   1.54112    0.063
 5690.00    1.39792   1.54095    0.063
 5691.00    1.40526   1.54124    0.063
 5692.00    1.41660   1.54074    0.063
 5693.00    1.42175   1.54020    0.063
 5694.00    1.42396   1.54020    0.063
 5695.00    1.41415   1.53904    0.063
 5696.00    1.39942   1.53852    0.063
 5697.00    1.40484   1.53860    0.063
 5698.00    1.41728   1.53704    0.064
 5699.00    1.43111   1.53700    0.064
 5700.00    1.44535   1.53747    0.065
 5701.00    1.44317   1.53590    0.065
 5702.00    1.43698   1.53674    0.064
 5703.00    1.42896   1.53775    0.064
 5704.00    1.42057   1.53650    0.064
 5705.00    1.40961   1.53840    0.064
 5706.00    1.39825   1.53996    0.064
 5707.00    1.40062   1.53925    0.063
 5708.00    1.40454   1.54207    0.063
 5709.00    1.40478   1.54395    0.063
 5710.00    1.40474   1.54373    0.062
 5711.00    1.42006   1.54704    0.063
 5712.00    1.43601   1.54893    0.063
 5713.00    1.44665   1.54901    0.063
 5714.00    1.45662   1.55217    0.063
 5715.00    1.44025   1.55378    0.063
 5716.00    1.42415   1.55389    0.063
 5717.00    1.41241   1.55645    0.062
 5718.00    1.40327   1.55765    0.062
 5719.00    1.42168   1.55764    0.062
 5720.00    1.43821   1.55944    0.062
 5721.00    1.44062   1.56036    0.062
 5722.00    1.44179   1.56035    0.062
 5723.00    1.43583   1.56151    0.062
 5724.00    1.43307   1.56245    0.062
 5725.00    1.44482   1.56271    0.062
 5726.00    1.45110   1.56349    0.062
 5727.00    1.43706   1.56472    0.062
 5728.00    1.42793   1.56540    0.062
 5729.00    1.43412   1.56608    0.062
 5730.00    1.44071   1.56775    0.062
 5731.00    1.44836   1.56883    0.063
 5732.00    1.44961   1.56949    0.063
 5733.00    1.43631   1.57162    0.063
 5734.00    1.43255   1.57300    0.063
 5735.00    1.44756   1.57372    0.063
 5736.00    1.46030   1.57621    0.063
 5737.00    1.46913   1.57769    0.063
 5738.00    1.46847   1.57853    0.063
 5739.00    1.45355   1.58121    0.063
 5740.00    1.44611   1.58255    0.000
 5741.00    1.44850   1.58351    0.000
 5742.00    1.45372   1.58608    0.000
 5743.00    1.46222   1.58701    0.000
 5744.00    1.47146   1.58799    0.000
 5745.00    1.48147   1.59007    0.000
 5746.00    1.48438   1.59036    0.000
 5747.00    1.48088   1.59115    0.000
 5748.00    1.46471   1.59236    0.000
 5749.00    1.43845   1.59186    0.000
 5750.00    1.42823   1.59227    0.000
 5751.00    1.42925   1.59244    0.000
 5752.00    1.43282   1.59118    0.000
 5753.00    1.43796   1.59116    0.000
 5754.00    1.44152   1.59043    0.000
 5755.00    1.44424   1.58870    0.000
 5756.00    1.45096   1.58842    0.000
 5757.00    1.45953   1.58721    0.000
 5758.00    1.46989   1.58545    0.000
 5759.00    1.48096   1.58523    0.000
 5760.00    1.48314   1.58403    0.000
 5761.00    1.48226   1.58264    0.000
 5762.00    1.47251   1.58269    0.000
 5763.00    1.46020   1.58182    0.000
 5764.00    1.44998   1.58093    0.000
 5765.00    1.44025   1.58118    0.000
 5766.00    1.44608   1.58061    0.000
 5767.00    1.45489   1.57999    0.000
 5768.00    1.47120   1.58014    0.000
 5769.00    1.48863   1.57962    0.000
 5770.00    1.49136   1.57895    0.000
 5771.00    1.49249   1.57868    0.000
 5772.00    1.48668   1.57808    0.000
 5773.00    1.48037   1.57725    0.000
 5774.00    1.48755   1.57652    0.000
 5775.00    1.49522   1.57602    0.000
 5776.00    1.48911   1.57532    0.000
 5777.00    1.48295   1.57449    0.000
 5778.00    1.47668   1.57462    0.000
 5779.00    1.47064   1.57467    0.000
 5780.00    1.46834   1.57434    0.000
 5781.00    1.46482   1.57569    0.000
 5782.00    1.44903   1.57709    0.000
 5783.00    1.43652   1.57780    0.000
 5784.00    1.44775   1.58064    0.000
 5785.00    1.45718   1.58366    0.000
 5786.00    1.45661   1.58557    0.000
 5787.00    1.45751   1.58964    0.000
 5788.00    1.46497   1.59402    0.000
 5789.00    1.46989   1.59683    0.000
 5790.00    1.46558   1.60138    0.000
 5791.00    1.45970   1.60645   -2.000
 5792.00    1.44902   1.60954   -2.000
 5793.00    1.43534   1.61363   -2.000
 5794.00    1.41388   1.61853   -2.000
 5795.00    1.39844   1.62113   -2.000
 5796.00    1.39644   1.62394   -2.000
 5797.00    1.40519   1.62783   -2.000
 5798.00    1.43472   1.62932   -2.000
 5799.00    1.45061   1.63036   -2.000
 5800.00    1.44350   1.63264   -2.000
 5801.00    1.43971   1.63261   -2.000
 5802.00    1.44083   1.63183   -2.000
 5803.00    1.45032   1.63227   -2.000
 5804.00    1.47067   1.63076   -2.000
 5805.00    1.48075   1.62851   -2.000
 5806.00    1.47907   1.62740   -2.000
 5807.00    1.47310   1.62487   -2.000
 5808.00    1.46280   1.62188   -2.000
 5809.00    1.46306   1.61991   -2.000
 5810.00    1.47274   1.61717   -2.000
 5811.00    1.47499   1.61428    0.000
 5812.00    1.47142   1.61234    0.000
 5813.00    1.47463   1.61021    0.000
 5814.00    1.48253   1.60815    0.000
 5815.00    1.49085   1.60692    0.000
 5816.00    1.49943   1.60593    0.000
 5817.00    1.49428   1.60504    0.000
 5818.00    1.48188   1.60479    0.000
 5819.00    1.47871   1.60501    0.000
 5820.00    1.47977   1.60515    0.000
 5821.00    1.49229   1.60571    0.000
 5822.00    1.50932   1.60681    0.000
 5823.00    1.51308   1.60755    0.000
 5824.00    1.51238   1.60848    0.000
 5825.00    1.50402   1.60995    0.000
 5826.00    1.49351   1.61077    0.000
 5827.00    1.49052   1.61155    0.000
 5828.00    1.48928   1.61290    0.000
 5829.00    1.47977   1.61338    0.000
 5830.00    1.46872   1.61357    0.000
 5831.00    1.47781   1.61441    0.000
 5832.00    1.48982   1.61427    0.000
 5833.00    1.47835   1.61354    0.000
 5834.00    1.46442   1.61353    0.000
 5835.00    1.46459   1.61254    0.000
 5836.00    1.46572   1.61064    0.000
 5837.00    1.47267   1.60948    0.000
 5838.00    1.47981   1.60746    0.000
 5839.00    1.48087   1.60422    0.000
 5840.00    1.48186   1.60173    0.000
 5841.00    1.48081   1.59862    0.000
 5842.00    1.47966   1.59411    0.000
 5843.00    1.47690   1.59041    0.000
 5844.00    1.47403   1.58647    0.000
 5845.00    1.47004   1.58114    0.000
 5846.00    1.46609   1.57670    0.000
 5847.00    1.46241   1.57256    0.000
 5848.00    1.45980   1.56711    0.000
 5849.00    1.46302   1.56262    0.000
 5850.00    1.46433   1.55897    0.000
 5851.00    1.45731   1.55409    0.000
 5852.00    1.44971   1.55007    0.000
 5853.00    1.44001   1.54735    0.000
 5854.00    1.43673   1.54337    0.000
 5855.00    1.45268   1.53992    0.000
 5856.00    1.45997   1.53804    0.000
 5857.00    1.44518   1.53475    0.000
 5858.00    1.43756   1.53156    0.000
 5859.00    1.44570   1.53000    0.000
 5860.00    1.45840   1.52685    0.000
 5861.00    1.47976   1.52343    0.000
 5862.00    1.49516   1.52150    0.000
 5863.00    1.50066   1.51798    0.000
 5864.00    1.50054   1.51403    0.000
 5865.00    1.49221   1.51127    0.000
 5866.00    1.49061   1.50724    0.000
 5867.00    1.49763   1.50286    0.000
 5868.00    1.49477   1.49923    0.000
 5869.00    1.48077   1.49498    0.000
 5870.00    1.47525   1.49067    0.000
 5871.00    1.47816   1.48641    0.000
 5872.00    1.47946   1.48237    0.000
 5873.00    1.47934   1.47852    0.000
 5874.00    1.47854   1.47394    0.000
 5875.00    1.47723   1.47005    0.000
 5876.00    1.48045   1.46663    0.000
 5877.00    1.48676   1.46184    0.000
 5878.00    1.49839   1.45755    0.000
 5879.00    1.51320   1.45405    0.000
 5880.00    1.51305   1.44918    0.000
 5881.00    1.50512   1.44392    0.000
 5882.00    1.49590   1.43990    0.000
 5883.00    1.48610   1.43547    0.000
 5884.00    1.47573   1.42947    0.000
 5885.00    1.46513   1.42519    0.000
 5886.00    1.45403   1.42228    0.000
 5887.00    1.44276   1.41676    0.000
 5888.00    1.43874   1.41312    0.000
 5889.00    1.43673   1.41285    0.000
 5890.00    1.43738   1.40944    0.000
 5891.00    1.43864   1.40749    0.000
 5892.00    1.44451   1.41032    0.000
 5893.00    1.45121   1.41002    0.000
 5894.00    1.45732   1.41024    0.000
 5895.00    1.46334   1.41556    0.000
 5896.00    1.45824   1.41825    0.000
 5897.00    1.45202   1.42036    0.000
 5898.00    1.45738   1.42677    0.000
 5899.00    1.46347   1.43132    0.000
 5900.00    1.45454   1.43453    0.000
 5901.00    1.44522   1.44055    0.060
 5902.00    1.45533   1.44545    0.060
 5903.00    1.46565   1.44891    0.060
 5904.00    1.48176   1.45359    0.060
 5905.00    1.49703   1.45764    0.060
 5906.00    1.50042   1.46080    0.060
 5907.00    1.50272   1.46390    0.060
 5908.00    1.49488   1.46655    0.060
 5909.00    1.48638   1.46925    0.060
 5910.00    1.47342   1.47108    0.060
 5911.00    1.46294   1.47242    0.059
 5912.00    1.46551   1.47473    0.060
 5913.00    1.46680   1.47586    0.060
 5914.00    1.46273   1.47630    0.060
 5915.00    1.46043   1.47843    0.060
 5916.00    1.46433   1.47937    0.060
 5917.00    1.46746   1.47942    0.060
 5918.00    1.46836   1.48152    0.060
 5919.00    1.46631   1.48262    0.060
 5920.00    1.45686   1.48266    0.059
 5921.00    1.45048   1.48481    0.058
 5922.00    1.45071   1.48625    0.058
 5923.00    1.45078   1.48648    0.058
 5924.00    1.45052   1.48865    0.058
 5925.00    1.45282   1.49051    0.058
 5926.00    1.45930   1.49097    0.058
 5927.00    1.46563   1.49305    0.058
 5928.00    1.47176   1.49532    0.058
 5929.00    1.47838   1.49594    0.058
 5930.00    1.48564   1.49774    0.058
 5931.00    1.49234   1.50034    0.058
 5932.00    1.49841   1.50103    0.059
 5933.00    1.49846   1.50233    0.059
 5934.00    1.49259   1.50505    0.059
 5935.00    1.49501   1.50571    0.059
 5936.00    1.50462   1.50636    0.059
 5937.00    1.50560   1.50886    0.059
 5938.00    1.49999   1.50938    0.059
 5939.00    1.49325   1.50934    0.059
 5940.00    1.48577   1.51131    0.059
 5941.00    1.48886   1.51150    0.059
 5942.00    1.49818   1.51089    0.059
 5943.00    1.50632   1.51222    0.059
 5944.00    1.51387   1.51199    0.060
 5945.00    1.50896   1.51105    0.060
 5946.00    1.49854   1.51198    0.060
 5947.00    1.48684   1.51149    0.059
 5948.00    1.47466   1.51051    0.059
 5949.00    1.47856   1.51150    0.058
 5950.00    1.48767   1.51123    0.058
 5951.00    1.48934   1.51053    0.058
 5952.00    1.48900   1.51202    0.058
 5953.00    1.48301   1.51252    0.058
 5954.00    1.47577   1.51235    0.058
 5955.00    1.47344   1.51445    0.058
 5956.00    1.47199   1.51601    0.057
 5957.00    1.48191   1.51643    0.057
 5958.00    1.49338   1.51885    0.058
 5959.00    1.50051   1.52133    0.057
 5960.00    1.50724   1.52214    0.057
 5961.00    1.50034   1.52434    0.058
 5962.00    1.49263   1.52719    0.058
 5963.00    1.48437   1.52805    0.058
 5964.00    1.47616   1.52949    0.057
 5965.00    1.47664   1.53212    0.058
 5966.00    1.47761   1.53274    0.058
 5967.00    1.49091   1.53314    0.058
 5968.00    1.50322   1.53521    0.058
 5969.00    1.50216   1.53554    0.058
 5970.00    1.50072   1.53504    0.058
 5971.00    1.49589   1.53658    0.058
 5972.00    1.49244   1.53696    0.059
 5973.00    1.49809   1.53603    0.059
 5974.00    1.50234   1.53742    0.059
 5975.00    1.49942   1.53838    0.059
 5976.00    1.49710   1.53768    0.059
 5977.00    1.49730   1.53931    0.059
 5978.00    1.49741   1.54129    0.059
 5979.00    1.49720   1.54139    0.058
 5980.00    1.49765   1.54345    0.058
 5981.00    1.49998   1.54649    0.058
 5982.00    1.49839   1.54760    0.058
 5983.00    1.48714   1.54998    0.058
 5984.00    1.48079   1.55361    0.058
 5985.00    1.48483   1.55549    0.058
 5986.00    1.48923   1.55785    0.058
 5987.00    1.49429   1.56129    0.058
 5988.00    1.49831   1.56331    0.058
 5989.00    1.50063   1.56531    0.058
 5990.00    1.50150   1.56787    0.057
 5991.00    1.50030   1.56929    0.057
 5992.00    1.50006   1.57072    0.056
 5993.00    1.50100   1.57219    0.057
 5994.00    1.50089   1.57257    0.057
 5995.00    1.49962   1.57337    0.058
 5996.00    1.49498   1.57405    0.058
 5997.00    1.48707   1.57350    0.058
 5998.00    1.48820   1.57377    0.058
 5999.00    1.49704   1.57423    0.058
 6000.00    1.49922   1.57334    0.058
 6001.00    1.49637   1.57332    0.058
 6002.00    1.49332   1.57401    0.058
 6003.00    1.49013   1.57349    0.058
 6004.00    1.48355   1.57352    0.058
 6005.00    1.47501   1.57462    0.059
 6006.00    1.46824   1.57491    0.059
 6007.00    1.46238   1.57534    0.058
 6008.00    1.47121   1.57683    0.058
 6009.00    1.48646   1.57799    0.058
 6010.00    1.49571   1.57909    0.058
 6011.00    1.50271   1.58095    0.058
 6012.00    1.50972   1.58276    0.058
 6013.00    1.51674   1.58460    0.059
 6014.00    1.51942   1.58688    0.058
 6015.00    1.52096   1.58911    0.058
 6016.00    1.51863   1.59150    0.058
 6017.00    1.51545   1.59427    0.058
 6018.00    1.51474   1.59681    0.058
 6019.00    1.51447   1.59942    0.058
 6020.00    1.51590   1.60258    0.058
 6021.00    1.51756   1.60538    0.058
 6022.00    1.51138   1.60792    0.058
 6023.00    1.50449   1.61123    0.057
 6024.00    1.50653   1.61423    0.057
 6025.00    1.50908   1.61652    0.057
 6026.00    1.51536   1.61974    0.057
 6027.00    1.52166   1.62283    0.058
 6028.00    1.52141   1.62488    0.058
 6029.00    1.52084   1.62794    0.058
 6030.00    1.51273   1.63104    0.058
 6031.00    1.50500   1.63291    0.058
 6032.00    1.50201   1.63588    0.058
 6033.00    1.49958   1.63899    0.058
 6034.00    1.50202   1.64071    0.058
 6035.00    1.50381   1.64362    0.058
 6036.00    1.50154   1.64675    0.058
 6037.00    1.49851   1.64824    0.058
 6038.00    1.49174   1.65095    0.057
 6039.00    1.48669   1.65401    0.057
 6040.00    1.48859   1.65507    0.057
 6041.00    1.48909   1.65722    0.057
 6042.00    1.48493   1.65997    0.057
 6043.00    1.48471   1.66043    0.057
 6044.00    1.49566   1.66165    0.057
 6045.00    1.50809   1.66377    0.057
 6046.00    1.52406   1.66362    0.057
 6047.00    1.53321   1.66372    0.057
 6048.00    1.52809   1.66506    0.057
 6049.00    1.52615   1.66458    0.057
 6050.00    1.52999   1.66378    0.057
 6051.00    1.53265   1.66442    0.057
 6052.00    1.53343   1.66408    0.057
 6053.00    1.52831   1.66294    0.057
 6054.00    1.51496   1.66322    0.057
 6055.00    1.50700   1.66357    0.057
 6056.00    1.50565   1.66284    0.057
 6057.00    1.50646   1.66314    0.057
 6058.00    1.50960   1.66446    0.058
 6059.00    1.51253   1.66482    0.058
 6060.00    1.51525   1.66541    0.058
 6061.00    1.51225   1.66750    0.058
 6062.00    1.50445   1.66919    0.058
 6063.00    1.50147   1.67015    0.058
 6064.00    1.50206   1.67229    0.058
 6065.00    1.50555   1.67496    0.058
 6066.00    1.51092   1.67616    0.058
 6067.00    1.51826   1.67753    0.058
 6068.00    1.52671   1.68029    0.058
 6069.00    1.53035   1.68149    0.058
 6070.00    1.53159   1.68158    0.058
 6071.00    1.52811   1.68354    0.058
 6072.00    1.52260   1.68447    0.057
 6073.00    1.52377   1.68337    0.057
 6074.00    1.52739   1.68415    0.057
 6075.00    1.53320   1.68470    0.057
 6076.00    1.53969   1.68297    0.057
 6077.00    1.53620   1.68288    0.057
 6078.00    1.53011   1.68318    0.057
 6079.00    1.53774   1.68151    0.059
 6080.00    1.54827   1.68129    0.063
 6081.00    1.55628   1.68155    0.064
 6082.00    1.56387   1.68035    0.065
 6083.00    1.56213   1.68068    0.064
 6084.00    1.55920   1.68111    0.064
 6085.00    1.55044   1.68038    0.061
 6086.00    1.54117   1.68167    0.058
 6087.00    1.54009   1.68232    0.057
 6088.00    1.53942   1.68154    0.057
 6089.00    1.53098   1.68361    0.057
 6090.00    1.52245   1.68478    0.057
 6091.00    1.51845   1.68373    0.058
 6092.00    1.51496   1.68592    0.059
 6093.00    1.52237   1.68741    0.058
 6094.00    1.52939   1.68611    0.058
 6095.00    1.53169   1.68803    0.058
 6096.00    1.53477   1.68965    0.058
 6097.00    1.54432   1.68832    0.058
 6098.00    1.55189   1.68986    0.058
 6099.00    1.54724   1.69160    0.058
 6100.00    1.54229   1.69065    0.058
 6101.00    1.53587   1.69172    0.058
 6102.00    1.53147   1.69342    0.058
 6103.00    1.53506   1.69316    0.058
 6104.00    1.53873   1.69380    0.057
 6105.00    1.54269   1.69520    0.057
 6106.00    1.54521   1.69556    0.057
 6107.00    1.54373   1.69556    0.057
 6108.00    1.54409   1.69641    0.057
 6109.00    1.54884   1.69732    0.057
 6110.00    1.55184   1.69657    0.057
 6111.00    1.55121   1.69642    0.057
 6112.00    1.55136   1.69768    0.056
 6113.00    1.55288   1.69642    0.056
 6114.00    1.55255   1.69508    0.056
 6115.00    1.54932   1.69657    0.056
 6116.00    1.55070   1.69544    0.056
 6117.00    1.55838   1.69304    0.057
 6118.00    1.56456   1.69476    0.057
 6119.00    1.56891   1.69454    0.058
 6120.00    1.56484   1.69138    0.058
 6121.00    1.55178   1.69303    0.058
 6122.00    1.54777   1.69399    0.058
 6123.00    1.55228   1.69053    0.058
 6124.00    1.55883   1.69199    0.058
 6125.00    1.56709   1.69395    0.059
 6126.00    1.56752   1.69057    0.059
 6127.00    1.56222   1.69168    0.058
 6128.00    1.55515   1.69445    0.058
 6129.00    1.54694   1.69150    0.058
 6130.00    1.53818   1.69180    0.057
 6131.00    1.52912   1.69470    0.056
 6132.00    1.52369   1.69282    0.056
 6133.00    1.52004   1.69269    0.056
 6134.00    1.51996   1.69496    0.057
 6135.00    1.52140   1.69384    0.057
 6136.00    1.52335   1.69341    0.057
 6137.00    1.52549   1.69448    0.057
 6138.00    1.53439   1.69332    0.057
 6139.00    1.54535   1.69231    0.057
 6140.00    1.55454   1.69162    0.058
 6141.00    1.56327   1.68957    0.058
 6142.00    1.56092   1.68725    0.058
 6143.00    1.55629   1.68387    0.057
 6144.00    1.55040   1.67960    0.057
 6145.00    1.54431   1.67545    0.057
 6146.00    1.55681   1.66934    0.057
 6147.00    1.57156   1.66172    0.058
 6148.00    1.56841   1.65526    0.058
 6149.00    1.56376   1.64705    0.057
 6150.00    1.55282   1.63632    0.057
 6151.00    1.54159   1.62754    0.057
 6152.00    1.53835   1.61842    0.057
 6153.00    1.53514   1.60622    0.058
 6154.00    1.52677   1.59582    0.057
 6155.00    1.51887   1.58670    0.057
 6156.00    1.52020   1.57513    0.058
 6157.00    1.52192   1.56444    0.058
 6158.00    1.52800   1.55627    0.058
 6159.00    1.53467   1.54733    0.059
 6160.00    1.54603   1.53846    0.059
 6161.00    1.55535   1.53203    0.059
 6162.00    1.55238   1.52641    0.058
 6163.00    1.54893   1.52062    0.058
 6164.00    1.54317   1.51648    0.057
 6165.00    1.53830   1.51388    0.057
 6166.00    1.53680   1.51147    0.057
 6167.00    1.53555   1.50969    0.057
 6168.00    1.53505   1.50888    0.057
 6169.00    1.53542   1.50883    0.056
 6170.00    1.53816   1.50899    0.057
 6171.00    1.54050   1.50866    0.057
 6172.00    1.54192   1.50927    0.057
 6173.00    1.54042   1.51039    0.058
 6174.00    1.53300   1.50969    0.058
 6175.00    1.52259   1.50924    0.058
 6176.00    1.50691   1.51012    0.058
 6177.00    1.49491   1.50889    0.058
 6178.00    1.48855   1.50662    0.058
 6179.00    1.48592   1.50611    0.057
 6180.00    1.48835   1.50452    0.058
 6181.00    1.48856   1.50107    0.058
 6182.00    1.48612   1.49905    0.058
 6183.00    1.49284   1.49752    0.058
 6184.00    1.50920   1.49403    0.058
 6185.00    1.52714   1.49115    0.059
 6186.00    1.54654   1.49019    0.059
 6187.00    1.55555   1.48780    0.059
 6188.00    1.55607   1.48522    0.058
 6189.00    1.55647   1.48514    0.058
 6190.00    1.55679   1.48445    0.058
 6191.00    1.55718   1.48315    0.058
 6192.00    1.55762   1.48391    0.057
 6193.00    1.54834   1.48470    0.057
 6194.00    1.53370   1.48500    0.057
 6195.00    1.51554   1.48623    0.058
 6196.00    1.49570   1.48756   -2.000
 6197.00    1.47404   1.48874   -2.000
 6198.00    1.45163   1.48977   -2.000
 6199.00    1.45466   1.49064   -2.000
 6200.00    1.46670   1.49177   -2.000
 6201.00    1.52076   1.49173   -2.000
 6202.00    1.58739   1.49108   -2.000
 6203.00    1.64069   1.49114   -2.000
 6204.00    1.69068   1.48970   -2.000
 6205.00    1.67380   1.48736   -2.000
 6206.00    1.64345   1.48577   -2.000
 6207.00    1.60637   1.48280   -2.000
 6208.00    1.56822   1.47910    0.060
 6209.00    1.56479   1.47627    0.060
 6210.00    1.56544   1.47241    0.059
 6211.00    1.56525   1.46770    0.059
 6212.00    1.56499   1.46399    0.058
 6213.00    1.56063   1.46031    0.058
 6214.00    1.55608   1.45547    0.058
 6215.00    1.55988   1.45124    0.057
 6216.00    1.56390   1.44834    0.057
 6217.00    1.57448   1.44455    0.057
 6218.00    1.58433   1.44043    0.057
 6219.00    1.58084   1.43851    0.057
 6220.00    1.57716   1.43629    0.057
 6221.00    1.57143   1.43258    0.056
 6222.00    1.56688   1.43135    0.056
 6223.00    1.57143   1.43107    0.056
 6224.00    1.57633   1.42849    0.056
 6225.00    1.58330   1.42768    0.057
 6226.00    1.58837   1.42907    0.057
 6227.00    1.58464   1.42774    0.058
 6228.00    1.58009   1.42677    0.058
 6229.00    1.57244   1.42936    0.059
 6230.00    1.56698   1.42945    0.059
 6231.00    1.56847   1.42767    0.059
 6232.00    1.57013   1.43098    0.059
 6233.00    1.57220   1.43323    0.059
 6234.00    1.57449   1.43079    0.059
 6235.00    1.57726   1.43367    0.059
 6236.00    1.58106   1.43784    0.058
 6237.00    1.58691   1.43575    0.058
 6238.00    1.59272   1.43783    0.058
 6239.00    1.59848   1.44308    0.058
 6240.00    1.59836   1.44189    0.058
 6241.00    1.58931   1.44307    0.058
 6242.00    1.58174   1.44864    0.057
 6243.00    1.57614   1.44855    0.057
 6244.00    1.57631   1.44892    0.057
 6245.00    1.58326   1.45433    0.057
 6246.00    1.58473   1.45530    0.057
 6247.00    1.58050   1.45520    0.056
 6248.00    1.57648   1.46012    0.057
 6249.00    1.57263   1.46136    0.057
 6250.00    1.57226   1.46088    0.057
 6251.00    1.57470   1.46626    0.057
 6252.00    1.57650   1.46834    0.057
 6253.00    1.57783   1.46740    0.058
 6254.00    1.58129   1.47268    0.058
 6255.00    1.58608   1.47616    0.058
 6256.00    1.58685   1.47496    0.058
 6257.00    1.58545   1.47920    0.059
 6258.00    1.58223   1.48437    0.060
 6259.00    1.57816   1.48388    0.061
 6260.00    1.58121   1.48647    0.064
 6261.00    1.58717   1.49266    0.067
 6262.00    1.60423   1.49369    0.069
 6263.00    1.62517   1.49513    0.071
 6264.00    1.63976   1.50103    0.070
 6265.00    1.65248   1.50313    0.069
 6266.00    1.65562   1.50400    0.066
 6267.00    1.65642   1.50902    0.063
 6268.00    1.64680   1.51207    0.061
 6269.00    1.63514   1.51322    0.059
 6270.00    1.62052   1.51712    0.058
 6271.00    1.60545   1.52054    0.057
 6272.00    1.60376   1.52228    0.056
 6273.00    1.60359   1.52529    0.056
 6274.00    1.60295   1.52888    0.056
 6275.00    1.60227   1.53178    0.057
 6276.00    1.58891   1.53437    0.056
 6277.00    1.57504   1.53758    0.056
 6278.00    1.57060   1.54127    0.056
 6279.00    1.56681   1.54431    0.056
 6280.00    1.58669   1.54703    0.000
 6281.00    1.60588   1.55019    0.000
 6282.00    1.61340   1.55369    0.000
 6283.00    1.61982   1.55609    0.000
 6284.00    1.61461   1.55785    0.000
 6285.00    1.61101   1.56157    0.000
 6286.00    1.61949   1.56418    0.000
 6287.00    1.62735   1.56432    0.000
 6288.00    1.63162   1.56735    0.000
 6289.00    1.63428   1.57048    0.000
 6290.00    1.62964   1.57029    0.000
 6291.00    1.62359   1.57261    0.000
 6292.00    1.61230   1.57604    0.000
 6293.00    1.60151   1.57616    0.000
 6294.00    1.59226   1.57784    0.000
 6295.00    1.58758   1.58213    0.000
 6296.00    1.59497   1.58323    0.000
 6297.00    1.60207   1.58396    0.000
 6298.00    1.60850   1.58929    0.000
 6299.00    1.61475   1.59218    0.000
 6300.00    1.62068   1.59230    0.000
 6301.00    1.62554   1.59794    0.000
 6302.00    1.62857   1.60232    0.000
 6303.00    1.62691   1.60228    0.000
 6304.00    1.61821   1.60749    0.000
 6305.00    1.61012   1.61286    0.000
 6306.00    1.60283   1.61286    0.000
 6307.00    1.60083   1.61720    0.000
 6308.00    1.60497   1.62344    0.000
 6309.00    1.61352   1.62315    0.000
 6310.00    1.62658   1.62574    0.000
 6311.00    1.63444   1.63293    0.000
 6312.00    1.63761   1.63341    0.000
 6313.00    1.63446   1.63367    0.000
 6314.00    1.62630   1.64073    0.000
 6315.00    1.62089   1.64326    0.000
 6316.00    1.61740   1.64216    0.000
 6317.00    1.61370   1.64778    0.000
 6318.00    1.60987   1.65190    0.000
 6319.00    1.62014   1.65083    0.000
 6320.00    1.63797   1.65499    0.000
 6321.00    1.64390   1.65980    0.057
 6322.00    1.64430   1.65979    0.057
 6323.00    1.63945   1.66254    0.057
 6324.00    1.63250   1.66690    0.057
 6325.00    1.62717   1.66844    0.057
 6326.00    1.62239   1.66970    0.057
 6327.00    1.61962   1.67263    0.056
 6328.00    1.61744   1.67574    0.056
 6329.00    1.62267   1.67636    0.056
 6330.00    1.62966   1.67723    0.056
 6331.00    1.63306   1.68034    0.056
 6332.00    1.63578   1.68170    0.057
 6333.00    1.63660   1.68139    0.057
 6334.00    1.63714   1.68276    0.058
 6335.00    1.62974   1.68447    0.057
 6336.00    1.62149   1.68357    0.057
 6337.00    1.62440   1.68297    0.058
 6338.00    1.62810   1.68473    0.058
 6339.00    1.63350   1.68331    0.058
 6340.00    1.63896   1.68164    0.058
 6341.00    1.63219   1.68352    0.058
 6342.00    1.62572   1.68162    0.058
 6343.00    1.63147   1.67880    0.058
 6344.00    1.63755   1.67988    0.058
 6345.00    1.64883   1.67859    0.057
 6346.00    1.65945   1.67482    0.057
 6347.00    1.66341   1.67465    0.057
 6348.00    1.66634   1.67406    0.057
 6349.00    1.66178   1.66968    0.057
 6350.00    1.65845   1.66852    0.057
 6351.00    1.66190   1.66902    0.057
 6352.00    1.66405   1.66536    0.057
 6353.00    1.66044   1.66346    0.057
 6354.00    1.65307   1.66516    0.057
 6355.00    1.63200   1.66400    0.057
 6356.00    1.61227   1.66277    0.057
 6357.00    1.59660   1.66491    0.057
 6358.00    1.58686   1.66643    0.057
 6359.00    1.59250   1.66675    0.057
 6360.00    1.60273   1.66976    0.057
 6361.00    1.62319   1.67344    0.058
 6362.00    1.64188   1.67563    0.059
 6363.00    1.65718   1.67943    0.059
 6364.00    1.66594   1.68441    0.059
 6365.00    1.66369   1.68799    0.059
 6366.00    1.66043   1.69110    0.059
 6367.00    1.65568   1.69656    0.059
 6368.00    1.65216   1.70152    0.058
 6369.00    1.65025   1.70338    0.059
 6370.00    1.65129   1.70702    0.059
 6371.00    1.65573   1.71217    0.058
 6372.00    1.65685   1.71338    0.058
 6373.00    1.65462   1.71442    0.057
 6374.00    1.65185   1.71857    0.057
 6375.00    1.64861   1.71970    0.057
 6376.00    1.64506   1.71908    0.057
 6377.00    1.64126   1.72184    0.057
 6378.00    1.63869   1.72307    0.057
 6379.00    1.63696   1.72122    0.057
 6380.00    1.64063   1.72270    0.057
 6381.00    1.64756   1.72460    0.057
 6382.00    1.65454   1.72338    0.057
 6383.00    1.66154   1.72390    0.057
 6384.00    1.65889   1.72552    0.058
 6385.00    1.65182   1.72604    0.058
 6386.00    1.64559   1.72745    0.058
 6387.00    1.63969   1.72842    0.058
 6388.00    1.63368   1.72936    0.058
 6389.00    1.62762   1.73299    0.057
 6390.00    1.61820   1.73545    0.057
 6391.00    1.60783   1.73594    0.057
 6392.00    1.60398   1.73998    0.057
 6393.00    1.60164   1.74436    0.058
 6394.00    1.61951   1.74405    0.058
 6395.00    1.64115   1.74733    0.058
 6396.00    1.66211   1.75392    0.059
 6397.00    1.68298   1.75482    0.060
 6398.00    1.67886   1.75660    0.059
 6399.00    1.67215   1.76202    0.059
 6400.00    1.67203   1.76437    0.058
 6401.00    1.67236   1.76500    0.058
 6402.00    1.67096   1.76758    0.058
 6403.00    1.66950   1.77099    0.058
 6404.00    1.67491   1.77190    0.058
 6405.00    1.68021   1.77164    0.057
 6406.00    1.68193   1.77352    0.058
 6407.00    1.68304   1.77450    0.058
 6408.00    1.67509   1.77354    0.058
 6409.00    1.66690   1.77358    0.058
 6410.00    1.65644   1.77520    0.058
 6411.00    1.64674   1.77476    0.058
 6412.00    1.64233   1.77170    0.058
 6413.00    1.63861   1.77281    0.058
 6414.00    1.63864   1.77427    0.058
 6415.00    1.64055   1.77012    0.058
 6416.00    1.65059   1.76991    0.058
 6417.00    1.66041   1.77398    0.058
 6418.00    1.66942   1.77186    0.058
 6419.00    1.67640   1.76949    0.058
 6420.00    1.67729   1.77344    0.058
 6421.00    1.67628   1.77458    0.059
 6422.00    1.67043   1.77191    0.058
 6423.00    1.66680   1.77499    0.057
 6424.00    1.66806   1.77841    0.057
 6425.00    1.67437   1.77594    0.057
 6426.00    1.69030   1.77767    0.058
 6427.00    1.70029   1.78394    0.058
 6428.00    1.70044   1.78463    0.059
 6429.00    1.69667   1.78395    0.059
 6430.00    1.68720   1.78900    0.059
 6431.00    1.68206   1.79363    0.059
 6432.00    1.68243   1.79311    0.059
 6433.00    1.68048   1.79438    0.059
 6434.00    1.67589   1.79985    0.059
 6435.00    1.66942   1.80234    0.058
 6436.00    1.66107   1.80226    0.058
 6437.00    1.65490   1.80591    0.058
 6438.00    1.65063   1.80970    0.058
 6439.00    1.64682   1.80917    0.058
 6440.00    1.64337   1.80989    0.059
 6441.00    1.64106   1.81408    0.059
 6442.00    1.63953   1.81490    0.058
 6443.00    1.63640   1.81218    0.057
 6444.00    1.63231   1.81386    0.057
 6445.00    1.63060   1.81789    0.057
 6446.00    1.63011   1.81609    0.058
 6447.00    1.62189   1.81590    0.058
 6448.00    1.61020   1.82125    0.058
 6449.00    1.59739   1.82115    0.058
 6450.00    1.58415   1.81892    0.059
 6451.00    1.56667   1.82353    0.058
 6452.00    1.54779   1.82694    0.058
 6453.00    1.50307   1.82486    0.057
 6454.00    1.45122   1.82692    0.055
 6455.00    1.37889   1.83265    0.055
 6456.00    1.30192   1.83101    0.055
 6457.00    1.27127   1.83004    0.054
 6458.00    1.24903   1.83669    0.054
 6459.00    1.28523   1.83783    0.055
 6460.00    1.32956   1.83552    0.055
 6461.00    1.38880   1.83932    0.056
 6462.00    1.44952   1.84114    0.056
 6463.00    1.48943   1.83845    0.057
 6464.00    1.52803   1.83894    0.058
 6465.00    1.55124   1.83973    0.057
 6466.00    1.57403   1.83627    0.057
 6467.00    1.60259   1.83478    0.057
 6468.00    1.63098   1.83408    0.057
 6469.00    1.65456   1.82920    0.057
 6470.00    1.67612   1.82656    0.057
 6471.00    1.66897   1.82589    0.058
 6472.00    1.66250   1.82051    0.058
 6473.00    1.66219   1.81552    0.058
 6474.00    1.66432   1.81359    0.058
 6475.00    1.68288   1.80788    0.058
 6476.00    1.69951   1.80102    0.059
 6477.00    1.70595   1.79812    0.059
 6478.00    1.70887   1.79354    0.060
 6479.00    1.69689   1.78614    0.060
 6480.00    1.68727   1.78236    0.060
 6481.00    1.68588   1.77894    0.059
 6482.00    1.68576   1.77264    0.059
 6483.00    1.68936   1.76796    0.058
 6484.00    1.69173   1.76415    0.058
 6485.00    1.69103   1.75889    0.058
 6486.00    1.69021   1.75494    0.058
 6487.00    1.68914   1.75182    0.058
 6488.00    1.68964   1.74705    0.058
 6489.00    1.69309   1.74355    0.058
 6490.00    1.69513   1.74241    0.059
 6491.00    1.69489   1.73994    0.059
 6492.00    1.69215   1.73821    0.059
 6493.00    1.68582   1.73859    0.058
 6494.00    1.67979   1.73880    0.058
 6495.00    1.67415   1.73907    0.058
 6496.00    1.67033   1.74102    0.058
 6497.00    1.66854   1.74414    0.058
 6498.00    1.67109   1.74579    0.058
 6499.00    1.67789   1.74792    0.058
 6500.00    1.68342   1.75305    0.059
 6501.00    1.68787   1.75738    0.059
 6502.00    1.69449   1.75966    0.060
 6503.00    1.70276   1.76370    0.059
 6504.00    1.71319   1.77005    0.059
 6505.00    1.72508   1.77428    0.059
 6506.00    1.73066   1.77680    0.059
 6507.00    1.73255   1.78218    0.059
 6508.00    1.73349   1.78722    0.059
 6509.00    1.73394   1.78903    0.059
 6510.00    1.73017   1.79283    0.059
 6511.00    1.72453   1.79814    0.059
 6512.00    1.71520   1.80011    0.058
 6513.00    1.70448   1.80245    0.058
 6514.00    1.70103   1.80761    0.058
 6515.00    1.69993   1.81130    0.058
 6516.00    1.69682   1.81327    0.058
 6517.00    1.69317   1.81673    0.058
 6518.00    1.69214   1.82099    0.057
 6519.00    1.69168   1.82384    0.057
 6520.00    1.69627   1.82679    0.057
 6521.00    1.70175   1.83021    0.058
 6522.00    1.70127   1.83316    0.058
 6523.00    1.69998   1.83670    0.058
 6524.00    1.70065   1.83990    0.058
 6525.00    1.70150   1.84234    0.059
 6526.00    1.70267   1.84508    0.059
 6527.00    1.70386   1.84721    0.059
 6528.00    1.70953   1.84879    0.000
 6529.00    1.71530   1.85072    0.000
 6530.00    1.71875   1.85193    0.000
 6531.00    1.72231   1.85150    0.000
 6532.00    1.72877   1.85119    0.000
 6533.00    1.73403   1.85125    0.000
 6534.00    1.72321   1.84950    0.000
 6535.00    1.71398   1.84672    0.000
 6536.00    1.71890   1.84386    0.000
 6537.00    1.72407   1.83931    0.000
 6538.00    1.73079   1.83415    0.000
 6539.00    1.73531   1.82914    0.000
 6540.00    1.72859   1.82191    0.000
 6541.00    1.72230   1.81407    0.000
 6542.00    1.71781   1.80713    0.000
 6543.00    1.71534   1.79792    0.000
 6544.00    1.71981   1.78826    0.000
 6545.00    1.72694   1.77917    0.000
 6546.00    1.74178   1.76711    0.000
 6547.00    1.75631   1.75493    0.000
 6548.00    1.77009   1.74576    0.000
 6549.00    1.77681   1.73369    0.000
 6550.00    1.76858   1.71867    0.000
 6551.00    1.75944   1.71058    0.000
 6552.00    1.74863   1.70273    0.000
 6553.00    1.73882   1.68690    0.000
 6554.00    1.73061   1.67869    0.000
 6555.00    1.72679   1.67637    0.000
 6556.00    1.72917   1.66211    0.000
 6557.00    1.72845   1.65005    0.000
 6558.00    1.72386   1.65490    0.000
 6559.00    1.72576   1.65348    0.000
 6560.00    1.73477   1.64162    0.000
 6561.00    1.74029   1.64696    0.000
 6562.00    1.74243   1.65739    0.000
 6563.00    1.74473   1.65179    0.000
 6564.00    1.74716   1.65423    0.000
 6565.00    1.74568   1.66989    0.000
 6566.00    1.74128   1.67245    0.000
 6567.00    1.73894   1.67163    0.000
 6568.00    1.73796   1.68702    0.000
 6569.00    1.73312   1.70074    0.000
 6570.00    1.72606   1.70304    0.000
 6571.00    1.71937   1.71269    0.000
 6572.00    1.71287   1.72762    0.000
 6573.00    1.71635   1.73290    0.000
 6574.00    1.72418   1.73989    0.000
 6575.00    1.72964   1.75174    0.000
 6576.00    1.73421   1.75807    0.000
 6577.00    1.75034   1.76391    0.000
 6578.00    1.77012   1.77216    0.000
 6579.00    1.78183   1.77989    0.000
 6580.00    1.79140   1.78432    0.000
 6581.00    1.79916   1.79002    0.000
 6582.00    1.80652   1.79694    0.000
 6583.00    1.81109   1.79919    0.000
 6584.00    1.81517   1.80366    0.000
 6585.00    1.80739   1.80866    0.000
 6586.00    1.79806   1.80948    0.000
 6587.00    1.79001   1.81154    0.000
 6588.00    1.78207   1.81508    0.000
 6589.00    1.77995   1.81734    0.000
 6590.00    1.77816   1.81690    0.000
 6591.00    1.77680   1.81912    0.000
 6592.00    1.77542   1.82154    0.000
 6593.00    1.77077   1.81962    0.000
 6594.00    1.76629   1.82094    0.000
 6595.00    1.76575   1.82384    0.000
 6596.00    1.76416   1.82156    0.000
 6597.00    1.74938   1.82073    0.000
 6598.00    1.73469   1.82407    0.000
 6599.00    1.72080   1.82429    0.000
 6600.00    1.70901   1.82199    0.000
 6601.00    1.71051   1.82413    0.000
 6602.00    1.71422   1.82601    0.000
 6603.00    1.72893   1.82267    0.000
 6604.00    1.74177   1.82307    0.000
 6605.00    1.74701   1.82715    0.000
 6606.00    1.75104   1.82571    0.000
 6607.00    1.75103   1.82356    0.000
 6608.00    1.74993   1.82592    0.000
 6609.00    1.74572   1.82710    0.060
 6610.00    1.74209   1.82467    0.059
 6611.00    1.73984   1.82426    0.059
 6612.00    1.73889   1.82556    0.059
 6613.00    1.74067   1.82369    0.059
 6614.00    1.74418   1.82215    0.060
 6615.00    1.75079   1.82286    0.060
 6616.00    1.75922   1.82195    0.060
 6617.00    1.77051   1.81956    0.061
 6618.00    1.77953   1.81794    0.061
 6619.00    1.78539   1.81679    0.061
 6620.00    1.78104   1.81492    0.062
 6621.00    1.76421   1.81321    0.061
 6622.00    1.75754   1.81153    0.061
 6623.00    1.76184   1.80948    0.061
 6624.00    1.76618   1.80802    0.061
 6625.00    1.77055   1.80746    0.061
 6626.00    1.76582   1.80608    0.061
 6627.00    1.75346   1.80365    0.061
 6628.00    1.73974   1.80282    0.061
 6629.00    1.72501   1.80262    0.061
 6630.00    1.72548   1.80066    0.061
 6631.00    1.73582   1.79908    0.060
 6632.00    1.74726   1.79998    0.060
 6633.00    1.75932   1.79941    0.061
 6634.00    1.76281   1.79609    0.061
 6635.00    1.76206   1.79584    0.061
 6636.00    1.76282   1.79701    0.061
 6637.00    1.76423   1.79340    0.060
 6638.00    1.75678   1.78967    0.060
 6639.00    1.74609   1.79028    0.060
 6640.00    1.74831   1.78881    0.061
 6641.00    1.75453   1.78354    0.062
 6642.00    1.75637   1.78176    0.062
 6643.00    1.75708   1.78141    0.062
 6644.00    1.75303   1.77634    0.061
 6645.00    1.74798   1.77149    0.061
 6646.00    1.74708   1.77043    0.062
 6647.00    1.74688   1.76736    0.062
 6648.00    1.75546   1.76182    0.062
 6649.00    1.76513   1.75941    0.062
 6650.00    1.77159   1.75780    0.062
 6651.00    1.77776   1.75406    0.062
 6652.00    1.78044   1.75174    0.062
 6653.00    1.78295   1.75027    0.062
 6654.00    1.77958   1.74754    0.061
 6655.00    1.77611   1.74590    0.061
 6656.00    1.77236   1.74548    0.061
 6657.00    1.76898   1.74356    0.061
 6658.00    1.77352   1.74271    0.061
 6659.00    1.77829   1.74459    0.061
 6660.00    1.78576   1.74339    0.062
 6661.00    1.79158   1.74056    0.062
 6662.00    1.78382   1.74267    0.062
 6663.00    1.77609   1.74427    0.062
 6664.00    1.76854   1.73993    0.062
 6665.00    1.76247   1.73816    0.062
 6666.00    1.76353   1.74096    0.063
 6667.00    1.76582   1.73936    0.063
 6668.00    1.77294   1.73379    0.063
 6669.00    1.77595   1.73380    0.063
 6670.00    1.76548   1.73494    0.063
 6671.00    1.75803   1.72812    0.062
 6672.00    1.75894   1.72321    0.062
 6673.00    1.75488   1.72474    0.062
 6674.00    1.73903   1.72209    0.062
 6675.00    1.73234   1.71428    0.062
 6676.00    1.74443   1.71209    0.062
 6677.00    1.75393   1.71440    0.062
 6678.00    1.75878   1.70906    0.062
 6679.00    1.76219   1.70379    0.062
 6680.00    1.76335   1.70620    0.062
 6681.00    1.76635   1.70536    0.062
 6682.00    1.77188   1.70022    0.063
 6683.00    1.77681   1.69991    0.063
 6684.00    1.78104   1.70430    0.063
 6685.00    1.78118   1.70323    0.063
 6686.00    1.77695   1.70084    0.063
 6687.00    1.77273   1.70454    0.063
 6688.00    1.76853   1.70725    0.063
 6689.00    1.76979   1.70677    0.063
 6690.00    1.77556   1.70798    0.063
 6691.00    1.77722   1.71133    0.063
 6692.00    1.77588   1.71300    0.064
 6693.00    1.77100   1.71357    0.064
 6694.00    1.76384   1.71586    0.064
 6695.00    1.76556   1.71830    0.063
 6696.00    1.77224   1.71931    0.000
 6697.00    1.77003   1.71960    0.000
 6698.00    1.76349   1.72032    0.000
 6699.00    1.75807   1.72159    0.000
 6700.00    1.75313   1.72098    0.000
 6701.00    1.76256   1.71896    0.000
 6702.00    1.77717   1.71835    0.000
 6703.00    1.78615   1.71788    0.000
 6704.00    1.79342   1.71453    0.000
 6705.00    1.78821   1.71062    0.000
 6706.00    1.77985   1.70950    0.000
 6707.00    1.78197   1.70628    0.000
 6708.00    1.78625   1.69990    0.000
 6709.00    1.78818   1.69629    0.000
 6710.00    1.78973   1.69432    0.000
 6711.00    1.80056   1.68868    0.000
 6712.00    1.81251   1.68246    0.000
 6713.00    1.81017   1.68076    0.000
 6714.00    1.80663   1.67788    0.000
 6715.00    1.80538   1.67210    0.000
 6716.00    1.80424   1.66974    0.000
 6717.00    1.80102   1.66960    0.000
 6718.00    1.79798   1.66686    0.000
 6719.00    1.80612   1.66334    0.000
 6720.00    1.81370   1.66396    0.000
 6721.00    1.81021   1.66503    0.000
 6722.00    1.80759   1.66346    0.000
 6723.00    1.81496   1.66385    0.000
 6724.00    1.82064   1.66658    0.000
 6725.00    1.81284   1.66803    0.000
 6726.00    1.80587   1.66758    0.000
 6727.00    1.80385   1.66959    0.000
 6728.00    1.80244   1.67305    0.000
 6729.00    1.80396   1.67336    0.000
 6730.00    1.80493   1.67362    0.000
 6731.00    1.80378   1.67699    0.000
 6732.00    1.80633   1.67901    0.000
 6733.00    1.82080   1.67776    0.000
 6734.00    1.82538   1.67903    0.000
 6735.00    1.80295   1.68201    0.000
 6736.00    1.78516   1.68080    0.000
 6737.00    1.77823   1.67940    0.000
 6738.00    1.77716   1.68239    0.000
 6739.00    1.78792   1.68281    0.000
 6740.00    1.79737   1.67970    0.000
 6741.00    1.80453   1.68110    0.000
 6742.00    1.80691   1.68341    0.000
 6743.00    1.80194   1.68094    0.000
 6744.00    1.79898   1.68031    0.000
 6745.00    1.79874   1.68388    0.000
 6746.00    1.79759   1.68376    0.000
 6747.00    1.79535   1.68212    0.000
 6748.00    1.79303   1.68607    0.000
 6749.00    1.79062   1.68881    0.000
 6750.00    1.78123   1.68773    0.000
 6751.00    1.76538   1.69075    0.000
 6752.00    1.75330   1.69558    0.000
 6753.00    1.74430   1.69642    0.069
 6754.00    1.73953   1.69854    0.070
 6755.00    1.73780   1.70490    0.071
 6756.00    1.72341   1.70791    0.071
 6757.00    1.70102   1.70847    0.071
 6758.00    1.71554   1.71376    0.072
 6759.00    1.75040   1.71929    0.073
 6760.00    1.82729   1.72077    0.075
 6761.00    1.92432   1.72354    0.077
 6762.00    2.00878   1.72923    0.078
 6763.00    2.08803   1.73202    0.079
 6764.00    2.10000   1.73245    0.079
 6765.00    2.08818   1.73581    0.078
 6766.00    2.10219   1.73967    0.077
 6767.00    2.12390   1.74045    0.077
 6768.00    2.10446   1.74045    0.076
 6769.00    2.07481   1.74240    0.076
 6770.00    2.03683   1.74357    0.074
 6771.00    1.99716   1.74187    0.072
 6772.00    1.95101   1.74062    0.072
 6773.00    1.90385   1.74072    0.072
 6774.00    1.89077   1.73962    0.071
 6775.00    1.88166   1.73636    0.069
 6776.00    1.84502   1.73382    0.070
 6777.00    1.80621   1.73267    0.070
 6778.00    1.82985   1.72999    0.071
 6779.00    1.85620   1.72612    0.071
 6780.00    1.86772   1.72336    0.072
 6781.00    1.87921   1.72198    0.072
 6782.00    1.89651   1.71981    0.073
 6783.00    1.91404   1.71732    0.073
 6784.00    1.93582   1.71651    0.073
 6785.00    1.95555   1.71655    0.072
 6786.00    1.95278   1.71575    0.073
 6787.00    1.94753   1.71476    0.073
 6788.00    1.92328   1.71597    0.073
 6789.00    1.90352   1.71815    0.073
 6790.00    1.90987   1.71962    0.074
 6791.00    1.91385   1.72138    0.074
 6792.00    1.90684   1.72483    0.074
 6793.00    1.90486   1.72813    0.074
 6794.00    1.92190   1.73013    0.072
 6795.00    1.93253   1.73338    0.072
 6796.00    1.92295   1.73751    0.072
 6797.00    1.91652   1.74099    0.072
 6798.00    1.91854   1.74374    0.072
 6799.00    1.90847   1.74755    0.071
 6800.00    1.87058   1.75140    0.070
 6801.00    1.84454   1.75380    0.070
 6802.00    1.84205   1.75644    0.070
 6803.00    1.84002   1.75942    0.070
 6804.00    1.83880   1.76225    0.070
 6805.00    1.84192   1.76401    0.070
 6806.00    1.85164   1.76614    0.070
 6807.00    1.85279   1.76893    0.069
 6808.00    1.84253   1.77070    0.069
 6809.00    1.83844   1.77189    0.069
 6810.00    1.84159   1.77358    0.071
 6811.00    1.83814   1.77588    0.072
 6812.00    1.82786   1.77696    0.073
 6813.00    1.84746   1.77814    0.074
 6814.00    1.89435   1.78075    0.075
 6815.00    1.90511   1.78269    0.075
 6816.00    1.88679   1.78387    0.074
 6817.00    1.88785   1.78571    0.073
 6818.00    1.90262   1.78806    0.072
 6819.00    1.91604   1.78947    0.072
 6820.00    1.92862   1.79136    0.071
 6821.00    1.93174   1.79464    0.070
 6822.00    1.92972   1.79654    0.070
 6823.00    1.91641   1.79810    0.070
 6824.00    1.89777   1.80119    0.070
 6825.00    1.88816   1.80367    0.069
 6826.00    1.88222   1.80483    0.069
 6827.00    1.87591   1.80738    0.069
 6828.00    1.86946   1.81139    0.070
 6829.00    1.88970   1.81252    0.071
 6830.00    1.91775   1.81318    0.073
 6831.00    1.91057   1.81697    0.072
 6832.00    1.89487   1.81923    0.072
 6833.00    1.88037   1.81906    0.072
 6834.00    1.86612   1.82113    0.072
 6835.00    1.88320   1.82457    0.073
 6836.00    1.90505   1.82405    0.073
 6837.00    1.88700   1.82304    0.074
 6838.00    1.86446   1.82589    0.075
 6839.00    1.88947   1.82664    0.075
 6840.00    1.91803   1.82447    0.075
 6841.00    1.91474   1.82512    0.074
 6842.00    1.91019   1.82681    0.073
 6843.00    1.88744   1.82459    0.072
 6844.00    1.86536   1.82195    0.070
 6845.00    1.87508   1.82285    0.069
 6846.00    1.88406   1.82259    0.068
 6847.00    1.88062   1.81975    0.069
 6848.00    1.87852   1.81875    0.070
 6849.00    1.89055   1.81938    0.070
 6850.00    1.90229   1.81822    0.071
 6851.00    1.91185   1.81548    0.071
 6852.00    1.91587   1.81478    0.071
 6853.00    1.88851   1.81636    0.071
 6854.00    1.86417   1.81611    0.071
 6855.00    1.85348   1.81429    0.072
 6856.00    1.84870   1.81548    0.072
 6857.00    1.86580   1.81815    0.072
 6858.00    1.87397   1.81677    0.072
 6859.00    1.85452   1.81579    0.073
 6860.00    1.83877   1.82068    0.072
 6861.00    1.83279   1.82388    0.071
 6862.00    1.83085   1.82213    0.070
 6863.00    1.83807   1.82465    0.070
 6864.00    1.84485   1.83047    0.070
 6865.00    1.85074   1.83056    0.071
 6866.00    1.84612   1.83039    0.071
 6867.00    1.82356   1.83695    0.071
 6868.00    1.81464   1.84192    0.071
 6869.00    1.82611   1.84116    0.071
 6870.00    1.83405   1.84445    0.071
 6871.00    1.83735   1.85095    0.072
 6872.00    1.84261   1.85252    0.072
 6873.00    1.85010   1.85336    0.071
 6874.00    1.85028   1.85914    0.071
 6875.00    1.84298   1.86453    0.071
 6876.00    1.82813   1.86522    0.072
 6877.00    1.80651   1.86839    0.072
 6878.00    1.81258   1.87424    0.072
 6879.00    1.84062   1.87678    0.072
 6880.00    1.85366   1.87820    0.072
 6881.00    1.85624   1.88316    0.072
 6882.00    1.85524   1.88855    0.072
 6883.00    1.85205   1.88972    0.071
 6884.00    1.84788   1.89286    0.071
 6885.00    1.84319   1.89918    0.070
 6886.00    1.83987   1.90199    0.070
 6887.00    1.83720   1.90295    0.070
 6888.00    1.82837   1.90843    0.070
 6889.00    1.81708   1.91466    0.069
 6890.00    1.81722   1.91517    0.070
 6891.00    1.82126   1.91733    0.070
 6892.00    1.82329   1.92522    0.071
 6893.00    1.82474   1.92920    0.071
 6894.00    1.81109   1.92835    0.071
 6895.00    1.79385   1.93286    0.071
 6896.00    1.81904   1.94082    0.072
 6897.00    1.85231   1.94166    0.073
 6898.00    1.85655   1.94125    0.073
 6899.00    1.85651   1.94863    0.073
 6900.00    1.85963   1.95457    0.073
 6901.00    1.86311   1.95291    0.073
 6902.00    1.85277   1.95394    0.073
 6903.00    1.84146   1.96129    0.072
 6904.00    1.84635   1.96370    0.072
 6905.00    1.85183   1.96185    0.072
 6906.00    1.85472   1.96551    0.071
 6907.00    1.85697   1.97061    0.071
 6908.00    1.83738   1.96989    0.071
 6909.00    1.81860   1.96804    0.071
 6910.00    1.81268   1.97162    0.070
 6911.00    1.80758   1.97438    0.070
 6912.00    1.81069   1.97319    0.071
 6913.00    1.81343   1.97335    0.071
 6914.00    1.81349   1.97555    0.071
 6915.00    1.81823   1.97607    0.072
 6916.00    1.84878   1.97382    0.072
 6917.00    1.87449   1.97499    0.072
 6918.00    1.87887   1.97800    0.072
 6919.00    1.88018   1.97830    0.072
 6920.00    1.87035   1.97770    0.072
 6921.00    1.86478   1.97926    0.073
 6922.00    1.87215   1.98157    0.073
 6923.00    1.87722   1.98074    0.072
 6924.00    1.87634   1.98253    0.072
 6925.00    1.87669   1.98690    0.072
 6926.00    1.87979   1.98912    0.072
 6927.00    1.87274   1.98956    0.072
 6928.00    1.84614   1.99205    0.072
 6929.00    1.82786   1.99618    0.072
 6930.00    1.82355   1.99798    0.072
 6931.00    1.82768   2.00091    0.072
 6932.00    1.84425   2.00522    0.073
 6933.00    1.85089   2.00916    0.073
 6934.00    1.84468   2.01140    0.073
 6935.00    1.84022   2.01342    0.073
 6936.00    1.83774   2.01743    0.073
 6937.00    1.83338   2.02194    0.074
 6938.00    1.82712   2.02539    0.074
 6939.00    1.82699   2.02777    0.074
 6940.00    1.83230   2.03199    0.074
 6941.00    1.82947   2.03565    0.074
 6942.00    1.82028   2.03703    0.073
 6943.00    1.82374   2.03974    0.073
 6944.00    1.83592   2.04463    0.073
 6945.00    1.84936   2.04832    0.073
 6946.00    1.86357   2.05049    0.073
 6947.00    1.87108   2.05427    0.073
 6948.00    1.87507   2.05777    0.073
 6949.00    1.85892   2.05984    0.073
 6950.00    1.83357   2.06312    0.072
 6951.00    1.84620   2.06760    0.073
 6952.00    1.87375   2.07082    0.073
 6953.00    1.86981   2.07433    0.074
 6954.00    1.85535   2.07886    0.074
 6955.00    1.85134   2.08178    0.074
 6956.00    1.85027   2.08420    0.073
 6957.00    1.84361   2.08837    0.073
 6958.00    1.83565   2.09320    0.074
 6959.00    1.84165   2.09576    0.074
 6960.00    1.85025   2.09859    0.073
 6961.00    1.84150   2.10227    0.073
 6962.00    1.83026   2.10454    0.073
 6963.00    1.84456   2.10690    0.073
 6964.00    1.86151   2.10942    0.073
 6965.00    1.85144   2.11221    0.073
 6966.00    1.83957   2.11435    0.072
 6967.00    1.72898   2.11618    0.071
 6968.00    1.61535   2.11617    0.070
 6969.00    2.04853   2.11616    0.076
 6970.00    2.46778   2.11981    0.083
 6971.00    2.45981   2.12162    0.083
 6972.00    2.45154   2.12081    0.083
 6973.00    2.43869   2.12210    0.083
 6974.00    2.42619   2.12510    0.082
 6975.00    2.41693   2.12427    0.083
 6976.00    2.40970   2.12266    0.084
 6977.00    2.41663   2.12677    0.084
 6978.00    2.42295   2.12987    0.083
 6979.00    2.42608   2.12830    0.083
 6980.00    2.43024   2.12820    0.083
 6981.00    2.43884   2.13171    0.083
 6982.00    2.43891   2.13344    0.083
 6983.00    2.40871   2.13242    0.082
 6984.00    2.39079   2.13439    0.082
 6985.00    2.40950   2.13736    0.082
 6986.00    2.42812   2.13717    0.082
 6987.00    2.44646   2.13606    0.081
 6988.00    2.45331   2.13886    0.081
 6989.00    2.43504   2.14207    0.081
 6990.00    2.42693   2.14124    0.082
 6991.00    2.43811   2.14114    0.082
 6992.00    2.43388   2.14463    0.083
 6993.00    2.40413   2.14672    0.083
 6994.00    2.39214   2.14457    0.084
 6995.00    2.40594   2.14646    0.084
 6996.00    2.41826   2.15136    0.085
 6997.00    2.42869   2.15132    0.085
 6998.00    2.42841   2.14954    0.085
 6999.00    2.41608   2.15432    0.084
 7000.00    2.40679   2.15970    0.084
 7001.00    2.40052   2.15698    0.084
 7002.00    2.40513   2.15656    0.084
 7003.00    2.41925   2.16362    0.084
 7004.00    2.42406   2.16740    0.084
 7005.00    2.42167   2.16426    0.084
 7006.00    2.40700   2.16598    0.083
 7007.00    2.38401   2.17321    0.082
 7008.00    2.37237   2.17460    0.082
 7009.00    2.36748   2.17298    0.082
 7010.00    2.37987   2.17726    0.082
 7011.00    2.40120   2.18407    0.083
 7012.00    2.40631   2.18417    0.083
 7013.00    2.40413   2.18152    0.083
 7014.00    2.39954   2.18557    0.084
 7015.00    2.39401   2.19304    0.085
 7016.00    2.37956   2.19475    0.085
 7017.00    2.36218   2.19302    0.086
 7018.00    2.36358   2.19751    0.086
 7019.00    2.37014   2.20414    0.086
 7020.00    2.38381   2.20343    0.086
 7021.00    2.39909   2.20216    0.085
 7022.00    2.42040   2.20954    0.085
 7023.00    2.44279   2.21641    0.084
 7024.00    2.43000   2.21368    0.084
 7025.00    2.41234   2.21370    0.084
 7026.00    2.39883   2.22330    0.084
 7027.00    2.38574   2.22807    0.084
 7028.00    2.39467   2.22432    0.084
 7029.00    2.40499   2.22758    0.085
 7030.00    2.42298   2.23687    0.085
 7031.00    2.44099   2.23720    0.085
 7032.00    2.40885   2.23456    0.087
 7033.00    2.37724   2.24120    0.088
 7034.00    2.36019   2.24675    0.087
 7035.00    2.34705   2.24109    0.086
 7036.00    2.38895   2.23847    0.087
 7037.00    2.42588   2.24400    0.088
 7038.00    2.41702   2.24322    0.088
 7039.00    2.41105   2.23571    0.088
 7040.00    2.42451   2.23197    0.088
 7041.00    2.43468   2.22858    0.088
 7042.00    2.42761   2.21868    0.087
 7043.00    2.42589   2.20863    0.086
 7044.00    2.44663   2.19984    0.086
 7045.00    2.46213   2.18713    0.085
 7046.00    2.45942   2.17349    0.085
 7047.00    2.44844   2.16019    0.086
 7048.00    2.41327   2.14403    0.086
 7049.00    2.39391   2.12694    0.087
 7050.00    2.41402   2.11248   -2.000
 7051.00    2.43506   2.09449   -2.000
 7052.00    2.45811   2.07218   -2.000
 7053.00    2.48512   2.05705   -2.000
 7054.00    2.51954   2.04675   -2.000
 7055.00    2.54958   2.03049   -2.000
 7056.00    2.57244   2.01264   -2.000
 7057.00    2.60776   2.00228   -2.000
 7058.00    2.66088   1.99278   -2.000
 7059.00    2.69164   1.97909   -2.000
 7060.00    2.69424   1.97059   -2.000
 7061.00    2.70773   1.96882   -2.000
 7062.00    2.73327   1.96329   -2.000
 7063.00    2.76773   1.95479   -2.000
 7064.00    2.81092   1.95352   -2.000
 7065.00    2.78603   1.95535   -2.000
 7066.00    2.70242   1.95227   -2.000
 7067.00    2.64944   1.94996   -2.000
 7068.00    2.61975   1.95325   -2.000
 7069.00    2.62470   1.95470   -2.000
 7070.00    2.65278   1.95113   -2.000
 7071.00    2.70104   1.95080   -2.000
 7072.00    2.76110   1.95406   -2.000
 7073.00    2.79883   1.95200   -2.000
 7074.00    2.82516   1.94543   -2.000
 7075.00    2.80286   1.94345   -2.000
 7076.00    2.75909   1.94365   -2.000
 7077.00    2.71143   1.93635   -2.000
 7078.00    2.66230   1.92670   -2.000
 7079.00    2.69620   1.92311   -2.000
 7080.00    2.75684   1.91817   -2.000
 7081.00    2.77564   1.90455   -2.000
 7082.00    2.78316   1.89380   -2.000
 7083.00    2.79527   1.89124   -2.000
 7084.00    2.80839   1.88253   -2.000
 7085.00    2.72547   1.86575   -2.000
 7086.00    2.62568   1.85666   -2.000
 7087.00    2.65487   1.85443   -2.000
 7088.00    2.70134   1.84532   -2.000
 7089.00    2.67967   1.83456   -2.000
 7090.00    2.65153   1.83034   -2.000
 7091.00    2.62997   1.82776   -2.000
 7092.00    2.60881   1.82008   -2.000
 7093.00    2.59598   1.81431   -2.000
 7094.00    2.58366   1.81535   -2.000
 7095.00    2.61305   1.81626   -2.000
 7096.00    2.63927   1.81365   -2.000
 7097.00    2.58674   1.81233   -2.000
 7098.00    2.53487   1.81586   -2.000
 7099.00    2.49180   1.81976   -2.000
 7100.00    2.44817   1.82004   -2.000
 7101.00    2.39963   1.82101   -2.000
 7102.00    2.36313   1.82769   -2.000
 7103.00    2.40534   1.83374   -2.000
 7104.00    2.44218   1.83356   -2.000
 7105.00    2.45162   1.83519   -2.000
 7106.00    2.45325   1.84336   -2.000
 7107.00    2.42272   1.84783   -2.000
 7108.00    2.40901   1.84416   -2.000
 7109.00    2.45263   1.84583   -2.000
 7110.00    2.48515   1.85406   -2.000
 7111.00    2.48578   1.85296   -2.000
 7112.00    2.48612   1.84471   -2.000
 7113.00    2.48576   1.84620   -2.000
 7114.00    2.48727   1.85127   -2.000
 7115.00    2.49277   1.84281   -2.000
 7116.00    2.50708   1.83219   -2.000
 7117.00    2.53758   1.83280   -2.000
 7118.00    2.57009   1.83063   -2.000
 7119.00    2.60582   1.81617   -2.000
 7120.00    2.65493   1.80734   -2.000
 7121.00    2.72292   1.80815   -2.000
 7122.00    2.76643   1.79868   -2.000
 7123.00    2.77958   1.78100   -2.000
 7124.00    2.75681   1.77454   -2.000
 7125.00    2.69475   1.77442   -2.000
 7126.00    2.66778   1.76471   -2.000
 7127.00    2.67466   1.75360   -2.000
 7128.00    2.71581   1.75066   -2.000
 7129.00    2.78611   1.74774   -2.000
 7130.00    2.79833   1.74020   -2.000
 7131.00    2.76706   1.73653   -2.000
 7132.00    2.71593   1.73814   -2.000
 7133.00    2.65175   1.73716   -2.000
 7134.00    2.60143   1.73438   -2.000
 7135.00    2.55910   1.73528   -2.000
 7136.00    2.55661   1.73882   -2.000
 7137.00    2.57411   1.74149   -2.000
 7138.00    2.64139   1.74409   -2.000
 7139.00    2.73028   1.74884   -2.000
 7140.00    2.71701   1.75397   -2.000
 7141.00    2.66569   1.75753   -2.000
 7142.00    2.63878   1.76220   -2.000
 7143.00    2.61959   1.76968   -2.000
 7144.00    2.61260   1.77575   -2.000
 7145.00    2.60882   1.77862   -2.000
 7146.00    2.57853   1.78408   -2.000
 7147.00    2.54252   1.79217   -2.000
 7148.00    2.56376   1.79696   -2.000
 7149.00    2.59479   1.80001   -2.000
 7150.00    2.55309   1.80703   -2.000
 7151.00    2.50197   1.81353   -2.000
 7152.00    2.54435   1.81529   -2.000
 7153.00    2.59522   1.81909   -2.000
 7154.00    2.58557   1.82713   -2.000
 7155.00    2.57260   1.83089   -2.000
 7156.00    2.59379   1.83086   -2.000
 7157.00    2.61516   1.83548   -2.000
 7158.00    2.58810   1.84192   -2.000
 7159.00    2.56500   1.84449   -2.000
 7160.00    2.63165   1.84731   -2.000
 7161.00    2.69640   1.85271   -2.000
 7162.00    2.73717   1.85565   -2.000
 7163.00    2.77975   1.85710   -2.000
 7164.00    2.83772   1.86298   -2.000
 7165.00    2.87894   1.86909   -2.000
 7166.00    2.81399   1.87029   -2.000
 7167.00    2.75931   1.87249   -2.000
 7168.00    2.75569   1.87908   -2.000
 7169.00    2.75045   1.88392   -2.000
 7170.00    2.73868   1.88615   -2.000
 7171.00    2.70956   1.89080   -2.000
 7172.00    2.62247   1.89624   -2.000
 7173.00    2.55291   1.89890   -2.000
 7174.00    2.53279   1.90092   -2.000
 7175.00    2.54695   1.90609   -2.000
 7176.00    2.64377   1.91127   -2.000
 7177.00    2.70427   1.91393   -2.000
 7178.00    2.68916   1.91588   -2.000
 7179.00    2.67630   1.91859   -2.000
 7180.00    2.66751   1.92236   -2.000
 7181.00    2.63719   1.92584   -2.000
 7182.00    2.57279   1.92819   -2.000
 7183.00    2.51310   1.92876   -2.000
 7184.00    2.45993   1.93010   -2.000
 7185.00    2.44201   1.93206   -2.000
 7186.00    2.46717   1.93316   -2.000
 7187.00    2.50574   1.93396   -2.000
 7188.00    2.55875   1.93583   -2.000
 7189.00    2.57545   1.93741   -2.000
 7190.00    2.55764   1.93632   -2.000
 7191.00    2.53951   1.93567   -2.000
 7192.00    2.52112   1.93775   -2.000
 7193.00    2.49302   1.94020   -2.000
 7194.00    2.45776   1.93850   -2.000
 7195.00    2.46761   1.93548   -2.000
 7196.00    2.50670   1.93774   -2.000
 7197.00    2.51180   1.94218   -2.000
 7198.00    2.49761   1.94203   -2.000
 7199.00    2.51875   1.93961   -2.000
 7200.00    2.55733   1.94285   -2.000
 7201.00    2.59794   1.94797   -2.000
 7202.00    2.63942   1.94817   -2.000
 7203.00    2.60559   1.94835   -2.000
 7204.00    2.54420   1.95460   -2.000
 7205.00    2.49358   1.95993   -2.000
 7206.00    2.44628   1.95947   -2.000
 7207.00    2.40560   1.96304   -2.000
 7208.00    2.36664   1.97341   -2.000
 7209.00    2.34912   1.97959   -2.000
 7210.00    2.33612   1.97990   -2.000
 7211.00    2.35056   1.98628   -2.000
 7212.00    2.36955   1.99721   -2.000
 7213.00    2.36129   2.00266   -2.000
 7214.00    2.34963   2.00567   -2.000
 7215.00    2.39347   2.01453   -2.000
 7216.00    2.44213   2.02420   -2.000
 7217.00    2.42998   2.02836   -2.000
 7218.00    2.41473   2.03335   -2.000
