###################################################################
## OUTPUT of StarlightChains_v04.for    [Cid@UFSC - 01/Apr/2007] ##
###################################################################

## Some input info
KUG0210-078._29_30.txt                   [arq_obs]
Base.CB07.vall.4m                        [arq_base]
Masks.EmLines.NEW.gm                     [arq_masks]
StCv04.C11.config                        [arq_config]
   66                                    [N_base]
    0                                    [N_YAV_components = # of components with extra extinction!]
    0                                    [i_FitPowerLaw (1/0 = Yes/No)]
-9.99                                    [alpha_PowerLaw]
CCM                                      [red_law_option]
 1.458241                                [q_norm = A(l_norm)/A(V)]

## (Re)Sampling Parameters
 3741.00                                 [l_ini (A)]
 7218.00                                 [l_fin (A)]
    1.00                                 [dl    (A)]     (OBS: dl_cushion =    50.00 A)

## Normalization info
 4020.00                                 [l_norm (A) - for base]
 4010.00                                 [llow_norm (A) - window for f_obs]
 4060.00                                 [lupp_norm (A) - window for f_obs]
4.472836E-17                             [fobs_norm (in input units)]

## S/N
 3691.00                                 [llow_SN (A) - window for S/N]
 7268.00                                 [lupp_SN (A) - window for S/N]
   6.427                                 [S/N in S/N window]
   6.967                                 [S/N in norm. window]
   0.058                                 [S/N_err in S/N window]
   0.062                                 [S/N_err in norm. window]
  1.0000                                 [fscale_chi2]

## etc...
    -2007406                             [idum_orig]
  2432                                   [NOl_eff]
  2270                                   [Nl_eff]
   162    NSIGMA                         [Ntot_cliped & clip_method]
 15649410                                [Nglobal_steps]
   7                                     [N_chains]
  41                                     [NEX0s_base = N_base in EX0s-fits]
 0   0   1      162   2.0   2.489E+04    [Clip-Bug, RC-Crash & Burn-In warning-flags, n_censored_weights, wei_nsig_threshold & wei_limit]
   111    110.666    109.957      0.709  [idt_all, wdt_TotTime, wdt_UsrTime & wdt_SysTime (sec)]

## Synthesis Results - Best model ##

 3.12429E-05                             [chi2/Nl_eff]
     6.42877                             [adev (%)]

    96.07233                             [sum-of-x (%)]
 3.00387E-17                             [Flux_tot (units of input spectrum!)]
 1.41464E-12                             [Mini_tot (???)]
 7.18303E-13                             [Mcor_tot (???)]

  17.70                                  [v0_min  (km/s)]
 218.25                                  [vd_min  (km/s)]
-0.2666                                  [AV_min  (mag)]
 0.0000                                  [YAV_min (mag)]

# j     x_j(%)      Mini_j(%)     Mcor_j(%)     age_j(yr)     Z_j      (L/M)_j    YAV?  Mstars   component_j        a/Fe...       SSP_chi2r SSP_adev(%)   SSP_AV   SSP_x(%)
  1      0.0000     0.0000E+00    0.0000E+00    1.000000E+06  0.00400  1.094E-02    0   1.0000   age020_m42            0.0000     1.0757E-04    12.4119   3.3400    78.5122
  2      0.0000     0.0000E+00    0.0000E+00    3.160000E+06  0.00400  4.007E-02    0   0.9999   age045_m42            0.0000     8.0474E-05    10.7880   2.5972    84.4138
  3      0.0000     0.0000E+00    0.0000E+00    5.010000E+06  0.00400  2.539E-02    0   0.9488   age055_m42            0.0000     9.2102E-05    11.4819   2.9252    82.0853
  4      0.0081     6.8338E-06    1.2409E-05    6.610000E+06  0.00400  2.620E-02    0   0.9220   age061_m42            0.0000     7.9558E-05    10.6495   2.5241    84.5385
  5      0.0000     0.0000E+00    0.0000E+00    1.000000E+07  0.00400  1.322E-02    0   0.8862   age070_m42            0.0000     8.1342E-05    10.8491   2.2610    85.5470
  6      0.0000     0.0000E+00    0.0000E+00    1.445000E+07  0.00400  7.883E-03    0   0.8571   age078_m42            0.0000     8.8686E-05    11.2723   2.5890    83.3580
  7      0.0000     0.0000E+00    0.0000E+00    2.512000E+07  0.00400  5.251E-03    0   0.8174   age090_m42            0.0000     8.0695E-05    10.8379   2.1345    85.9037
  8      0.3583     2.1702E-03    3.3556E-03    4.000000E+07  0.00400  3.649E-03    0   0.7851   age104_m42            0.0000     7.5044E-05    10.4749   1.9002    86.8735
  9      0.9625     6.8667E-03    1.0317E-02    5.500000E+07  0.00400  3.098E-03    0   0.7629   age110_m42            0.0000     7.1098E-05    10.0858   2.0413    87.3108
 10      0.0000     0.0000E+00    0.0000E+00    1.015200E+08  0.00400  2.228E-03    0   0.7207   age116_m42            0.0000     6.9056E-05     9.8565   2.0554    87.7337
 11      0.0000     0.0000E+00    0.0000E+00    2.861200E+08  0.00400  1.093E-03    0   0.6648   age125_m42            0.0000     6.0634E-05     9.1902   1.4863    90.2379
 12      0.0000     0.0000E+00    0.0000E+00    5.088000E+08  0.00400  6.597E-04    0   0.6365   age130_m42            0.0000     5.6483E-05     8.8796   1.4657    91.5138
 13      0.0000     0.0000E+00    0.0000E+00    1.434000E+09  0.00400  2.132E-04    0   0.5798   age139_m42            0.0000     4.0312E-05     7.7915   0.4860    93.8846
 14      0.0000     0.0000E+00    0.0000E+00    4.250000E+09  0.00400  5.895E-05    0   0.5377   age158_m42            0.0000     3.9363E-05     7.5406   0.0289    91.0000
 15      0.0000     0.0000E+00    0.0000E+00    7.500000E+09  0.00400  3.510E-05    0   0.5212   age171_m42            0.0000     3.7980E-05     7.1894  -0.1701    90.7716
 16      1.8666     2.0577E+00    2.0400E+00    1.300000E+10  0.00400  2.005E-05    0   0.5034   age193_m42            0.0000     3.7343E-05     7.0042  -0.3452    90.5942
 17      0.0000     0.0000E+00    0.0000E+00    1.800000E+10  0.00400  1.525E-05    0   0.4967   age213_m42            0.0000     3.8338E-05     7.1392  -0.3638    90.0909
 18      0.0000     0.0000E+00    0.0000E+00    1.000000E+06  0.00800  1.238E-02    0   1.0000   age020_m52            0.0000     1.0768E-04    12.4206   3.3363    78.6708
 19      0.0000     0.0000E+00    0.0000E+00    3.160000E+06  0.00800  3.074E-02    0   0.9966   age045_m52            0.0000     1.0577E-04    12.3154   3.2572    79.4491
 20      0.0000     0.0000E+00    0.0000E+00    5.010000E+06  0.00800  2.668E-02    0   0.9443   age055_m52            0.0000     9.5733E-05    11.7041   3.0111    81.2659
 21      0.0000     0.0000E+00    0.0000E+00    6.610000E+06  0.00800  2.136E-02    0   0.9177   age061_m52            0.0000     7.4948E-05    10.6567   1.7585    86.7285
 22      0.8260     1.5025E-03    2.6120E-03    1.000000E+07  0.00800  1.215E-02    0   0.8827   age070_m52            0.0000     8.6175E-05    11.1219   2.4465    85.0957
 23      0.0000     0.0000E+00    0.0000E+00    1.445000E+07  0.00800  8.717E-03    0   0.8552   age078_m52            0.0000     8.5803E-05    11.1154   2.5543    84.5261
 24      0.0000     0.0000E+00    0.0000E+00    2.512000E+07  0.00800  5.592E-03    0   0.8162   age090_m52            0.0000     7.8847E-05    10.6905   2.1980    86.9290
 25      0.1047     5.9425E-04    9.1765E-04    4.000000E+07  0.00800  3.896E-03    0   0.7841   age104_m52            0.0000     7.2622E-05    10.2158   2.1012    87.9026
 26      0.0000     0.0000E+00    0.0000E+00    1.015200E+08  0.00800  2.148E-03    0   0.7226   age116_m52            0.0000     6.7276E-05     9.8030   2.0281    88.2371
 27      3.7419     8.3329E-02    1.0967E-01    2.861200E+08  0.00800  9.925E-04    0   0.6683   age125_m52            0.0000     5.4981E-05     8.7805   1.5301    92.3622
 28     17.9728     1.2647E+00    1.5288E+00    9.047900E+08  0.00800  3.141E-04    0   0.6138   age135_m52            0.0000     3.5864E-05     7.2470   0.7057    97.3546
 29      0.3000     3.8576E-02    4.4466E-02    1.434000E+09  0.00800  1.719E-04    0   0.5853   age139_m52            0.0000     3.3439E-05     7.0111   0.1289    95.4123
 30      1.8676     5.2436E-01    5.7831E-01    2.500000E+09  0.00800  7.872E-05    0   0.5600   age150_m52            0.0000     3.3806E-05     6.7261  -0.1638    93.7487
 31      0.0000     0.0000E+00    0.0000E+00    4.250000E+09  0.00800  4.336E-05    0   0.5426   age158_m52            0.0000     3.4921E-05     6.8007  -0.1800    92.9216
 32      0.0000     0.0000E+00    0.0000E+00    6.250000E+09  0.00800  3.159E-05    0   0.5319   age166_m52            0.0000     3.4586E-05     6.6063  -0.3979    93.5149
 33      0.0000     0.0000E+00    0.0000E+00    1.300000E+10  0.00800  1.361E-05    0   0.5073   age193_m52            0.0000     3.7096E-05     6.6692  -0.8854    93.6495
 34     28.8187     6.4430E+01    6.3318E+01    1.800000E+10  0.00800  9.886E-06    0   0.4990   age213_m52            0.0000     4.1056E-05     7.0514  -1.0000    93.5369
 35      0.0000     0.0000E+00    0.0000E+00    1.000000E+06  0.02000  1.544E-02    0   1.0000   age020_m62            0.0000     1.0850E-04    12.4684   3.3326    78.8488
 36      0.0000     0.0000E+00    0.0000E+00    3.160000E+06  0.02000  3.762E-02    0   0.9858   age045_m62            0.0000     1.0789E-04    12.4268   3.2705    79.5701
 37      0.0000     0.0000E+00    0.0000E+00    5.010000E+06  0.02000  3.296E-02    0   0.9342   age055_m62            0.0000     8.7286E-05    11.1307   2.8781    83.3180
 38      0.0000     0.0000E+00    0.0000E+00    8.710000E+06  0.02000  1.154E-02    0   0.8861   age067_m62            0.0000     1.1163E-04    12.8954   1.9372    85.8611
 39      0.0518     1.4952E-04    2.4948E-04    1.445000E+07  0.02000  7.663E-03    0   0.8472   age078_m62            0.0000     8.6863E-05    11.1815   2.1034    86.6082
 40      0.0000     0.0000E+00    0.0000E+00    2.512000E+07  0.02000  4.532E-03    0   0.8099   age090_m62            0.0000     8.7446E-05    11.1382   2.0975    86.2832
 41      5.5387     4.4793E-02    6.7000E-02    5.500000E+07  0.02000  2.733E-03    0   0.7595   age110_m62            0.0000     7.4483E-05    10.3351   2.0865    87.2136
 42      0.0000     0.0000E+00    0.0000E+00    1.609000E+08  0.02000  1.369E-03    0   0.6985   age120_m62            0.0000     6.4114E-05     9.4338   1.9038    90.3922
 43      0.8763     2.1490E-02    2.8415E-02    2.861200E+08  0.02000  9.013E-04    0   0.6714   age125_m62            0.0000     5.7771E-05     8.9355   1.6393    93.5308
 44      0.0261     1.1495E-03    1.4600E-03    5.088000E+08  0.02000  5.028E-04    0   0.6449   age130_m62            0.0000     4.6768E-05     8.1218   1.2365    97.0416
 45      0.0000     0.0000E+00    0.0000E+00    9.047900E+08  0.02000  2.428E-04    0   0.6179   age135_m62            0.0000     3.5563E-05     7.0722   0.6380    97.1274
 46      3.4068     5.9618E-01    6.9368E-01    1.434000E+09  0.02000  1.263E-04    0   0.5908   age139_m62            0.0000     3.3778E-05     6.7347   0.1871    96.0202
 47      0.0000     0.0000E+00    0.0000E+00    2.500000E+09  0.02000  5.985E-05    0   0.5673   age150_m62            0.0000     3.4890E-05     6.6760  -0.1978    95.4684
 48      0.0000     0.0000E+00    0.0000E+00    4.250000E+09  0.02000  3.271E-05    0   0.5468   age158_m62            0.0000     3.8010E-05     6.7164  -0.5252    95.5394
 49      0.0000     0.0000E+00    0.0000E+00    1.000000E+10  0.02000  1.360E-05    0   0.5167   age181_m62            0.0000     4.5209E-05     7.3046  -0.9048    96.2925
 50      0.0000     0.0000E+00    0.0000E+00    1.800000E+10  0.02000  7.124E-06    0   0.5013   age213_m62            0.0000     5.7767E-05     9.0643  -1.0000    92.5946
 51      0.5656     4.8225E-04    9.4957E-04    1.000000E+06  0.05000  2.592E-02    0   0.9998   age020_m72            0.0000     1.1139E-04    12.6525   3.3281    78.7781
 52      0.0000     0.0000E+00    0.0000E+00    3.160000E+06  0.05000  4.845E-02    0   0.9577   age045_m72            0.0000     1.0047E-04    11.9388   3.1456    80.8623
 53      0.0000     0.0000E+00    0.0000E+00    5.010000E+06  0.05000  3.072E-02    0   0.9147   age055_m72            0.0000     9.2311E-05    11.3230   2.6836    83.6205
 54      0.1919     2.9157E-04    5.0973E-04    6.610000E+06  0.05000  1.455E-02    0   0.8877   age061_m72            0.0000     1.2749E-04    13.5033   1.9970    85.9359
 55      0.0000     0.0000E+00    0.0000E+00    1.000000E+07  0.05000  9.074E-03    0   0.8524   age070_m72            0.0000     9.2544E-05    11.0811   2.8736    83.2445
 56      0.0000     0.0000E+00    0.0000E+00    2.512000E+07  0.05000  4.250E-03    0   0.7902   age090_m72            0.0000     8.3100E-05    10.5483   2.5588    85.1280
 57      0.0014     9.9582E-06    1.4940E-05    4.000000E+07  0.05000  3.087E-03    0   0.7618   age104_m72            0.0000     7.9596E-05    10.3343   2.3318    86.5198
 58      0.0000     0.0000E+00    0.0000E+00    1.015200E+08  0.05000  1.700E-03    0   0.7096   age116_m72            0.0000     6.7454E-05     9.6385   2.0532    89.7066
 59      0.0000     0.0000E+00    0.0000E+00    2.861200E+08  0.05000  7.384E-04    0   0.6633   age125_m72            0.0000     5.2258E-05     8.4668   1.4931    95.3852
 60      0.0000     0.0000E+00    0.0000E+00    5.088000E+08  0.05000  3.819E-04    0   0.6372   age130_m72            0.0000     4.1618E-05     7.6336   0.9807    97.9063
 61     16.3660     2.1583E+00    2.5971E+00    9.047900E+08  0.05000  1.676E-04    0   0.6110   age135_m72            0.0000     3.7630E-05     6.9000   0.2570    97.3765
 62      0.0000     0.0000E+00    0.0000E+00    1.434000E+09  0.05000  8.837E-05    0   0.5874   age139_m72            0.0000     3.5667E-05     6.6630  -0.2046    97.1444
 63      0.0000     0.0000E+00    0.0000E+00    2.500000E+09  0.05000  4.233E-05    0   0.5598   age150_m72            0.0000     3.9309E-05     6.8389  -0.5386    96.8207
 64      6.8546     1.0558E+01    1.0914E+01    6.250000E+09  0.05000  1.435E-05    0   0.5249   age166_m72            0.0000     4.8715E-05     7.5544  -1.0000    95.9683
 65      5.3658     1.8209E+01    1.8060E+01    1.300000E+10  0.05000  6.513E-06    0   0.5036   age193_m72            0.0000     7.7553E-05    11.3488  -1.0000    89.1746
 66      0.0000     0.0000E+00    0.0000E+00    1.800000E+10  0.05000  4.527E-06    0   0.4945   age213_m72            0.0000     1.0891E-04    13.9931  -1.0000    84.3837


## Synthesis Results - Average & Chains ##

# j      x_j: min, <> & last-chain-values for 1 ...  7 chains
  1      0.0000     10.2979      7.0632      8.1830      4.6823      6.2301      6.1059      2.8097      5.6115
  2      0.0000      0.2557      0.7439      0.8560      1.2783      0.7132      0.9362      1.2281      0.3774
  3      0.0000      0.3142      2.0215      0.0409      0.7247      0.7657      1.9966      0.0000      0.6826
  4      0.0081      0.2572      0.0984      0.7331      0.0000      0.0000      1.3482      0.0246      1.4076
  5      0.0000      0.2361      0.5366      0.2409      0.0111      0.0000      0.0000      0.0877      0.1593
  6      0.0000      0.2416      0.6658      0.4424      0.0000      0.0000      1.6382      0.5451      0.8676
  7      0.0000      0.3449      0.1849      2.8237      1.5792      1.9109      0.0000      2.5471      0.0000
  8      0.3583      0.3348      0.8415      1.5927      0.0000      0.4167      0.2047      0.3536      0.0000
  9      0.9625      0.2430      0.0000      1.9364      0.8526      0.0814      0.1293      0.4602      0.2081
 10      0.0000      0.3258      0.0000      0.0000      0.7206      0.0000      1.2908      0.0338      0.8069
 11      0.0000      0.2851      0.1429      0.1608      0.5819      1.0050      0.0000      1.7174      1.4171
 12      0.0000      0.1933      0.4098      0.0554      0.0000      0.0000      1.3554      0.0000      0.0000
 13      0.0000      0.2712      1.0187      0.0000      3.7886      0.4616      0.0000      0.2956      0.1555
 14      0.0000      0.3038      0.0000      0.0000      2.0558      1.4820      0.9330      0.3155      0.0000
 15      0.0000      0.3060      0.0000      1.2196      1.8027      1.1282      0.0383      0.0000      0.0000
 16      1.8666      0.1970      0.3598      0.5046      0.0000      0.0000      0.0205      0.5019      0.0000
 17      0.0000      0.2675      0.1857      0.0000      0.0050      0.7003      2.2827      0.8132      0.0000
 18      0.0000      1.0745      0.0000      3.3651      0.2888      0.5896      0.6080      0.5861      1.1405
 19      0.0000      0.3980      0.3493      0.9807      0.0000      0.4296      1.2359      1.8233      0.0000
 20      0.0000      0.2574      0.0000      0.0135      0.8216      1.6405      0.0000      0.0000      0.0000
 21      0.0000      0.2297      0.2845      0.2541      0.0000      0.0000      0.7892      0.8719      0.0000
 22      0.8260      4.3368      5.7960      3.1277      1.4561      3.5824      2.3273      3.7600      4.4489
 23      0.0000      0.4752      0.9752      0.0000      0.9080      0.2523      2.3808      1.8336      0.0000
 24      0.0000      0.3914      0.7741      0.4665      0.0142      0.0000      0.1117      0.7219      0.2266
 25      0.1047      0.3831      0.7087      0.9264      2.4533      0.7342      0.1761      0.8533      1.2478
 26      0.0000      0.3349      0.4638      0.0780      0.0451      0.6237      0.0000      0.1069      0.4754
 27      3.7419      0.3196      1.7168      0.4791      1.6105      1.6408      1.1339      1.2881      0.8921
 28     17.9728      0.3036      0.4926      2.2386      0.2512      0.0000      1.7801      0.9190      1.1548
 29      0.3000     14.0956     13.6203     16.4864     17.8012     16.3596      8.4929      8.0091     11.2059
 30      1.8676      0.2382      0.0000      0.6911      2.0443      1.4490      0.5036      1.0770      0.0000
 31      0.0000      0.3115      0.0000      0.0000      0.9816      0.4933      0.8312      2.2556      1.0060
 32      0.0000      0.2876      0.4649      0.0000      0.0000      1.5674      0.0784      0.5753      0.3421
 33      0.0000      5.6730      5.0473      3.8681      1.1821      5.2530      2.6733      4.0110      4.5925
 34     28.8187      4.2397      3.1380      2.1112      1.3424      2.4442      5.0851      2.2749      4.6867
 35      0.0000      1.3714      0.0000      0.3585      1.0110      1.5919      1.3414      1.8266      0.8199
 36      0.0000      0.5219      0.8678      0.0000      0.0000      0.0000      1.7849      1.2615      0.3269
 37      0.0000      0.3354      0.0000      0.2984      1.6862      0.9898      0.2834      2.6901      0.5411
 38      0.0000     11.2139     10.3496      0.0000      7.0717      7.3148      8.3334      1.8950      8.9193
 39      0.0518      2.2377      1.5082      1.1732      3.0072      0.2076      2.7446      1.3827      2.8347
 40      0.0000      1.1711      0.3304      1.6531      0.0873      0.2170      0.2245      0.4853      3.0024
 41      5.5387      0.4066      0.0000      1.8324      1.9589      0.0194      2.0713      0.0000      0.0000
 42      0.0000      0.3382      0.3619      5.3923      1.0082      2.6457      0.4409      0.3017      0.0000
 43      0.8763      0.2996      0.0000      1.5539      0.0000      0.0709      0.6678      1.7181      1.2557
 44      0.0261      0.2323      0.0745      2.4373      1.2331      0.2304      1.0865      0.2045      0.0000
 45      0.0000      0.3299      0.4819      0.0000      2.5492      0.0000      0.0000      1.2873      0.3995
 46      3.4068      0.3470      2.3464      0.8106      0.0000      0.5328      1.0207      3.6659      3.6969
 47      0.0000      0.3007      0.6092      0.4954      1.3444      0.6443      0.0028      0.1041      0.0000
 48      0.0000      0.3312      1.6021      0.0000      0.5144      0.4099      0.3520      0.0000      1.3194
 49      0.0000      0.4345      1.3592      2.4588      0.0000      0.0000      0.7504      2.7707      1.4957
 50      0.0000      2.3607      2.3268      0.2488      2.4608      1.7165      2.5099      2.4721      2.3618
 51      0.5656      1.8032      0.6577      1.3781      0.0000      3.4308      1.1068      2.0522      1.1863
 52      0.0000      0.3319      0.0483      0.3037      0.0000      0.0000      0.2184      0.4634      1.6326
 53      0.0000      0.3180      0.0000      0.0973      0.0000      0.0000      0.0000      2.2998      0.6708
 54      0.1919      6.3029      7.2802      1.8376      2.0210      4.6228      4.8623      3.4191      4.6065
 55      0.0000      0.4908      0.9097      0.1388      0.0000      0.0000      0.0000      1.4530      0.0000
 56      0.0000      1.4761      1.0199      1.0024      1.3632      1.4479      1.5172      2.2813      0.9771
 57      0.0014      2.3583      2.8863      1.7237      3.7943      0.3384      1.6538      0.8531      0.8303
 58      0.0000      0.5692      0.0221      0.6220      1.3619      1.5595      1.5039      1.6364      2.2428
 59      0.0000      0.3958      0.3345      0.0000      2.4320      1.0188      0.3716      0.0000      0.9400
 60      0.0000      0.3376      0.1725      0.0000      0.7906      0.1177      1.7654      0.8210      0.2619
 61     16.3660      0.3511      1.0322      5.4037      0.8831      2.9031      1.7325      0.4805      0.0000
 62      0.0000      0.2810      0.3221      0.0585      0.0000      0.7236      0.3096      0.3903      2.0555
 63      0.0000      0.3380      1.4676      2.1513      1.6196      0.0000      1.8221      0.0000      0.3151
 64      6.8546      0.2477      0.0000      0.6466      1.9323      1.3063      0.0000      0.0000      0.5519
 65      5.3658      1.2988      1.6693      2.9088      0.0000      1.3621      0.9410      4.2606      1.6013
 66      0.0000      1.8105      0.9149      2.2433      1.4340      0.5279      0.6477      2.4667      1.1182

# j      m_j: min, <> & last-chain-values for 1 ...  7 chains
  1  0.0000E+00  9.2113E-02  6.8609E-02  7.3262E-02  5.9354E-02  6.7557E-02  6.2532E-02  1.9834E-02  5.0133E-02
  2  0.0000E+00  6.2427E-04  1.9726E-03  2.0923E-03  4.4238E-03  2.1111E-03  2.6173E-03  2.3667E-03  9.2050E-04
  3  0.0000E+00  1.1490E-03  8.0277E-03  1.4985E-04  3.7554E-03  3.3945E-03  8.3594E-03  0.0000E+00  2.4930E-03
  4  1.2409E-05  8.8575E-04  3.6816E-04  2.5269E-03  0.0000E+00  0.0000E+00  5.3155E-03  6.6966E-05  4.8412E-03
  5  0.0000E+00  1.5486E-03  3.8222E-03  1.5820E-03  1.0274E-04  0.0000E+00  0.0000E+00  4.5426E-04  1.0439E-03
  6  0.0000E+00  2.5708E-03  7.6928E-03  4.7108E-03  0.0000E+00  0.0000E+00  1.9956E-02  4.5772E-03  9.2199E-03
  7  0.0000E+00  5.2543E-03  3.0580E-03  4.3052E-02  3.4091E-02  3.5288E-02  0.0000E+00  3.0620E-02  0.0000E+00
  8  3.3556E-03  7.0488E-03  1.9240E-02  3.3563E-02  0.0000E+00  1.0635E-02  4.9347E-03  5.8746E-03  0.0000E+00
  9  1.0317E-02  5.8552E-03  0.0000E+00  4.6704E-02  2.9116E-02  2.3775E-03  3.5669E-03  8.7512E-03  5.0096E-03
 10  0.0000E+00  1.0313E-02  0.0000E+00  0.0000E+00  3.2327E-02  0.0000E+00  4.6781E-02  8.4533E-04  2.5509E-02
 11  0.0000E+00  1.6971E-02  9.2353E-03  9.5767E-03  4.9079E-02  7.2514E-02  0.0000E+00  8.0670E-02  8.4244E-02
 12  0.0000E+00  1.8251E-02  4.2020E-02  5.2355E-03  0.0000E+00  0.0000E+00  1.4652E-01  0.0000E+00  0.0000E+00
 13  0.0000E+00  7.2182E-02  2.9440E-01  0.0000E+00  1.4288E+00  1.4891E-01  0.0000E+00  6.2073E-02  4.1329E-02
 14  0.0000E+00  2.7118E-01  0.0000E+00  0.0000E+00  2.6004E+00  1.6036E+00  9.5350E-01  2.2222E-01  0.0000E+00
 15  0.0000E+00  4.4460E-01  0.0000E+00  1.7738E+00  3.7122E+00  1.9873E+00  6.3709E-02  0.0000E+00  0.0000E+00
 16  2.0400E+00  4.8407E-01  9.5999E-01  1.2408E+00  0.0000E+00  0.0000E+00  5.7662E-02  9.7308E-01  0.0000E+00
 17  0.0000E+00  8.5263E-01  6.4280E-01  0.0000E+00  2.2585E-02  2.7058E+00  8.3302E+00  2.0455E+00  0.0000E+00
 18  0.0000E+00  8.4930E-03  0.0000E+00  2.6623E-02  3.2350E-03  5.6497E-03  5.5020E-03  3.6560E-03  9.0041E-03
 19  0.0000E+00  1.2626E-03  1.2035E-03  3.1140E-03  0.0000E+00  1.6521E-03  4.4894E-03  4.5651E-03  0.0000E+00
 20  0.0000E+00  8.9136E-04  0.0000E+00  4.6695E-05  4.0327E-03  6.8878E-03  0.0000E+00  0.0000E+00  0.0000E+00
 21  0.0000E+00  9.6579E-04  1.2991E-03  1.0691E-03  0.0000E+00  0.0000E+00  3.7990E-03  2.8931E-03  0.0000E+00
 22  2.6120E-03  3.0832E-02  4.4747E-02  2.2256E-02  1.4670E-02  3.0875E-02  1.8944E-02  2.1096E-02  3.1590E-02
 23  0.0000E+00  4.5623E-03  1.0167E-02  0.0000E+00  1.2354E-02  2.9366E-03  2.6170E-02  1.3892E-02  0.0000E+00
 24  0.0000E+00  5.5908E-03  1.2006E-02  6.6691E-03  2.8681E-04  0.0000E+00  1.8273E-03  8.1372E-03  3.2333E-03
 25  9.1765E-04  7.5453E-03  1.5156E-02  1.8261E-02  6.8471E-02  1.7528E-02  3.9711E-03  1.3262E-02  2.4544E-02
 26  0.0000E+00  1.1026E-02  1.6580E-02  2.5705E-03  2.1058E-03  2.4892E-02  0.0000E+00  2.7777E-03  1.5631E-02
 27  1.0967E-01  2.1061E-02  1.2285E-01  3.1599E-02  1.5039E-01  1.3107E-01  8.5547E-02  6.6985E-02  5.8710E-02
 28  1.5288E+00  5.8061E-02  1.0229E-01  4.2846E-01  6.8073E-02  0.0000E+00  3.8974E-01  1.3869E-01  2.2056E-01
 29  4.4466E-02  4.6965E+00  4.9282E+00  5.4981E+00  8.4055E+00  6.6079E+00  3.2399E+00  2.1060E+00  3.7292E+00
 30  5.7831E-01  1.6581E-01  0.0000E+00  4.8150E-01  2.0167E+00  1.2228E+00  4.0140E-01  5.9166E-01  0.0000E+00
 31  0.0000E+00  3.8143E-01  0.0000E+00  0.0000E+00  1.7035E+00  7.3237E-01  1.1654E+00  2.1799E+00  1.2304E+00
 32  0.0000E+00  4.7394E-01  8.3175E-01  0.0000E+00  0.0000E+00  3.1308E+00  1.4786E-01  7.4813E-01  5.6300E-01
 33  0.0000E+00  2.0692E+01  1.9992E+01  1.4122E+01  6.1106E+00  2.3227E+01  1.1164E+01  1.1546E+01  1.6731E+01
 34  6.3318E+01  2.0941E+01  1.6832E+01  1.0437E+01  9.3966E+00  1.4636E+01  2.8758E+01  8.8678E+00  2.3121E+01
 35  0.0000E+00  8.6918E-03  0.0000E+00  2.2739E-03  9.0809E-03  1.2231E-02  9.7337E-03  9.1361E-03  5.1899E-03
 36  0.0000E+00  1.3384E-03  2.4166E-03  0.0000E+00  0.0000E+00  0.0000E+00  5.2403E-03  2.5529E-03  8.3731E-04
 37  0.0000E+00  9.3036E-04  0.0000E+00  8.2846E-04  6.6279E-03  3.3281E-03  8.9992E-04  5.8883E-03  1.4990E-03
 38  0.0000E+00  8.4260E-02  8.4449E-02  0.0000E+00  7.5302E-02  6.6630E-02  7.1692E-02  1.1237E-02  6.6937E-02
 39  2.4948E-04  2.4210E-02  1.7720E-02  1.2704E-02  4.6106E-02  2.7224E-03  3.3997E-02  1.1806E-02  3.0630E-02
 40  0.0000E+00  2.0480E-02  6.2752E-03  2.8934E-02  2.1633E-03  4.6014E-03  4.4948E-03  6.6978E-03  5.2440E-02
 41  6.7000E-02  1.1057E-02  0.0000E+00  4.9876E-02  7.5495E-02  6.3957E-04  6.4491E-02  0.0000E+00  0.0000E+00
 42  0.0000E+00  1.6888E-02  1.9623E-02  2.6947E-01  7.1335E-02  1.6014E-01  2.5203E-02  1.1887E-02  0.0000E+00
 43  2.8415E-02  2.1840E-02  0.0000E+00  1.1338E-01  0.0000E+00  6.2689E-03  5.5733E-02  9.8838E-02  9.1423E-02
 44  1.4600E-03  2.9151E-02  1.0149E-02  3.0619E-01  2.1934E-01  3.5057E-02  1.5614E-01  2.0253E-02  0.0000E+00
 45  0.0000E+00  8.2145E-02  1.3032E-01  0.0000E+00  8.9967E-01  0.0000E+00  0.0000E+00  2.5300E-01  9.9368E-02
 46  6.9368E-01  1.5885E-01  1.1663E+00  3.7140E-01  0.0000E+00  2.9565E-01  5.3492E-01  1.3243E+00  1.6902E+00
 47  0.0000E+00  2.7889E-01  6.1358E-01  4.5990E-01  1.7672E+00  7.2448E-01  3.0053E-03  7.6187E-02  0.0000E+00
 48  0.0000E+00  5.4181E-01  2.8461E+00  0.0000E+00  1.1925E+00  8.1283E-01  6.5930E-01  0.0000E+00  2.1558E+00
 49  0.0000E+00  1.6153E+00  5.4874E+00  9.1496E+00  0.0000E+00  0.0000E+00  3.1940E+00  8.1295E+00  5.5541E+00
 50  0.0000E+00  1.6256E+01  1.7399E+01  1.7150E+00  2.4014E+01  1.4329E+01  1.9788E+01  1.3434E+01  1.6243E+01
 51  9.4957E-04  6.8063E-03  2.6959E-03  5.2063E-03  0.0000E+00  1.5699E-02  4.7834E-03  6.1131E-03  4.4722E-03
 52  0.0000E+00  6.4198E-04  1.0142E-04  5.8797E-04  0.0000E+00  0.0000E+00  4.8374E-04  7.0742E-04  3.1541E-03
 53  0.0000E+00  9.2654E-04  0.0000E+00  2.8375E-04  0.0000E+00  0.0000E+00  0.0000E+00  5.2883E-03  1.9523E-03
 54  5.0973E-04  3.7630E-02  4.7200E-02  1.0981E-02  1.7099E-02  3.3458E-02  3.3237E-02  1.6110E-02  2.7468E-02
 55  0.0000E+00  4.5119E-03  9.0807E-03  1.2767E-03  0.0000E+00  0.0000E+00  0.0000E+00  1.0541E-02  0.0000E+00
 56  0.0000E+00  2.6857E-02  2.0151E-02  1.8255E-02  3.5150E-02  3.1935E-02  3.1605E-02  3.2756E-02  1.7755E-02
 57  1.4940E-05  5.6950E-02  7.5691E-02  4.1663E-02  1.2985E-01  9.9068E-03  4.5725E-02  1.6257E-02  2.0025E-02
 58  0.0000E+00  2.3250E-02  9.7898E-04  2.5429E-02  7.8837E-02  7.7222E-02  7.0333E-02  5.2752E-02  9.1497E-02
 59  0.0000E+00  3.4795E-02  3.1926E-02  0.0000E+00  3.0296E-01  1.0857E-01  3.7402E-02  0.0000E+00  8.2528E-02
 60  0.0000E+00  5.5125E-02  3.0578E-02  0.0000E+00  1.8293E-01  2.3302E-02  3.3003E-01  1.0579E-01  4.2707E-02
 61  2.5971E+00  1.2526E-01  3.9986E-01  1.9295E+00  4.4648E-01  1.2555E+00  7.0766E-01  1.3528E-01  0.0000E+00
 62  0.0000E+00  1.8277E-01  2.2754E-01  3.8110E-02  0.0000E+00  5.7055E-01  2.3058E-01  2.0034E-01  1.3354E+00
 63  0.0000E+00  4.3743E-01  2.0625E+00  2.7865E+00  2.9704E+00  0.0000E+00  2.6997E+00  0.0000E+00  4.0726E-01
 64  1.0914E+01  8.8675E-01  0.0000E+00  2.3165E+00  9.8018E+00  5.6684E+00  0.0000E+00  0.0000E+00  1.9730E+00
 65  1.8060E+01  9.8270E+00  1.3716E+01  2.2029E+01  0.0000E+00  1.2494E+01  8.1524E+00  2.5442E+01  1.2101E+01
 66  0.0000E+00  1.9353E+01  1.0620E+01  2.4000E+01  2.1723E+01  6.8408E+00  7.9273E+00  2.0809E+01  1.1938E+01

# AV, chi2 & Mass for <> & i_chain = 1 ...  7 solutions
AV      -0.2666      0.7742      0.7563      0.6239      0.7453      0.7595      0.8878      0.6625      0.7265
chi2 3.1243E-05  6.7804E-05  6.1525E-05  5.1595E-05  5.2467E-05  5.9217E-05  6.3121E-05  5.8616E-05  5.9278E-05
Mass 7.1830E-13  1.2930E-12  1.1624E-12  1.0557E-12  8.7760E-13  1.0457E-12  1.3153E-12  1.4100E-12  1.2141E-12
  17.70                                  [v0_min (km/s) before EX0s...]
 218.25                                  [vd_min (km/s) before EX0s...]


## Synthetic spectrum (Best Model) ##l_obs f_obs f_syn wei
 3478    [Nl_obs]
 3741.00    0.40746   0.50285    0.000
 3742.00    0.42959   0.50404    0.000
 3743.00    0.40043   0.49413    0.000
 3744.00    0.36826   0.47578    0.000
 3745.00    0.33433   0.45264    0.110
 3746.00    0.33552   0.42848    0.108
 3747.00    0.35454   0.40794    0.106
 3748.00    0.36834   0.39595    0.107
 3749.00    0.37986   0.39593    0.110
 3750.00    0.43856   0.40874    0.110
 3751.00    0.51508   0.43274    0.108
 3752.00    0.50725   0.46402    0.107
 3753.00    0.47240   0.49641    0.106
 3754.00    0.51009   0.52309    0.105
 3755.00    0.56723   0.53934    0.105
 3756.00    0.55403   0.54466    0.103
 3757.00    0.52540   0.54214    0.101
 3758.00    0.50119   0.53613    0.100
 3759.00    0.47775   0.53034    0.099
 3760.00    0.47775   0.52697    0.110
 3761.00    0.48085   0.52622    0.127
 3762.00    0.47948   0.52707    0.111
 3763.00    0.47768   0.52761    0.097
 3764.00    0.49768   0.52576    0.096
 3765.00    0.51894   0.52120    0.096
 3766.00    0.49920   0.51528    0.095
 3767.00    0.47896   0.50935    0.095
 3768.00    0.51597   0.50507    0.095
 3769.00    0.55176   0.50481    0.095
 3770.00    0.55788   0.51015    0.096
 3771.00    0.55871   0.52076    0.097
 3772.00    0.49014   0.53533    0.095
 3773.00    0.43538   0.55252    0.094
 3774.00    0.50196   0.57114    0.095
 3775.00    0.55871   0.59020    0.096
 3776.00    0.55181   0.60911    0.096
 3777.00    0.54208   0.62794    0.096
 3778.00    0.51802   0.64636    0.098
 3779.00    0.50907   0.66318    0.099
 3780.00    0.56202   0.67719    0.102
 3781.00    0.61128   0.68726    0.104
 3782.00    0.64803   0.69186    0.104
 3783.00    0.67746   0.68899    0.105
 3784.00    0.68596   0.67801    0.107
 3785.00    0.68512   0.66066    0.109
 3786.00    0.66145   0.63945    0.106
 3787.00    0.63217   0.61714    0.105
 3788.00    0.59108   0.59660    0.106
 3789.00    0.55223   0.57936    0.105
 3790.00    0.51747   0.56453    0.101
 3791.00    0.48806   0.55002    0.098
 3792.00    0.46721   0.53412    0.098
 3793.00    0.48415   0.51610    0.098
 3794.00    0.55417   0.49632    0.098
 3795.00    0.56084   0.47621    0.097
 3796.00    0.48919   0.45903    0.094
 3797.00    0.41821   0.44931    0.092
 3798.00    0.34795   0.45040    0.091
 3799.00    0.35133   0.46297    0.092
 3800.00    0.42548   0.48555    0.094
 3801.00    0.46751   0.51489    0.096
 3802.00    0.48232   0.54622    0.097
 3803.00    0.51165   0.57480    0.098
 3804.00    0.55181   0.59761    0.098
 3805.00    0.63512   0.61430    0.098
 3806.00    0.74672   0.62684    0.098
 3807.00    0.76960   0.63708    0.097
 3808.00    0.74156   0.64552    0.096
 3809.00    0.67470   0.65137    0.096
 3810.00    0.58842   0.65274    0.096
 3811.00    0.49381   0.64805    0.096
 3812.00    0.39560   0.63756    0.096
 3813.00    0.42014   0.62302    0.096
 3814.00    0.49022   0.60726    0.096
 3815.00    0.51202   0.59323    0.097
 3816.00    0.51865   0.58154    0.098
 3817.00    0.50945   0.57107    0.099
 3818.00    0.49610   0.56130    0.100
 3819.00    0.46662   0.55289    0.098
 3820.00    0.43369   0.54582    0.097
 3821.00    0.39608   0.53839    0.096
 3822.00    0.35768   0.52901    0.095
 3823.00    0.32272   0.51782    0.094
 3824.00    0.28820   0.50568    0.093
 3825.00    0.33955   0.49323    0.095
 3826.00    0.39861   0.48095    0.097
 3827.00    0.41038   0.46917    0.096
 3828.00    0.41960   0.45767    0.096
 3829.00    0.41560   0.44521    0.096
 3830.00    0.41091   0.43059    0.096
 3831.00    0.37156   0.41416    0.096
 3832.00    0.33435   0.39745    0.096
 3833.00    0.34479   0.38266    0.095
 3834.00    0.35594   0.37203    0.094
 3835.00    0.37603   0.36677    0.094
 3836.00    0.39269   0.36738    0.094
 3837.00    0.38042   0.37436    0.095
 3838.00    0.37026   0.38773    0.096
 3839.00    0.37334   0.40742    0.094
 3840.00    0.37152   0.43297    0.092
 3841.00    0.34555   0.46228    0.092
 3842.00    0.32071   0.49263    0.092
 3843.00    0.30036   0.52147    0.091
 3844.00    0.29785   0.54679    0.091
 3845.00    0.35465   0.56760    0.093
 3846.00    0.41289   0.58315    0.095
 3847.00    0.47515   0.59310    0.000
 3848.00    0.51879   0.59888    0.000
 3849.00    0.51770   0.60300    0.000
 3850.00    0.50458   0.60652    0.000
 3851.00    0.46650   0.60892    0.000
 3852.00    0.42413   0.60972    0.000
 3853.00    0.37401   0.60844    0.000
 3854.00    0.35803   0.60484    0.000
 3855.00    0.39589   0.59954    0.000
 3856.00    0.45196   0.59298    0.000
 3857.00    0.53323   0.58611    0.000
 3858.00    0.54142   0.58153    0.000
 3859.00    0.46058   0.58182    0.000
 3860.00    0.42425   0.58759    0.000
 3861.00    0.43576   0.59742    0.000
 3862.00    0.46704   0.60885    0.000
 3863.00    0.51706   0.61948    0.000
 3864.00    0.51632   0.62755    0.000
 3865.00    0.47318   0.63211    0.000
 3866.00    0.46138   0.63273    0.000
 3867.00    0.47263   0.62947    0.000
 3868.00    0.48375   0.62272    0.000
 3869.00    0.49479   0.61355    0.000
 3870.00    0.50272   0.60384    0.000
 3871.00    0.50889   0.59618    0.000
 3872.00    0.52417   0.59241    0.000
 3873.00    0.54394   0.59212    0.000
 3874.00    0.55589   0.59294    0.000
 3875.00    0.56451   0.59212    0.000
 3876.00    0.55431   0.58822    0.000
 3877.00    0.53725   0.58205    0.000
 3878.00    0.54971   0.57467    0.000
 3879.00    0.57128   0.56584    0.000
 3880.00    0.56579   0.55573    0.000
 3881.00    0.55335   0.54565    0.094
 3882.00    0.48624   0.53566    0.092
 3883.00    0.40769   0.52372    0.089
 3884.00    0.47037   0.50879    0.091
 3885.00    0.55634   0.49269    0.094
 3886.00    0.57461   0.47811    0.094
 3887.00    0.58450   0.46780    0.094
 3888.00    0.55877   0.46501    0.093
 3889.00    0.52999   0.47171    0.091
 3890.00    0.60084   0.48706    0.093
 3891.00    0.67665   0.50806    0.094
 3892.00    0.66856   0.53117    0.095
 3893.00    0.65864   0.55357    0.095
 3894.00    0.61972   0.57390    0.094
 3895.00    0.58199   0.59165    0.094
 3896.00    0.56867   0.60612    0.093
 3897.00    0.55711   0.61736    0.092
 3898.00    0.56617   0.62671    0.090
 3899.00    0.57343   0.63547    0.088
 3900.00    0.56609   0.64317    0.088
 3901.00    0.55887   0.64882    0.088
 3902.00    0.55244   0.65272    0.087
 3903.00    0.55224   0.65536    0.086
 3904.00    0.58207   0.65787    0.086
 3905.00    0.60768   0.66288    0.085
 3906.00    0.61682   0.67216    0.084
 3907.00    0.61821   0.68533    0.083
 3908.00    0.59433   0.70076    0.085
 3909.00    0.57109   0.71675    0.087
 3910.00    0.54962   0.73134    0.089
 3911.00    0.55633   0.74215    0.091
 3912.00    0.62959   0.74780    0.092
 3913.00    0.70821   0.74837    0.094
 3914.00    0.79779   0.74417    0.098
 3915.00    0.81515   0.73585    0.099
 3916.00    0.70426   0.72456    0.098
 3917.00    0.65299   0.71110    0.097
 3918.00    0.69438   0.69629    0.097
 3919.00    0.69418   0.68162    0.097
 3920.00    0.63725   0.66861    0.096
 3921.00    0.57289   0.65774    0.096
 3922.00    0.49960   0.64818    0.095
 3923.00    0.47179   0.63790    0.096
 3924.00    0.49214   0.62441    0.098
 3925.00    0.49767   0.60581    0.098
 3926.00    0.48937   0.58105    0.097
 3927.00    0.45627   0.55016    0.097
 3928.00    0.40274   0.51437    0.097
 3929.00    0.36082   0.47576    0.096
 3930.00    0.32732   0.43715    0.093
 3931.00    0.30745   0.40206    0.092
 3932.00    0.29625   0.37459    0.091
 3933.00    0.29847   0.35857    0.092
 3934.00    0.30816   0.35629    0.093
 3935.00    0.31964   0.36774    0.093
 3936.00    0.33198   0.39099    0.093
 3937.00    0.37894   0.42282    0.094
 3938.00    0.44036   0.45906    0.094
 3939.00    0.48828   0.49521    0.095
 3940.00    0.53136   0.52791    0.096
 3941.00    0.53334   0.55555    0.096
 3942.00    0.52290   0.57827    0.096
 3943.00    0.50745   0.59816    0.096
 3944.00    0.49074   0.61732    0.096
 3945.00    0.55313   0.63554    0.096
 3946.00    0.63166   0.65181    0.097
 3947.00    0.64098   0.66665    0.098
 3948.00    0.63922   0.68078    0.099
 3949.00    0.62407   0.69338    0.100
 3950.00    0.60733   0.70291    0.101
 3951.00    0.64579   0.70938    0.100
 3952.00    0.68875   0.71398    0.099
 3953.00    0.70687   0.71620    0.100
 3954.00    0.72384   0.71428    0.102
 3955.00    0.69569   0.70808    0.102
 3956.00    0.66806   0.69875    0.101
 3957.00    0.69767   0.68610    0.102
 3958.00    0.72024   0.66828    0.103
 3959.00    0.60943   0.64352    0.102
 3960.00    0.51041   0.61218    0.000
 3961.00    0.54422   0.57624    0.000
 3962.00    0.56966   0.53722    0.000
 3963.00    0.52938   0.49568    0.000
 3964.00    0.48753   0.45243    0.000
 3965.00    0.43629   0.40934    0.000
 3966.00    0.39536   0.36952    0.000
 3967.00    0.40290   0.33684    0.000
 3968.00    0.39591   0.31521    0.000
 3969.00    0.33326   0.30736    0.000
 3970.00    0.29747   0.31425    0.000
 3971.00    0.34753   0.33515    0.000
 3972.00    0.38903   0.36799    0.000
 3973.00    0.40733   0.40987    0.000
 3974.00    0.44754   0.45713    0.000
 3975.00    0.53863   0.50604    0.000
 3976.00    0.62539   0.55396    0.000
 3977.00    0.70347   0.59898    0.000
 3978.00    0.76951   0.63927    0.000
 3979.00    0.81449   0.67315    0.000
 3980.00    0.81765   0.69978    0.000
 3981.00    0.75679   0.72026    0.101
 3982.00    0.70148   0.73675    0.101
 3983.00    0.65363   0.75106    0.100
 3984.00    0.68107   0.76412    0.099
 3985.00    0.79767   0.77647    0.099
 3986.00    0.86911   0.78886    0.099
 3987.00    0.89342   0.80101    0.100
 3988.00    0.89744   0.81178    0.100
 3989.00    0.88275   0.82124    0.100
 3990.00    0.89474   0.82978    0.099
 3991.00    0.92839   0.83674    0.097
 3992.00    0.95140   0.84114    0.097
 3993.00    0.96681   0.84266    0.098
 3994.00    0.97537   0.84183    0.099
 3995.00    0.97964   0.83979    0.100
 3996.00    0.95289   0.83849    0.100
 3997.00    0.90916   0.84034    0.099
 3998.00    0.88603   0.84594    0.098
 3999.00    0.87272   0.85331    0.097
 4000.00    0.87241   0.86044    0.098
 4001.00    0.87743   0.86617    0.100
 4002.00    0.90199   0.86840    0.101
 4003.00    0.93342   0.86530    0.103
 4004.00    0.93612   0.85899    0.103
 4005.00    0.93031   0.85436    0.102
 4006.00    0.96683   0.85408    0.103
 4007.00    1.01375   0.85787    0.104
 4008.00    0.95152   0.86487    0.103
 4009.00    0.86759   0.87419    0.102
 4010.00    0.93447   0.88457    0.102
 4011.00    1.02477   0.89476    0.103
 4012.00    1.03369   0.90377    0.103
 4013.00    1.03325   0.91101    0.103
 4014.00    1.01333   0.91663    0.104
 4015.00    0.99191   0.92051    0.105
 4016.00    0.98650   0.92298    0.105
 4017.00    0.98175   0.92554    0.105
 4018.00    1.01669   0.92820    0.104
 4019.00    1.05090   0.92927    0.103
 4020.00    1.03758   0.92842    0.103
 4021.00    1.02592   0.92643    0.102
 4022.00    1.04369   0.92352    0.102
 4023.00    1.06155   0.92027    0.103
 4024.00    1.08049   0.91820    0.103
 4025.00    1.09765   0.91748    0.104
 4026.00    1.10123   0.91628    0.104
 4027.00    1.09766   0.91213    0.105
 4028.00    1.05279   0.90266    0.106
 4029.00    1.00600   0.88780    0.107
 4030.00    0.95044   0.87130    0.106
 4031.00    0.92262   0.85710    0.104
 4032.00    0.99891   0.84776    0.103
 4033.00    1.04234   0.84600    0.103
 4034.00    0.98280   0.85335    0.105
 4035.00    0.95583   0.86884    0.106
 4036.00    1.01548   0.88894    0.106
 4037.00    1.05046   0.90831    0.106
 4038.00    1.02912   0.92223    0.105
 4039.00    1.01921   0.92857    0.104
 4040.00    1.03190   0.92769    0.102
 4041.00    1.04860   0.92007    0.101
 4042.00    1.07223   0.90499    0.100
 4043.00    1.05440   0.88389    0.100
 4044.00    0.97403   0.86290    0.099
 4045.00    0.92072   0.85000    0.098
 4046.00    0.90326   0.84852    0.097
 4047.00    0.91630   0.85548    0.098
 4048.00    0.96497   0.86705    0.100
 4049.00    0.98825   0.88083    0.101
 4050.00    0.98541   0.89355    0.100
 4051.00    0.94569   0.90203    0.100
 4052.00    0.87249   0.90467    0.100
 4053.00    0.83862   0.90136    0.100
 4054.00    0.83625   0.89437    0.100
 4055.00    0.89023   0.88630    0.100
 4056.00    0.98389   0.87804    0.100
 4057.00    1.00000   0.87126    0.101
 4058.00    0.96820   0.86766    0.101
 4059.00    0.92099   0.86557    0.100
 4060.00    0.86547   0.86148    0.098
 4061.00    0.82384   0.85341    0.098
 4062.00    0.78872   0.84360    0.100
 4063.00    0.77302   0.83733    0.100
 4064.00    0.76517   0.83641    0.099
 4065.00    0.81599   0.83806    0.099
 4066.00    0.88704   0.84176    0.100
 4067.00    0.86459   0.84896    0.100
 4068.00    0.81499   0.85756    0.099
 4069.00    0.82122   0.86279    0.099
 4070.00    0.84085   0.86274    0.100
 4071.00    0.86977   0.86028    0.101
 4072.00    0.90048   0.85773    0.101
 4073.00    0.96561   0.85331    0.102
 4074.00    1.03593   0.84510    0.103
 4075.00    0.98384   0.83448    0.102
 4076.00    0.91821   0.82592    0.102
 4077.00    0.91253   0.82423    0.101
 4078.00    0.91125   0.83007    0.100
 4079.00    0.85749   0.84074    0.100
 4080.00    0.80172   0.85350    0.100
 4081.00    0.81068   0.86574    0.099
 4082.00    0.82252   0.87621    0.098
 4083.00    0.92906   0.88531    0.100
 4084.00    1.02690   0.89326    0.102
 4085.00    0.98137   0.90077    0.101
 4086.00    0.93999   0.90872    0.099
 4087.00    0.94126   0.91626    0.100
 4088.00    0.92684   0.92160    0.100
 4089.00    0.79735   0.92365    0.098
 4090.00    0.71027   0.92151    0.097
 4091.00    0.86115   0.91457    0.097
 4092.00    0.99227   0.90306    0.000
 4093.00    1.03498   0.88596    0.000
 4094.00    1.05208   0.86223    0.000
 4095.00    0.97510   0.83436    0.000
 4096.00    0.91526   0.80533    0.000
 4097.00    0.90812   0.77598    0.000
 4098.00    0.88349   0.74654    0.000
 4099.00    0.81313   0.71792    0.000
 4100.00    0.77402   0.69370    0.000
 4101.00    0.80513   0.68005    0.000
 4102.00    0.83580   0.67923    0.000
 4103.00    0.86562   0.68893    0.000
 4104.00    0.87325   0.70658    0.000
 4105.00    0.84323   0.72938    0.000
 4106.00    0.84176   0.75377    0.000
 4107.00    0.88274   0.77690    0.000
 4108.00    0.91206   0.79652    0.000
 4109.00    0.92613   0.81214    0.000
 4110.00    0.90272   0.82539    0.000
 4111.00    0.83619   0.83781    0.000
 4112.00    0.80947   0.85015    0.000
 4113.00    0.82318   0.86209    0.093
 4114.00    0.83747   0.87279    0.093
 4115.00    0.85229   0.88136    0.092
 4116.00    0.89061   0.88611    0.092
 4117.00    0.94749   0.88628    0.094
 4118.00    0.97609   0.88432    0.095
 4119.00    0.98506   0.88278    0.096
 4120.00    0.95214   0.88145    0.095
 4121.00    0.89373   0.88019    0.093
 4122.00    0.85173   0.88022    0.093
 4123.00    0.81845   0.88225    0.094
 4124.00    0.81531   0.88467    0.094
 4125.00    0.82606   0.88450    0.093
 4126.00    0.89883   0.88060    0.094
 4127.00    0.99624   0.87422    0.095
 4128.00    0.99817   0.86706    0.096
 4129.00    0.96779   0.85925    0.098
 4130.00    0.89813   0.85059    0.097
 4131.00    0.81730   0.84316    0.096
 4132.00    0.83956   0.84076    0.096
 4133.00    0.88601   0.84498    0.096
 4134.00    0.88293   0.85535    0.096
 4135.00    0.87050   0.86905    0.096
 4136.00    0.90442   0.88245    0.097
 4137.00    0.94511   0.89459    0.098
 4138.00    0.87330   0.90375    0.098
 4139.00    0.78953   0.90684    0.098
 4140.00    0.78409   0.90212    0.097
 4141.00    0.78406   0.88969    0.097
 4142.00    0.82137   0.87399    0.098
 4143.00    0.85997   0.86237    0.098
 4144.00    0.85786   0.85763    0.098
 4145.00    0.85494   0.85742    0.098
 4146.00    0.82754   0.85969    0.098
 4147.00    0.80201   0.86348    0.099
 4148.00    0.80529   0.86758    0.099
 4149.00    0.81685   0.87114    0.099
 4150.00    0.91012   0.87289    0.100
 4151.00    0.97341   0.87171    0.100
 4152.00    0.82388   0.86848    0.099
 4153.00    0.70653   0.86501    0.099
 4154.00    0.76488   0.86344    0.098
 4155.00    0.82465   0.86472    0.098
 4156.00    0.89066   0.86913    0.098
 4157.00    0.93293   0.87694    0.098
 4158.00    0.88980   0.88689    0.097
 4159.00    0.86052   0.89720    0.097
 4160.00    0.87300   0.90697    0.096
 4161.00    0.89290   0.91623    0.095
 4162.00    0.93182   0.92333    0.096
 4163.00    0.95981   0.92633    0.097
 4164.00    0.96364   0.92569    0.097
 4165.00    0.96150   0.92165    0.098
 4166.00    0.94795   0.91457    0.099
 4167.00    0.93198   0.90647    0.098
 4168.00    0.91194   0.89784    0.097
 4169.00    0.88126   0.88695    0.096
 4170.00    0.83496   0.87271    0.096
 4171.00    0.81998   0.85652    0.096
 4172.00    0.84531   0.84278    0.096
 4173.00    0.84811   0.83418    0.095
 4174.00    0.82533   0.82945    0.094
 4175.00    0.81490   0.82689    0.095
 4176.00    0.81682   0.82649    0.096
 4177.00    0.84710   0.82983    0.097
 4178.00    0.90242   0.83741    0.095
 4179.00    0.89973   0.84635    0.094
 4180.00    0.85192   0.85324    0.093
 4181.00    0.85974   0.85822    0.092
 4182.00    0.90561   0.86369    0.092
 4183.00    0.86537   0.87001    0.092
 4184.00    0.77352   0.87537    0.092
 4185.00    0.80345   0.87700    0.092
 4186.00    0.89709   0.87594    0.092
 4187.00    0.96707   0.87741    0.092
 4188.00    1.02631   0.88230    0.093
 4189.00    1.00388   0.88686    0.092
 4190.00    0.94956   0.88959    0.091
 4191.00    0.86494   0.89283    0.090
 4192.00    0.77025   0.89683    0.089
 4193.00    0.77990   0.89685    0.090
 4194.00    0.81864   0.88997    0.091
 4195.00    0.90492   0.87869    0.092
 4196.00    1.00209   0.86628    0.094
 4197.00    0.96008   0.85370    0.094
 4198.00    0.89248   0.84283    0.093
 4199.00    0.87258   0.83570    0.093
 4200.00    0.85943   0.83199    0.092
 4201.00    0.92479   0.83270    0.091
 4202.00    0.99815   0.83920    0.091
 4203.00    0.99088   0.84975    0.090
 4204.00    0.97835   0.86232    0.089
 4205.00    0.93339   0.87611    0.090
 4206.00    0.88757   0.89022    0.091
 4207.00    0.91965   0.90320    0.090
 4208.00    0.95119   0.91243    0.090
 4209.00    0.96645   0.91746    0.090
 4210.00    0.97854   0.92054    0.090
 4211.00    0.94440   0.92170    0.090
 4212.00    0.91534   0.91945    0.089
 4213.00    0.93437   0.91368    0.089
 4214.00    0.94822   0.90696    0.089
 4215.00    0.92646   0.90479    0.089
 4216.00    0.91358   0.90930    0.088
 4217.00    0.94789   0.91591    0.089
 4218.00    0.96920   0.92087    0.089
 4219.00    0.93496   0.92341    0.090
 4220.00    0.91077   0.92187    0.090
 4221.00    0.92199   0.91264    0.089
 4222.00    0.91805   0.89434    0.088
 4223.00    0.86918   0.86923    0.089
 4224.00    0.82586   0.84101    0.089
 4225.00    0.79657   0.81469    0.089
 4226.00    0.79070   0.79807    0.089
 4227.00    0.83575   0.79718    0.088
 4228.00    0.86429   0.80858    0.088
 4229.00    0.86167   0.82552    0.086
 4230.00    0.86205   0.84446    0.085
 4231.00    0.86736   0.86166    0.086
 4232.00    0.86949   0.87468    0.086
 4233.00    0.86703   0.88297    0.086
 4234.00    0.87063   0.88521    0.086
 4235.00    0.88193   0.88315    0.087
 4236.00    0.86719   0.88177    0.086
 4237.00    0.82330   0.88316    0.085
 4238.00    0.82061   0.88790    0.085
 4239.00    0.85857   0.89643    0.085
 4240.00    0.89641   0.90780    0.086
 4241.00    0.93414   0.91935    0.088
 4242.00    0.95623   0.92942    0.089
 4243.00    0.96631   0.93803    0.089
 4244.00    0.95957   0.94216    0.089
 4245.00    0.94149   0.93904    0.090
 4246.00    0.92832   0.92998    0.091
 4247.00    0.91805   0.91872    0.093
 4248.00    0.92558   0.90671    0.094
 4249.00    0.94227   0.89341    0.093
 4250.00    0.97365   0.88314    0.094
 4251.00    1.01158   0.87907    0.094
 4252.00    0.98818   0.87742    0.094
 4253.00    0.94125   0.87547    0.093
 4254.00    0.91885   0.87573    0.092
 4255.00    0.90444   0.88069    0.091
 4256.00    0.89322   0.88659    0.090
 4257.00    0.88287   0.88757    0.090
 4258.00    0.89807   0.88518    0.091
 4259.00    0.91901   0.88478    0.091
 4260.00    0.90540   0.88987    0.092
 4261.00    0.88561   0.90046    0.093
 4262.00    0.92286   0.91285    0.093
 4263.00    0.96792   0.92467    0.093
 4264.00    1.00813   0.93540    0.093
 4265.00    1.04788   0.94248    0.092
 4266.00    1.05147   0.94168    0.092
 4267.00    1.05285   0.93186    0.092
 4268.00    1.01005   0.91440    0.091
 4269.00    0.96571   0.89081    0.091
 4270.00    0.85448   0.86425    0.089
 4271.00    0.74821   0.84216    0.088
 4272.00    0.77328   0.82990    0.089
 4273.00    0.79594   0.82514    0.089
 4274.00    0.78558   0.82730    0.089
 4275.00    0.78523   0.83892    0.089
 4276.00    0.87587   0.85765    0.090
 4277.00    0.94898   0.87710    0.092
 4278.00    0.90527   0.89107    0.090
 4279.00    0.86680   0.89896    0.089
 4280.00    0.85545   0.90434    0.087
 4281.00    0.85006   0.90645    0.085
 4282.00    0.86955   0.90396   -2.000
 4283.00    0.87796   0.89724   -2.000
 4284.00    0.84812   0.88662   -2.000
 4285.00    0.81499   0.87573   -2.000
 4286.00    0.77231   0.86600   -2.000
 4287.00    0.76219   0.85508   -2.000
 4288.00    0.83279   0.84163   -2.000
 4289.00    0.88716   0.82999   -2.000
 4290.00    0.90682   0.82610   -2.000
 4291.00    0.90096   0.82859   -2.000
 4292.00    0.84771   0.83089   -2.000
 4293.00    0.81444   0.82895   -2.000
 4294.00    0.81361   0.82584   -2.000
 4295.00    0.80439   0.82184   -2.000
 4296.00    0.78326   0.81191   -2.000
 4297.00    0.77106   0.79411   -2.000
 4298.00    0.77005   0.77079    0.084
 4299.00    0.76871   0.74924    0.084
 4300.00    0.76701   0.73320    0.083
 4301.00    0.76292   0.71965    0.083
 4302.00    0.75652   0.70854    0.083
 4303.00    0.71345   0.70206    0.082
 4304.00    0.63893   0.69927    0.080
 4305.00    0.60939   0.69808    0.080
 4306.00    0.61385   0.69637    0.081
 4307.00    0.63847   0.69549    0.082
 4308.00    0.67648   0.69983    0.081
 4309.00    0.68822   0.71064    0.082
 4310.00    0.68470   0.72792    0.083
 4311.00    0.71900   0.75116    0.083
 4312.00    0.77247   0.77980    0.082
 4313.00    0.82973   0.81331    0.082
 4314.00    0.88865   0.85132    0.082
 4315.00    0.90103   0.89147    0.082
 4316.00    0.89589   0.92646    0.082
 4317.00    0.92015   0.95146    0.082
 4318.00    0.95381   0.96631    0.083
 4319.00    0.99290   0.97076    0.083
 4320.00    1.03345   0.96429    0.084
 4321.00    1.03032   0.94827    0.083
 4322.00    1.01764   0.92464    0.083
 4323.00    0.94177   0.89759    0.084
 4324.00    0.85490   0.87300    0.084
 4325.00    0.85564   0.85812    0.084
 4326.00    0.86796   0.85781    0.083
 4327.00    0.90815   0.86756    0.083
 4328.00    0.95095   0.88086    0.084
 4329.00    0.97369   0.89533    0.083
 4330.00    0.99528   0.91147    0.000
 4331.00    1.02520   0.92592    0.000
 4332.00    1.05531   0.93137    0.000
 4333.00    1.08513   0.92591    0.000
 4334.00    1.11217   0.91188    0.000
 4335.00    1.07227   0.88892    0.000
 4336.00    1.03136   0.85680    0.000
 4337.00    0.97719   0.82151    0.000
 4338.00    0.92539   0.78903    0.000
 4339.00    0.89423   0.76188    0.000
 4340.00    0.87174   0.74596    0.000
 4341.00    0.90524   0.74549    0.000
 4342.00    0.94010   0.75708    0.000
 4343.00    0.98178   0.77714    0.000
 4344.00    1.01095   0.80487    0.000
 4345.00    0.98909   0.83512    0.000
 4346.00    0.97702   0.86107    0.000
 4347.00    0.99807   0.88164    0.000
 4348.00    1.00673   0.89772    0.000
 4349.00    0.98002   0.90529    0.000
 4350.00    0.94908   0.90252    0.000
 4351.00    0.90784   0.89819    0.083
 4352.00    0.88942   0.90048    0.083
 4353.00    0.91899   0.90578    0.085
 4354.00    0.96614   0.91039    0.085
 4355.00    1.04542   0.91877    0.085
 4356.00    1.07031   0.93305    0.085
 4357.00    1.00832   0.94728    0.085
 4358.00    0.96313   0.95823    0.084
 4359.00    0.94151   0.97041    0.084
 4360.00    0.97023   0.98511    0.084
 4361.00    1.06104   0.99717    0.085
 4362.00    1.08406   1.00468    0.086
 4363.00    1.03334   1.01196    0.086
 4364.00    1.00388   1.01925    0.085
 4365.00    0.99483   1.02057    0.085
 4366.00    1.01186   1.01420    0.085
 4367.00    1.05096   1.00549    0.085
 4368.00    1.06365   0.99749    0.085
 4369.00    1.05668   0.98754    0.086
 4370.00    1.02070   0.97573    0.086
 4371.00    0.96573   0.96557    0.086
 4372.00    0.95785   0.95704    0.085
 4373.00    0.97694   0.94825    0.084
 4374.00    0.96750   0.94139    0.084
 4375.00    0.94382   0.94046    0.084
 4376.00    0.95422   0.94377    0.084
 4377.00    0.97932   0.94480    0.085
 4378.00    0.98397   0.94030    0.085
 4379.00    0.98106   0.93245    0.085
 4380.00    0.93191   0.92220    0.084
 4381.00    0.86826   0.90505    0.084
 4382.00    0.86209   0.87984    0.083
 4383.00    0.87095   0.85655    0.083
 4384.00    0.89872   0.84516    0.083
 4385.00    0.93054   0.84441    0.083
 4386.00    0.92618   0.84809    0.083
 4387.00    0.91571   0.85629    0.083
 4388.00    0.89127   0.87110    0.083
 4389.00    0.86505   0.88839    0.082
 4390.00    0.89632   0.90399    0.083
 4391.00    0.93272   0.91818    0.084
 4392.00    0.91236   0.93051    0.084
 4393.00    0.88898   0.93899    0.084
 4394.00    0.91805   0.94549    0.084
 4395.00    0.94818   0.95434    0.084
 4396.00    0.98142   0.96405    0.084
 4397.00    1.01043   0.96879    0.085
 4398.00    0.94658   0.96685    0.083
 4399.00    0.89402   0.96076    0.082
 4400.00    0.98109   0.95503    0.084
 4401.00    1.05342   0.95039    0.085
 4402.00    1.00182   0.94060    0.085
 4403.00    0.95831   0.92458    0.085
 4404.00    0.96544   0.91326    0.085
 4405.00    0.96260   0.91341    0.085
 4406.00    0.91072   0.91746    0.084
 4407.00    0.87432   0.92052    0.083
 4408.00    0.89975   0.92920    0.083
 4409.00    0.92904   0.94565    0.083
 4410.00    0.97112   0.96186    0.084
 4411.00    0.99537   0.97338    0.084
 4412.00    0.96963   0.98090    0.083
 4413.00    0.97881   0.98285    0.082
 4414.00    1.07166   0.98018    0.083
 4415.00    1.10833   0.97878    0.084
 4416.00    1.02871   0.97974    0.083
 4417.00    0.97598   0.98135    0.082
 4418.00    0.97163   0.98533    0.083
 4419.00    0.98170   0.99217    0.083
 4420.00    1.01446   0.99788    0.082
 4421.00    1.03181   0.99986    0.082
 4422.00    1.02784   1.00105    0.083
 4423.00    1.03431   1.00308    0.083
 4424.00    1.05348   1.00259    0.084
 4425.00    1.07747   0.99904    0.084
 4426.00    1.10663   0.99661    0.084
 4427.00    1.11335   0.99744    0.083
 4428.00    1.09884   0.99708    0.083
 4429.00    1.07087   0.99201    0.083
 4430.00    1.03166   0.98713    0.083
 4431.00    1.04762   0.98541    0.083
 4432.00    1.10409   0.98285    0.083
 4433.00    1.07932   0.97763    0.082
 4434.00    1.00217   0.97452    0.082
 4435.00    0.96777   0.97809    0.082
 4436.00    0.95748   0.98603    0.082
 4437.00    0.96758   0.99361    0.082
 4438.00    0.98767   0.99984    0.084
 4439.00    1.02134   1.00496    0.084
 4440.00    1.06077   1.00790    0.083
 4441.00    1.05892   1.00753    0.082
 4442.00    1.04208   1.00550    0.082
 4443.00    1.05037   1.00611    0.083
 4444.00    1.06639   1.01090    0.084
 4445.00    1.09072   1.01650    0.084
 4446.00    1.11717   1.02132    0.084
 4447.00    1.13857   1.02815    0.083
 4448.00    1.15892   1.03447    0.082
 4449.00    1.12872   1.03398    0.083
 4450.00    1.09021   1.02777    0.083
 4451.00    1.06898   1.01994    0.082
 4452.00    1.04989   1.00888    0.081
 4453.00    1.03503   0.99198    0.080
 4454.00    1.02053   0.97351    0.079
 4455.00    0.98279   0.95963    0.079
 4456.00    0.94390   0.94888    0.078
 4457.00    0.99285   0.93821    0.078
 4458.00    1.04132   0.93082    0.078
 4459.00    0.97283   0.92963    0.078
 4460.00    0.90938   0.93136    0.078
 4461.00    0.94793   0.93492    0.000
 4462.00    0.98610   0.94344    0.000
 4463.00    1.01974   0.95420    0.000
 4464.00    1.04495   0.96247    0.000
 4465.00    1.00177   0.96991    0.000
 4466.00    0.96837   0.97884    0.000
 4467.00    0.99444   0.98664    0.000
 4468.00    1.02057   0.99190    0.000
 4469.00    1.04708   0.99851    0.000
 4470.00    1.07565   1.00838    0.000
 4471.00    1.11232   1.02042    0.000
 4472.00    1.13009   1.03439    0.000
 4473.00    1.08636   1.04899    0.000
 4474.00    1.04674   1.06091    0.000
 4475.00    1.01839   1.06926    0.000
 4476.00    1.01688   1.07493    0.000
 4477.00    1.07862   1.07564    0.000
 4478.00    1.12759   1.06939    0.000
 4479.00    1.15054   1.05902    0.000
 4480.00    1.14436   1.04936    0.000
 4481.00    1.08654   1.04330    0.000
 4482.00    1.04274   1.04178    0.078
 4483.00    1.02071   1.04345    0.078
 4484.00    1.04718   1.04704    0.078
 4485.00    1.13972   1.05235    0.078
 4486.00    1.17041   1.05743    0.079
 4487.00    1.12691   1.05848    0.079
 4488.00    1.10110   1.05456    0.078
 4489.00    1.09398   1.04876    0.077
 4490.00    1.09799   1.04396    0.076
 4491.00    1.11237   1.03995    0.077
 4492.00    1.10604   1.03554    0.078
 4493.00    1.08269   1.03166    0.078
 4494.00    1.07890   1.03143    0.078
 4495.00    1.08927   1.03509    0.077
 4496.00    1.10071   1.04040    0.077
 4497.00    1.11283   1.04783    0.077
 4498.00    1.09391   1.05867    0.077
 4499.00    1.05775   1.07102    0.077
 4500.00    1.08853   1.08248    0.077
 4501.00    1.15165   1.09549    0.078
 4502.00    1.13278   1.11085    0.078
 4503.00    1.07969   1.12381    0.078
 4504.00    1.10411   1.13213    0.078
 4505.00    1.15620   1.13852    0.077
 4506.00    1.19005   1.14343    0.077
 4507.00    1.21840   1.14455    0.077
 4508.00    1.19376   1.14226    0.077
 4509.00    1.15584   1.13843    0.076
 4510.00    1.15634   1.13281    0.076
 4511.00    1.16465   1.12526    0.076
 4512.00    1.12077   1.11686    0.076
 4513.00    1.06856   1.10835    0.076
 4514.00    1.08373   1.10065    0.075
 4515.00    1.10691   1.09488    0.075
 4516.00    1.13438   1.09009    0.076
 4517.00    1.16219   1.08533    0.077
 4518.00    1.14394   1.08265    0.076
 4519.00    1.12359   1.08236    0.075
 4520.00    1.09420   1.08044    0.075
 4521.00    1.06555   1.07328    0.075
 4522.00    1.08074   1.06304    0.075
 4523.00    1.09462   1.05243    0.076
 4524.00    1.08404   1.03899    0.074
 4525.00    1.07612   1.02149    0.073
 4526.00    1.09783   1.00378    0.074
 4527.00    1.11490   0.98967    0.075
 4528.00    1.09569   0.97862    0.075
 4529.00    1.07395   0.97040    0.075
 4530.00    1.03730   0.96627    0.075
 4531.00    1.01056   0.96772    0.074
 4532.00    1.03020   0.97278    0.074
 4533.00    1.03758   0.97897    0.074
 4534.00    0.99817   0.98714    0.073
 4535.00    0.98430   0.99978    0.073
 4536.00    1.05185   1.01548    0.074
 4537.00    1.10021   1.02943    0.075
 4538.00    1.09668   1.04025    0.075
 4539.00    1.10033   1.04910    0.075
 4540.00    1.12062   1.05605    0.075
 4541.00    1.12757   1.06045    0.075
 4542.00    1.10779   1.06172    0.075
 4543.00    1.07589   1.05851    0.074
 4544.00    1.02282   1.05254    0.074
 4545.00    1.00366   1.04846    0.073
 4546.00    1.03632   1.04582    0.073
 4547.00    1.05581   1.03997    0.072
 4548.00    1.05765   1.03140    0.073
 4549.00    1.05640   1.02623    0.073
 4550.00    1.05153   1.02531    0.000
 4551.00    1.06735   1.02366    0.000
 4552.00    1.10476   1.02153    0.000
 4553.00    1.13239   1.02301    0.000
 4554.00    1.15103   1.02856    0.000
 4555.00    1.14169   1.03658    0.000
 4556.00    1.10967   1.04717    0.000
 4557.00    1.12491   1.05869    0.000
 4558.00    1.17386   1.06893    0.000
 4559.00    1.15981   1.07764    0.000
 4560.00    1.10634   1.08467    0.000
 4561.00    1.08588   1.08834    0.000
 4562.00    1.08348   1.08745    0.000
 4563.00    1.12681   1.08405    0.000
 4564.00    1.19190   1.08170    0.000
 4565.00    1.19199   1.08193    0.000
 4566.00    1.16543   1.08315    0.000
 4567.00    1.10475   1.08444    0.000
 4568.00    1.03212   1.08756    0.000
 4569.00    1.06732   1.09173    0.000
 4570.00    1.13439   1.09290    0.000
 4571.00    1.17687   1.09280    0.000
 4572.00    1.21333   1.09576    0.000
 4573.00    1.17960   1.09777    0.000
 4574.00    1.13195   1.09469    0.000
 4575.00    1.11942   1.09117    0.000
 4576.00    1.11232   1.08943    0.000
 4577.00    1.09041   1.08440    0.000
 4578.00    1.06680   1.07424    0.000
 4579.00    1.09940   1.06318    0.000
 4580.00    1.13632   1.05456    0.000
 4581.00    1.16654   1.04802    0.000
 4582.00    1.19648   1.04239    0.000
 4583.00    1.17348   1.03944    0.000
 4584.00    1.14974   1.04111    0.000
 4585.00    1.11429   1.04561    0.000
 4586.00    1.08255   1.05112    0.000
 4587.00    1.11558   1.05728    0.000
 4588.00    1.14393   1.06311    0.000
 4589.00    1.12230   1.06653    0.000
 4590.00    1.10141   1.06698    0.000
 4591.00    1.08619   1.06534    0.000
 4592.00    1.07450   1.06291    0.000
 4593.00    1.08311   1.05963    0.000
 4594.00    1.09448   1.05552    0.000
 4595.00    1.11845   1.05243    0.000
 4596.00    1.13464   1.05136    0.000
 4597.00    1.12174   1.05176    0.000
 4598.00    1.10459   1.05294    0.000
 4599.00    1.07418   1.05367    0.000
 4600.00    1.05968   1.05472    0.000
 4601.00    1.08743   1.05794    0.000
 4602.00    1.11271   1.06236    0.000
 4603.00    1.13237   1.06675    0.000
 4604.00    1.14000   1.07261    0.000
 4605.00    1.12390   1.08105    0.000
 4606.00    1.11005   1.09074    0.000
 4607.00    1.10005   1.10106    0.000
 4608.00    1.11510   1.11061    0.000
 4609.00    1.16787   1.11773    0.000
 4610.00    1.21082   1.12261    0.000
 4611.00    1.24076   1.12578    0.000
 4612.00    1.23728   1.12647    0.000
 4613.00    1.19485   1.12556    0.000
 4614.00    1.15714   1.12431    0.000
 4615.00    1.12428   1.12237    0.000
 4616.00    1.12719   1.12163    0.000
 4617.00    1.16254   1.12238    0.000
 4618.00    1.17675   1.12199    0.000
 4619.00    1.17407   1.12187    0.000
 4620.00    1.16829   1.12459    0.000
 4621.00    1.16032   1.12616    0.000
 4622.00    1.16930   1.12566    0.000
 4623.00    1.18872   1.12667    0.000
 4624.00    1.16869   1.12711    0.000
 4625.00    1.12741   1.12462    0.000
 4626.00    1.09705   1.12300    0.000
 4627.00    1.07178   1.12216    0.000
 4628.00    1.09586   1.11811    0.000
 4629.00    1.13983   1.11398    0.000
 4630.00    1.16977   1.11330    0.000
 4631.00    1.19488   1.11094    0.000
 4632.00    1.21290   1.10400    0.000
 4633.00    1.22886   1.09791    0.000
 4634.00    1.20762   1.09418    0.000
 4635.00    1.17748   1.08832    0.000
 4636.00    1.12077   1.08042    0.000
 4637.00    1.05891   1.07508    0.000
 4638.00    1.04634   1.07203    0.000
 4639.00    1.04117   1.06877    0.000
 4640.00    1.05520   1.06652    0.000
 4641.00    1.07136   1.06505    0.000
 4642.00    1.08843   1.06145    0.000
 4643.00    1.10558   1.05629    0.000
 4644.00    1.06255   1.05162    0.000
 4645.00    1.01724   1.04553    0.000
 4646.00    1.04801   1.03881    0.000
 4647.00    1.07813   1.03563    0.000
 4648.00    1.07011   1.03644    0.000
 4649.00    1.06144   1.03898    0.000
 4650.00    1.04214   1.04309    0.000
 4651.00    1.02936   1.04952    0.000
 4652.00    1.08323   1.05693    0.000
 4653.00    1.13031   1.06270    0.000
 4654.00    1.12784   1.06735    0.000
 4655.00    1.12463   1.07310    0.000
 4656.00    1.11732   1.07988    0.000
 4657.00    1.11471   1.08656    0.000
 4658.00    1.13311   1.09293    0.000
 4659.00    1.14348   1.09748    0.000
 4660.00    1.12445   1.09849    0.000
 4661.00    1.11709   1.09499    0.000
 4662.00    1.14551   1.08559    0.000
 4663.00    1.15821   1.07204    0.000
 4664.00    1.12989   1.05700    0.000
 4665.00    1.10266   1.04011    0.000
 4666.00    1.07790   1.02341    0.000
 4667.00    1.05297   1.01327    0.000
 4668.00    1.02768   1.01078    0.000
 4669.00    1.01913   1.01180    0.000
 4670.00    1.03891   1.01674    0.000
 4671.00    1.04910   1.02723    0.000
 4672.00    1.04508   1.03986    0.000
 4673.00    1.04621   1.05078    0.000
 4674.00    1.05406   1.05983    0.000
 4675.00    1.07447   1.06698    0.000
 4676.00    1.10931   1.07029    0.000
 4677.00    1.11961   1.06937    0.000
 4678.00    1.10504   1.06709    0.000
 4679.00    1.09478   1.06532    0.000
 4680.00    1.08836   1.06234    0.000
 4681.00    1.08425   1.05913    0.000
 4682.00    1.08197   1.05922    0.000
 4683.00    1.06372   1.06123    0.000
 4684.00    1.03439   1.06290    0.000
 4685.00    1.04188   1.06542    0.000
 4686.00    1.07172   1.06834    0.000
 4687.00    1.07426   1.06970    0.000
 4688.00    1.06232   1.07071    0.000
 4689.00    1.06773   1.07190    0.000
 4690.00    1.08112   1.07198    0.000
 4691.00    1.08372   1.07305    0.000
 4692.00    1.08205   1.07589    0.000
 4693.00    1.08998   1.07737    0.000
 4694.00    1.10116   1.07721    0.000
 4695.00    1.10330   1.07737    0.000
 4696.00    1.10287   1.07561    0.000
 4697.00    1.09222   1.06931    0.000
 4698.00    1.07917   1.06141    0.000
 4699.00    1.04336   1.05478    0.000
 4700.00    1.00325   1.04782    0.000
 4701.00    0.99015   1.03943    0.000
 4702.00    0.98097   1.03273    0.000
 4703.00    0.99726   1.03046    0.000
 4704.00    1.01624   1.03006    0.000
 4705.00    1.02789   1.02878    0.000
 4706.00    1.03904   1.02817    0.000
 4707.00    1.07558   1.03076    0.000
 4708.00    1.11297   1.03436    0.000
 4709.00    1.07762   1.03737    0.000
 4710.00    1.04335   1.04170    0.000
 4711.00    1.04774   1.04769    0.000
 4712.00    1.05168   1.05372    0.000
 4713.00    1.04884   1.05954    0.000
 4714.00    1.04872   1.06698    0.000
 4715.00    1.07536   1.07645    0.000
 4716.00    1.10264   1.08580    0.000
 4717.00    1.13444   1.09388    0.000
 4718.00    1.16076   1.10283    0.000
 4719.00    1.15724   1.11254    0.000
 4720.00    1.15115   1.11932    0.000
 4721.00    1.13383   1.12210    0.000
 4722.00    1.11770   1.12241    0.000
 4723.00    1.10586   1.12001    0.000
 4724.00    1.10218   1.11432    0.000
 4725.00    1.12304   1.10513    0.000
 4726.00    1.13169   1.09280    0.000
 4727.00    1.10907   1.08024    0.000
 4728.00    1.09067   1.07004    0.000
 4729.00    1.08156   1.06123    0.000
 4730.00    1.07182   1.05401    0.000
 4731.00    1.06090   1.05180    0.000
 4732.00    1.06794   1.05349    0.000
 4733.00    1.10494   1.05666    0.000
 4734.00    1.10951   1.06244    0.000
 4735.00    1.06665   1.06835    0.000
 4736.00    1.04197   1.07224    0.000
 4737.00    1.04065   1.07786    0.000
 4738.00    1.05962   1.08470    0.000
 4739.00    1.10157   1.08795    0.000
 4740.00    1.12905   1.09026    0.000
 4741.00    1.14206   1.09571    0.000
 4742.00    1.14552   1.10142    0.000
 4743.00    1.14054   1.10464    0.000
 4744.00    1.13273   1.10716    0.000
 4745.00    1.12271   1.11153    0.000
 4746.00    1.11750   1.11609    0.000
 4747.00    1.11558   1.11744    0.000
 4748.00    1.11114   1.11692    0.000
 4749.00    1.10519   1.11703    0.000
 4750.00    1.12553   1.11526    0.000
 4751.00    1.15959   1.11019    0.000
 4752.00    1.13327   1.10476    0.000
 4753.00    1.07962   1.09980    0.000
 4754.00    1.09730   1.09433    0.000
 4755.00    1.14276   1.08914    0.000
 4756.00    1.14665   1.08533    0.000
 4757.00    1.13676   1.08145    0.000
 4758.00    1.12902   1.07717    0.000
 4759.00    1.12187   1.07316    0.000
 4760.00    1.06462   1.06756    0.000
 4761.00    0.99591   1.05924    0.074
 4762.00    1.01469   1.05146    0.069
 4763.00    1.04950   1.04565    0.069
 4764.00    1.04147   1.03965    0.069
 4765.00    1.02742   1.03563    0.069
 4766.00    1.02567   1.03705    0.068
 4767.00    1.02517   1.04134    0.068
 4768.00    1.05114   1.04700    0.068
 4769.00    1.07881   1.05560    0.068
 4770.00    1.07791   1.06524    0.069
 4771.00    1.07623   1.07337    0.069
 4772.00    1.11344   1.08174    0.069
 4773.00    1.14993   1.09111    0.069
 4774.00    1.16572   1.09781    0.067
 4775.00    1.17820   1.10141    0.067
 4776.00    1.14299   1.10547    0.067
 4777.00    1.11235   1.10896    0.068
 4778.00    1.12470   1.10755    0.067
 4779.00    1.13309   1.10307    0.067
 4780.00    1.11435   1.09997    0.067
 4781.00    1.09960   1.09516    0.066
 4782.00    1.10598   1.08616    0.065
 4783.00    1.10944   1.07932    0.064
 4784.00    1.10052   1.07575    0.065
 4785.00    1.09062   1.06970    0.065
 4786.00    1.07727   1.06478    0.065
 4787.00    1.06506   1.06575    0.065
 4788.00    1.05624   1.06759    0.065
 4789.00    1.05093   1.06968    0.065
 4790.00    1.05445   1.07663    0.066
 4791.00    1.06245   1.08546    0.066
 4792.00    1.08020   1.09301    0.066
 4793.00    1.09798   1.10160    0.066
 4794.00    1.11584   1.10919    0.066
 4795.00    1.12822   1.11270    0.067
 4796.00    1.13160   1.11408    0.067
 4797.00    1.13334   1.11402    0.067
 4798.00    1.13271   1.11151    0.067
 4799.00    1.13223   1.10797    0.067
 4800.00    1.13195   1.10508    0.067
 4801.00    1.12726   1.10276    0.067
 4802.00    1.11762   1.10083    0.067
 4803.00    1.11803   1.09832    0.067
 4804.00    1.12834   1.09521    0.068
 4805.00    1.12613   1.09323    0.067
 4806.00    1.11305   1.09105    0.067
 4807.00    1.11574   1.08761    0.066
 4808.00    1.13048   1.08597    0.067
 4809.00    1.10563   1.08722    0.067
 4810.00    1.05416   1.08875    0.067
 4811.00    1.05106   1.09102    0.067
 4812.00    1.07647   1.09577    0.067
 4813.00    1.08207   1.10126    0.067
 4814.00    1.07750   1.10626    0.067
 4815.00    1.09995   1.11146    0.067
 4816.00    1.13443   1.11603    0.067
 4817.00    1.13916   1.11910    0.067
 4818.00    1.13251   1.12039    0.067
 4819.00    1.12130   1.11845    0.067
 4820.00    1.10860   1.11447    0.067
 4821.00    1.10216   1.10992    0.067
 4822.00    1.09742   1.10291    0.068
 4823.00    1.09242   1.09485    0.067
 4824.00    1.08736   1.08965    0.067
 4825.00    1.08293   1.08607    0.067
 4826.00    1.07860   1.08209    0.067
 4827.00    1.04779   1.07926    0.067
 4828.00    1.01338   1.07813    0.067
 4829.00    1.05422   1.07798    0.067
 4830.00    1.10237   1.07721    0.068
 4831.00    1.09597   1.07507    0.068
 4832.00    1.08627   1.07433    0.067
 4833.00    1.06698   1.07566    0.067
 4834.00    1.04761   1.07500    0.066
 4835.00    1.05893   1.07244    0.066
 4836.00    1.06922   1.07169    0.067
 4837.00    1.05278   1.07098    0.067
 4838.00    1.03878   1.06714    0.067
 4839.00    1.05817   1.06245    0.067
 4840.00    1.07659   1.06044    0.068
 4841.00    1.08620   1.05909    0.067
 4842.00    1.09590   1.05615    0.067
 4843.00    1.10609   1.05469    0.066
 4844.00    1.11014   1.05519    0.066
 4845.00    1.08255   1.05479    0.067
 4846.00    1.05922   1.05319    0.067
 4847.00    1.05357   1.05036    0.067
 4848.00    1.05535   1.04640    0.000
 4849.00    1.08272   1.04220    0.000
 4850.00    1.09224   1.03501    0.000
 4851.00    1.05003   1.02368    0.000
 4852.00    1.03042   1.01251    0.000
 4853.00    1.06674   0.99989    0.000
 4854.00    1.08344   0.98094    0.000
 4855.00    1.05826   0.96011    0.000
 4856.00    1.01959   0.93991    0.000
 4857.00    0.95593   0.91599    0.000
 4858.00    0.92007   0.89229    0.000
 4859.00    0.92924   0.87342    0.000
 4860.00    0.93079   0.85676    0.000
 4861.00    0.92152   0.84668    0.000
 4862.00    0.91436   0.84745    0.000
 4863.00    0.90983   0.85327    0.000
 4864.00    0.91254   0.86346    0.000
 4865.00    0.92324   0.88184    0.000
 4866.00    0.93460   0.90080    0.000
 4867.00    0.94660   0.91407    0.000
 4868.00    0.95867   0.92755    0.000
 4869.00    0.97079   0.94022    0.000
 4870.00    0.98920   0.94589    0.000
 4871.00    1.01237   0.94991    0.000
 4872.00    1.02222   0.95838    0.000
 4873.00    1.02323   0.96653    0.000
 4874.00    1.02658   0.97306    0.000
 4875.00    1.03130   0.98485    0.066
 4876.00    1.02640   0.99890    0.066
 4877.00    1.01664   1.00822    0.065
 4878.00    1.03087   1.01744    0.065
 4879.00    1.05559   1.02756    0.066
 4880.00    1.07953   1.03116    0.067
 4881.00    1.10316   1.03009    0.067
 4882.00    1.08633   1.02977    0.067
 4883.00    1.05660   1.02633    0.066
 4884.00    1.04055   1.01849    0.066
 4885.00    1.02815   1.01223    0.067
 4886.00    1.02715   1.00740    0.066
 4887.00    1.02864   1.00151    0.066
 4888.00    0.97955   0.99957    0.066
 4889.00    0.92170   1.00235    0.066
 4890.00    0.96226   1.00684    0.066
 4891.00    1.01580   1.01683    0.066
 4892.00    1.04430   1.03231    0.066
 4893.00    1.07047   1.04835    0.066
 4894.00    1.09158   1.06539    0.066
 4895.00    1.11240   1.08245    0.065
 4896.00    1.11182   1.09509    0.066
 4897.00    1.11062   1.10410    0.066
 4898.00    1.09457   1.10925    0.067
 4899.00    1.07879   1.10844    0.068
 4900.00    1.06936   1.10630    0.067
 4901.00    1.06129   1.10474    0.066
 4902.00    1.07072   1.10044    0.065
 4903.00    1.07718   1.09606    0.065
 4904.00    1.05777   1.09498    0.065
 4905.00    1.04128   1.09321    0.065
 4906.00    1.04355   1.08863    0.065
 4907.00    1.04810   1.08504    0.065
 4908.00    1.06417   1.08229    0.065
 4909.00    1.07582   1.07724    0.065
 4910.00    1.06949   1.07221    0.065
 4911.00    1.06348   1.07028    0.065
 4912.00    1.05860   1.06851    0.065
 4913.00    1.06209   1.06489    0.065
 4914.00    1.08945   1.06104    0.065
 4915.00    1.10191   1.05538    0.066
 4916.00    1.07811   1.04517    0.065
 4917.00    1.05574   1.03241    0.065
 4918.00    1.03638   1.01995    0.064
 4919.00    1.01019   1.00737    0.064
 4920.00    0.97152   0.99667    0.063
 4921.00    0.95871   0.99291    0.063
 4922.00    0.98714   0.99602    0.063
 4923.00    1.00801   1.00256    0.063
 4924.00    1.01827   1.01444    0.064
 4925.00    1.02647   1.03222    0.064
 4926.00    1.03211   1.04878    0.064
 4927.00    1.04107   1.06319    0.064
 4928.00    1.05361   1.07796    0.063
 4929.00    1.07093   1.08708    0.063
 4930.00    1.09282   1.08950    0.063
 4931.00    1.09649   1.09035    0.063
 4932.00    1.08477   1.08637    0.063
 4933.00    1.04142   1.07678    0.062
 4934.00    0.97454   1.06821    0.063
 4935.00    0.95337   1.06025    0.063
 4936.00    0.96205   1.05191    0.062
 4937.00    0.96605   1.04741    0.062
 4938.00    0.96738   1.04668    0.063
 4939.00    0.97208   1.04955    0.063
 4940.00    0.97846   1.05707    0.000
 4941.00    1.00848   1.06597    0.000
 4942.00    1.04867   1.07614    0.000
 4943.00    1.06654   1.08918    0.000
 4944.00    1.07616   1.10019    0.000
 4945.00    1.10430   1.10764    0.000
 4946.00    1.13824   1.11565    0.000
 4947.00    1.10679   1.12244    0.000
 4948.00    1.05828   1.12466    0.000
 4949.00    1.07419   1.12477    0.000
 4950.00    1.10383   1.12368    0.000
 4951.00    1.11090   1.11911    0.000
 4952.00    1.11416   1.11059    0.000
 4953.00    1.12355   1.09846    0.000
 4954.00    1.13372   1.08580    0.000
 4955.00    1.11956   1.07436    0.000
 4956.00    1.10324   1.06152    0.000
 4957.00    1.10411   1.05119    0.000
 4958.00    1.10588   1.04843    0.000
 4959.00    1.04418   1.04889    0.000
 4960.00    0.98203   1.04977    0.000
 4961.00    0.97974   1.05387    0.000
 4962.00    0.97900   1.05983    0.000
 4963.00    1.01158   1.06282    0.000
 4964.00    1.03934   1.06264    0.000
 4965.00    1.00786   1.06233    0.000
 4966.00    0.98033   1.06183    0.000
 4967.00    0.98579   1.06024    0.000
 4968.00    0.99190   1.05983    0.000
 4969.00    1.00207   1.06196    0.000
 4970.00    1.01007   1.06566    0.000
 4971.00    1.00741   1.07000    0.000
 4972.00    1.01058   1.07438    0.000
 4973.00    1.03700   1.07809    0.000
 4974.00    1.05138   1.07910    0.000
 4975.00    1.02595   1.07637    0.000
 4976.00    1.01293   1.07092    0.000
 4977.00    1.03462   1.06165    0.000
 4978.00    1.03874   1.04800    0.000
 4979.00    1.00089   1.03371    0.000
 4980.00    0.97611   1.02006    0.000
 4981.00    0.97832   1.00570    0.000
 4982.00    0.97195   0.99460    0.000
 4983.00    0.95015   0.98996    0.000
 4984.00    0.93846   0.98858    0.000
 4985.00    0.94266   0.99061    0.000
 4986.00    0.95206   0.99811    0.000
 4987.00    0.96862   1.00729    0.000
 4988.00    0.98320   1.01624    0.000
 4989.00    0.99536   1.02513    0.000
 4990.00    1.01767   1.03201    0.000
 4991.00    1.05084   1.03780    0.000
 4992.00    1.04225   1.04191    0.000
 4993.00    0.99423   1.04277    0.000
 4994.00    0.97753   1.04347    0.000
 4995.00    0.98689   1.04287    0.000
 4996.00    0.98805   1.03850    0.000
 4997.00    0.98319   1.03344    0.000
 4998.00    0.98990   1.02709    0.000
 4999.00    1.00406   1.01787    0.000
 5000.00    1.01416   1.00905    0.000
 5001.00    1.02199   1.00052    0.000
 5002.00    0.99466   0.99136    0.000
 5003.00    0.95011   0.98482    0.000
 5004.00    0.95055   0.98067    0.000
 5005.00    0.97005   0.97662    0.000
 5006.00    0.99398   0.97494    0.000
 5007.00    1.01952   0.97581    0.000
 5008.00    1.00828   0.97531    0.000
 5009.00    0.98576   0.97381    0.000
 5010.00    0.99107   0.97241    0.000
 5011.00    1.00349   0.96892    0.000
 5012.00    0.96770   0.96398    0.000
 5013.00    0.92190   0.95903    0.000
 5014.00    0.91280   0.95436    0.000
 5015.00    0.90970   0.95184    0.000
 5016.00    0.90008   0.95141    0.000
 5017.00    0.88966   0.95204    0.000
 5018.00    0.89807   0.95519    0.000
 5019.00    0.90807   0.96090    0.000
 5020.00    0.90691   0.96654    0.000
 5021.00    0.90521   0.97208    0.000
 5022.00    0.90385   0.97951    0.000
 5023.00    0.90275   0.98673    0.000
 5024.00    0.91665   0.99235    0.000
 5025.00    0.93132   0.99942    0.000
 5026.00    0.96156   1.00650    0.000
 5027.00    0.99036   1.01208    0.000
 5028.00    1.00245   1.01919    0.000
 5029.00    1.01277   1.02618    0.061
 5030.00    1.00893   1.03101    0.061
 5031.00    1.00516   1.03497    0.061
 5032.00    1.00182   1.03662    0.061
 5033.00    0.99356   1.03483    0.061
 5034.00    0.96175   1.02903    0.061
 5035.00    0.93556   1.01942    0.060
 5036.00    0.93122   1.00869    0.061
 5037.00    0.93532   0.99619    0.061
 5038.00    0.96684   0.98358    0.062
 5039.00    0.97966   0.97560    0.062
 5040.00    0.94119   0.97073    0.062
 5041.00    0.91345   0.97017    0.062
 5042.00    0.91094   0.97686    0.061
 5043.00    0.92660   0.98588    0.060
 5044.00    0.97917   0.99552    0.061
 5045.00    1.00760   1.00715    0.062
 5046.00    0.99331   1.01631    0.062
 5047.00    0.98764   1.02072    0.062
 5048.00    0.99530   1.02305    0.062
 5049.00    0.99466   1.02442    0.062
 5050.00    0.98274   1.02444    0.062
 5051.00    0.96419   1.02488    0.062
 5052.00    0.93772   1.02824    0.061
 5053.00    0.93066   1.03410    0.061
 5054.00    0.94408   1.04128    0.061
 5055.00    0.96002   1.04952    0.062
 5056.00    0.97830   1.05816    0.063
 5057.00    1.00674   1.06588    0.063
 5058.00    1.04350   1.07118    0.062
 5059.00    1.04675   1.07401    0.062
 5060.00    1.02579   1.07411    0.062
 5061.00    1.02164   1.07049    0.063
 5062.00    1.02815   1.06482    0.063
 5063.00    1.03312   1.05723    0.063
 5064.00    1.03724   1.04713    0.063
 5065.00    1.01578   1.03829    0.063
 5066.00    0.98199   1.03145    0.063
 5067.00    0.96677   1.02420    0.063
 5068.00    0.95929   1.01893    0.063
 5069.00    0.96038   1.01746    0.063
 5070.00    0.96452   1.01633    0.063
 5071.00    0.96879   1.01391    0.063
 5072.00    0.97310   1.01278    0.063
 5073.00    0.96651   1.01221    0.063
 5074.00    0.95720   1.00865    0.064
 5075.00    0.92730   1.00288    0.063
 5076.00    0.89323   0.99754    0.063
 5077.00    0.89273   0.99160    0.062
 5078.00    0.89756   0.98355    0.062
 5079.00    0.92621   0.97645    0.061
 5080.00    0.95769   0.97320    0.061
 5081.00    0.95018   0.97197    0.061
 5082.00    0.93954   0.97251    0.061
 5083.00    0.92022   0.97740    0.060
 5084.00    0.90051   0.98563    0.060
 5085.00    0.92445   0.99452    0.059
 5086.00    0.94880   1.00397    0.059
 5087.00    0.96839   1.01401    0.059
 5088.00    0.98721   1.02340    0.059
 5089.00    0.99181   1.03103    0.060
 5090.00    0.99581   1.03672    0.060
 5091.00    0.99315   1.04066    0.060
 5092.00    0.98578   1.04213    0.059
 5093.00    0.94176   1.04053    0.059
 5094.00    0.90590   1.03632    0.058
 5095.00    0.91808   1.02982    0.059
 5096.00    0.92819   1.02214    0.059
 5097.00    0.92869   1.01435    0.059
 5098.00    0.93202   1.00672    0.059
 5099.00    0.94618   1.00128    0.059
 5100.00    0.95749   0.99847    0.058
 5101.00    0.95973   0.99664    0.058
 5102.00    0.94742   0.99630    0.057
 5103.00    0.89590   0.99653    0.057
 5104.00    0.86200   0.99607    0.057
 5105.00    0.86885   0.99564    0.058
 5106.00    0.87944   0.99387    0.058
 5107.00    0.89748   0.99220    0.058
 5108.00    0.90369   0.99295    0.058
 5109.00    0.88928   0.99346    0.058
 5110.00    0.87811   0.99590    0.058
 5111.00    0.87188   1.00236    0.058
 5112.00    0.87790   1.00850    0.058
 5113.00    0.90033   1.01554    0.058
 5114.00    0.92336   1.02416    0.059
 5115.00    0.94710   1.03020    0.060
 5116.00    0.95843   1.03430    0.061
 5117.00    0.95684   1.03639    0.062
 5118.00    0.96215   1.03437    0.061
 5119.00    0.97381   1.02902    0.061
 5120.00    0.97312   1.02072    0.061
 5121.00    0.96244   1.01036    0.061
 5122.00    0.95837   0.99878    0.061
 5123.00    0.95898   0.98675    0.060
 5124.00    0.94540   0.97690    0.060
 5125.00    0.92296   0.96922    0.060
 5126.00    0.91573   0.96337    0.060
 5127.00    0.91682   0.96136    0.060
 5128.00    0.89265   0.96239    0.060
 5129.00    0.85650   0.96479    0.060
 5130.00    0.86737   0.96926    0.059
 5131.00    0.89748   0.97536    0.059
 5132.00    0.90102   0.98054    0.059
 5133.00    0.89527   0.98445    0.060
 5134.00    0.92018   0.98847    0.060
 5135.00    0.95413   0.98940    0.061
 5136.00    0.93659   0.98710    0.061
 5137.00    0.90647   0.98579    0.062
 5138.00    0.90880   0.98154    0.062
 5139.00    0.91755   0.97523    0.061
 5140.00    0.91452   0.97280    0.061
 5141.00    0.90967   0.96851    0.061
 5142.00    0.89230   0.96343    0.060
 5143.00    0.87350   0.96323    0.059
 5144.00    0.90983   0.96147    0.060
 5145.00    0.95037   0.95883    0.061
 5146.00    0.93460   0.95960    0.062
 5147.00    0.91652   0.95896    0.062
 5148.00    0.89862   0.95796    0.061
 5149.00    0.88121   0.95893    0.060
 5150.00    0.88488   0.95920    0.060
 5151.00    0.88875   0.96079    0.060
 5152.00    0.89589   0.96445    0.060
 5153.00    0.90313   0.96849    0.060
 5154.00    0.91132   0.97489    0.060
 5155.00    0.91744   0.98251    0.061
 5156.00    0.90800   0.98954    0.061
 5157.00    0.90823   0.99662    0.061
 5158.00    0.96376   1.00058    0.061
 5159.00    1.00284   1.00039    0.061
 5160.00    0.96699   0.99660    0.060
 5161.00    0.92824   0.98568    0.060
 5162.00    0.87861   0.96899    0.059
 5163.00    0.83936   0.94866    0.059
 5164.00    0.83247   0.92302    0.059
 5165.00    0.81845   0.89546    0.059
 5166.00    0.78553   0.86937    0.058
 5167.00    0.76003   0.84514    0.058
 5168.00    0.75143   0.82521    0.058
 5169.00    0.74541   0.81196    0.058
 5170.00    0.74447   0.80601    0.058
 5171.00    0.73127   0.80631    0.058
 5172.00    0.69703   0.81321    0.058
 5173.00    0.70037   0.82686    0.058
 5174.00    0.76018   0.84340    0.058
 5175.00    0.81178   0.86050    0.058
 5176.00    0.85251   0.87758    0.058
 5177.00    0.85506   0.89098    0.058
 5178.00    0.81318   0.89827    0.057
 5179.00    0.79963   0.89970    0.057
 5180.00    0.81516   0.89619    0.057
 5181.00    0.81104   0.88992    0.056
 5182.00    0.78916   0.88194    0.056
 5183.00    0.78099   0.87602    0.056
 5184.00    0.78375   0.87600    0.056
 5185.00    0.79001   0.87915    0.057
 5186.00    0.79872   0.88665    0.057
 5187.00    0.81047   0.89877    0.057
 5188.00    0.82410   0.90959    0.057
 5189.00    0.84288   0.92021    0.057
 5190.00    0.86443   0.92975    0.000
 5191.00    0.86985   0.93431    0.000
 5192.00    0.86774   0.93883    0.000
 5193.00    0.87110   0.94372    0.000
 5194.00    0.87666   0.94583    0.000
 5195.00    0.89302   0.95031    0.000
 5196.00    0.91309   0.95730    0.000
 5197.00    0.92926   0.96202    0.000
 5198.00    0.94431   0.96655    0.000
 5199.00    0.91546   0.97073    0.000
 5200.00    0.87611   0.97081    0.000
 5201.00    0.89589   0.96697    0.000
 5202.00    0.92706   0.96069    0.000
 5203.00    0.90884   0.95210    0.000
 5204.00    0.88324   0.94086    0.000
 5205.00    0.87597   0.93051    0.000
 5206.00    0.87072   0.92395    0.000
 5207.00    0.83750   0.91904    0.000
 5208.00    0.80226   0.91874    0.000
 5209.00    0.84857   0.92515    0.000
 5210.00    0.89792   0.93344    0.000
 5211.00    0.90345   0.94428    0.060
 5212.00    0.90899   0.95795    0.060
 5213.00    0.92185   0.97024    0.060
 5214.00    0.93407   0.98115    0.060
 5215.00    0.93590   0.99126    0.060
 5216.00    0.93891   0.99921    0.061
 5217.00    0.95398   1.00501    0.060
 5218.00    0.96614   1.00929    0.060
 5219.00    0.95720   1.01124    0.060
 5220.00    0.94909   1.01019    0.060
 5221.00    0.94561   1.00640    0.060
 5222.00    0.94045   0.99975    0.060
 5223.00    0.92778   0.99020    0.060
 5224.00    0.91599   0.98016    0.060
 5225.00    0.90737   0.97134    0.060
 5226.00    0.89812   0.96312    0.060
 5227.00    0.88695   0.95948    0.060
 5228.00    0.88257   0.96068    0.059
 5229.00    0.89588   0.96249    0.059
 5230.00    0.90294   0.96895    0.059
 5231.00    0.89601   0.97791    0.058
 5232.00    0.90181   0.98439    0.058
 5233.00    0.93230   0.99346    0.058
 5234.00    0.96534   1.00292    0.059
 5235.00    1.00269   1.01022    0.058
 5236.00    1.01032   1.01930    0.058
 5237.00    0.97392   1.02804    0.058
 5238.00    0.96131   1.03536    0.058
 5239.00    0.97969   1.04224    0.058
 5240.00    0.99244   1.04719    0.058
 5241.00    0.99873   1.05005    0.058
 5242.00    1.00835   1.05053    0.058
 5243.00    1.02134   1.04831    0.057
 5244.00    1.01248   1.04414    0.057
 5245.00    0.98412   1.03804    0.058
 5246.00    0.97000   1.03000    0.058
 5247.00    0.96707   1.02235    0.058
 5248.00    0.96680   1.01547    0.058
 5249.00    0.96836   1.00831    0.058
 5250.00    0.96491   1.00462    0.058
 5251.00    0.95843   1.00388    0.058
 5252.00    0.96753   1.00356    0.058
 5253.00    0.98488   1.00686    0.058
 5254.00    0.97779   1.01174    0.058
 5255.00    0.95946   1.01579    0.058
 5256.00    0.93998   1.01987    0.058
 5257.00    0.92004   1.02091    0.058
 5258.00    0.92619   1.01847    0.058
 5259.00    0.94112   1.01192    0.059
 5260.00    0.93681   0.99959    0.059
 5261.00    0.92705   0.98386    0.060
 5262.00    0.89698   0.96507    0.060
 5263.00    0.86218   0.94411    0.060
 5264.00    0.83213   0.92494    0.060
 5265.00    0.80298   0.90763    0.060
 5266.00    0.81552   0.89343    0.061
 5267.00    0.83410   0.88560    0.061
 5268.00    0.86511   0.88175    0.061
 5269.00    0.89743   0.88233    0.062
 5270.00    0.86133   0.89029    0.061
 5271.00    0.82057   0.90079    0.061
 5272.00    0.80763   0.91298    0.061
 5273.00    0.79562   0.93086    0.061
 5274.00    0.85684   0.94836    0.061
 5275.00    0.91641   0.96319    0.062
 5276.00    0.92035   0.98029    0.061
 5277.00    0.92485   0.99428    0.060
 5278.00    0.93788   1.00347    0.060
 5279.00    0.95070   1.01281    0.061
 5280.00    0.96151   1.01908    0.060
 5281.00    0.97190   1.02288    0.060
 5282.00    0.97931   1.02806    0.060
 5283.00    0.98418   1.03313    0.060
 5284.00    0.97521   1.03954    0.059
 5285.00    0.96994   1.04809    0.058
 5286.00    0.98069   1.05664    0.059
 5287.00    0.98900   1.06583    0.060
 5288.00    0.98861   1.07421    0.060
 5289.00    0.99242   1.07947    0.060
 5290.00    1.00881   1.08212    0.059
 5291.00    1.01491   1.08152    0.059
 5292.00    0.99468   1.07682    0.059
 5293.00    0.97567   1.06934    0.059
 5294.00    0.95935   1.05960    0.058
 5295.00    0.95754   1.04842    0.058
 5296.00    0.98341   1.03822    0.058
 5297.00    0.98712   1.02943    0.059
 5298.00    0.95394   1.02344    0.058
 5299.00    0.93705   1.02168    0.058
 5300.00    0.94394   1.02316    0.058
 5301.00    0.95867   1.02869    0.058
 5302.00    0.98347   1.03734    0.058
 5303.00    0.99255   1.04667    0.058
 5304.00    0.98386   1.05712    0.057
 5305.00    0.98304   1.06774    0.057
 5306.00    0.99007   1.07630    0.057
 5307.00    0.99345   1.08308    0.057
 5308.00    0.99361   1.08867    0.057
 5309.00    0.99088   1.09180    0.057
 5310.00    0.98592   1.09254    0.057
 5311.00    0.99148   1.09232    0.057
 5312.00    1.00421   1.09010    0.057
 5313.00    1.00450   1.08607    0.057
 5314.00    0.99736   1.08216    0.057
 5315.00    1.00209   1.07704    0.057
 5316.00    1.01301   1.07126    0.057
 5317.00    0.99997   1.06635    0.057
 5318.00    0.97611   1.05994    0.056
 5319.00    0.99854   1.05306    0.057
 5320.00    1.03895   1.04641    0.057
 5321.00    1.02825   1.03686    0.057
 5322.00    1.00066   1.02595    0.058
 5323.00    0.98966   1.01480    0.058
 5324.00    0.98326   1.00203    0.057
 5325.00    0.96343   0.98962    0.057
 5326.00    0.94054   0.97913    0.057
 5327.00    0.92049   0.97107    0.057
 5328.00    0.90096   0.96814    0.057
 5329.00    0.89455   0.96949    0.058
 5330.00    0.88997   0.97366    0.058
 5331.00    0.91432   0.98343    0.058
 5332.00    0.94159   0.99553    0.057
 5333.00    0.95047   1.00588    0.057
 5334.00    0.95816   1.01603    0.058
 5335.00    0.97988   1.02480    0.058
 5336.00    1.00201   1.03006    0.057
 5337.00    1.01819   1.03198    0.058
 5338.00    1.03315   1.03215    0.058
 5339.00    1.01337   1.03085    0.058
 5340.00    0.99486   1.02921    0.058
 5341.00    0.99473   1.02887    0.058
 5342.00    0.99385   1.02760    0.057
 5343.00    0.98591   1.02783    0.057
 5344.00    0.97978   1.03079    0.057
 5345.00    0.98598   1.03200    0.057
 5346.00    0.99056   1.03450    0.056
 5347.00    0.98656   1.03900    0.056
 5348.00    0.98520   1.04298    0.056
 5349.00    0.99510   1.04921    0.056
 5350.00    1.00473   1.05649    0.057
 5351.00    1.01338   1.06429    0.056
 5352.00    1.01758   1.07411    0.056
 5353.00    1.00862   1.08401    0.057
 5354.00    1.00596   1.09292    0.057
 5355.00    1.01913   1.10024    0.056
 5356.00    1.04336   1.10604    0.056
 5357.00    1.09156   1.10956    0.056
 5358.00    1.12579   1.10884    0.057
 5359.00    1.13378   1.10558    0.057
 5360.00    1.12633   1.10058    0.056
 5361.00    1.09355   1.09223    0.056
 5362.00    1.06128   1.08252    0.056
 5363.00    1.02976   1.07242    0.056
 5364.00    1.00245   1.06065    0.056
 5365.00    0.98050   1.04981    0.056
 5366.00    0.96373   1.03994    0.055
 5367.00    0.95274   1.02995    0.056
 5368.00    0.94755   1.02269   -2.000
 5369.00    0.94807   1.01817   -2.000
 5370.00    0.94383   1.01584   -2.000
 5371.00    0.93545   1.01736   -2.000
 5372.00    0.92068   1.02256   -2.000
 5373.00    0.90105   1.02954   -2.000
 5374.00    0.90945   1.03864   -2.000
 5375.00    0.93666   1.04900   -2.000
 5376.00    0.97191   1.05709   -2.000
 5377.00    1.01189   1.06396   -2.000
 5378.00    1.03435   1.06978   -2.000
 5379.00    1.04783   1.07201   -2.000
 5380.00    1.02365   1.07240   -2.000
 5381.00    0.98273   1.07227   -2.000
 5382.00    0.99841   1.07031   -2.000
 5383.00    1.03571   1.06801    0.057
 5384.00    1.02266   1.06639    0.057
 5385.00    0.99329   1.06319    0.056
 5386.00    1.00106   1.05955    0.057
 5387.00    1.01891   1.05604    0.057
 5388.00    1.01237   1.05037    0.057
 5389.00    1.00040   1.04416    0.057
 5390.00    0.98042   1.03762    0.057
 5391.00    0.95901   1.02941    0.057
 5392.00    0.94437   1.02221    0.056
 5393.00    0.93066   1.01539    0.056
 5394.00    0.95394   1.00829    0.056
 5395.00    0.98079   1.00353    0.056
 5396.00    0.95545   0.99968    0.056
 5397.00    0.92696   0.99693    0.056
 5398.00    0.90491   0.99549    0.055
 5399.00    0.88329   0.99306    0.055
 5400.00    0.90681   0.99176    0.055
 5401.00    0.92884   0.99051    0.056
 5402.00    0.91271   0.98611    0.055
 5403.00    0.89758   0.98156    0.055
 5404.00    0.89611   0.97849    0.055
 5405.00    0.89517   0.97492    0.055
 5406.00    0.89913   0.97226    0.055
 5407.00    0.90302   0.97274    0.054
 5408.00    0.90650   0.97582    0.054
 5409.00    0.91222   0.98150    0.054
 5410.00    0.92949   0.99003    0.055
 5411.00    0.94557   0.99954    0.055
 5412.00    0.95674   1.00971    0.055
 5413.00    0.96283   1.02126    0.055
 5414.00    0.95144   1.03130    0.055
 5415.00    0.94784   1.03930    0.055
 5416.00    0.96676   1.04670    0.055
 5417.00    0.98394   1.05139    0.055
 5418.00    0.99683   1.05401    0.055
 5419.00    1.00020   1.05581    0.054
 5420.00    0.98327   1.05501    0.055
 5421.00    0.97487   1.05350    0.055
 5422.00    0.98223   1.05186    0.055
 5423.00    0.98090   1.04794    0.055
 5424.00    0.96551   1.04532    0.055
 5425.00    0.96247   1.04267    0.055
 5426.00    0.97694   1.03648    0.055
 5427.00    0.97336   1.03220    0.055
 5428.00    0.94727   1.02785    0.055
 5429.00    0.93597   1.02117    0.055
 5430.00    0.94093   1.01683    0.055
 5431.00    0.94122   1.01192    0.055
 5432.00    0.93699   1.00891    0.055
 5433.00    0.93254   1.01066    0.055
 5434.00    0.92792   1.01237    0.055
 5435.00    0.92969   1.01708    0.055
 5436.00    0.93629   1.02569    0.054
 5437.00    0.94903   1.03488    0.054
 5438.00    0.96584   1.04437    0.054
 5439.00    0.98318   1.05301    0.054
 5440.00    1.00083   1.05949    0.054
 5441.00    1.00454   1.06284    0.054
 5442.00    1.00121   1.06329    0.054
 5443.00    1.00208   1.05988    0.054
 5444.00    1.00477   1.05397    0.054
 5445.00    0.99823   1.04793    0.054
 5446.00    0.98821   1.04087    0.054
 5447.00    0.95952   1.03514    0.054
 5448.00    0.92489   1.03068    0.054
 5449.00    0.93241   1.02667    0.054
 5450.00    0.95114   1.02580    0.054
 5451.00    0.97056   1.02496    0.054
 5452.00    0.99013   1.02267    0.054
 5453.00    0.97222   1.02194    0.054
 5454.00    0.94784   1.02121    0.054
 5455.00    0.94468   1.02031    0.054
 5456.00    0.94431   1.02064    0.054
 5457.00    0.93698   1.02028    0.054
 5458.00    0.92901   1.02161    0.054
 5459.00    0.96045   1.02436    0.054
 5460.00    0.99411   1.02502    0.054
 5461.00    0.98929   1.02639    0.054
 5462.00    0.98363   1.02780    0.053
 5463.00    0.98135   1.02825    0.054
 5464.00    0.97816   1.02913    0.054
 5465.00    0.95355   1.02917    0.054
 5466.00    0.93215   1.02986    0.054
 5467.00    0.95200   1.03026    0.054
 5468.00    0.96950   1.02881    0.054
 5469.00    0.96659   1.02712    0.054
 5470.00    0.96472   1.02369    0.053
 5471.00    0.96948   1.01890    0.054
 5472.00    0.97239   1.01352    0.054
 5473.00    0.96608   1.00686    0.054
 5474.00    0.96338   1.00103    0.054
 5475.00    0.97532   0.99541    0.055
 5476.00    0.97562   0.99131    0.055
 5477.00    0.93670   0.99032    0.054
 5478.00    0.90191   0.98903   -2.000
 5479.00    0.87887   0.99019   -2.000
 5480.00    0.89114   0.99491   -2.000
 5481.00    0.98912   0.99959   -2.000
 5482.00    1.06521   1.00468   -2.000
 5483.00    1.09544   1.00987   -2.000
 5484.00    1.07724   1.01493   -2.000
 5485.00    0.97085   1.01999   -2.000
 5486.00    0.81208   1.02370   -2.000
 5487.00    0.56994   1.02638   -2.000
 5488.00    0.43869   1.02893   -2.000
 5489.00    0.46235   1.03015   -2.000
 5490.00    0.60168   1.03082   -2.000
 5491.00    0.88324   1.03202   -2.000
 5492.00    1.09889   1.03225   -2.000
 5493.00    1.24312   1.03251   -2.000
 5494.00    1.25831   1.03262   -2.000
 5495.00    1.15016   1.03170   -2.000
 5496.00    1.06322   1.03112   -2.000
 5497.00    0.99417   1.03053   -2.000
 5498.00    0.96961   1.02888   -2.000
 5499.00    0.97808   1.02625   -2.000
 5500.00    0.97198   1.02393   -2.000
 5501.00    0.95638   1.02239   -2.000
 5502.00    0.96018   1.01980    0.078
 5503.00    0.97505   1.01572    0.314
 5504.00    0.96402   1.01342   -1.000
 5505.00    0.94013   1.01187   -1.000
 5506.00    0.93572   1.00922   -1.000
 5507.00    0.93969   1.00785   -1.000
 5508.00    0.92204   1.00589   -1.000
 5509.00    0.89643   1.00416   -1.000
 5510.00    0.91149   1.00465    0.136
 5511.00    0.93924   1.00401    0.059
 5512.00    0.93445   1.00462    0.053
 5513.00    0.92119   1.00740    0.053
 5514.00    0.93777   1.00998    0.053
 5515.00    0.96068   1.01504    0.053
 5516.00    0.95779   1.02111    0.053
 5517.00    0.95056   1.02700    0.053
 5518.00    0.93392   1.03332    0.053
 5519.00    0.91610   1.03810    0.053
 5520.00    0.94121   1.04191    0.053
 5521.00    0.97012   1.04381    0.053
 5522.00    0.97018   1.04266    0.054
 5523.00    0.96873   1.04043    0.054
 5524.00    0.96259   1.03675    0.053
 5525.00    0.95644   1.03159    0.053
 5526.00    0.95620   1.02725    0.053
 5527.00    0.95672   1.02336    0.053
 5528.00    0.97353   1.02034    0.053
 5529.00    0.98810   1.01886    0.053
 5530.00    0.97540   1.01828    0.052
 5531.00    0.96435   1.01957    0.052
 5532.00    0.96716   1.02196    0.052
 5533.00    0.96914   1.02461    0.052
 5534.00    0.96599   1.02732    0.052
 5535.00    0.96482   1.03028    0.052
 5536.00    0.97337   1.03370    0.052
 5537.00    0.98145   1.03638    0.052
 5538.00    0.98762   1.03984    0.053
 5539.00    0.99330   1.04311    0.053
 5540.00    0.99733   1.04473    0.053
 5541.00    1.00043   1.04711    0.062
 5542.00    1.00095   1.04922    0.150
 5543.00    1.00355   1.05030   -1.000
 5544.00    1.01111   1.05180   -1.000
 5545.00    1.01215   1.05303   -1.000
 5546.00    0.99972   1.05467   -1.000
 5547.00    0.99645   1.05695   -1.000
 5548.00    1.00961   1.05827   -1.000
 5549.00    1.01551   1.05966    0.268
 5550.00    1.01002   1.06099    0.075
 5551.00    1.01222   1.06069    0.053
 5552.00    1.02498   1.05983    0.053
 5553.00    1.02850   1.05865    0.053
 5554.00    1.02081   1.05635    0.053
 5555.00    0.99759   1.05383    0.052
 5556.00    0.95778   1.05117    0.052
 5557.00    0.94644   1.04835    0.052
 5558.00    0.96195   1.04608    0.052
 5559.00    0.98150   1.04290    0.052
 5560.00    1.00441   1.03932    0.052
 5561.00    1.00307   1.03663    0.052
 5562.00    0.98400   1.03298    0.053
 5563.00    0.95754   1.02926    0.053
 5564.00    0.92632   1.02600    0.052
 5565.00    0.91318   1.02279    0.052
 5566.00    0.91019   1.02033    0.052
 5567.00    0.93017   1.01830    0.052
 5568.00    0.96139   1.01742    0.052
 5569.00    0.96746   1.01668    0.052
 5570.00    0.96291   1.01677    0.052
 5571.00    0.96562   1.01823    0.052
 5572.00    0.97096   1.01945    0.051
 5573.00    0.97324   1.02214    0.052
 5574.00    0.97457   1.02474    0.052
 5575.00    0.96866   1.02620    0.052
 5576.00    0.96091   1.02958    0.051
 5577.00    0.95158   1.03219    0.051
 5578.00    0.94191   1.03211    0.051
 5579.00    0.96520   1.03230    0.052
 5580.00    0.99385   1.03085    0.052
 5581.00    0.99236   1.02681    0.052
 5582.00    0.98718   1.02220    0.051
 5583.00    0.98770   1.01498    0.052
 5584.00    0.98870   1.00615    0.053
 5585.00    0.95970   0.99834    0.052
 5586.00    0.92924   0.99001    0.052
 5587.00    0.90632   0.98301    0.052
 5588.00    0.88369   0.97795    0.052
 5589.00    0.87201   0.97424    0.051
 5590.00    0.86182   0.97395    0.051
 5591.00    0.88129   0.97501    0.052
 5592.00    0.90045   0.97791    0.053
 5593.00    0.91606   0.98281    0.053
 5594.00    0.92630   0.98622    0.053
 5595.00    0.89339   0.98900    0.053
 5596.00    0.87013   0.99147    0.053
 5597.00    0.90517   0.99311    0.053
 5598.00    0.93594   0.99504    0.054
 5599.00    0.94630   0.99574    0.054
 5600.00    0.95110   0.99577    0.054
 5601.00    0.93429   0.99900    0.054
 5602.00    0.92162   1.00365    0.054
 5603.00    0.92232   1.00897    0.053
 5604.00    0.92733   1.01591    0.053
 5605.00    0.94414   1.02332    0.053
 5606.00    0.95434   1.03168    0.053
 5607.00    0.94903   1.03879    0.052
 5608.00    0.95070   1.04365    0.052
 5609.00    0.96654   1.04644    0.052
 5610.00    0.97809   1.04670    0.052
 5611.00    0.98206   1.04424    0.052
 5612.00    0.97796   1.03851    0.052
 5613.00    0.96143   1.03254    0.051
 5614.00    0.95378   1.02678    0.051
 5615.00    0.95819   1.02043    0.050
 5616.00    0.96492   1.01467    0.050
 5617.00    0.97441   1.00906    0.051
 5618.00    0.96597   1.00653    0.051
 5619.00    0.93862   1.00686    0.050
 5620.00    0.92871   1.00641    0.050
 5621.00    0.93500   1.00558    0.050
 5622.00    0.93628   1.00587    0.049
 5623.00    0.93345   1.00759    0.050
 5624.00    0.93451   1.00959    0.050
 5625.00    0.93836   1.01149    0.050
 5626.00    0.93954   1.01355    0.050
 5627.00    0.93903   1.01677    0.050
 5628.00    0.93594   1.02153    0.050
 5629.00    0.93143   1.02554    0.051
 5630.00    0.93765   1.02836    0.051
 5631.00    0.94904   1.03077    0.050
 5632.00    0.96252   1.03180    0.051
 5633.00    0.97686   1.03121    0.051
 5634.00    0.96366   1.02922    0.051
 5635.00    0.94067   1.02614    0.051
 5636.00    0.95078   1.02293    0.051
 5637.00    0.97083   1.01956    0.052
 5638.00    0.96115   1.01598    0.052
 5639.00    0.94406   1.01356    0.052
 5640.00    0.93120   1.01233    0.051
 5641.00    0.91919   1.01214    0.051
 5642.00    0.92264   1.01302    0.051
 5643.00    0.92855   1.01387    0.052
 5644.00    0.94770   1.01621    0.052
 5645.00    0.96840   1.01925    0.051
 5646.00    0.95929   1.02134    0.051
 5647.00    0.94779   1.02370    0.051
 5648.00    0.94608   1.02561    0.051
 5649.00    0.94480   1.02675    0.052
 5650.00    0.94871   1.02695    0.052
 5651.00    0.95259   1.02514    0.051
 5652.00    0.95225   1.02219    0.051
 5653.00    0.95245   1.01926    0.051
 5654.00    0.96249   1.01461    0.050
 5655.00    0.96999   1.00797    0.050
 5656.00    0.94942   1.00191    0.050
 5657.00    0.92676   0.99691    0.050
 5658.00    0.88786   0.99314    0.050
 5659.00    0.85803   0.98978    0.050
 5660.00    0.88144   0.98667    0.049
 5661.00    0.90393   0.98719    0.049
 5662.00    0.92215   0.99048    0.049
 5663.00    0.93905   0.99351    0.049
 5664.00    0.95098   0.99611    0.049
 5665.00    0.95743   0.99991    0.049
 5666.00    0.94647   1.00512    0.049
 5667.00    0.93733   1.01017    0.050
 5668.00    0.93311   1.01472    0.050
 5669.00    0.93095   1.01898    0.050
 5670.00    0.93355   1.02391    0.050
 5671.00    0.93342   1.02915    0.050
 5672.00    0.92783   1.03359    0.050
 5673.00    0.93630   1.03776    0.050
 5674.00    0.96924   1.04136    0.051
 5675.00    0.98554   1.04375    0.051
 5676.00    0.97653   1.04460    0.051
 5677.00    0.97303   1.04384    0.052
 5678.00    0.97692   1.04227    0.052
 5679.00    0.97111   1.03914    0.052
 5680.00    0.95390   1.03498    0.052
 5681.00    0.94237   1.03058    0.052
 5682.00    0.93676   1.02655    0.052
 5683.00    0.93306   1.02278    0.051
 5684.00    0.93111   1.01876    0.051
 5685.00    0.92916   1.01625    0.050
 5686.00    0.92722   1.01579    0.050
 5687.00    0.92924   1.01691    0.050
 5688.00    0.93406   1.01840    0.051
 5689.00    0.92509   1.02075    0.050
 5690.00    0.90751   1.02383    0.050
 5691.00    0.92082   1.02738    0.050
 5692.00    0.95097   1.03096    0.050
 5693.00    0.97430   1.03302    0.050
 5694.00    0.99441   1.03427    0.050
 5695.00    0.99957   1.03348    0.050
 5696.00    0.99864   1.03155    0.051
 5697.00    0.98605   1.02872    0.051
 5698.00    0.96939   1.02415    0.051
 5699.00    0.96786   1.01949    0.051
 5700.00    0.97078   1.01381    0.051
 5701.00    0.96743   1.00853    0.050
 5702.00    0.96255   1.00366    0.050
 5703.00    0.96606   0.99739    0.050
 5704.00    0.97121   0.99221    0.050
 5705.00    0.94898   0.98772    0.049
 5706.00    0.92255   0.98323    0.049
 5707.00    0.90356   0.98045    0.049
 5708.00    0.88540   0.97760    0.049
 5709.00    0.89344   0.97651    0.049
 5710.00    0.90346   0.97889    0.049
 5711.00    0.89857   0.98195    0.049
 5712.00    0.89308   0.98777    0.049
 5713.00    0.91418   0.99516    0.049
 5714.00    0.93508   1.00255    0.050
 5715.00    0.93866   1.01207    0.050
 5716.00    0.94235   1.02123    0.051
 5717.00    0.94804   1.02923    0.050
 5718.00    0.95446   1.03695    0.050
 5719.00    0.96857   1.04315    0.050
 5720.00    0.98107   1.04822    0.051
 5721.00    0.98152   1.05248    0.051
 5722.00    0.98311   1.05501    0.051
 5723.00    0.99126   1.05602    0.051
 5724.00    0.99779   1.05582    0.050
 5725.00    0.99691   1.05526    0.050
 5726.00    0.99371   1.05431    0.050
 5727.00    0.98190   1.05283    0.050
 5728.00    0.96949   1.05060    0.050
 5729.00    0.95521   1.04859    0.050
 5730.00    0.94297   1.04846    0.050
 5731.00    0.93616   1.04880    0.049
 5732.00    0.93219   1.04920    0.049
 5733.00    0.93470   1.04914    0.049
 5734.00    0.93699   1.04946    0.048
 5735.00    0.93886   1.05101    0.048
 5736.00    0.94731   1.05200    0.048
 5737.00    0.96702   1.05251    0.048
 5738.00    0.98246   1.05258    0.048
 5739.00    0.99149   1.05214    0.048
 5740.00    0.99793   1.05192    0.000
 5741.00    1.00099   1.05182    0.000
 5742.00    1.00237   1.05163    0.000
 5743.00    1.00183   1.05130    0.000
 5744.00    1.00228   1.05014    0.000
 5745.00    1.00377   1.04839    0.000
 5746.00    0.99860   1.04748    0.000
 5747.00    0.98744   1.04655    0.000
 5748.00    0.97493   1.04488    0.000
 5749.00    0.96136   1.04204    0.000
 5750.00    0.95967   1.03865    0.000
 5751.00    0.96631   1.03655    0.000
 5752.00    0.97986   1.03564    0.000
 5753.00    0.99766   1.03486    0.000
 5754.00    0.99668   1.03364    0.000
 5755.00    0.98562   1.03280    0.000
 5756.00    0.97465   1.03266    0.000
 5757.00    0.96373   1.03331    0.000
 5758.00    0.96234   1.03402    0.000
 5759.00    0.96479   1.03391    0.000
 5760.00    0.97119   1.03381    0.000
 5761.00    0.97893   1.03466    0.000
 5762.00    0.99009   1.03565    0.000
 5763.00    1.00224   1.03708    0.000
 5764.00    0.99924   1.03897    0.000
 5765.00    0.99264   1.04132    0.000
 5766.00    0.99775   1.04469    0.000
 5767.00    1.00511   1.04752    0.000
 5768.00    1.00851   1.04939    0.000
 5769.00    1.01132   1.05031    0.000
 5770.00    1.01195   1.05069    0.000
 5771.00    1.01234   1.05003    0.000
 5772.00    1.00305   1.04834    0.000
 5773.00    0.99306   1.04612    0.000
 5774.00    1.00474   1.04271    0.000
 5775.00    1.01722   1.03894    0.000
 5776.00    1.00685   1.03408    0.000
 5777.00    0.99619   1.02790    0.000
 5778.00    0.97821   1.02143    0.000
 5779.00    0.96073   1.01493    0.000
 5780.00    0.95138   1.00864    0.000
 5781.00    0.94127   1.00267    0.000
 5782.00    0.92349   0.99697    0.000
 5783.00    0.90779   0.99317    0.000
 5784.00    0.90712   0.99245    0.000
 5785.00    0.90834   0.99334    0.000
 5786.00    0.92005   0.99606    0.000
 5787.00    0.92980   0.99926    0.000
 5788.00    0.93091   1.00369    0.000
 5789.00    0.93468   1.01015    0.000
 5790.00    0.94820   1.01578    0.000
 5791.00    0.95906   1.02163   -2.000
 5792.00    0.96179   1.02675   -2.000
 5793.00    0.95946   1.03075   -2.000
 5794.00    0.94398   1.03514   -2.000
 5795.00    0.93240   1.03860   -2.000
 5796.00    0.92955   1.04232   -2.000
 5797.00    0.93973   1.04578   -2.000
 5798.00    0.97514   1.04817   -2.000
 5799.00    0.99454   1.05017   -2.000
 5800.00    0.98695   1.05148   -2.000
 5801.00    0.97560   1.05282   -2.000
 5802.00    0.95866   1.05385   -2.000
 5803.00    0.96257   1.05396   -2.000
 5804.00    0.99355   1.05368   -2.000
 5805.00    1.00972   1.05298   -2.000
 5806.00    1.00895   1.05179   -2.000
 5807.00    1.00830   1.05121   -2.000
 5808.00    1.00778   1.05090   -2.000
 5809.00    1.00136   1.05063   -2.000
 5810.00    0.98970   1.05063   -2.000
 5811.00    0.99000   1.05019    0.000
 5812.00    0.99968   1.04999    0.000
 5813.00    1.00244   1.04983    0.000
 5814.00    1.00044   1.04989    0.000
 5815.00    0.99577   1.05070    0.000
 5816.00    0.98948   1.05141    0.000
 5817.00    0.99137   1.05253    0.000
 5818.00    0.99757   1.05405    0.000
 5819.00    0.98886   1.05609    0.000
 5820.00    0.97332   1.05877    0.000
 5821.00    0.97572   1.06100    0.000
 5822.00    0.98520   1.06314    0.000
 5823.00    0.99578   1.06482    0.000
 5824.00    1.00674   1.06612    0.000
 5825.00    1.01900   1.06715    0.000
 5826.00    1.03164   1.06791    0.000
 5827.00    1.02170   1.06854    0.000
 5828.00    1.00650   1.06852    0.000
 5829.00    1.00168   1.06832    0.000
 5830.00    0.99880   1.06784    0.000
 5831.00    0.98448   1.06715    0.000
 5832.00    0.96851   1.06627    0.000
 5833.00    0.98419   1.06543    0.000
 5834.00    1.00318   1.06462    0.000
 5835.00    0.99372   1.06380    0.000
 5836.00    0.98234   1.06321    0.000
 5837.00    0.99095   1.06303    0.000
 5838.00    1.00023   1.06342    0.000
 5839.00    1.00938   1.06371    0.000
 5840.00    1.01806   1.06364    0.000
 5841.00    1.01200   1.06338    0.000
 5842.00    1.00606   1.06283    0.000
 5843.00    1.00204   1.06152    0.000
 5844.00    0.99828   1.05921    0.000
 5845.00    0.99712   1.05624    0.000
 5846.00    0.99599   1.05246    0.000
 5847.00    0.99516   1.04801    0.000
 5848.00    0.99187   1.04289    0.000
 5849.00    0.97532   1.03714    0.000
 5850.00    0.96408   1.03122    0.000
 5851.00    0.97587   1.02567    0.000
 5852.00    0.98140   1.02034    0.000
 5853.00    0.96455   1.01499    0.000
 5854.00    0.94886   1.00969    0.000
 5855.00    0.93670   1.00521    0.000
 5856.00    0.92788   1.00272    0.000
 5857.00    0.92759   1.00137    0.000
 5858.00    0.92955   1.00100    0.000
 5859.00    0.93645   1.00092    0.000
 5860.00    0.93797   1.00222    0.000
 5861.00    0.92925   1.00523    0.000
 5862.00    0.92718   1.00839    0.000
 5863.00    0.93618   1.01181    0.000
 5864.00    0.94295   1.01478    0.000
 5865.00    0.94648   1.01817    0.000
 5866.00    0.94391   1.02175    0.000
 5867.00    0.93353   1.02491    0.000
 5868.00    0.93016   1.02749    0.000
 5869.00    0.93472   1.02957    0.000
 5870.00    0.93922   1.03153    0.000
 5871.00    0.94367   1.03302    0.000
 5872.00    0.94564   1.03376    0.000
 5873.00    0.94544   1.03344    0.000
 5874.00    0.93847   1.03226    0.000
 5875.00    0.92628   1.03016    0.000
 5876.00    0.92391   1.02761    0.000
 5877.00    0.92823   1.02428    0.000
 5878.00    0.93121   1.02014    0.000
 5879.00    0.93341   1.01536    0.000
 5880.00    0.93178   1.00930    0.000
 5881.00    0.92815   1.00213    0.000
 5882.00    0.93137   0.99346    0.000
 5883.00    0.93768   0.98323    0.000
 5884.00    0.92406   0.97079    0.000
 5885.00    0.90273   0.95546    0.000
 5886.00    0.88146   0.93784    0.000
 5887.00    0.86021   0.91938    0.000
 5888.00    0.83369   0.90264    0.000
 5889.00    0.80571   0.88702    0.000
 5890.00    0.79469   0.87230    0.000
 5891.00    0.78752   0.86016    0.000
 5892.00    0.77383   0.85106    0.000
 5893.00    0.75896   0.84842    0.000
 5894.00    0.76210   0.85195    0.000
 5895.00    0.76776   0.85842    0.000
 5896.00    0.77097   0.86807    0.000
 5897.00    0.77394   0.87926    0.000
 5898.00    0.79134   0.89236    0.000
 5899.00    0.80966   0.90907    0.000
 5900.00    0.82594   0.92609    0.000
 5901.00    0.84220   0.94201    0.046
 5902.00    0.86999   0.95647    0.046
 5903.00    0.89736   0.96885    0.046
 5904.00    0.91266   0.97928    0.046
 5905.00    0.92761   0.98762    0.046
 5906.00    0.93734   0.99403    0.046
 5907.00    0.94668   0.99848    0.046
 5908.00    0.95235   1.00121    0.046
 5909.00    0.95679   1.00274    0.046
 5910.00    0.95299   1.00325    0.045
 5911.00    0.94904   1.00254    0.044
 5912.00    0.94425   1.00177    0.044
 5913.00    0.93951   1.00074    0.044
 5914.00    0.93498   0.99993    0.044
 5915.00    0.93098   0.99935    0.043
 5916.00    0.92887   0.99874    0.044
 5917.00    0.92636   0.99954    0.044
 5918.00    0.92269   1.00046    0.043
 5919.00    0.92439   1.00208    0.043
 5920.00    0.93958   1.00402    0.043
 5921.00    0.95080   1.00578    0.044
 5922.00    0.95348   1.00757    0.044
 5923.00    0.95529   1.00873    0.044
 5924.00    0.95548   1.00932    0.044
 5925.00    0.95318   1.00947    0.044
 5926.00    0.94682   1.00946    0.045
 5927.00    0.94101   1.00883    0.045
 5928.00    0.93600   1.00849    0.045
 5929.00    0.93522   1.00789    0.045
 5930.00    0.93978   1.00707    0.045
 5931.00    0.94150   1.00660    0.046
 5932.00    0.94006   1.00609    0.046
 5933.00    0.93635   1.00689    0.046
 5934.00    0.93040   1.00774    0.046
 5935.00    0.93244   1.00846    0.046
 5936.00    0.94140   1.00919    0.046
 5937.00    0.95162   1.00963    0.046
 5938.00    0.96280   1.01041    0.046
 5939.00    0.96444   1.01101    0.046
 5940.00    0.95969   1.01155    0.045
 5941.00    0.95150   1.01204    0.045
 5942.00    0.94128   1.01197    0.044
 5943.00    0.94222   1.01144    0.044
 5944.00    0.94887   1.01094    0.044
 5945.00    0.94370   1.01031    0.044
 5946.00    0.93330   1.00946    0.043
 5947.00    0.93280   1.00852    0.043
 5948.00    0.93608   1.00735    0.043
 5949.00    0.94103   1.00586    0.043
 5950.00    0.94653   1.00409    0.043
 5951.00    0.94818   1.00280    0.043
 5952.00    0.94879   1.00211    0.043
 5953.00    0.94831   1.00173    0.043
 5954.00    0.94758   1.00159    0.043
 5955.00    0.95450   1.00203    0.044
 5956.00    0.96278   1.00344    0.044
 5957.00    0.96116   1.00535    0.044
 5958.00    0.95821   1.00744    0.044
 5959.00    0.95332   1.01000    0.044
 5960.00    0.94824   1.01266    0.044
 5961.00    0.95041   1.01538    0.045
 5962.00    0.95300   1.01807    0.046
 5963.00    0.95063   1.02037    0.046
 5964.00    0.94820   1.02268    0.046
 5965.00    0.95648   1.02425    0.046
 5966.00    0.96468   1.02572    0.045
 5967.00    0.97070   1.02675    0.045
 5968.00    0.97643   1.02738    0.045
 5969.00    0.97831   1.02796    0.045
 5970.00    0.97999   1.02772    0.045
 5971.00    0.97986   1.02704    0.045
 5972.00    0.97837   1.02556    0.045
 5973.00    0.96786   1.02349    0.044
 5974.00    0.95743   1.02094    0.044
 5975.00    0.94743   1.01819    0.044
 5976.00    0.94029   1.01532    0.043
 5977.00    0.94498   1.01246    0.043
 5978.00    0.94651   1.00957    0.043
 5979.00    0.93726   1.00692    0.043
 5980.00    0.93082   1.00474    0.042
 5981.00    0.93252   1.00284    0.042
 5982.00    0.93648   1.00163    0.042
 5983.00    0.94604   1.00085    0.043
 5984.00    0.95251   1.00026    0.043
 5985.00    0.95242   1.00022    0.043
 5986.00    0.95058   1.00041    0.042
 5987.00    0.94551   1.00163    0.042
 5988.00    0.94299   1.00355    0.043
 5989.00    0.94461   1.00551    0.043
 5990.00    0.94781   1.00803    0.044
 5991.00    0.95325   1.01003    0.044
 5992.00    0.95335   1.01173    0.045
 5993.00    0.94681   1.01272    0.045
 5994.00    0.94087   1.01325    0.045
 5995.00    0.93561   1.01352    0.045
 5996.00    0.93034   1.01315    0.045
 5997.00    0.92506   1.01216    0.045
 5998.00    0.92823   1.01066    0.045
 5999.00    0.93862   1.00881    0.045
 6000.00    0.94212   1.00669    0.044
 6001.00    0.94045   1.00487    0.044
 6002.00    0.93940   1.00284    0.044
 6003.00    0.93875   1.00075    0.044
 6004.00    0.93300   0.99877    0.044
 6005.00    0.92430   0.99671    0.044
 6006.00    0.91926   0.99547    0.043
 6007.00    0.91607   0.99434    0.043
 6008.00    0.91550   0.99329    0.043
 6009.00    0.91607   0.99268    0.043
 6010.00    0.91426   0.99187    0.042
 6011.00    0.91156   0.99173    0.042
 6012.00    0.91802   0.99183    0.043
 6013.00    0.92739   0.99170    0.043
 6014.00    0.93316   0.99136    0.042
 6015.00    0.93798   0.99061    0.042
 6016.00    0.93487   0.98995    0.043
 6017.00    0.93003   0.98939    0.043
 6018.00    0.92661   0.98901    0.043
 6019.00    0.92342   0.98891    0.043
 6020.00    0.91605   0.98958    0.044
 6021.00    0.90812   0.99043    0.044
 6022.00    0.90674   0.99189    0.044
 6023.00    0.90596   0.99438    0.044
 6024.00    0.90493   0.99711    0.044
 6025.00    0.90389   1.00080    0.043
 6026.00    0.91362   1.00443    0.044
 6027.00    0.92360   1.00864    0.045
 6028.00    0.93548   1.01269    0.045
 6029.00    0.94715   1.01637    0.045
 6030.00    0.95418   1.02016    0.045
 6031.00    0.96082   1.02327    0.045
 6032.00    0.96258   1.02603    0.044
 6033.00    0.96408   1.02822    0.044
 6034.00    0.96332   1.02991    0.044
 6035.00    0.96276   1.03110    0.044
 6036.00    0.96353   1.03188    0.043
 6037.00    0.96395   1.03223    0.043
 6038.00    0.96264   1.03264    0.043
 6039.00    0.96186   1.03277    0.042
 6040.00    0.96324   1.03315    0.042
 6041.00    0.96345   1.03358    0.042
 6042.00    0.95977   1.03414    0.042
 6043.00    0.95841   1.03501    0.042
 6044.00    0.96364   1.03575    0.042
 6045.00    0.96950   1.03684    0.042
 6046.00    0.97690   1.03760    0.042
 6047.00    0.98464   1.03809    0.043
 6048.00    0.99307   1.03811    0.043
 6049.00    0.99253   1.03756    0.043
 6050.00    0.97568   1.03654    0.043
 6051.00    0.96386   1.03486    0.043
 6052.00    0.96001   1.03317    0.043
 6053.00    0.96028   1.03098    0.043
 6054.00    0.96629   1.02901    0.044
 6055.00    0.97002   1.02697    0.044
 6056.00    0.97094   1.02514    0.044
 6057.00    0.96268   1.02357    0.044
 6058.00    0.94447   1.02191    0.044
 6059.00    0.93450   1.02082    0.044
 6060.00    0.93239   1.01930    0.044
 6061.00    0.94099   1.01855    0.044
 6062.00    0.95860   1.01802    0.045
 6063.00    0.96273   1.01788    0.045
 6064.00    0.95687   1.01843    0.044
 6065.00    0.95364   1.01932    0.043
 6066.00    0.95212   1.02124    0.043
 6067.00    0.95715   1.02345    0.043
 6068.00    0.96589   1.02654    0.043
 6069.00    0.97583   1.02993    0.042
 6070.00    0.98635   1.03297    0.042
 6071.00    0.99169   1.03561    0.042
 6072.00    0.99482   1.03705    0.042
 6073.00    1.00419   1.03716    0.042
 6074.00    1.01586   1.03615    0.043
 6075.00    1.01682   1.03422    0.043
 6076.00    1.01444   1.03116    0.042
 6077.00    1.00302   1.02753    0.042
 6078.00    0.98926   1.02340    0.042
 6079.00    0.98415   1.01938    0.042
 6080.00    0.98087   1.01526    0.042
 6081.00    0.97275   1.01177    0.043
 6082.00    0.96382   1.00901    0.043
 6083.00    0.95546   1.00680    0.043
 6084.00    0.94716   1.00525    0.044
 6085.00    0.94242   1.00403    0.044
 6086.00    0.93800   1.00344    0.044
 6087.00    0.94431   1.00302    0.044
 6088.00    0.95118   1.00316    0.044
 6089.00    0.95112   1.00341    0.044
 6090.00    0.95083   1.00408    0.044
 6091.00    0.94330   1.00479    0.044
 6092.00    0.93608   1.00547    0.044
 6093.00    0.93528   1.00631    0.043
 6094.00    0.93518   1.00703    0.043
 6095.00    0.94343   1.00754    0.043
 6096.00    0.95055   1.00768    0.043
 6097.00    0.94822   1.00668    0.043
 6098.00    0.94637   1.00502    0.042
 6099.00    0.94746   1.00343    0.042
 6100.00    0.94728   1.00122    0.042
 6101.00    0.94089   0.99928    0.042
 6102.00    0.93673   0.99747    0.042
 6103.00    0.94139   0.99642    0.042
 6104.00    0.94638   0.99615    0.042
 6105.00    0.95242   0.99669    0.042
 6106.00    0.95741   0.99849    0.042
 6107.00    0.95942   1.00073    0.042
 6108.00    0.95997   1.00407    0.042
 6109.00    0.95700   1.00715    0.042
 6110.00    0.95431   1.00961    0.042
 6111.00    0.95220   1.01150    0.042
 6112.00    0.94947   1.01280    0.043
 6113.00    0.94563   1.01334    0.043
 6114.00    0.94205   1.01295    0.043
 6115.00    0.93888   1.01148    0.043
 6116.00    0.94016   1.00915    0.043
 6117.00    0.94758   1.00591    0.043
 6118.00    0.94992   1.00252    0.043
 6119.00    0.94614   0.99918    0.043
 6120.00    0.93909   0.99572    0.044
 6121.00    0.92858   0.99288    0.044
 6122.00    0.91924   0.99063    0.044
 6123.00    0.91100   0.98939    0.043
 6124.00    0.91095   0.98862    0.043
 6125.00    0.91771   0.98933    0.043
 6126.00    0.92763   0.99048    0.043
 6127.00    0.93987   0.99168    0.042
 6128.00    0.94835   0.99312    0.042
 6129.00    0.95444   0.99319    0.042
 6130.00    0.94630   0.99222    0.041
 6131.00    0.93018   0.98996    0.041
 6132.00    0.91758   0.98639    0.041
 6133.00    0.90670   0.98272    0.042
 6134.00    0.89149   0.97874    0.042
 6135.00    0.87444   0.97475    0.042
 6136.00    0.86315   0.97066    0.042
 6137.00    0.85394   0.96764    0.043
 6138.00    0.86134   0.96661    0.043
 6139.00    0.87380   0.96679    0.042
 6140.00    0.88619   0.96902    0.043
 6141.00    0.89856   0.97238    0.043
 6142.00    0.90492   0.97697    0.043
 6143.00    0.91005   0.98174    0.043
 6144.00    0.91919   0.98576    0.043
 6145.00    0.92898   0.98904    0.043
 6146.00    0.94165   0.99153    0.043
 6147.00    0.95468   0.99341    0.044
 6148.00    0.96382   0.99440    0.044
 6149.00    0.97264   0.99402    0.044
 6150.00    0.95453   0.99284    0.043
 6151.00    0.93514   0.99125    0.043
 6152.00    0.93857   0.98872    0.043
 6153.00    0.94211   0.98572    0.043
 6154.00    0.93233   0.98174    0.043
 6155.00    0.92224   0.97695    0.042
 6156.00    0.90593   0.97047    0.042
 6157.00    0.89028   0.96305    0.042
 6158.00    0.88225   0.95520    0.042
 6159.00    0.87358   0.94688    0.042
 6160.00    0.85983   0.93922    0.042
 6161.00    0.84600   0.93182    0.042
 6162.00    0.83168   0.92580    0.042
 6163.00    0.82079   0.92108    0.041
 6164.00    0.82623   0.91773    0.041
 6165.00    0.83223   0.91625    0.042
 6166.00    0.84041   0.91665    0.041
 6167.00    0.85053   0.91909    0.041
 6168.00    0.86694   0.92203    0.042
 6169.00    0.88333   0.92587    0.042
 6170.00    0.89966   0.92977    0.042
 6171.00    0.90750   0.93391    0.043
 6172.00    0.89544   0.93830    0.043
 6173.00    0.88578   0.94268    0.043
 6174.00    0.88098   0.94729    0.043
 6175.00    0.87931   0.95194    0.043
 6176.00    0.88315   0.95658    0.043
 6177.00    0.88351   0.96026    0.043
 6178.00    0.87851   0.96357    0.043
 6179.00    0.87158   0.96628    0.042
 6180.00    0.86200   0.96826    0.042
 6181.00    0.86059   0.96919    0.042
 6182.00    0.86892   0.96926    0.042
 6183.00    0.87701   0.96844    0.042
 6184.00    0.88486   0.96627    0.042
 6185.00    0.88378   0.96348    0.042
 6186.00    0.87444   0.95972    0.042
 6187.00    0.86859   0.95583    0.042
 6188.00    0.86560   0.95215    0.043
 6189.00    0.86024   0.94893    0.043
 6190.00    0.85319   0.94648    0.042
 6191.00    0.84724   0.94499    0.042
 6192.00    0.84199   0.94502    0.042
 6193.00    0.84289   0.94583    0.042
 6194.00    0.84719   0.94762    0.042
 6195.00    0.83680   0.94986    0.044
 6196.00    0.81937   0.95267   -2.000
 6197.00    0.74368   0.95630   -2.000
 6198.00    0.64383   0.95925   -2.000
 6199.00    0.56955   0.96190   -2.000
 6200.00    0.50433   0.96430   -2.000
 6201.00    0.58354   0.96657   -2.000
 6202.00    0.70597   0.96852   -2.000
 6203.00    0.87356   0.97010   -2.000
 6204.00    1.05238   0.97135   -2.000
 6205.00    1.09306   0.97226   -2.000
 6206.00    1.10592   0.97237   -2.000
 6207.00    1.04421   0.97133   -2.000
 6208.00    0.97074   0.96897    0.044
 6209.00    0.94175   0.96554    0.044
 6210.00    0.91796   0.96131    0.044
 6211.00    0.90949   0.95628    0.043
 6212.00    0.90223   0.95087    0.042
 6213.00    0.89197   0.94537    0.042
 6214.00    0.88158   0.94007    0.042
 6215.00    0.88093   0.93535    0.041
 6216.00    0.88019   0.93172    0.041
 6217.00    0.87010   0.92892    0.041
 6218.00    0.86045   0.92719    0.041
 6219.00    0.85876   0.92654    0.042
 6220.00    0.85776   0.92670    0.042
 6221.00    0.86437   0.92732    0.041
 6222.00    0.87008   0.92811    0.041
 6223.00    0.86879   0.92838    0.042
 6224.00    0.86733   0.92838    0.042
 6225.00    0.86486   0.92813    0.043
 6226.00    0.86178   0.92728    0.043
 6227.00    0.85583   0.92640    0.043
 6228.00    0.85410   0.92486    0.043
 6229.00    0.86837   0.92371    0.043
 6230.00    0.88092   0.92287    0.043
 6231.00    0.88802   0.92225    0.043
 6232.00    0.89427   0.92229    0.043
 6233.00    0.89823   0.92240    0.042
 6234.00    0.90046   0.92298    0.042
 6235.00    0.89874   0.92324    0.042
 6236.00    0.89474   0.92408    0.042
 6237.00    0.88622   0.92391    0.042
 6238.00    0.87820   0.92302    0.042
 6239.00    0.87105   0.92170    0.042
 6240.00    0.86462   0.91950    0.042
 6241.00    0.85927   0.91730    0.041
 6242.00    0.85883   0.91516    0.041
 6243.00    0.86496   0.91370    0.041
 6244.00    0.87018   0.91269    0.041
 6245.00    0.87432   0.91223    0.041
 6246.00    0.87653   0.91249    0.042
 6247.00    0.87674   0.91211    0.041
 6248.00    0.87776   0.91223    0.042
 6249.00    0.87951   0.91203    0.042
 6250.00    0.87570   0.91112    0.042
 6251.00    0.86742   0.90973    0.042
 6252.00    0.86580   0.90795    0.042
 6253.00    0.86890   0.90588    0.042
 6254.00    0.86904   0.90347    0.042
 6255.00    0.86734   0.90207    0.042
 6256.00    0.86072   0.90075    0.042
 6257.00    0.85142   0.90116    0.043
 6258.00    0.83757   0.90261    0.043
 6259.00    0.82158   0.90543    0.044
 6260.00    0.78247   0.90904    0.046
 6261.00    0.73396   0.91324    0.048
 6262.00    0.72750   0.91813    0.050
 6263.00    0.73569   0.92279    0.051
 6264.00    0.79217   0.92784    0.051
 6265.00    0.86281   0.93187    0.050
 6266.00    0.91000   0.93553    0.048
 6267.00    0.95150   0.93863    0.046
 6268.00    0.95221   0.94108    0.044
 6269.00    0.94490   0.94281    0.043
 6270.00    0.92886   0.94442    0.043
 6271.00    0.91148   0.94588    0.042
 6272.00    0.89818   0.94680    0.042
 6273.00    0.88534   0.94726    0.041
 6274.00    0.89627   0.94750    0.041
 6275.00    0.90900   0.94742    0.042
 6276.00    0.91142   0.94712    0.042
 6277.00    0.91344   0.94675    0.041
 6278.00    0.90401   0.94607    0.041
 6279.00    0.89474   0.94581    0.042
 6280.00    0.89487   0.94572    0.000
 6281.00    0.89585   0.94631    0.000
 6282.00    0.91127   0.94730    0.000
 6283.00    0.92488   0.94891    0.000
 6284.00    0.91933   0.95079    0.000
 6285.00    0.91384   0.95294    0.000
 6286.00    0.90884   0.95534    0.000
 6287.00    0.90724   0.95718    0.000
 6288.00    0.92499   0.95873    0.000
 6289.00    0.94109   0.95923    0.000
 6290.00    0.94978   0.95901    0.000
 6291.00    0.95521   0.95806    0.000
 6292.00    0.94851   0.95627    0.000
 6293.00    0.93982   0.95390    0.000
 6294.00    0.92499   0.95095    0.000
 6295.00    0.90978   0.94771    0.000
 6296.00    0.89359   0.94471    0.000
 6297.00    0.88317   0.94191    0.000
 6298.00    0.88580   0.93967    0.000
 6299.00    0.88777   0.93812    0.000
 6300.00    0.88846   0.93723    0.000
 6301.00    0.88930   0.93723    0.000
 6302.00    0.89040   0.93821    0.000
 6303.00    0.89416   0.93991    0.000
 6304.00    0.90190   0.94211    0.000
 6305.00    0.91126   0.94440    0.000
 6306.00    0.92273   0.94674    0.000
 6307.00    0.93346   0.94884    0.000
 6308.00    0.94335   0.95020    0.000
 6309.00    0.94132   0.95084    0.000
 6310.00    0.92713   0.95035    0.000
 6311.00    0.91517   0.94918    0.000
 6312.00    0.90523   0.94717    0.000
 6313.00    0.90017   0.94480    0.000
 6314.00    0.89900   0.94216    0.000
 6315.00    0.89828   0.93973    0.000
 6316.00    0.89787   0.93785    0.000
 6317.00    0.89508   0.93690    0.000
 6318.00    0.89083   0.93672    0.000
 6319.00    0.89033   0.93756    0.000
 6320.00    0.89184   0.93935    0.000
 6321.00    0.89492   0.94222    0.042
 6322.00    0.89872   0.94534    0.042
 6323.00    0.89252   0.94898    0.042
 6324.00    0.88231   0.95280    0.042
 6325.00    0.88489   0.95620    0.042
 6326.00    0.89184   0.95930    0.042
 6327.00    0.90542   0.96144    0.042
 6328.00    0.92092   0.96297    0.042
 6329.00    0.93296   0.96343    0.042
 6330.00    0.94417   0.96323    0.042
 6331.00    0.94703   0.96233    0.042
 6332.00    0.94828   0.96065    0.042
 6333.00    0.94249   0.95892    0.042
 6334.00    0.93566   0.95672    0.042
 6335.00    0.92022   0.95471    0.041
 6336.00    0.90384   0.95299    0.041
 6337.00    0.89707   0.95146    0.041
 6338.00    0.89097   0.95069    0.041
 6339.00    0.89558   0.94998    0.041
 6340.00    0.90057   0.95001    0.041
 6341.00    0.91728   0.95036    0.042
 6342.00    0.93371   0.95120    0.042
 6343.00    0.93851   0.95211    0.042
 6344.00    0.94293   0.95317    0.042
 6345.00    0.94119   0.95443    0.042
 6346.00    0.93919   0.95539    0.042
 6347.00    0.93456   0.95649    0.042
 6348.00    0.93053   0.95709    0.042
 6349.00    0.93085   0.95765    0.042
 6350.00    0.93178   0.95754    0.043
 6351.00    0.93613   0.95665    0.043
 6352.00    0.93704   0.95500    0.043
 6353.00    0.92277   0.95246    0.043
 6354.00    0.90950   0.94916    0.042
 6355.00    0.89985   0.94519    0.042
 6356.00    0.89208   0.94096    0.042
 6357.00    0.88999   0.93665    0.042
 6358.00    0.88855   0.93268    0.042
 6359.00    0.88875   0.92932    0.042
 6360.00    0.88570   0.92695    0.042
 6361.00    0.87542   0.92578    0.042
 6362.00    0.86815   0.92568    0.041
 6363.00    0.86667   0.92698    0.042
 6364.00    0.86971   0.92938    0.042
 6365.00    0.88036   0.93293    0.042
 6366.00    0.88942   0.93720    0.042
 6367.00    0.89612   0.94204    0.042
 6368.00    0.89808   0.94707    0.042
 6369.00    0.89388   0.95200    0.043
 6370.00    0.89820   0.95673    0.043
 6371.00    0.91225   0.96073    0.043
 6372.00    0.92603   0.96425    0.043
 6373.00    0.93957   0.96683    0.043
 6374.00    0.94398   0.96871    0.043
 6375.00    0.94029   0.96982    0.043
 6376.00    0.94468   0.97026    0.043
 6377.00    0.95540   0.97025    0.043
 6378.00    0.95724   0.96974    0.043
 6379.00    0.95298   0.96914    0.043
 6380.00    0.94888   0.96834    0.043
 6381.00    0.94489   0.96769    0.043
 6382.00    0.94439   0.96712    0.042
 6383.00    0.94573   0.96670    0.042
 6384.00    0.94323   0.96638    0.042
 6385.00    0.93896   0.96596    0.041
 6386.00    0.93071   0.96551    0.041
 6387.00    0.92090   0.96479    0.041
 6388.00    0.91628   0.96380    0.041
 6389.00    0.91340   0.96249    0.041
 6390.00    0.91864   0.96089    0.041
 6391.00    0.92617   0.95906    0.041
 6392.00    0.92722   0.95732    0.041
 6393.00    0.92676   0.95554    0.041
 6394.00    0.91597   0.95423    0.042
 6395.00    0.90326   0.95313    0.042
 6396.00    0.90930   0.95260    0.043
 6397.00    0.91803   0.95239    0.044
 6398.00    0.91777   0.95266    0.044
 6399.00    0.91657   0.95341    0.044
 6400.00    0.91375   0.95439    0.044
 6401.00    0.91083   0.95586    0.044
 6402.00    0.92103   0.95706    0.044
 6403.00    0.93165   0.95832    0.044
 6404.00    0.92956   0.95908    0.044
 6405.00    0.92743   0.95975    0.044
 6406.00    0.92389   0.95991    0.043
 6407.00    0.92107   0.95985    0.043
 6408.00    0.92913   0.95952    0.043
 6409.00    0.93585   0.95871    0.043
 6410.00    0.92958   0.95774    0.042
 6411.00    0.92349   0.95675    0.042
 6412.00    0.91870   0.95579    0.041
 6413.00    0.91572   0.95503    0.040
 6414.00    0.92250   0.95444    0.041
 6415.00    0.92906   0.95400    0.041
 6416.00    0.93473   0.95388    0.041
 6417.00    0.93612   0.95366    0.041
 6418.00    0.92229   0.95388    0.041
 6419.00    0.90841   0.95443    0.042
 6420.00    0.89437   0.95536    0.042
 6421.00    0.88761   0.95648    0.042
 6422.00    0.89942   0.95795    0.042
 6423.00    0.91233   0.95958    0.042
 6424.00    0.92766   0.96101    0.043
 6425.00    0.93547   0.96242    0.043
 6426.00    0.92897   0.96312    0.044
 6427.00    0.92413   0.96367    0.044
 6428.00    0.92204   0.96350    0.044
 6429.00    0.92248   0.96315    0.044
 6430.00    0.92662   0.96218    0.044
 6431.00    0.93272   0.96125    0.044
 6432.00    0.94134   0.96050    0.045
 6433.00    0.94446   0.96001    0.044
 6434.00    0.94140   0.95997    0.043
 6435.00    0.93413   0.96019    0.043
 6436.00    0.92269   0.96103    0.042
 6437.00    0.91680   0.96206    0.042
 6438.00    0.91577   0.96387    0.042
 6439.00    0.91431   0.96564    0.042
 6440.00    0.91252   0.96755    0.042
 6441.00    0.91750   0.96906    0.042
 6442.00    0.92708   0.97046    0.042
 6443.00    0.93493   0.97103    0.042
 6444.00    0.94175   0.97098    0.042
 6445.00    0.94228   0.96983    0.042
 6446.00    0.93955   0.96817    0.043
 6447.00    0.93212   0.96576    0.043
 6448.00    0.92256   0.96282    0.043
 6449.00    0.91618   0.95984    0.044
 6450.00    0.91104   0.95712    0.045
 6451.00    0.90359   0.95509    0.045
 6452.00    0.89537   0.95374    0.044
 6453.00    0.90186   0.95330    0.044
 6454.00    0.91240   0.95340    0.044
 6455.00    0.92499   0.95419    0.044
 6456.00    0.93805   0.95509    0.044
 6457.00    0.93307   0.95651    0.044
 6458.00    0.92482   0.95761    0.043
 6459.00    0.91131   0.95855    0.043
 6460.00    0.89707   0.95904    0.042
 6461.00    0.89951   0.95951    0.042
 6462.00    0.90361   0.95974    0.042
 6463.00    0.90275   0.96037    0.042
 6464.00    0.90158   0.96102    0.042
 6465.00    0.91290   0.96181    0.042
 6466.00    0.92459   0.96275    0.042
 6467.00    0.94276   0.96354    0.042
 6468.00    0.96036   0.96448    0.042
 6469.00    0.96202   0.96495    0.042
 6470.00    0.96275   0.96578    0.043
 6471.00    0.95033   0.96587    0.043
 6472.00    0.93889   0.96592    0.043
 6473.00    0.93647   0.96544    0.043
 6474.00    0.93487   0.96486    0.043
 6475.00    0.93882   0.96394    0.044
 6476.00    0.94285   0.96282    0.045
 6477.00    0.94731   0.96154    0.045
 6478.00    0.95099   0.95995    0.045
 6479.00    0.95131   0.95841    0.045
 6480.00    0.95259   0.95655    0.044
 6481.00    0.95719   0.95475    0.044
 6482.00    0.95936   0.95283    0.044
 6483.00    0.95434   0.95098    0.043
 6484.00    0.94919   0.94884    0.042
 6485.00    0.94367   0.94640    0.043
 6486.00    0.93912   0.94335    0.043
 6487.00    0.93662   0.93945    0.042
 6488.00    0.93536   0.93450    0.042
 6489.00    0.93639   0.92852    0.042
 6490.00    0.93056   0.92155    0.042
 6491.00    0.91352   0.91391    0.042
 6492.00    0.90090   0.90597    0.042
 6493.00    0.89463   0.89850    0.042
 6494.00    0.89280   0.89198    0.042
 6495.00    0.89656   0.88726    0.043
 6496.00    0.89249   0.88462    0.043
 6497.00    0.87974   0.88446    0.043
 6498.00    0.86838   0.88676    0.043
 6499.00    0.85840   0.89119    0.044
 6500.00    0.85346   0.89748    0.044
 6501.00    0.85287   0.90482    0.044
 6502.00    0.85719   0.91298    0.044
 6503.00    0.86523   0.92091    0.044
 6504.00    0.87774   0.92852    0.044
 6505.00    0.89323   0.93507    0.044
 6506.00    0.91464   0.94055    0.044
 6507.00    0.93951   0.94481    0.044
 6508.00    0.94682   0.94779    0.044
 6509.00    0.94515   0.94972    0.044
 6510.00    0.94539   0.95060    0.044
 6511.00    0.94647   0.95069    0.043
 6512.00    0.94217   0.95016    0.042
 6513.00    0.93582   0.94921    0.042
 6514.00    0.93330   0.94803    0.042
 6515.00    0.93203   0.94690    0.043
 6516.00    0.93925   0.94589    0.043
 6517.00    0.94876   0.94530    0.043
 6518.00    0.93990   0.94504    0.043
 6519.00    0.92697   0.94529    0.042
 6520.00    0.93359   0.94584    0.043
 6521.00    0.94366   0.94671    0.044
 6522.00    0.95102   0.94767    0.044
 6523.00    0.95802   0.94866    0.044
 6524.00    0.95720   0.94949    0.047
 6525.00    0.95564   0.95012    0.050
 6526.00    0.96189   0.95053    0.051
 6527.00    0.96860   0.95068    0.051
 6528.00    0.96449   0.95071    0.000
 6529.00    0.96003   0.95065    0.000
 6530.00    0.94455   0.95057    0.000
 6531.00    0.93008   0.95059    0.000
 6532.00    0.94079   0.95074    0.000
 6533.00    0.95098   0.95101    0.000
 6534.00    0.95424   0.95137    0.000
 6535.00    0.95674   0.95167    0.000
 6536.00    0.95254   0.95192    0.000
 6537.00    0.94930   0.95183    0.000
 6538.00    0.95243   0.95138    0.000
 6539.00    0.95545   0.95029    0.000
 6540.00    0.95791   0.94869    0.000
 6541.00    0.96037   0.94638    0.000
 6542.00    0.96287   0.94362    0.000
 6543.00    0.96354   0.94030    0.000
 6544.00    0.95796   0.93669    0.000
 6545.00    0.95582   0.93281    0.000
 6546.00    0.96362   0.92883    0.000
 6547.00    0.96965   0.92488    0.000
 6548.00    0.97134   0.92078    0.000
 6549.00    0.97254   0.91654    0.000
 6550.00    0.97270   0.91187    0.000
 6551.00    0.96611   0.90675    0.000
 6552.00    0.94709   0.90080    0.000
 6553.00    0.93366   0.89392    0.000
 6554.00    0.92924   0.88584    0.000
 6555.00    0.92703   0.87663    0.000
 6556.00    0.92795   0.86630    0.000
 6557.00    0.92387   0.85515    0.000
 6558.00    0.91358   0.84352    0.000
 6559.00    0.90389   0.83226    0.000
 6560.00    0.89487   0.82194    0.000
 6561.00    0.88228   0.81362    0.000
 6562.00    0.86622   0.80785    0.000
 6563.00    0.85591   0.80525    0.000
 6564.00    0.85049   0.80609    0.000
 6565.00    0.86010   0.81010    0.000
 6566.00    0.88099   0.81701    0.000
 6567.00    0.89128   0.82578    0.000
 6568.00    0.89459   0.83596    0.000
 6569.00    0.90007   0.84636    0.000
 6570.00    0.90681   0.85659    0.000
 6571.00    0.90620   0.86598    0.000
 6572.00    0.90190   0.87465    0.000
 6573.00    0.90551   0.88222    0.000
 6574.00    0.91256   0.88884    0.000
 6575.00    0.91192   0.89464    0.000
 6576.00    0.90842   0.89985    0.000
 6577.00    0.90020   0.90449    0.000
 6578.00    0.89050   0.90880    0.000
 6579.00    0.90024   0.91261    0.000
 6580.00    0.91513   0.91605    0.000
 6581.00    0.94616   0.91894    0.000
 6582.00    0.98069   0.92139    0.000
 6583.00    1.00298   0.92324    0.000
 6584.00    1.02316   0.92456    0.000
 6585.00    1.02676   0.92526    0.000
 6586.00    1.02821   0.92534    0.000
 6587.00    1.01615   0.92482    0.000
 6588.00    1.00286   0.92372    0.000
 6589.00    0.97315   0.92217    0.000
 6590.00    0.94254   0.92035    0.000
 6591.00    0.93999   0.91843    0.000
 6592.00    0.93786   0.91672    0.000
 6593.00    0.91925   0.91533    0.000
 6594.00    0.90096   0.91459    0.000
 6595.00    0.89018   0.91445    0.000
 6596.00    0.88044   0.91507    0.000
 6597.00    0.88401   0.91619    0.000
 6598.00    0.88842   0.91775    0.000
 6599.00    0.90005   0.91940    0.000
 6600.00    0.91116   0.92099    0.000
 6601.00    0.91907   0.92226    0.000
 6602.00    0.92718   0.92311    0.000
 6603.00    0.93630   0.92347    0.000
 6604.00    0.94050   0.92344    0.000
 6605.00    0.92478   0.92313    0.000
 6606.00    0.91535   0.92272    0.000
 6607.00    0.92702   0.92239    0.000
 6608.00    0.93398   0.92240    0.000
 6609.00    0.92764   0.92282    0.045
 6610.00    0.92076   0.92379    0.045
 6611.00    0.91259   0.92522    0.045
 6612.00    0.90928   0.92706    0.045
 6613.00    0.91610   0.92915    0.045
 6614.00    0.92173   0.93131    0.045
 6615.00    0.92522   0.93341    0.045
 6616.00    0.92677   0.93518    0.045
 6617.00    0.92526   0.93661    0.045
 6618.00    0.92827   0.93742    0.045
 6619.00    0.93757   0.93774    0.045
 6620.00    0.94793   0.93739    0.046
 6621.00    0.95961   0.93658    0.047
 6622.00    0.96869   0.93522    0.047
 6623.00    0.97495   0.93349    0.047
 6624.00    0.96687   0.93151    0.047
 6625.00    0.94514   0.92934    0.047
 6626.00    0.93658   0.92717    0.047
 6627.00    0.93909   0.92493    0.047
 6628.00    0.93269   0.92288    0.047
 6629.00    0.91972   0.92088    0.047
 6630.00    0.92163   0.91917    0.047
 6631.00    0.93321   0.91768    0.047
 6632.00    0.92390   0.91653    0.047
 6633.00    0.90273   0.91575    0.047
 6634.00    0.89194   0.91532    0.047
 6635.00    0.88629   0.91530    0.046
 6636.00    0.88590   0.91551    0.045
 6637.00    0.88775   0.91603    0.045
 6638.00    0.89687   0.91655    0.046
 6639.00    0.90866   0.91719    0.047
 6640.00    0.92426   0.91766    0.047
 6641.00    0.94104   0.91811    0.047
 6642.00    0.93690   0.91840    0.046
 6643.00    0.92735   0.91864    0.046
 6644.00    0.92389   0.91883    0.046
 6645.00    0.92171   0.91906    0.047
 6646.00    0.91129   0.91929    0.047
 6647.00    0.89949   0.91959    0.047
 6648.00    0.88919   0.91987    0.047
 6649.00    0.87908   0.92017    0.047
 6650.00    0.89634   0.92032    0.047
 6651.00    0.91598   0.92042    0.048
 6652.00    0.91199   0.92025    0.048
 6653.00    0.90679   0.91996    0.048
 6654.00    0.89923   0.91930    0.048
 6655.00    0.89180   0.91847    0.048
 6656.00    0.89585   0.91724    0.048
 6657.00    0.89965   0.91586    0.047
 6658.00    0.89829   0.91416    0.047
 6659.00    0.89766   0.91237    0.047
 6660.00    0.90594   0.91051    0.047
 6661.00    0.91280   0.90876    0.048
 6662.00    0.90794   0.90726    0.047
 6663.00    0.90221   0.90612    0.047
 6664.00    0.89106   0.90551    0.047
 6665.00    0.88377   0.90538    0.047
 6666.00    0.89525   0.90581    0.047
 6667.00    0.90525   0.90663    0.047
 6668.00    0.90944   0.90773    0.048
 6669.00    0.91461   0.90889    0.048
 6670.00    0.92299   0.90988    0.048
 6671.00    0.92709   0.91056    0.048
 6672.00    0.91930   0.91071    0.049
 6673.00    0.91365   0.91037    0.049
 6674.00    0.91309   0.90946    0.049
 6675.00    0.90790   0.90822    0.049
 6676.00    0.89321   0.90672    0.049
 6677.00    0.88438   0.90531    0.049
 6678.00    0.88602   0.90409    0.049
 6679.00    0.89005   0.90334    0.049
 6680.00    0.89780   0.90310    0.048
 6681.00    0.90094   0.90342    0.048
 6682.00    0.89775   0.90425    0.048
 6683.00    0.89705   0.90544    0.048
 6684.00    0.89934   0.90687    0.048
 6685.00    0.90046   0.90829    0.048
 6686.00    0.90034   0.90963    0.047
 6687.00    0.90151   0.91066    0.047
 6688.00    0.90391   0.91140    0.049
 6689.00    0.90833   0.91172    0.049
 6690.00    0.91442   0.91167    0.049
 6691.00    0.91473   0.91127    0.049
 6692.00    0.91084   0.91057    0.049
 6693.00    0.90435   0.90969    0.050
 6694.00    0.89619   0.90867    0.051
 6695.00    0.89760   0.90767    0.051
 6696.00    0.90436   0.90671    0.000
 6697.00    0.90765   0.90595    0.000
 6698.00    0.90926   0.90532    0.000
 6699.00    0.90658   0.90490    0.000
 6700.00    0.90209   0.90462    0.000
 6701.00    0.89685   0.90447    0.000
 6702.00    0.89133   0.90435    0.000
 6703.00    0.89387   0.90421    0.000
 6704.00    0.89887   0.90398    0.000
 6705.00    0.90561   0.90360    0.000
 6706.00    0.91280   0.90297    0.000
 6707.00    0.90300   0.90210    0.000
 6708.00    0.88971   0.90087    0.000
 6709.00    0.89228   0.89935    0.000
 6710.00    0.89742   0.89742    0.000
 6711.00    0.90525   0.89526    0.000
 6712.00    0.91341   0.89285    0.000
 6713.00    0.92269   0.89042    0.000
 6714.00    0.93206   0.88806    0.000
 6715.00    0.92671   0.88601    0.000
 6716.00    0.92066   0.88440    0.000
 6717.00    0.92882   0.88338    0.000
 6718.00    0.93589   0.88300    0.000
 6719.00    0.86982   0.88331    0.000
 6720.00    0.80853   0.88416    0.000
 6721.00    0.84044   0.88554    0.000
 6722.00    0.87107   0.88718    0.000
 6723.00    0.88712   0.88907    0.000
 6724.00    0.90085   0.89090    0.000
 6725.00    0.89607   0.89274    0.000
 6726.00    0.89234   0.89432    0.000
 6727.00    0.89491   0.89576    0.000
 6728.00    0.90226   0.89689    0.000
 6729.00    0.93228   0.89780    0.000
 6730.00    0.95682   0.89839    0.000
 6731.00    0.96023   0.89871    0.000
 6732.00    0.95765   0.89875    0.000
 6733.00    0.93578   0.89848    0.000
 6734.00    0.92061   0.89796    0.000
 6735.00    0.92370   0.89716    0.000
 6736.00    0.92858   0.89618    0.000
 6737.00    0.93766   0.89502    0.000
 6738.00    0.93513   0.89377    0.000
 6739.00    0.90914   0.89247    0.000
 6740.00    0.89052   0.89116    0.000
 6741.00    0.88488   0.88990    0.000
 6742.00    0.88647   0.88868    0.000
 6743.00    0.89917   0.88758    0.000
 6744.00    0.90882   0.88652    0.000
 6745.00    0.91435   0.88561    0.000
 6746.00    0.90626   0.88479    0.000
 6747.00    0.88196   0.88418    0.000
 6748.00    0.87164   0.88377    0.000
 6749.00    0.87598   0.88367    0.000
 6750.00    0.87094   0.88391    0.000
 6751.00    0.85722   0.88455    0.000
 6752.00    0.84807   0.88562    0.000
 6753.00    0.84266   0.88706    0.052
 6754.00    0.83671   0.88887    0.053
 6755.00    0.83038   0.89088    0.053
 6756.00    0.84677   0.89305    0.054
 6757.00    0.87749   0.89511    0.054
 6758.00    0.91026   0.89703    0.055
 6759.00    0.94417   0.89857    0.056
 6760.00    0.97330   0.89968    0.058
 6761.00    1.00014   0.90028    0.060
 6762.00    1.01429   0.90036    0.061
 6763.00    1.02319   0.89997    0.062
 6764.00    1.05647   0.89921    0.063
 6765.00    1.09837   0.89823    0.065
 6766.00    1.08373   0.89719    0.064
 6767.00    1.05223   0.89627    0.062
 6768.00    1.04235   0.89562    0.061
 6769.00    1.03783   0.89535    0.061
 6770.00    1.00407   0.89555    0.059
 6771.00    0.96443   0.89618    0.057
 6772.00    0.92856   0.89721    0.056
 6773.00    0.89329   0.89847    0.055
 6774.00    0.89668   0.89983    0.055
 6775.00    0.90456   0.90107    0.055
 6776.00    0.92767   0.90200    0.054
 6777.00    0.95198   0.90249    0.053
 6778.00    0.94993   0.90241    0.054
 6779.00    0.94673   0.90175    0.055
 6780.00    0.94221   0.90052    0.055
 6781.00    0.93792   0.89888    0.055
 6782.00    0.94546   0.89694    0.056
 6783.00    0.95316   0.89493    0.056
 6784.00    0.96363   0.89301    0.057
 6785.00    0.97074   0.89135    0.057
 6786.00    0.94117   0.89003    0.057
 6787.00    0.91658   0.88911    0.056
 6788.00    0.93026   0.88858    0.057
 6789.00    0.94194   0.88838    0.058
 6790.00    0.94194   0.88845    0.058
 6791.00    0.93949   0.88871    0.058
 6792.00    0.92575   0.88909    0.058
 6793.00    0.91830   0.88959    0.057
 6794.00    0.93462   0.89013    0.057
 6795.00    0.94372   0.89077    0.056
 6796.00    0.93003   0.89142    0.055
 6797.00    0.92820   0.89217    0.055
 6798.00    0.95813   0.89289    0.054
 6799.00    0.97217   0.89365    0.054
 6800.00    0.94969   0.89430    0.055
 6801.00    0.92373   0.89490    0.055
 6802.00    0.89088   0.89531    0.054
 6803.00    0.88443   0.89561    0.054
 6804.00    0.92374   0.89571    0.054
 6805.00    0.94577   0.89569    0.055
 6806.00    0.94157   0.89553    0.055
 6807.00    0.93083   0.89530    0.054
 6808.00    0.91136   0.89501    0.054
 6809.00    0.90818   0.89474    0.055
 6810.00    0.92413   0.89447    0.057
 6811.00    0.91828   0.89429    0.058
 6812.00    0.88985   0.89418    0.057
 6813.00    0.89185   0.89420    0.057
 6814.00    0.92163   0.89433    0.057
 6815.00    0.94220   0.89460    0.057
 6816.00    0.95536   0.89498    0.058
 6817.00    0.94749   0.89549    0.057
 6818.00    0.92473   0.89608    0.055
 6819.00    0.91968   0.89673    0.054
 6820.00    0.92563   0.89738    0.054
 6821.00    0.92876   0.89802    0.053
 6822.00    0.93035   0.89855    0.052
 6823.00    0.93167   0.89899    0.052
 6824.00    0.93286   0.89926    0.052
 6825.00    0.92051   0.89942    0.053
 6826.00    0.90266   0.89941    0.054
 6827.00    0.89120   0.89931    0.054
 6828.00    0.88196   0.89908    0.054
 6829.00    0.89560   0.89878    0.055
 6830.00    0.91595   0.89836    0.057
 6831.00    0.95528   0.89783    0.057
 6832.00    0.99921   0.89711    0.057
 6833.00    0.99000   0.89618    0.057
 6834.00    0.97039   0.89497    0.057
 6835.00    0.96228   0.89350    0.057
 6836.00    0.95592   0.89177    0.056
 6837.00    0.94260   0.88989    0.057
 6838.00    0.92849   0.88797    0.058
 6839.00    0.91995   0.88617    0.058
 6840.00    0.91182   0.88464    0.059
 6841.00    0.90276   0.88356    0.057
 6842.00    0.89367   0.88296    0.056
 6843.00    0.91258   0.88292    0.055
 6844.00    0.93127   0.88333    0.054
 6845.00    0.93379   0.88413    0.054
 6846.00    0.93552   0.88508    0.053
 6847.00    0.92403   0.88606    0.054
 6848.00    0.91658   0.88683    0.055
 6849.00    0.95142   0.88729    0.054
 6850.00    0.98045   0.88732    0.054
 6851.00    0.96638   0.88691    0.055
 6852.00    0.95239   0.88608    0.055
 6853.00    0.93883   0.88493    0.055
 6854.00    0.92343   0.88358    0.055
 6855.00    0.89968   0.88218    0.055
 6856.00    0.88332   0.88086    0.055
 6857.00    0.89427   0.87975    0.056
 6858.00    0.89885   0.87892    0.057
 6859.00    0.88373   0.87841    0.056
 6860.00    0.87704   0.87821    0.056
 6861.00    0.89251   0.87829    0.055
 6862.00    0.90298   0.87857    0.055
 6863.00    0.90212   0.87897    0.054
 6864.00    0.90297   0.87941    0.053
 6865.00    0.90717   0.87981    0.054
 6866.00    0.90837   0.88016    0.054
 6867.00    0.90445   0.88043    0.055
 6868.00    0.90877   0.88067    0.056
 6869.00    0.92544   0.88087    0.056
 6870.00    0.93897   0.88116    0.056
 6871.00    0.94840   0.88149    0.056
 6872.00    0.94567   0.88199    0.055
 6873.00    0.92890   0.88255    0.054
 6874.00    0.92144   0.88328    0.054
 6875.00    0.92351   0.88399    0.055
 6876.00    0.92584   0.88478    0.055
 6877.00    0.92840   0.88544    0.055
 6878.00    0.90698   0.88612    0.055
 6879.00    0.86653   0.88664    0.055
 6880.00    0.85889   0.88718    0.055
 6881.00    0.87414   0.88767    0.056
 6882.00    0.88923   0.88827    0.056
 6883.00    0.90422   0.88898    0.057
 6884.00    0.91950   0.88989    0.056
 6885.00    0.93493   0.89101    0.056
 6886.00    0.93951   0.89232    0.056
 6887.00    0.93906   0.89378    0.056
 6888.00    0.92676   0.89530    0.056
 6889.00    0.90972   0.89679    0.054
 6890.00    0.91259   0.89817    0.054
 6891.00    0.92225   0.89935    0.055
 6892.00    0.91583   0.90031    0.055
 6893.00    0.90480   0.90102    0.055
 6894.00    0.90238   0.90152    0.056
 6895.00    0.90200   0.90185    0.059
 6896.00    0.67071   0.90207    0.049
 6897.00    0.39540   0.90227    0.040
 6898.00    0.69732   0.90248    0.071
 6899.00    1.08454   0.90279    0.800
 6900.00    1.11921   0.90317   -1.000
 6901.00    1.11584   0.90367   -1.000
 6902.00    1.11686   0.90422   -1.000
 6903.00    1.11819   0.90481   -1.000
 6904.00    1.11990   0.90534   -1.000
 6905.00    1.12161   0.90575   -1.000
 6906.00    1.10702   0.90597   -1.000
 6907.00    1.09285   0.90594   -1.000
 6908.00    1.09533   0.90563   -1.000
 6909.00    1.09789   0.90502   -1.000
 6910.00    1.10163   0.90416   -1.000
 6911.00    1.10423   0.90308   -1.000
 6912.00    1.09550   0.90194   -1.000
 6913.00    1.08708   0.90073   -1.000
 6914.00    1.08097   0.89967   -1.000
 6915.00    1.07527   0.89870   -1.000
 6916.00    1.07189   0.89800   -1.000
 6917.00    1.06818   0.89747   -1.000
 6918.00    1.06306   0.89714   -1.000
 6919.00    1.06314   0.89692   -1.000
 6920.00    1.08208   0.89676   -1.000
 6921.00    1.10082   0.89663   -1.000
 6922.00    1.11896   0.89644   -1.000
 6923.00    1.12963   0.89625   -1.000
 6924.00    1.12094   0.89601   -1.000
 6925.00    1.11129   0.89579   -1.000
 6926.00    1.09947   0.89563   -1.000
 6927.00    1.08174   0.89554   -1.000
 6928.00    1.05259   0.89559   -1.000
 6929.00    1.04444   0.89571   -1.000
 6930.00    1.07157   0.89598   -1.000
 6931.00    1.08166   0.89631   -1.000
 6932.00    1.06665   0.89672   -1.000
 6933.00    1.06574   0.89717   -1.000
 6934.00    1.08311   0.89761   -1.000
 6935.00    1.09011   0.89805   -1.000
 6936.00    1.08528   0.89839   -1.000
 6937.00    1.07441   0.89865   -1.000
 6938.00    1.05745   0.89874   -1.000
 6939.00    1.04356   0.89870   -1.000
 6940.00    1.03237   0.89844   -1.000
 6941.00    1.03608   0.89805   -1.000
 6942.00    1.05144   0.89750   -1.000
 6943.00    1.07137   0.89688   -1.000
 6944.00    1.09445   0.89622   -1.000
 6945.00    1.09950   0.89562   -1.000
 6946.00    1.09368   0.89509   -1.000
 6947.00    1.08076   0.89470   -1.000
 6948.00    1.06410   0.89444   -1.000
 6949.00    1.06233   0.89437   -1.000
 6950.00    1.06736   0.89444   -1.000
 6951.00    1.08429   0.89472   -1.000
 6952.00    1.10589   0.89516   -1.000
 6953.00    1.09851   0.89583   -1.000
 6954.00    1.08144   0.89665   -1.000
 6955.00    1.07717   0.89772   -1.000
 6956.00    1.07650   0.89891   -1.000
 6957.00    1.07359   0.90028   -1.000
 6958.00    1.07017   0.90170   -1.000
 6959.00    1.07872   0.90318   -1.000
 6960.00    1.08949   0.90461   -1.000
 6961.00    1.09018   0.90596   -1.000
 6962.00    1.08943   0.90717   -1.000
 6963.00    1.09046   0.90819   -1.000
 6964.00    1.09168   0.90898   -1.000
 6965.00    1.08196   0.90950   -1.000
 6966.00    1.07151   0.90971   -1.000
 6967.00    1.06442   0.90957   -1.000
 6968.00    1.05744   0.90901   -1.000
 6969.00    1.08367   0.90806   -1.000
 6970.00    1.10946   0.90661   -1.000
 6971.00    1.12178   0.90476   -1.000
 6972.00    1.13350   0.90248   -1.000
 6973.00    1.13630   0.89997   -1.000
 6974.00    1.13706   0.89729   -1.000
 6975.00    1.11826   0.89472   -1.000
 6976.00    1.10048   0.89243   -1.000
 6977.00    1.08974   0.89065   -1.000
 6978.00    1.07983   0.88957   -1.000
 6979.00    1.07436   0.88924   -1.000
 6980.00    1.07073   0.88976   -1.000
 6981.00    1.07500   0.89096   -1.000
 6982.00    1.07705   0.89279   -1.000
 6983.00    1.07121   0.89496   -1.000
 6984.00    1.07192   0.89732   -1.000
 6985.00    1.09222   0.89959   -1.000
 6986.00    1.10990   0.90168   -1.000
 6987.00    1.12095   0.90338   -1.000
 6988.00    1.12883   0.90474   -1.000
 6989.00    1.12981   0.90561   -1.000
 6990.00    1.12185   0.90617   -1.000
 6991.00    1.09693   0.90630   -1.000
 6992.00    1.08924   0.90618   -1.000
 6993.00    1.11009   0.90571   -1.000
 6994.00    1.11252   0.90506   -1.000
 6995.00    1.08821   0.90413   -1.000
 6996.00    1.07171   0.90306   -1.000
 6997.00    1.06518   0.90182   -1.000
 6998.00    1.06844   0.90053   -1.000
 6999.00    1.08272   0.89922   -1.000
 7000.00    1.09021   0.89796   -1.000
 7001.00    1.09097   0.89687   -1.000
 7002.00    1.07826   0.89592   -1.000
 7003.00    1.05377   0.89523   -1.000
 7004.00    1.04806   0.89472   -1.000
 7005.00    1.05683   0.89445   -1.000
 7006.00    1.07612   0.89428   -1.000
 7007.00    1.10253   0.89423   -1.000
 7008.00    1.09133   0.89414   -1.000
 7009.00    1.05779   0.89403   -1.000
 7010.00    1.02934   0.89374   -1.000
 7011.00    1.00352   0.89336   -1.000
 7012.00    1.01711   0.89282   -1.000
 7013.00    1.04840   0.89223   -1.000
 7014.00    1.06707   0.89162   -1.000
 7015.00    1.08087   0.89109   -1.000
 7016.00    1.06441   0.89072   -1.000
 7017.00    1.03801   0.89053   -1.000
 7018.00    1.03187   0.89061   -1.000
 7019.00    1.03130   0.89084   -1.000
 7020.00    1.02762   0.89131   -1.000
 7021.00    1.02324   0.89188   -1.000
 7022.00    1.04794   0.89259   -1.000
 7023.00    1.07789   0.89334   -1.000
 7024.00    1.08342   0.89417   -1.000
 7025.00    1.08557   0.89505   -1.000
 7026.00    1.06426   0.89597   -1.000
 7027.00    1.04063   0.89696   -1.000
 7028.00    1.05047   0.89794   -1.000
 7029.00    1.06241   0.89896   -1.000
 7030.00    1.05835   0.89990   -1.000
 7031.00    1.05391   0.90086   -1.000
 7032.00    1.06807   0.90174   -1.000
 7033.00    1.08202   0.90263   -1.000
 7034.00    1.09043   0.90355   -1.000
 7035.00    1.09843   0.90458   -1.000
 7036.00    1.10058   0.90581   -1.000
 7037.00    1.10174   0.90724   -1.000
 7038.00    1.09381   0.90898   -1.000
 7039.00    1.08654   0.91091   -1.000
 7040.00    1.08369   0.91306   -1.000
 7041.00    1.08018   0.91523   -1.000
 7042.00    1.07325   0.91735   -1.000
 7043.00    1.06727   0.91916   -1.000
 7044.00    1.06536   0.92053   -1.000
 7045.00    1.07228   0.92126   -1.000
 7046.00    1.10995   0.92121   -1.000
 7047.00    1.13724   0.92029   -1.000
 7048.00    1.13413   0.91844   -1.000
 7049.00    1.12915   0.91568   -1.000
 7050.00    1.11953   0.91213   -2.000
 7051.00    1.11645   0.90787   -2.000
 7052.00    1.12740   0.90315   -2.000
 7053.00    1.13653   0.89812   -2.000
 7054.00    1.14222   0.89305   -2.000
 7055.00    1.15952   0.88811   -2.000
 7056.00    1.19575   0.88346   -2.000
 7057.00    1.20756   0.87928   -2.000
 7058.00    1.18443   0.87553   -2.000
 7059.00    1.18173   0.87240   -2.000
 7060.00    1.20474   0.86967   -2.000
 7061.00    1.22082   0.86756   -2.000
 7062.00    1.22921   0.86577   -2.000
 7063.00    1.22712   0.86456   -2.000
 7064.00    1.21478   0.86363   -2.000
 7065.00    1.20405   0.86322   -2.000
 7066.00    1.19470   0.86315   -2.000
 7067.00    1.16828   0.86354   -2.000
 7068.00    1.12889   0.86433   -2.000
 7069.00    1.11897   0.86547   -2.000
 7070.00    1.12873   0.86698   -2.000
 7071.00    1.15603   0.86863   -2.000
 7072.00    1.19359   0.87047   -2.000
 7073.00    1.19719   0.87213   -2.000
 7074.00    1.18349   0.87370   -2.000
 7075.00    1.18759   0.87476   -2.000
 7076.00    1.19956   0.87539   -2.000
 7077.00    1.18743   0.87527   -2.000
 7078.00    1.16617   0.87447   -2.000
 7079.00    1.15759   0.87281   -2.000
 7080.00    1.15310   0.87040   -2.000
 7081.00    1.15671   0.86720   -2.000
 7082.00    1.16250   0.86342   -2.000
 7083.00    1.13255   0.85910   -2.000
 7084.00    1.09472   0.85453   -2.000
 7085.00    1.11364   0.84982   -2.000
 7086.00    1.14253   0.84530   -2.000
 7087.00    1.11480   0.84101   -2.000
 7088.00    1.07947   0.83727   -2.000
 7089.00    1.09289   0.83404   -2.000
 7090.00    1.11093   0.83154   -2.000
 7091.00    1.09111   0.82970   -2.000
 7092.00    1.06907   0.82856   -2.000
 7093.00    1.07912   0.82810   -2.000
 7094.00    1.08998   0.82812   -2.000
 7095.00    1.10356   0.82878   -2.000
 7096.00    1.11570   0.82962   -2.000
 7097.00    1.09187   0.83096   -2.000
 7098.00    1.06939   0.83223   -2.000
 7099.00    1.06490   0.83375   -2.000
 7100.00    1.05916   0.83510   -2.000
 7101.00    1.04244   0.83641   -2.000
 7102.00    1.02832   0.83751   -2.000
 7103.00    1.03120   0.83836   -2.000
 7104.00    1.03017   0.83905   -2.000
 7105.00    1.00928   0.83938   -2.000
 7106.00    0.99239   0.83965   -2.000
 7107.00    0.99200   0.83961   -2.000
 7108.00    0.99339   0.83960   -2.000
 7109.00    1.00083   0.83943   -2.000
 7110.00    1.00905   0.83938   -2.000
 7111.00    1.01952   0.83934   -2.000
 7112.00    1.03305   0.83943   -2.000
 7113.00    1.05406   0.83963   -2.000
 7114.00    1.05808   0.83984   -2.000
 7115.00    1.02612   0.84017   -2.000
 7116.00    1.01154   0.84032   -2.000
 7117.00    1.02892   0.84048   -2.000
 7118.00    1.05095   0.84027   -2.000
 7119.00    1.08044   0.83992   -2.000
 7120.00    1.10056   0.83913   -2.000
 7121.00    1.10748   0.83806   -2.000
 7122.00    1.11156   0.83665   -2.000
 7123.00    1.11212   0.83492   -2.000
 7124.00    1.10102   0.83307   -2.000
 7125.00    1.07717   0.83099   -2.000
 7126.00    1.07560   0.82906   -2.000
 7127.00    1.09551   0.82712   -2.000
 7128.00    1.12120   0.82559   -2.000
 7129.00    1.15180   0.82431   -2.000
 7130.00    1.11668   0.82356   -2.000
 7131.00    1.03234   0.82326   -2.000
 7132.00    1.01060   0.82346   -2.000
 7133.00    1.03006   0.82412   -2.000
 7134.00    1.01651   0.82510   -2.000
 7135.00    0.98395   0.82638   -2.000
 7136.00    1.00168   0.82771   -2.000
 7137.00    1.04465   0.82909   -2.000
 7138.00    1.07281   0.83027   -2.000
 7139.00    1.09453   0.83129   -2.000
 7140.00    1.06758   0.83202   -2.000
 7141.00    1.02249   0.83245   -2.000
 7142.00    1.00909   0.83262   -2.000
 7143.00    1.00569   0.83258   -2.000
 7144.00    1.01438   0.83239   -2.000
 7145.00    1.02626   0.83218   -2.000
 7146.00    1.02991   0.83204   -2.000
 7147.00    1.03179   0.83213   -2.000
 7148.00    1.02989   0.83244   -2.000
 7149.00    1.02735   0.83312   -2.000
 7150.00    1.03934   0.83405   -2.000
 7151.00    1.05322   0.83533   -2.000
 7152.00    1.04666   0.83673   -2.000
 7153.00    1.03825   0.83825   -2.000
 7154.00    1.03516   0.83960   -2.000
 7155.00    1.03237   0.84079   -2.000
 7156.00    1.04016   0.84164   -2.000
 7157.00    1.04792   0.84209   -2.000
 7158.00    1.03263   0.84219   -2.000
 7159.00    1.01847   0.84179   -2.000
 7160.00    1.02982   0.84124   -2.000
 7161.00    1.04245   0.84035   -2.000
 7162.00    1.07114   0.83962   -2.000
 7163.00    1.09626   0.83884   -2.000
 7164.00    1.09093   0.83847   -2.000
 7165.00    1.08987   0.83834   -2.000
 7166.00    1.11595   0.83867   -2.000
 7167.00    1.13861   0.83937   -2.000
 7168.00    1.14433   0.84035   -2.000
 7169.00    1.14096   0.84161   -2.000
 7170.00    1.10102   0.84283   -2.000
 7171.00    1.07023   0.84406   -2.000
 7172.00    1.07000   0.84496   -2.000
 7173.00    1.06279   0.84565   -2.000
 7174.00    1.03589   0.84587   -2.000
 7175.00    1.02440   0.84578   -2.000
 7176.00    1.05007   0.84526   -2.000
 7177.00    1.06369   0.84443   -2.000
 7178.00    1.05218   0.84334   -2.000
 7179.00    1.05292   0.84208   -2.000
 7180.00    1.07583   0.84073   -2.000
 7181.00    1.08683   0.83935   -2.000
 7182.00    1.07899   0.83800   -2.000
 7183.00    1.05697   0.83670   -2.000
 7184.00    1.01525   0.83546   -2.000
 7185.00    1.00079   0.83438   -2.000
 7186.00    1.01964   0.83340   -2.000
 7187.00    1.02029   0.83269   -2.000
 7188.00    1.00133   0.83212   -2.000
 7189.00    1.02053   0.83188   -2.000
 7190.00    1.07603   0.83185   -2.000
 7191.00    1.07732   0.83214   -2.000
 7192.00    1.03314   0.83265   -2.000
 7193.00    1.01661   0.83333   -2.000
 7194.00    1.02047   0.83416   -2.000
 7195.00    1.02056   0.83506   -2.000
 7196.00    1.01820   0.83597   -2.000
 7197.00    0.99340   0.83676   -2.000
 7198.00    0.95588   0.83739   -2.000
 7199.00    0.95468   0.83777   -2.000
 7200.00    0.97140   0.83799   -2.000
 7201.00    0.99718   0.83797   -2.000
 7202.00    1.02682   0.83782   -2.000
 7203.00    1.01413   0.83747   -2.000
 7204.00    0.98596   0.83708   -2.000
 7205.00    0.96946   0.83661   -2.000
 7206.00    0.95658   0.83626   -2.000
 7207.00    0.97202   0.83606   -2.000
 7208.00    0.99477   0.83608   -2.000
 7209.00    0.96764   0.83641   -2.000
 7210.00    0.93000   0.83698   -2.000
 7211.00    0.92889   0.83782   -2.000
 7212.00    0.93384   0.83889   -2.000
 7213.00    0.93768   0.84005   -2.000
 7214.00    0.94139   0.84143   -2.000
 7215.00    0.94109   0.84268   -2.000
 7216.00    0.94045   0.84410   -2.000
 7217.00    0.96543   0.84538   -2.000
 7218.00    0.99170   0.84671   -2.000
