###################################################################
## OUTPUT of StarlightChains_v04.for    [Cid@UFSC - 01/Apr/2007] ##
###################################################################

## Some input info
KUG0210-078._31_33.txt                   [arq_obs]
Base.CB07.vall.4m                        [arq_base]
Masks.EmLines.NEW.gm                     [arq_masks]
StCv04.C11.config                        [arq_config]
   66                                    [N_base]
    0                                    [N_YAV_components = # of components with extra extinction!]
    0                                    [i_FitPowerLaw (1/0 = Yes/No)]
-9.99                                    [alpha_PowerLaw]
CCM                                      [red_law_option]
 1.458241                                [q_norm = A(l_norm)/A(V)]

## (Re)Sampling Parameters
 3741.00                                 [l_ini (A)]
 7218.00                                 [l_fin (A)]
    1.00                                 [dl    (A)]     (OBS: dl_cushion =    50.00 A)

## Normalization info
 4020.00                                 [l_norm (A) - for base]
 4010.00                                 [llow_norm (A) - window for f_obs]
 4060.00                                 [lupp_norm (A) - window for f_obs]
1.282201E-16                             [fobs_norm (in input units)]

## S/N
 3691.00                                 [llow_SN (A) - window for S/N]
 7268.00                                 [lupp_SN (A) - window for S/N]
   6.219                                 [S/N in S/N window]
   5.522                                 [S/N in norm. window]
   0.310                                 [S/N_err in S/N window]
   0.275                                 [S/N_err in norm. window]
  1.0000                                 [fscale_chi2]

## etc...
    -2007458                             [idum_orig]
  2432                                   [NOl_eff]
  2018                                   [Nl_eff]
   414    NSIGMA                         [Ntot_cliped & clip_method]
 16093840                                [Nglobal_steps]
   7                                     [N_chains]
  41                                     [NEX0s_base = N_base in EX0s-fits]
 0   0   1      414   2.0   1.164E+05    [Clip-Bug, RC-Crash & Burn-In warning-flags, n_censored_weights, wei_nsig_threshold & wei_limit]
   110    109.927    108.986      0.941  [idt_all, wdt_TotTime, wdt_UsrTime & wdt_SysTime (sec)]

## Synthesis Results - Best model ##

 2.49327E-04                             [chi2/Nl_eff]
     3.54970                             [adev (%)]

   117.29940                             [sum-of-x (%)]
 8.76955E-16                             [Flux_tot (units of input spectrum!)]
 7.14574E-12                             [Mini_tot (???)]
 3.65021E-12                             [Mcor_tot (???)]

 -16.74                                  [v0_min  (km/s)]
 241.50                                  [vd_min  (km/s)]
 1.3128                                  [AV_min  (mag)]
 0.0000                                  [YAV_min (mag)]

# j     x_j(%)      Mini_j(%)     Mcor_j(%)     age_j(yr)     Z_j      (L/M)_j    YAV?  Mstars   component_j        a/Fe...       SSP_chi2r SSP_adev(%)   SSP_AV   SSP_x(%)
  1      0.0000     0.0000E+00    0.0000E+00    1.000000E+06  0.00400  1.094E-02    0   1.0000   age020_m42            0.0000     1.0697E-03     9.2261   3.2742    99.0104
  2      0.0000     0.0000E+00    0.0000E+00    3.160000E+06  0.00400  4.007E-02    0   0.9999   age045_m42            0.0000     8.7367E-04     8.2408   2.6127   102.8170
  3      0.0000     0.0000E+00    0.0000E+00    5.010000E+06  0.00400  2.539E-02    0   0.9488   age055_m42            0.0000     9.2943E-04     8.5722   2.9024   101.6770
  4      0.0000     0.0000E+00    0.0000E+00    6.610000E+06  0.00400  2.620E-02    0   0.9220   age061_m42            0.0000     8.1477E-04     7.9710   2.5351   103.2346
  5      0.0000     0.0000E+00    0.0000E+00    1.000000E+07  0.00400  1.322E-02    0   0.8862   age070_m42            0.0000     5.7608E-04     6.5529   2.2135   107.4728
  6      0.0000     0.0000E+00    0.0000E+00    1.445000E+07  0.00400  7.883E-03    0   0.8571   age078_m42            0.0000     6.4802E-04     6.9932   2.5314   105.1367
  7      0.0000     0.0000E+00    0.0000E+00    2.512000E+07  0.00400  5.251E-03    0   0.8174   age090_m42            0.0000     5.2637E-04     6.2014   2.0842   108.1009
  8      0.0000     0.0000E+00    0.0000E+00    4.000000E+07  0.00400  3.649E-03    0   0.7851   age104_m42            0.0000     5.1795E-04     6.1560   1.8700   108.3452
  9      0.0000     0.0000E+00    0.0000E+00    5.500000E+07  0.00400  3.098E-03    0   0.7629   age110_m42            0.0000     5.9232E-04     6.6458   2.0504   106.9416
 10      0.0000     0.0000E+00    0.0000E+00    1.015200E+08  0.00400  2.228E-03    0   0.7207   age116_m42            0.0000     6.3337E-04     6.9068   2.0879   106.2816
 11      0.0896     8.5771E-03    1.1163E-02    2.861200E+08  0.00400  1.093E-03    0   0.6648   age125_m42            0.0000     5.0916E-04     5.9117   1.5100   109.7688
 12      0.0000     0.0000E+00    0.0000E+00    5.088000E+08  0.00400  6.597E-04    0   0.6365   age130_m42            0.0000     5.6721E-04     6.3106   1.5292   109.2307
 13      0.4702     2.3073E-01    2.6188E-01    1.434000E+09  0.00400  2.132E-04    0   0.5798   age139_m42            0.0000     5.0918E-04     6.0289   0.5909   109.9154
 14      0.0000     0.0000E+00    0.0000E+00    4.250000E+09  0.00400  5.895E-05    0   0.5377   age158_m42            0.0000     7.0896E-04     7.3004   0.1590   105.2103
 15      0.0000     0.0000E+00    0.0000E+00    7.500000E+09  0.00400  3.510E-05    0   0.5212   age171_m42            0.0000     7.8082E-04     7.6397  -0.0202   104.0179
 16      0.0000     0.0000E+00    0.0000E+00    1.300000E+10  0.00400  2.005E-05    0   0.5034   age193_m42            0.0000     8.6086E-04     7.9969  -0.1808   103.1639
 17      0.0000     0.0000E+00    0.0000E+00    1.800000E+10  0.00400  1.525E-05    0   0.4967   age213_m42            0.0000     8.5285E-04     7.9221  -0.2068   102.8737
 18      0.0000     0.0000E+00    0.0000E+00    1.000000E+06  0.00800  1.238E-02    0   1.0000   age020_m52            0.0000     1.0708E-03     9.2344   3.2705    99.2010
 19      0.0000     0.0000E+00    0.0000E+00    3.160000E+06  0.00800  3.074E-02    0   0.9966   age045_m52            0.0000     1.0603E-03     9.1949   3.2012    99.7743
 20      0.6712     2.6319E-03    4.8654E-03    5.010000E+06  0.00800  2.668E-02    0   0.9443   age055_m52            0.0000     9.3702E-04     8.6197   2.9763   101.1677
 21      0.0616     3.0186E-04    5.4230E-04    6.610000E+06  0.00800  2.136E-02    0   0.9177   age061_m52            0.0000     5.8262E-04     6.7371   1.7119   108.8540
 22      0.0000     0.0000E+00    0.0000E+00    1.000000E+07  0.00800  1.215E-02    0   0.8827   age070_m52            0.0000     5.3665E-04     6.1662   2.3761   108.0352
 23      0.0000     0.0000E+00    0.0000E+00    1.445000E+07  0.00800  8.717E-03    0   0.8552   age078_m52            0.0000     6.1479E-04     6.7572   2.5018   106.3823
 24      0.9139     1.7099E-02    2.7321E-02    2.512000E+07  0.00800  5.592E-03    0   0.8162   age090_m52            0.0000     4.9147E-04     5.8544   2.1523   109.1438
 25      0.0000     0.0000E+00    0.0000E+00    4.000000E+07  0.00800  3.896E-03    0   0.7841   age104_m52            0.0000     4.9940E-04     5.9081   2.0842   108.9325
 26      0.0000     0.0000E+00    0.0000E+00    1.015200E+08  0.00800  2.148E-03    0   0.7226   age116_m52            0.0000     5.6778E-04     6.4424   2.0473   107.5125
 27      0.0304     3.2043E-03    4.1921E-03    2.861200E+08  0.00800  9.925E-04    0   0.6683   age125_m52            0.0000     5.4160E-04     6.2044   1.5959   110.1374
 28      0.1347     4.4882E-02    5.3930E-02    9.047900E+08  0.00800  3.141E-04    0   0.6138   age135_m52            0.0000     5.4556E-04     6.1088   0.8624   111.3268
 29      0.0000     0.0000E+00    0.0000E+00    1.434000E+09  0.00800  1.719E-04    0   0.5853   age139_m52            0.0000     5.7003E-04     6.3502   0.2669   109.8234
 30      0.0000     0.0000E+00    0.0000E+00    2.500000E+09  0.00800  7.872E-05    0   0.5600   age150_m52            0.0000     7.5847E-04     7.4670   0.0225   105.7580
 31      0.0000     0.0000E+00    0.0000E+00    4.250000E+09  0.00800  4.336E-05    0   0.5426   age158_m52            0.0000     7.8393E-04     7.5859   0.0071   104.7750
 32      0.2560     8.4779E-01    8.8277E-01    6.250000E+09  0.00800  3.159E-05    0   0.5319   age166_m52            0.0000     8.9499E-04     8.0367  -0.1780   103.9407
 33      0.0000     0.0000E+00    0.0000E+00    1.300000E+10  0.00800  1.361E-05    0   0.5073   age193_m52            0.0000     1.0647E-03     8.6315  -0.6223   102.1437
 34      2.3706     2.5088E+01    2.4507E+01    1.800000E+10  0.00800  9.886E-06    0   0.4990   age213_m52            0.0000     1.2034E-03     9.0949  -0.7113   100.7368
 35      0.2468     1.6727E-03    3.2745E-03    1.000000E+06  0.02000  1.544E-02    0   1.0000   age020_m62            0.0000     1.0780E-03     9.2639   3.2646    99.5210
 36      0.0000     0.0000E+00    0.0000E+00    3.160000E+06  0.02000  3.762E-02    0   0.9858   age045_m62            0.0000     1.0753E-03     9.2701   3.2070   100.2392
 37      0.0000     0.0000E+00    0.0000E+00    5.010000E+06  0.02000  3.296E-02    0   0.9342   age055_m62            0.0000     9.2225E-04     8.5481   2.8750   102.3341
 38    103.5378     9.3870E-01    1.6283E+00    8.710000E+06  0.02000  1.154E-02    0   0.8861   age067_m62            0.0000     2.6613E-04     3.6066   1.7311   116.4067
 39      0.0000     0.0000E+00    0.0000E+00    1.445000E+07  0.02000  7.663E-03    0   0.8472   age078_m62            0.0000     4.1640E-04     5.1433   1.9993   111.6893
 40      1.2181     2.8121E-02    4.4586E-02    2.512000E+07  0.02000  4.532E-03    0   0.8099   age090_m62            0.0000     3.9135E-04     4.9239   1.9897   111.4584
 41      0.0000     0.0000E+00    0.0000E+00    5.500000E+07  0.02000  2.733E-03    0   0.7595   age110_m62            0.0000     4.9901E-04     5.9602   2.0568   108.6683
 42      0.0000     0.0000E+00    0.0000E+00    1.609000E+08  0.02000  1.369E-03    0   0.6985   age120_m62            0.0000     5.4450E-04     6.3170   1.9394   109.3733
 43      0.0000     0.0000E+00    0.0000E+00    2.861200E+08  0.02000  9.013E-04    0   0.6714   age125_m62            0.0000     5.4835E-04     6.3093   1.7192   110.9844
 44      0.8135     1.6927E-01    2.1370E-01    5.088000E+08  0.02000  5.028E-04    0   0.6449   age130_m62            0.0000     6.2009E-04     6.6955   1.3968   111.0354
 45      0.0000     0.0000E+00    0.0000E+00    9.047900E+08  0.02000  2.428E-04    0   0.6179   age135_m62            0.0000     6.1872E-04     6.8160   0.8285   109.4538
 46      0.0000     0.0000E+00    0.0000E+00    1.434000E+09  0.02000  1.263E-04    0   0.5908   age139_m62            0.0000     6.7371E-04     7.1429   0.3855   107.7901
 47      0.0000     0.0000E+00    0.0000E+00    2.500000E+09  0.02000  5.985E-05    0   0.5673   age150_m62            0.0000     8.6001E-04     7.9735   0.0347   105.5626
 48      0.8993     2.8766E+00    3.0792E+00    4.250000E+09  0.02000  3.271E-05    0   0.5468   age158_m62            0.0000     1.0720E-03     8.7271  -0.2463   103.5285
 49      0.0000     0.0000E+00    0.0000E+00    1.000000E+10  0.02000  1.360E-05    0   0.5167   age181_m62            0.0000     1.2935E-03     9.2827  -0.5564   101.2985
 50      0.5158     7.5750E+00    7.4338E+00    1.800000E+10  0.02000  7.124E-06    0   0.5013   age213_m62            0.0000     1.4920E-03     9.7847  -0.7388    99.2044
 51      0.0000     0.0000E+00    0.0000E+00    1.000000E+06  0.05000  2.592E-02    0   0.9998   age020_m72            0.0000     1.0881E-03     9.2940   3.2513    99.7882
 52      0.0000     0.0000E+00    0.0000E+00    3.160000E+06  0.05000  4.845E-02    0   0.9577   age045_m72            0.0000     1.0384E-03     9.1039   3.1113   100.6052
 53      0.0000     0.0000E+00    0.0000E+00    5.010000E+06  0.05000  3.072E-02    0   0.9147   age055_m72            0.0000     6.2854E-04     6.7155   2.5913   106.8760
 54      0.0000     0.0000E+00    0.0000E+00    6.610000E+06  0.05000  1.455E-02    0   0.8877   age061_m72            0.0000     4.7365E-04     5.2493   1.7220   119.9049
 55      0.0000     0.0000E+00    0.0000E+00    1.000000E+07  0.05000  9.074E-03    0   0.8524   age070_m72            0.0000     7.4159E-04     7.4884   2.7621   106.7555
 56      0.0000     0.0000E+00    0.0000E+00    2.512000E+07  0.05000  4.250E-03    0   0.7902   age090_m72            0.0000     5.8458E-04     6.4164   2.4922   107.5484
 57      0.2101     7.1200E-03    1.0618E-02    4.000000E+07  0.05000  3.087E-03    0   0.7618   age104_m72            0.0000     5.2561E-04     5.9954   2.2683   109.1952
 58      0.0000     0.0000E+00    0.0000E+00    1.015200E+08  0.05000  1.700E-03    0   0.7096   age116_m72            0.0000     5.1345E-04     5.9226   2.0650   109.7151
 59      0.0000     0.0000E+00    0.0000E+00    2.861200E+08  0.05000  7.384E-04    0   0.6633   age125_m72            0.0000     5.5918E-04     6.3541   1.6201   110.7868
 60      0.0000     0.0000E+00    0.0000E+00    5.088000E+08  0.05000  3.819E-04    0   0.6372   age130_m72            0.0000     6.1039E-04     6.8436   1.1724   110.3501
 61      0.0000     0.0000E+00    0.0000E+00    9.047900E+08  0.05000  1.676E-04    0   0.6110   age135_m72            0.0000     8.0877E-04     7.9439   0.5070   106.9309
 62      0.0000     0.0000E+00    0.0000E+00    1.434000E+09  0.05000  8.837E-05    0   0.5874   age139_m72            0.0000     8.4789E-04     7.9158   0.0481   106.4196
 63      0.0000     0.0000E+00    0.0000E+00    2.500000E+09  0.05000  4.233E-05    0   0.5598   age150_m72            0.0000     1.1138E-03     8.8641  -0.2327   103.7225
 64      1.8131     1.3219E+01    1.3584E+01    6.250000E+09  0.05000  1.435E-05    0   0.5249   age166_m72            0.0000     1.3673E-03     9.4925  -0.6429   100.3993
 65      3.0466     4.8941E+01    4.8249E+01    1.300000E+10  0.05000  6.513E-06    0   0.5036   age193_m72            0.0000     1.6514E-03    10.1273  -0.8909    99.8245
 66      0.0000     0.0000E+00    0.0000E+00    1.800000E+10  0.05000  4.527E-06    0   0.4945   age213_m72            0.0000     1.8317E-03    10.3967  -1.0000    97.5618


## Synthesis Results - Average & Chains ##

# j      x_j: min, <> & last-chain-values for 1 ...  7 chains
  1      0.0000      0.3469      1.0544      0.7372      1.8181      1.4794      0.0000      0.1508      0.1639
  2      0.0000      0.6411      0.0000      1.9058      0.0000      1.7243      0.0000      0.0000      0.7954
  3      0.0000      0.2395      0.5415      1.5615      1.5745      0.9354      0.0000      0.3046      0.2857
  4      0.0000      0.2401      0.6604      0.3999      2.3174      1.9367      0.9345      0.2673      0.0000
  5      0.0000      0.3269      4.1826      0.9901      0.0000      0.1200      0.0000      0.6369      0.6557
  6      0.0000      0.2737      0.1755      2.3411      0.1776      0.7875      3.4201      0.8302      0.5059
  7      0.0000      0.2962      0.0000      0.8800      1.6058      0.3755      0.0000      0.1347      0.5136
  8      0.0000      0.3223      0.0000      0.4971      3.4987      3.6128      0.1299      2.3299      0.9189
  9      0.0000      0.3223      2.3782      0.0000      0.0000      3.5001      0.0581      0.5985      0.0000
 10      0.0000      0.2920      0.0000      3.9411      0.0106      0.0000      1.2480      0.0000      0.0000
 11      0.0896      0.2859      3.7162      0.0000      1.6428      2.0496      0.1188      1.4679      0.1244
 12      0.0000      0.3408      1.0848      0.0000      0.1503      0.0000      0.0000      0.0000      0.0000
 13      0.4702     40.0237     12.6181     23.8215     15.8123     18.5288     26.5104     22.5737     30.2746
 14      0.0000      0.3042      1.2840      0.0000      1.0466      0.0443      0.0000      0.0000      0.9431
 15      0.0000      0.3176      0.0000      2.7133      0.0000      2.6685      0.7341      4.0732      0.0000
 16      0.0000      0.2280      0.0000      0.6655      1.9511      0.0000      0.9475      0.0000      0.0000
 17      0.0000      0.2432      0.1328      0.5290      0.0000      0.0000      0.1241      1.2505      0.4667
 18      0.0000      0.3103      1.6276      1.8959      0.7311      0.9450      1.0890      0.0000      0.3018
 19      0.0000      0.2508      0.0000      0.4475      5.0594      0.0000      0.0638      0.0000      0.9334
 20      0.6712      0.2201      0.8344      0.0000      0.0000      1.2534      1.7406      0.0000      0.5684
 21      0.0616      0.3056      0.4138      1.4145      0.0000      0.4163      0.4287      2.2584      2.3566
 22      0.0000      0.2123      0.0000      0.1724      2.0912      0.0000      2.1639      0.0000      0.9854
 23      0.0000      0.2737      0.2054      0.7535      0.7310      0.1379      1.6229      2.5087      0.0000
 24      0.9139      0.3013      1.4417      1.6458      1.6372      0.2855      0.9858      2.3688      2.1477
 25      0.0000      0.2488      4.5867      1.3135      0.0000      0.0000      0.9709      0.3648      0.8490
 26      0.0000      0.2833      0.0000      1.5675      0.0000      0.3616      0.7567      0.3143      2.4142
 27      0.0304      0.2425      1.3293      1.1995      0.0000      1.0332      0.7856      0.0000      0.1474
 28      0.1347      0.2542      1.3073      0.0000      2.9911      0.0000      0.4901      0.0925      0.1697
 29      0.0000      0.2573      0.4989      0.5997      0.0000      1.4628      0.0000      0.0000      0.1550
 30      0.0000      0.2870      0.0000      1.5566      0.1057      2.1634      1.0281      0.0000      0.8083
 31      0.0000      0.2565      0.3469      0.0000      0.0000      0.0000      0.2094      1.3951      0.5304
 32      0.2560      0.3333      1.2059      1.2338      2.5178      2.3561      0.9556      0.0000      0.0000
 33      0.0000      0.3115      0.0000      0.8936      0.4472      0.0000      1.5914      0.7119      1.4877
 34      2.3706      0.2846      1.9492      0.6455      1.1647      1.1385      0.5592      0.6632      1.0622
 35      0.2468      0.2958      1.1089      2.5205      3.6663      0.0384      0.0000      0.0000      0.4413
 36      0.0000      0.2931      0.0000      1.1686      0.0000      0.2266      0.9402      0.0000      1.7631
 37      0.0000      0.1925      0.2648      0.8949      1.5325      0.0000      1.4792      0.0000      0.3561
 38    103.5378      0.3606      2.4249      0.0954      1.2140      0.9708      1.4401      0.0270      0.0000
 39      0.0000      0.2266      0.9728      0.0000      0.5462      0.0000      0.7298      3.6035      0.0000
 40      1.2181      0.2902      2.4838      0.0000      0.0000      0.0000      1.0257      0.0000      0.1367
 41      0.0000      0.2712      2.6224      0.0000      0.9422      3.6313      0.0000      0.0000      1.1838
 42      0.0000      0.2871      1.7375      0.0802      1.5113      0.0000      1.0101      1.2398      0.7735
 43      0.0000      0.3036      0.5387      2.3064      2.8935      2.6451      0.7086      0.0000      0.4926
 44      0.8135      8.1847      3.8883      7.5125      0.9398      6.2761      5.3921      5.6945     10.1632
 45      0.0000      0.4515      0.9559      0.0151      0.0000      2.4620      0.9436      2.4277      0.0000
 46      0.0000      0.3035      0.0000      0.0000      2.2261      4.0023      0.0000      1.0887      0.0000
 47      0.0000      0.3960      1.8031      0.1425      1.0867      2.0453      0.2442      2.0216      1.3460
 48      0.8993      5.8482      5.3393      4.5489      4.7103      7.5832      5.3517      8.9247      4.2995
 49      0.0000      4.1557      1.4476      2.4640      3.1748      3.3372      3.0892      3.4107      4.2935
 50      0.5158      6.9433      7.2723      5.6847      2.4054      1.8997      6.1459      4.8041      4.2977
 51      0.0000      0.2777      0.9826      0.0000      0.5828      0.0000      0.6838      0.1130      0.0000
 52      0.0000      0.3289      6.4457      0.8248      0.8283      0.2967      1.6276      0.0000      0.5245
 53      0.0000      0.2296      1.5970      0.0000      0.1401      0.0538      0.0000      0.0000      0.0000
 54      0.0000      0.1858      0.0000      0.5489      0.0000      0.0000      0.2993      1.6139      1.4188
 55      0.0000      0.3287      1.0017      2.2844      0.1412      0.0000      1.4240      0.0000      2.0561
 56      0.0000      0.2789      0.4040      0.1215      0.2724      0.6233      1.8748      0.0000      0.9939
 57      0.2101      0.2543      2.2730      0.5708      1.1929      1.1838      0.9648      0.6583      0.0229
 58      0.0000      0.3764      0.0311      0.1071      3.0611      3.8747      2.3789      0.0000      0.0000
 59      0.0000      0.4619      0.0263      0.2790      0.9519      1.9123      0.3980      2.8054      0.0000
 60      0.0000      5.3517      5.1123      4.1349      4.9080      2.6292      6.0653      5.4751      5.1952
 61      0.0000      0.2366      0.0000      0.0000      0.0000      0.0955      0.0000      0.6677      1.0213
 62      0.0000      0.2063      0.2697      0.7571      0.0000      0.0000      0.0000      0.0000      0.1877
 63      0.0000      9.3575      5.6637      4.9285      4.8392      8.3492      6.4098      5.3634      6.0181
 64      1.8131      6.4418      6.7468      6.2572      6.3646      2.9764      4.5312      6.1482      5.1966
 65      3.0466      2.5741      2.1117      1.4021      4.7912      0.2856      1.3958      4.0186      2.1671
 66      0.0000      0.5086      0.0000      0.9550      2.6180      0.0993      0.0000      0.0000      0.2592

# j      m_j: min, <> & last-chain-values for 1 ...  7 chains
  1  0.0000E+00  2.0365E-03  7.0672E-03  5.0095E-03  1.0470E-02  1.4768E-02  0.0000E+00  9.0696E-04  1.1751E-03
  2  0.0000E+00  1.0274E-03  0.0000E+00  3.5355E-03  0.0000E+00  4.6991E-03  0.0000E+00  0.0000E+00  1.5572E-03
  3  0.0000E+00  5.7467E-04  1.4837E-03  4.3382E-03  3.7068E-03  3.8174E-03  0.0000E+00  7.4927E-04  8.3752E-04
  4  0.0000E+00  5.4270E-04  1.7042E-03  1.0463E-03  5.1378E-03  7.4432E-03  2.6286E-03  6.1918E-04  0.0000E+00
  5  0.0000E+00  1.4073E-03  2.0559E-02  4.9345E-03  0.0000E+00  8.7883E-04  0.0000E+00  2.8101E-03  3.4483E-03
  6  0.0000E+00  1.9112E-03  1.3988E-03  1.8924E-02  1.2162E-03  9.3505E-03  2.9725E-02  5.9412E-03  4.3157E-03
  7  0.0000E+00  2.9615E-03  0.0000E+00  1.0184E-02  1.5748E-02  6.3827E-03  0.0000E+00  1.3803E-03  6.2719E-03
  8  0.0000E+00  4.4529E-03  0.0000E+00  7.9517E-03  4.7425E-02  8.4889E-02  2.2333E-03  3.2994E-02  1.5510E-02
  9  0.0000E+00  5.0965E-03  4.2943E-02  0.0000E+00  0.0000E+00  9.4128E-02  1.1428E-03  9.7002E-03  0.0000E+00
 10  0.0000E+00  6.0653E-03  0.0000E+00  9.4777E-02  2.1699E-04  0.0000E+00  3.2270E-02  0.0000E+00  0.0000E+00
 11  1.1163E-02  1.1169E-02  1.6574E-01  0.0000E+00  6.2952E-02  1.3614E-01  5.7740E-03  5.8762E-02  5.9345E-03
 12  0.0000E+00  2.1119E-02  7.6746E-02  0.0000E+00  9.1390E-03  0.0000E+00  0.0000E+00  0.0000E+00  0.0000E+00
 13  2.6188E-01  6.9903E+00  2.5162E+00  4.8162E+00  2.7091E+00  5.5029E+00  5.7630E+00  4.0405E+00  6.4591E+00
 14  0.0000E+00  1.7820E-01  8.5874E-01  0.0000E+00  6.0142E-01  4.4081E-02  0.0000E+00  0.0000E+00  6.7484E-01
 15  0.0000E+00  3.0292E-01  0.0000E+00  2.9953E+00  0.0000E+00  4.3274E+00  8.7136E-01  3.9808E+00  0.0000E+00
 16  0.0000E+00  3.6759E-01  0.0000E+00  1.2423E+00  3.0862E+00  0.0000E+00  1.9016E+00  0.0000E+00  0.0000E+00
 17  0.0000E+00  5.0876E-01  3.1723E-01  1.2810E+00  0.0000E+00  0.0000E+00  3.2306E-01  2.6807E+00  1.1926E+00
 18  0.0000E+00  1.6099E-03  9.6399E-03  1.1385E-02  3.7204E-03  8.3361E-03  7.0317E-03  0.0000E+00  1.9125E-03
 19  0.0000E+00  5.2209E-04  0.0000E+00  1.0785E-03  1.0334E-02  0.0000E+00  1.6541E-04  0.0000E+00  2.3740E-03
 20  4.8654E-03  5.0030E-04  2.1655E-03  0.0000E+00  0.0000E+00  4.8446E-03  4.9244E-03  0.0000E+00  1.5784E-03
 21  5.4230E-04  8.4311E-04  1.3037E-03  4.5180E-03  0.0000E+00  1.9531E-03  1.4723E-03  6.3862E-03  7.9432E-03
 22  0.0000E+00  9.9043E-04  0.0000E+00  9.3130E-04  9.5717E-03  0.0000E+00  1.2567E-02  0.0000E+00  5.6165E-03
 23  0.0000E+00  1.7246E-03  1.4773E-03  5.4954E-03  4.5181E-03  1.4774E-03  1.2727E-02  1.6199E-02  0.0000E+00
 24  2.7321E-02  2.8242E-03  1.5430E-02  1.7858E-02  1.5055E-02  4.5513E-03  1.1502E-02  2.2756E-02  2.4593E-02
 25  0.0000E+00  3.2152E-03  6.7686E-02  1.9653E-02  0.0000E+00  0.0000E+00  1.5619E-02  4.8326E-03  1.3405E-02
 26  0.0000E+00  6.1210E-03  0.0000E+00  3.9202E-02  0.0000E+00  1.3286E-02  2.0348E-02  6.9592E-03  6.3715E-02
 27  4.1921E-03  1.0488E-02  6.5633E-02  6.0047E-02  0.0000E+00  7.5976E-02  4.2286E-02  0.0000E+00  7.7839E-03
 28  5.3930E-02  3.1898E-02  1.8732E-01  0.0000E+00  3.6825E-01  0.0000E+00  7.6564E-02  1.1893E-02  2.6017E-02
 29  0.0000E+00  5.6259E-02  1.2456E-01  1.5181E-01  0.0000E+00  5.4393E-01  0.0000E+00  0.0000E+00  4.1408E-02
 30  0.0000E+00  1.3110E-01  0.0000E+00  8.2326E-01  4.7355E-02  1.6807E+00  5.8461E-01  0.0000E+00  4.5112E-01
 31  0.0000E+00  2.0616E-01  3.1835E-01  0.0000E+00  0.0000E+00  0.0000E+00  2.0943E-01  1.1490E+00  5.2067E-01
 32  8.8277E-01  3.6037E-01  1.4888E+00  1.5445E+00  2.6709E+00  4.3323E+00  1.2862E+00  0.0000E+00  0.0000E+00
 33  0.0000E+00  7.4566E-01  0.0000E+00  2.4762E+00  1.0502E+00  0.0000E+00  4.7415E+00  1.7466E+00  4.3505E+00
 34  2.4507E+01  9.2272E-01  7.2141E+00  2.4224E+00  3.7036E+00  6.2756E+00  2.2561E+00  2.2031E+00  4.2064E+00
 35  3.2745E-03  1.2304E-03  5.2664E-03  1.2136E-02  1.4960E-02  2.7150E-04  0.0000E+00  0.0000E+00  2.2422E-03
 36  0.0000E+00  4.9328E-04  0.0000E+00  2.2766E-03  0.0000E+00  6.4842E-04  1.9694E-03  0.0000E+00  3.6245E-03
 37  0.0000E+00  3.5034E-04  5.5028E-04  1.8856E-03  2.7365E-03  0.0000E+00  3.3513E-03  0.0000E+00  7.9184E-04
 38  1.6283E+00  1.7782E-03  1.3653E-02  5.4450E-04  5.8727E-03  8.1404E-03  8.8389E-03  1.3624E-04  0.0000E+00
 39  0.0000E+00  1.6091E-03  7.8861E-03  0.0000E+00  3.8043E-03  0.0000E+00  6.4494E-03  2.6221E-02  0.0000E+00
 40  4.4586E-02  3.3305E-03  3.2547E-02  0.0000E+00  0.0000E+00  0.0000E+00  1.4652E-02  0.0000E+00  1.9162E-03
 41  0.0000E+00  4.8398E-03  5.3437E-02  0.0000E+00  1.6496E-02  1.1021E-01  0.0000E+00  0.0000E+00  2.5810E-02
 42  0.0000E+00  9.4087E-03  6.5004E-02  3.0439E-03  4.8580E-02  0.0000E+00  4.1199E-02  4.1636E-02  3.0962E-02
 43  0.0000E+00  1.4524E-02  2.9423E-02  1.2773E-01  1.3579E-01  2.1519E-01  4.2192E-02  0.0000E+00  2.8789E-02
 44  2.1370E-01  6.7420E-01  3.6569E-01  7.1635E-01  7.5938E-02  8.7911E-01  5.5283E-01  4.8072E-01  1.0227E+00
 45  0.0000E+00  7.3794E-02  1.7837E-01  2.8621E-03  0.0000E+00  6.8426E-01  1.9195E-01  4.0664E-01  0.0000E+00
 46  0.0000E+00  9.1166E-02  0.0000E+00  0.0000E+00  6.5604E-01  2.0446E+00  0.0000E+00  3.3518E-01  0.0000E+00
 47  0.0000E+00  2.4106E-01  1.2532E+00  1.0040E-01  6.4894E-01  2.1172E+00  1.8502E-01  1.2612E+00  1.0009E+00
 48  3.0792E+00  6.2786E+00  6.5446E+00  5.6532E+00  4.9607E+00  1.3844E+01  7.1512E+00  9.8193E+00  5.6386E+00
 49  0.0000E+00  1.0140E+01  4.0326E+00  6.9595E+00  7.5991E+00  1.3846E+01  9.3819E+00  8.5288E+00  1.2797E+01
 50  7.4338E+00  3.1378E+01  3.7523E+01  2.9739E+01  1.0664E+01  1.4599E+01  3.4570E+01  2.2250E+01  2.3725E+01
 51  0.0000E+00  6.8792E-04  2.7792E-03  0.0000E+00  1.4162E-03  0.0000E+00  2.1085E-03  2.8701E-04  0.0000E+00
 52  0.0000E+00  4.1759E-04  9.3423E-03  1.2121E-03  1.0315E-03  6.4047E-04  2.5717E-03  0.0000E+00  8.1335E-04
 53  0.0000E+00  4.3900E-04  3.4867E-03  0.0000E+00  2.6284E-04  1.7489E-04  0.0000E+00  0.0000E+00  0.0000E+00
 54  0.0000E+00  7.2814E-04  0.0000E+00  2.4895E-03  0.0000E+00  0.0000E+00  1.4595E-03  6.4806E-03  6.7907E-03
 55  0.0000E+00  1.9829E-03  6.8999E-03  1.5954E-02  8.3577E-04  0.0000E+00  1.0693E-02  0.0000E+00  1.5153E-02
 56  0.0000E+00  3.3307E-03  5.5072E-03  1.6789E-03  3.1907E-03  1.2656E-02  2.7864E-02  0.0000E+00  1.4498E-02
 57  1.0618E-02  4.0304E-03  4.1130E-02  1.0472E-02  1.8546E-02  3.1903E-02  1.9031E-02  1.0693E-02  4.4302E-04
 58  0.0000E+00  1.0090E-02  9.5288E-04  3.3240E-03  8.0499E-02  1.7663E-01  7.9375E-02  0.0000E+00  0.0000E+00
 59  0.0000E+00  2.6645E-02  1.7356E-03  1.8633E-02  5.3869E-02  1.8760E-01  2.8576E-02  1.6587E-01  0.0000E+00
 60  0.0000E+00  5.7346E-01  6.2545E-01  5.1291E-01  5.1591E-01  4.7908E-01  8.0894E-01  6.0126E-01  6.8004E-01
 61  0.0000E+00  5.5392E-02  0.0000E+00  0.0000E+00  0.0000E+00  3.8039E-02  0.0000E+00  1.6022E-01  2.9211E-01
 62  0.0000E+00  8.8087E-02  1.3144E-01  3.7412E-01  0.0000E+00  0.0000E+00  0.0000E+00  0.0000E+00  9.7866E-02
 63  0.0000E+00  7.9475E+00  5.4921E+00  4.8456E+00  4.0318E+00  1.2058E+01  6.7760E+00  4.6684E+00  6.2438E+00
 64  1.3584E+01  1.5133E+01  1.8096E+01  1.7016E+01  1.4667E+01  1.1890E+01  1.3249E+01  1.4802E+01  1.4912E+01
 65  4.8249E+01  1.2782E+01  1.1972E+01  8.0598E+00  2.3340E+01  2.4119E+00  8.6274E+00  2.0452E+01  1.3146E+01
 66  0.0000E+00  3.5681E+00  0.0000E+00  7.7555E+00  1.8016E+01  1.1849E+00  0.0000E+00  0.0000E+00  2.2209E+00

# AV, chi2 & Mass for <> & i_chain = 1 ...  7 solutions
AV       1.3128      0.2281      0.6031      0.5531      0.5292      0.6063      0.5757      0.3601      0.5174
chi2 2.4933E-04  6.8759E-04  4.9150E-04  5.4460E-04  5.5135E-04  5.5301E-04  5.5439E-04  6.3331E-04  5.9706E-04
Mass 3.6502E-12  2.7122E-12  3.9308E-12  3.6250E-12  4.1428E-12  2.6507E-12  3.4757E-12  3.1600E-12  3.2743E-12
 -16.74                                  [v0_min (km/s) before EX0s...]
 241.50                                  [vd_min (km/s) before EX0s...]


## Synthetic spectrum (Best Model) ##l_obs f_obs f_syn wei
 3478    [Nl_obs]
 3741.00    0.42142   1.02115    0.000
 3742.00    0.42100   1.02412    0.000
 3743.00    0.40388   1.01680    0.000
 3744.00    0.39483   0.99978    0.000
 3745.00    0.39047   0.97545   -1.000
 3746.00    0.41847   0.94764   -1.000
 3747.00    0.46291   0.92072   -1.000
 3748.00    0.48202   0.89872   -1.000
 3749.00    0.48999   0.88474   -1.000
 3750.00    0.51588   0.88160   -1.000
 3751.00    0.54854   0.89176   -1.000
 3752.00    0.53461   0.91426   -1.000
 3753.00    0.50575   0.94393   -1.000
 3754.00    0.51210   0.97526   -1.000
 3755.00    0.52788   1.00478   -1.000
 3756.00    0.53242   1.03012   -1.000
 3757.00    0.53449   1.04997   -1.000
 3758.00    0.51954   1.06385   -1.000
 3759.00    0.50162   1.07226   -1.000
 3760.00    0.49068   1.07552   -1.000
 3761.00    0.48068   1.07359   -1.000
 3762.00    0.48862   1.06579   -1.000
 3763.00    0.49826   1.05148   -1.000
 3764.00    0.49574   1.03101   -1.000
 3765.00    0.49252   1.00513   -1.000
 3766.00    0.48533   0.97533   -1.000
 3767.00    0.47815   0.94480   -1.000
 3768.00    0.48365   0.91784   -1.000
 3769.00    0.48879   0.89805   -1.000
 3770.00    0.48491   0.88803   -1.000
 3771.00    0.48147   0.89015   -1.000
 3772.00    0.48381   0.90600   -1.000
 3773.00    0.48617   0.93325   -1.000
 3774.00    0.48883   0.96629   -1.000
 3775.00    0.49083   1.00069   -1.000
 3776.00    0.48857   1.03389   -1.000
 3777.00    0.48828   1.06389   -1.000
 3778.00    0.49797   1.08943   -1.000
 3779.00    0.50759   1.11003   -1.000
 3780.00    0.51693   1.12603   -1.000
 3781.00    0.53148   1.13755   -1.000
 3782.00    0.56374   1.14427   -1.000
 3783.00    0.58963   1.14648   -1.000
 3784.00    0.59734   1.14489   -1.000
 3785.00    0.59858   1.13966   -1.000
 3786.00    0.58400   1.13117   -1.000
 3787.00    0.57009   1.11970   -1.000
 3788.00    0.55757   1.10502   -1.000
 3789.00    0.54268   1.08645   -1.000
 3790.00    0.52344   1.06325   -1.000
 3791.00    0.51327   1.03486   -1.000
 3792.00    0.51762   1.00149   -1.000
 3793.00    0.51589   0.96464   -1.000
 3794.00    0.50562   0.92714   -1.000
 3795.00    0.50477   0.89288   -1.000
 3796.00    0.51558   0.86597   -1.000
 3797.00    0.52138   0.84975   -1.000
 3798.00    0.52172   0.84685   -1.000
 3799.00    0.53067   0.85914   -1.000
 3800.00    0.54789   0.88519   -1.000
 3801.00    0.55967   0.91907   -1.000
 3802.00    0.56684   0.95485   -1.000
 3803.00    0.57157   0.98954   -1.000
 3804.00    0.57446   1.02157   -1.000
 3805.00    0.59156   1.04943   -1.000
 3806.00    0.61798   1.07220   -1.000
 3807.00    0.63623   1.09090   -1.000
 3808.00    0.64979   1.10772   -1.000
 3809.00    0.63647   1.12212   -1.000
 3810.00    0.60971   1.13209   -1.000
 3811.00    0.58095   1.13732   -1.000
 3812.00    0.55133   1.13810   -1.000
 3813.00    0.52991   1.13408   -1.000
 3814.00    0.51153   1.12467   -1.000
 3815.00    0.49057   1.11052   -1.000
 3816.00    0.46881   1.09465   -1.000
 3817.00    0.48637   1.08000   -1.000
 3818.00    0.51425   1.06739   -1.000
 3819.00    0.52938   1.05688   -1.000
 3820.00    0.54176   1.05022   -1.000
 3821.00    0.51871   1.05124   -1.000
 3822.00    0.48964   1.05833   -1.000
 3823.00    0.47606   1.06485   -1.000
 3824.00    0.46448   1.06707   -1.000
 3825.00    0.43563   1.06398   -1.000
 3826.00    0.40524   1.05530   -1.000
 3827.00    0.42317   1.04019   -1.000
 3828.00    0.44370   1.01781   -1.000
 3829.00    0.46122   0.98846   -1.000
 3830.00    0.47836   0.95339   -1.000
 3831.00    0.46878   0.91544   -1.000
 3832.00    0.46036   0.87872   -1.000
 3833.00    0.47798   0.84710   -1.000
 3834.00    0.49401   0.82410   -1.000
 3835.00    0.49027   0.81302   -1.000
 3836.00    0.48757   0.81667   -1.000
 3837.00    0.49378   0.83573   -1.000
 3838.00    0.50297   0.86628   -1.000
 3839.00    0.53098   0.90306   -1.000
 3840.00    0.55116   0.94247   -1.000
 3841.00    0.53265   0.98116   -1.000
 3842.00    0.52015   1.01636   -1.000
 3843.00    0.53175   1.04649   -1.000
 3844.00    0.54450   1.07110   -1.000
 3845.00    0.56103   1.09028   -1.000
 3846.00    0.57530   1.10449   -1.000
 3847.00    0.58316   1.11470    0.000
 3848.00    0.58975   1.12221    0.000
 3849.00    0.59326   1.12746    0.000
 3850.00    0.59185   1.13068    0.000
 3851.00    0.58024   1.13232    0.000
 3852.00    0.57510   1.13340    0.000
 3853.00    0.58163   1.13460    0.000
 3854.00    0.58527   1.13497    0.000
 3855.00    0.58436   1.13413    0.000
 3856.00    0.58113   1.13269    0.000
 3857.00    0.57469   1.13156    0.000
 3858.00    0.57189   1.13137    0.000
 3859.00    0.57351   1.13081    0.000
 3860.00    0.57443   1.12924    0.000
 3861.00    0.57461   1.12756    0.000
 3862.00    0.57007   1.12626    0.000
 3863.00    0.56108   1.12448    0.000
 3864.00    0.54198   1.12213    0.000
 3865.00    0.51443   1.12007    0.000
 3866.00    0.49391   1.11803    0.000
 3867.00    0.47856   1.11487    0.000
 3868.00    0.45516   1.11084    0.000
 3869.00    0.42656   1.10841    0.000
 3870.00    0.41414   1.10706    0.000
 3871.00    0.41087   1.10380    0.000
 3872.00    0.42327   1.09886    0.000
 3873.00    0.44339   1.09481    0.000
 3874.00    0.46725   1.09235    0.000
 3875.00    0.49269   1.08894    0.000
 3876.00    0.51836   1.08282    0.000
 3877.00    0.54410   1.07458    0.000
 3878.00    0.56769   1.06507    0.000
 3879.00    0.59060   1.05331    0.000
 3880.00    0.59384   1.03786    0.000
 3881.00    0.59202   1.01757   -1.000
 3882.00    0.60792   0.99158   -1.000
 3883.00    0.62751   0.96067   -1.000
 3884.00    0.63841   0.92655   -1.000
 3885.00    0.64789   0.89140   -1.000
 3886.00    0.64155   0.85892   -1.000
 3887.00    0.63327   0.83322   -1.000
 3888.00    0.65494   0.81770   -1.000
 3889.00    0.67919   0.81464   -1.000
 3890.00    0.68571   0.82610   -1.000
 3891.00    0.69134   0.85147   -1.000
 3892.00    0.67947   0.88550   -1.000
 3893.00    0.66757   0.92247   -1.000
 3894.00    0.67321   0.95844   -1.000
 3895.00    0.67853   0.99125   -1.000
 3896.00    0.67734   1.02013   -1.000
 3897.00    0.67501   1.04474   -1.000
 3898.00    0.65926   1.06469   -1.000
 3899.00    0.64201   1.08017   -1.000
 3900.00    0.61238   1.09292   -1.000
 3901.00    0.58270   1.10436   -1.000
 3902.00    0.55275   1.11412   -1.000
 3903.00    0.52461   1.12186   -1.000
 3904.00    0.50528   1.12821   -1.000
 3905.00    0.49055   1.13397   -1.000
 3906.00    0.49386   1.13872   -1.000
 3907.00    0.50627   1.14234   -1.000
 3908.00    0.54834   1.14556   -1.000
 3909.00    0.59187   1.14865   -1.000
 3910.00    0.63942   1.15100   -1.000
 3911.00    0.67645   1.15188   -1.000
 3912.00    0.68861   1.15140   -1.000
 3913.00    0.70168   1.15020   -1.000
 3914.00    0.71661   1.14780   -1.000
 3915.00    0.73084   1.14281   -1.000
 3916.00    0.74384   1.13571   -1.000
 3917.00    0.75416   1.12809   -1.000
 3918.00    0.76030   1.12067   -1.000
 3919.00    0.75845   1.11292   -1.000
 3920.00    0.74569   1.10554   -1.000
 3921.00    0.74277   1.10040   -1.000
 3922.00    0.75168   1.09748   -1.000
 3923.00    0.74681   1.09551   -1.000
 3924.00    0.72735   1.09302   -1.000
 3925.00    0.70235   1.09015   -1.000
 3926.00    0.67216   1.08760   -1.000
 3927.00    0.66681   1.08512   -1.000
 3928.00    0.68191   1.08328   -1.000
 3929.00    0.67438   1.08167   -1.000
 3930.00    0.65045   1.08009   -1.000
 3931.00    0.61410   1.07915   -1.000
 3932.00    0.56983   1.07876   -1.000
 3933.00    0.57034   1.07901   -1.000
 3934.00    0.59577   1.08046   -1.000
 3935.00    0.62369   1.08417   -1.000
 3936.00    0.65280   1.08978   -1.000
 3937.00    0.66977   1.09582   -1.000
 3938.00    0.68166   1.10179   -1.000
 3939.00    0.69982   1.10717   -1.000
 3940.00    0.72022   1.11121   -1.000
 3941.00    0.71861   1.11393   -1.000
 3942.00    0.71034   1.11590   -1.000
 3943.00    0.70827   1.11735   -1.000
 3944.00    0.70776   1.11809   -1.000
 3945.00    0.74229   1.11871   -1.000
 3946.00    0.78396   1.12042   -1.000
 3947.00    0.81416   1.12291   -1.000
 3948.00    0.84252   1.12434   -1.000
 3949.00    0.85931   1.12438   -1.000
 3950.00    0.87472   1.12377   -1.000
 3951.00    0.87010   1.12240   -1.000
 3952.00    0.86385   1.11953   -1.000
 3953.00    0.84926   1.11490   -1.000
 3954.00    0.83428   1.10929   -1.000
 3955.00    0.83397   1.10293   -1.000
 3956.00    0.83397   1.09511   -1.000
 3957.00    0.84060   1.08469   -1.000
 3958.00    0.84595   1.07135   -1.000
 3959.00    0.82729   1.05487   -1.000
 3960.00    0.80840   1.03390    0.000
 3961.00    0.78692   1.00786    0.000
 3962.00    0.76563   0.97790    0.000
 3963.00    0.74582   0.94512    0.000
 3964.00    0.72479   0.90913    0.000
 3965.00    0.69650   0.87041    0.000
 3966.00    0.67098   0.83323    0.000
 3967.00    0.65847   0.80204    0.000
 3968.00    0.65122   0.77838    0.000
 3969.00    0.66413   0.76375    0.000
 3970.00    0.68014   0.76140    0.000
 3971.00    0.70607   0.77403    0.000
 3972.00    0.73926   0.80049    0.000
 3973.00    0.79212   0.83552    0.000
 3974.00    0.83225   0.87460    0.000
 3975.00    0.84282   0.91536    0.000
 3976.00    0.85010   0.95477    0.000
 3977.00    0.85081   0.98964    0.000
 3978.00    0.85771   1.01865    0.000
 3979.00    0.87548   1.04217    0.000
 3980.00    0.89542   1.06127    0.000
 3981.00    0.91871   1.07677   -1.000
 3982.00    0.93722   1.08903   -1.000
 3983.00    0.94930   1.09895   -1.000
 3984.00    0.95160   1.10817   -1.000
 3985.00    0.94233   1.11719   -1.000
 3986.00    0.94528   1.12499   -1.000
 3987.00    0.96100   1.13126   -1.000
 3988.00    0.96495   1.13675   -1.000
 3989.00    0.95806   1.14120   -1.000
 3990.00    0.98094   1.14363   -1.000
 3991.00    1.02799   1.14444   -1.000
 3992.00    1.03625   1.14499   -1.000
 3993.00    1.01679   1.14551   -1.000
 3994.00    0.99102   1.14530   -1.000
 3995.00    0.96128   1.14471   -1.000
 3996.00    0.95209   1.14526   -1.000
 3997.00    0.95415   1.14706   -1.000
 3998.00    0.96761   1.14874   -1.000
 3999.00    0.98650   1.14984   -1.000
 4000.00    0.99962   1.15058   -1.000
 4001.00    1.01038   1.14986   -1.000
 4002.00    1.01054   1.14719   -1.000
 4003.00    1.00698   1.14323   -1.000
 4004.00    1.00725   1.13789   -1.000
 4005.00    1.00865   1.13081   -1.000
 4006.00    1.00171   1.12399   -1.000
 4007.00    0.99272   1.12020   -1.000
 4008.00    1.00722   1.11888   -1.000
 4009.00    1.02639   1.11882   -1.000
 4010.00    1.03220   1.12155   -1.000
 4011.00    1.03593   1.12852   -1.000
 4012.00    1.01492   1.13719   -1.000
 4013.00    0.99108   1.14470   -1.000
 4014.00    0.99280   1.15100   -1.000
 4015.00    0.99651   1.15631   -1.000
 4016.00    1.01009   1.15971   -1.000
 4017.00    1.02410   1.15977   -1.000
 4018.00    1.04048   1.15634   -1.000
 4019.00    1.05690   1.15029   -1.000
 4020.00    1.07425   1.14143   -1.000
 4021.00    1.08930   1.12854   -1.000
 4022.00    1.06394   1.11241   -1.000
 4023.00    1.04073   1.09705   -1.000
 4024.00    1.04075   1.08536   -1.000
 4025.00    1.03892   1.07652   -1.000
 4026.00    1.02300   1.07043   -1.000
 4027.00    1.00563   1.07042   -1.000
 4028.00    0.97993   1.07810   -1.000
 4029.00    0.95832   1.08865   -1.000
 4030.00    0.95547   1.09758   -1.000
 4031.00    0.94651   1.10557   -1.000
 4032.00    0.91466   1.11431   -1.000
 4033.00    0.88618   1.12310   -1.000
 4034.00    0.86830   1.13046   -1.000
 4035.00    0.86245   1.13686   -1.000
 4036.00    0.88860   1.14296   -1.000
 4037.00    0.90930   1.14852   -1.000
 4038.00    0.91757   1.15225   -1.000
 4039.00    0.93464   1.15355   -1.000
 4040.00    0.96910   1.15232   -1.000
 4041.00    0.98681   1.14895   -1.000
 4042.00    0.97563   1.14472   -1.000
 4043.00    0.96011   1.14107   -1.000
 4044.00    0.93804   1.13819   -1.000
 4045.00    0.93838   1.13616   -1.000
 4046.00    0.96840   1.13609   -1.000
 4047.00    0.99978   1.13857   -1.000
 4048.00    1.03274   1.14254   -1.000
 4049.00    1.04629   1.14619   -1.000
 4050.00    1.03988   1.14894   -1.000
 4051.00    1.02366   1.15067   -1.000
 4052.00    0.99855   1.15111   -1.000
 4053.00    0.99189   1.14981   -1.000
 4054.00    1.00000   1.14707   -1.000
 4055.00    1.00786   1.14373   -1.000
 4056.00    1.01554   1.14041   -1.000
 4057.00    1.02209   1.13721   -1.000
 4058.00    1.02794   1.13392   -1.000
 4059.00    1.02485   1.13058   -1.000
 4060.00    1.01696   1.12747   -1.000
 4061.00    0.99865   1.12513   -1.000
 4062.00    0.97548   1.12349   -1.000
 4063.00    0.96630   1.12155   -1.000
 4064.00    0.96279   1.11935   -1.000
 4065.00    0.96861   1.11785   -1.000
 4066.00    0.97764   1.11654   -1.000
 4067.00    0.98613   1.11376   -1.000
 4068.00    0.99446   1.10952   -1.000
 4069.00    0.99582   1.10541   -1.000
 4070.00    0.99550   1.10204   -1.000
 4071.00    0.99955   1.09815   -1.000
 4072.00    1.00445   1.09376   -1.000
 4073.00    1.01944   1.09136   -1.000
 4074.00    1.03594   1.09174   -1.000
 4075.00    1.02914   1.09229   -1.000
 4076.00    1.01977   1.09280   -1.000
 4077.00    1.00311   1.09578   -1.000
 4078.00    0.98591   1.10081   -1.000
 4079.00    1.00821   1.10525   -1.000
 4080.00    1.03203   1.10869   -1.000
 4081.00    1.04710   1.11173   -1.000
 4082.00    1.06168   1.11365   -1.000
 4083.00    1.05967   1.11377   -1.000
 4084.00    1.05694   1.11217   -1.000
 4085.00    1.04250   1.10935   -1.000
 4086.00    1.02962   1.10638   -1.000
 4087.00    1.03288   1.10343   -1.000
 4088.00    1.03709   1.09877   -1.000
 4089.00    1.04828   1.09151   -1.000
 4090.00    1.06101   1.08275   -1.000
 4091.00    1.08240   1.07199   -1.000
 4092.00    1.09776   1.05607    0.000
 4093.00    1.08615   1.03437    0.000
 4094.00    1.07274   1.00912    0.000
 4095.00    1.05274   0.98073    0.000
 4096.00    1.03067   0.94790    0.000
 4097.00    1.00228   0.91213    0.000
 4098.00    0.98719   0.87807    0.000
 4099.00    1.00683   0.85025    0.000
 4100.00    1.01680   0.83032    0.000
 4101.00    1.00502   0.81864    0.000
 4102.00    0.99916   0.81833    0.000
 4103.00    1.00481   0.83214    0.000
 4104.00    1.01016   0.85668    0.000
 4105.00    1.01502   0.88611    0.000
 4106.00    1.00849   0.91801    0.000
 4107.00    0.98505   0.95044    0.000
 4108.00    0.98330   0.98007    0.000
 4109.00    1.00989   1.00523    0.000
 4110.00    1.02893   1.02614    0.000
 4111.00    1.03928   1.04256    0.000
 4112.00    1.04086   1.05478    0.000
 4113.00    1.03352   1.06424   -1.000
 4114.00    1.03163   1.07135   -1.000
 4115.00    1.03461   1.07493   -1.000
 4116.00    1.02977   1.07536   -1.000
 4117.00    1.01876   1.07495   -1.000
 4118.00    1.01076   1.07512   -1.000
 4119.00    1.00485   1.07554   -1.000
 4120.00    1.00921   1.07664   -1.000
 4121.00    1.01982   1.07998   -1.000
 4122.00    1.01390   1.08632   -1.000
 4123.00    0.99919   1.09373   -1.000
 4124.00    0.99965   1.09977   -1.000
 4125.00    1.00710   1.10416   -1.000
 4126.00    1.01100   1.10738   -1.000
 4127.00    1.01349   1.10802   -1.000
 4128.00    1.00281   1.10591   -1.000
 4129.00    0.98768   1.10316   -1.000
 4130.00    0.99583   1.10134   -1.000
 4131.00    1.01061   1.10017   -1.000
 4132.00    1.00274   1.10005   -1.000
 4133.00    0.98955   1.10158   -1.000
 4134.00    0.99044   1.10430   -1.000
 4135.00    0.99399   1.10703   -1.000
 4136.00    0.98447   1.10856   -1.000
 4137.00    0.97305   1.10795   -1.000
 4138.00    0.97489   1.10473   -1.000
 4139.00    0.97814   1.09803   -1.000
 4140.00    0.99797   1.08822   -1.000
 4141.00    1.01895   1.07885   -1.000
 4142.00    0.99790   1.07199   -1.000
 4143.00    0.97540   1.06598   -1.000
 4144.00    0.99907   1.06240   -1.000
 4145.00    1.02179   1.06500   -1.000
 4146.00    1.00979   1.07189   -1.000
 4147.00    0.99804   1.07881   -1.000
 4148.00    0.99030   1.08547   -1.000
 4149.00    0.98233   1.09167   -1.000
 4150.00    0.97217   1.09596   -1.000
 4151.00    0.96456   1.09917   -1.000
 4152.00    0.97504   1.10185   -1.000
 4153.00    0.98723   1.10332   -1.000
 4154.00    1.00872   1.10499   -1.000
 4155.00    1.02248   1.10845   -1.000
 4156.00    1.00239   1.11235   -1.000
 4157.00    0.98228   1.11558   -1.000
 4158.00    0.96206   1.11907   -1.000
 4159.00    0.94989   1.12268   -1.000
 4160.00    0.96199   1.12498   -1.000
 4161.00    0.97501   1.12536   -1.000
 4162.00    0.99035   1.12469   -1.000
 4163.00    1.00580   1.12341   -1.000
 4164.00    1.02148   1.12090   -1.000
 4165.00    1.02922   1.11695   -1.000
 4166.00    1.02176   1.11315   -1.000
 4167.00    1.01176   1.11028   -1.000
 4168.00    0.99749   1.10696   -1.000
 4169.00    0.98232   1.10302   -1.000
 4170.00    0.96581   1.10048   -1.000
 4171.00    0.95681   1.09942   -1.000
 4172.00    0.95751   1.09812   -1.000
 4173.00    0.96230   1.09686   -1.000
 4174.00    0.97173   1.09714   -1.000
 4175.00    0.97657   1.09859   -1.000
 4176.00    0.97681   1.10043   -1.000
 4177.00    0.97458   1.10264   -1.000
 4178.00    0.97016   1.10495   -1.000
 4179.00    0.96427   1.10712   -1.000
 4180.00    0.95725   1.10924   -1.000
 4181.00    0.96767   1.11065   -1.000
 4182.00    0.99003   1.11089   -1.000
 4183.00    0.98181   1.11039   -1.000
 4184.00    0.95527   1.10957   -1.000
 4185.00    0.95892   1.10855   -1.000
 4186.00    0.97837   1.10738   -1.000
 4187.00    1.06812   1.10640    1.344
 4188.00    1.18975   1.10626    0.548
 4189.00    1.19574   1.10710    0.469
 4190.00    1.15661   1.10852    0.468
 4191.00    1.12674   1.10986    0.466
 4192.00    1.09993   1.11077    0.462
 4193.00    1.12152   1.11106    0.459
 4194.00    1.15660   1.11044    0.456
 4195.00    1.15497   1.10827    0.456
 4196.00    1.14493   1.10499    0.458
 4197.00    1.15734   1.10191    0.464
 4198.00    1.17387   1.09915    0.471
 4199.00    1.18323   1.09692    0.470
 4200.00    1.19159   1.09626    0.467
 4201.00    1.13760   1.09744    0.459
 4202.00    1.07725   1.09961    0.451
 4203.00    1.06201   1.10294    0.447
 4204.00    1.04972   1.10738    0.444
 4205.00    1.07709   1.11201    0.446
 4206.00    1.10565   1.11592    0.447
 4207.00    1.11198   1.11908    0.457
 4208.00    1.11876   1.12142    0.466
 4209.00    1.13889   1.12270    0.461
 4210.00    1.15903   1.12270    0.456
 4211.00    1.17928   1.12172    0.455
 4212.00    1.19661   1.12010    0.454
 4213.00    1.18636   1.11870    0.459
 4214.00    1.17706   1.11806    0.463
 4215.00    1.17432   1.11740    0.457
 4216.00    1.16994   1.11656    0.452
 4217.00    1.15692   1.11640    0.452
 4218.00    1.14441   1.11612    0.452
 4219.00    1.13412   1.11362    0.453
 4220.00    1.13233   1.10917    0.455
 4221.00    1.16050   1.10350    0.461
 4222.00    1.17215   1.09600    0.464
 4223.00    1.13487   1.08696    0.455
 4224.00    1.09201   1.07854    0.448
 4225.00    1.03507   1.07246    0.446
 4226.00    1.00613   1.06854    0.444
 4227.00    1.03803   1.06701    0.443
 4228.00    1.03100   1.06885    0.439
 4229.00    0.95056   1.07308    0.428
 4230.00    0.92000   1.07770    0.421
 4231.00    0.97155   1.08269    0.422
 4232.00    1.00863   1.08752    0.424
 4233.00    1.02480   1.09035    0.429
 4234.00    1.03109   1.09223    0.432
 4235.00    1.02482   1.09477    0.433
 4236.00    1.02111   1.09676    0.430
 4237.00    1.02027   1.09825    0.424
 4238.00    1.01794   1.10108    0.419
 4239.00    1.01416   1.10487    0.415
 4240.00    1.02915   1.10870    0.418
 4241.00    1.06049   1.11302    0.428
 4242.00    1.12393   1.11707    0.434
 4243.00    1.21199   1.11954    0.436
 4244.00    1.18022   1.12087    0.430
 4245.00    1.06771   1.12112    0.419
 4246.00    1.07510   1.11889    0.428
 4247.00    1.15328   1.11386    0.451
 4248.00    1.14957   1.10837    0.464
 4249.00    1.10369   1.10323    0.470
 4250.00    1.05017   1.09660    0.459
 4251.00    0.99325   1.08989    0.440
 4252.00    1.03422   1.08642    0.441
 4253.00    1.11273   1.08504    0.450
 4254.00    1.15522   1.08378    0.441
 4255.00    1.18597   1.08418    0.427
 4256.00    1.12079   1.08702    0.422
 4257.00    1.02942   1.09010    0.418
 4258.00    1.06710   1.09283    0.422
 4259.00    1.13369   1.09607    0.428
 4260.00    1.16112   1.09901    0.426
 4261.00    1.18154   1.10094    0.422
 4262.00    1.17157   1.10252    0.420
 4263.00    1.15745   1.10231    0.419
 4264.00    1.12179   1.09929    0.413
 4265.00    1.08402   1.09644    0.407
 4266.00    1.02130   1.09338    0.409
 4267.00    0.95705   1.08696    0.412
 4268.00    0.96468   1.07952    0.413
 4269.00    0.97441   1.07471    0.413
 4270.00    1.01634   1.07088    0.411
 4271.00    1.05551   1.06600    0.408
 4272.00    1.02153   1.06246    0.414
 4273.00    0.99116   1.06214    0.420
 4274.00    1.01044   1.06391    0.419
 4275.00    1.02942   1.06680    0.419
 4276.00    1.04553   1.07090    0.420
 4277.00    1.05906   1.07599    0.421
 4278.00    1.05540   1.08133    0.421
 4279.00    1.05687   1.08572    0.420
 4280.00    1.08488   1.08833    0.417
 4281.00    1.10272   1.08932    0.414
 4282.00    1.07811   1.08892   -2.000
 4283.00    1.06764   1.08748   -2.000
 4284.00    1.10602   1.08550   -2.000
 4285.00    1.14377   1.08266   -2.000
 4286.00    1.17974   1.07924   -2.000
 4287.00    1.19135   1.07648   -2.000
 4288.00    1.14256   1.07448   -2.000
 4289.00    1.11388   1.07299   -2.000
 4290.00    1.12820   1.07239   -2.000
 4291.00    1.13731   1.07193   -2.000
 4292.00    1.13673   1.07240   -2.000
 4293.00    1.12242   1.07389   -2.000
 4294.00    1.08585   1.07420   -2.000
 4295.00    1.08975   1.07280   -2.000
 4296.00    1.15123   1.07067   -2.000
 4297.00    1.17591   1.06761   -2.000
 4298.00    1.15455   1.06346    0.429
 4299.00    1.10124   1.05840    0.424
 4300.00    1.01269   1.05247    0.416
 4301.00    0.97569   1.04763    0.413
 4302.00    0.98886   1.04419    0.413
 4303.00    0.96921   1.04037    0.415
 4304.00    0.92140   1.03698    0.418
 4305.00    0.91972   1.03566    0.413
 4306.00    0.95290   1.03574    0.403
 4307.00    0.96360   1.03673    0.401
 4308.00    0.95937   1.03956    0.404
 4309.00    0.98024   1.04439    0.410
 4310.00    1.01571   1.05091    0.419
 4311.00    1.04547   1.05874    0.417
 4312.00    1.07235   1.06765    0.411
 4313.00    1.08160   1.07723    0.405
 4314.00    1.08311   1.08625    0.401
 4315.00    1.11639   1.09415    0.403
 4316.00    1.16163   1.10058    0.408
 4317.00    1.15131   1.10501    0.404
 4318.00    1.12322   1.10687    0.398
 4319.00    1.12199   1.10609    0.406
 4320.00    1.12793   1.10268    0.417
 4321.00    1.14607   1.09710    0.417
 4322.00    1.16689   1.08981    0.415
 4323.00    1.15497   1.08194    0.419
 4324.00    1.13735   1.07544    0.424
 4325.00    1.09172   1.07052    0.418
 4326.00    1.04238   1.06657    0.410
 4327.00    1.02933   1.06413    0.405
 4328.00    1.01967   1.06319    0.400
 4329.00    1.08532   1.06135    0.402
 4330.00    1.15528   1.05644    0.000
 4331.00    1.19826   1.04814    0.000
 4332.00    1.24001   1.03579    0.000
 4333.00    1.21269   1.01722    0.000
 4334.00    1.18653   0.99183    0.000
 4335.00    1.18810   0.96324    0.000
 4336.00    1.19072   0.93311    0.000
 4337.00    1.20696   0.90126    0.000
 4338.00    1.21604   0.87400    0.000
 4339.00    1.16266   0.85711    0.000
 4340.00    1.11900   0.84851    0.000
 4341.00    1.13821   0.84852    0.000
 4342.00    1.15481   0.86149    0.000
 4343.00    1.15827   0.88366    0.000
 4344.00    1.14145   0.90818    0.000
 4345.00    1.04178   0.93493    0.000
 4346.00    0.96837   0.96313    0.000
 4347.00    0.98377   0.98765    0.000
 4348.00    1.02085   1.00667    0.000
 4349.00    1.11979   1.02313    0.000
 4350.00    1.15924   1.03810    0.000
 4351.00    1.05363   1.04990    0.526
 4352.00    0.99819   1.05971    0.495
 4353.00    1.04827   1.07048    0.440
 4354.00    1.09818   1.08174    0.406
 4355.00    1.14776   1.09125    0.392
 4356.00    1.16929   1.09991    0.383
 4357.00    1.14600   1.10885    0.379
 4358.00    1.15653   1.11654    0.377
 4359.00    1.21449   1.12236    0.380
 4360.00    1.26536   1.12702    0.383
 4361.00    1.30748   1.13098    0.389
 4362.00    1.29777   1.13423    0.391
 4363.00    1.23170   1.13581    0.390
 4364.00    1.21213   1.13563    0.388
 4365.00    1.23718   1.13491    0.386
 4366.00    1.26752   1.13370    0.388
 4367.00    1.30236   1.13073    0.394
 4368.00    1.26917   1.12698    0.396
 4369.00    1.18532   1.12396    0.394
 4370.00    1.15091   1.12093    0.389
 4371.00    1.14884   1.11753    0.383
 4372.00    1.14899   1.11464    0.380
 4373.00    1.15041   1.11280    0.378
 4374.00    1.13203   1.11164    0.379
 4375.00    1.10378   1.11040    0.381
 4376.00    1.09068   1.10873    0.380
 4377.00    1.08411   1.10654    0.379
 4378.00    1.10070   1.10321    0.384
 4379.00    1.12587   1.09761    0.391
 4380.00    1.12962   1.08931    0.395
 4381.00    1.12667   1.07928    0.397
 4382.00    1.09651   1.06938    0.390
 4383.00    1.05923   1.06022    0.382
 4384.00    1.08342   1.05080    0.382
 4385.00    1.12075   1.04420    0.383
 4386.00    1.14365   1.04393    0.385
 4387.00    1.16411   1.04642    0.388
 4388.00    1.14340   1.04983    0.382
 4389.00    1.11744   1.05828    0.375
 4390.00    1.13069   1.07058    0.372
 4391.00    1.14743   1.08105    0.370
 4392.00    1.15620   1.09064    0.376
 4393.00    1.16454   1.10202    0.382
 4394.00    1.18284   1.11191    0.379
 4395.00    1.20130   1.11841    0.376
 4396.00    1.21746   1.12363    0.377
 4397.00    1.23009   1.12737    0.378
 4398.00    1.16517   1.12809    0.382
 4399.00    1.10719   1.12675    0.385
 4400.00    1.13510   1.12395    0.386
 4401.00    1.16080   1.11848    0.386
 4402.00    1.16795   1.11211    0.387
 4403.00    1.17152   1.10734    0.386
 4404.00    1.15273   1.10255    0.379
 4405.00    1.14539   1.09811    0.375
 4406.00    1.19441   1.09771    0.391
 4407.00    1.21904   1.10032    0.404
 4408.00    1.14635   1.10215    0.399
 4409.00    1.10012   1.10470    0.394
 4410.00    1.14166   1.10927    0.385
 4411.00    1.18133   1.11147    0.380
 4412.00    1.21573   1.11088    0.383
 4413.00    1.22745   1.11125    0.385
 4414.00    1.18479   1.11147    0.385
 4415.00    1.16199   1.11066    0.385
 4416.00    1.18030   1.11189    0.385
 4417.00    1.18454   1.11542    0.384
 4418.00    1.16346   1.11928    0.381
 4419.00    1.14879   1.12346    0.378
 4420.00    1.14418   1.12782    0.377
 4421.00    1.16485   1.13145    0.378
 4422.00    1.22043   1.13397    0.382
 4423.00    1.23584   1.13464    0.384
 4424.00    1.20238   1.13407    0.383
 4425.00    1.18821   1.13368    0.381
 4426.00    1.19472   1.13270    0.379
 4427.00    1.17592   1.13031    0.376
 4428.00    1.13317   1.12826    0.375
 4429.00    1.11857   1.12714    0.375
 4430.00    1.12744   1.12484    0.378
 4431.00    1.13942   1.12163    0.381
 4432.00    1.15369   1.11993    0.384
 4433.00    1.17105   1.11910    0.384
 4434.00    1.19041   1.11784    0.382
 4435.00    1.20177   1.11801    0.386
 4436.00    1.20861   1.12032    0.393
 4437.00    1.22224   1.12293    0.399
 4438.00    1.23920   1.12558    0.405
 4439.00    1.20165   1.12897    0.403
 4440.00    1.14096   1.13202    0.397
 4441.00    1.13695   1.13402    0.391
 4442.00    1.15352   1.13645    0.384
 4443.00    1.21052   1.13901    0.388
 4444.00    1.27995   1.14047    0.396
 4445.00    1.25711   1.14261    0.391
 4446.00    1.21064   1.14535    0.382
 4447.00    1.21732   1.14621    0.382
 4448.00    1.23507   1.14607    0.383
 4449.00    1.21641   1.14574    0.382
 4450.00    1.19177   1.14340    0.381
 4451.00    1.18457   1.13908    0.376
 4452.00    1.17952   1.13409    0.372
 4453.00    1.16705   1.12860    0.369
 4454.00    1.15395   1.12304    0.367
 4455.00    1.11235   1.11765    0.366
 4456.00    1.06935   1.11269    0.365
 4457.00    1.09318   1.10990    0.363
 4458.00    1.11734   1.10843    0.361
 4459.00    1.09607   1.10677    0.360
 4460.00    1.07796   1.10708    0.359
 4461.00    1.12394   1.10892    0.000
 4462.00    1.16933   1.10915    0.000
 4463.00    1.20782   1.10882    0.000
 4464.00    1.24064   1.10875    0.000
 4465.00    1.22737   1.10578    0.000
 4466.00    1.20869   1.10085    0.000
 4467.00    1.15706   1.09680    0.000
 4468.00    1.12251   1.09160    0.000
 4469.00    1.16988   1.08691    0.000
 4470.00    1.21465   1.08724    0.000
 4471.00    1.24930   1.09037    0.000
 4472.00    1.27425   1.09524    0.000
 4473.00    1.26768   1.10492    0.000
 4474.00    1.25457   1.11646    0.000
 4475.00    1.22347   1.12546    0.000
 4476.00    1.19424   1.13350    0.000
 4477.00    1.16943   1.14014    0.000
 4478.00    1.15931   1.14286    0.000
 4479.00    1.17913   1.14376    0.000
 4480.00    1.19669   1.14497    0.000
 4481.00    1.21024   1.14588    0.000
 4482.00    1.21599   1.14765    0.361
 4483.00    1.20965   1.15141    0.361
 4484.00    1.20745   1.15545    0.359
 4485.00    1.21088   1.15866    0.353
 4486.00    1.21864   1.16152    0.350
 4487.00    1.23160   1.16320    0.350
 4488.00    1.24155   1.16281    0.351
 4489.00    1.24834   1.16149    0.352
 4490.00    1.24996   1.15998    0.351
 4491.00    1.24677   1.15794    0.347
 4492.00    1.24678   1.15621    0.347
 4493.00    1.24943   1.15566    0.348
 4494.00    1.23948   1.15583    0.348
 4495.00    1.22043   1.15674    0.348
 4496.00    1.21617   1.15950    0.348
 4497.00    1.22130   1.16376    0.349
 4498.00    1.24693   1.16839    0.349
 4499.00    1.28394   1.17393    0.347
 4500.00    1.25608   1.18066    0.343
 4501.00    1.19686   1.18681    0.337
 4502.00    1.20068   1.19191    0.340
 4503.00    1.23080   1.19682    0.347
 4504.00    1.25730   1.20055    0.348
 4505.00    1.28250   1.20214    0.346
 4506.00    1.26944   1.20248    0.343
 4507.00    1.24486   1.20175    0.340
 4508.00    1.25623   1.19946    0.340
 4509.00    1.27662   1.19608    0.341
 4510.00    1.26138   1.19241    0.341
 4511.00    1.23892   1.18846    0.341
 4512.00    1.24294   1.18434    0.343
 4513.00    1.25120   1.18107    0.347
 4514.00    1.23477   1.17877    0.348
 4515.00    1.21542   1.17710    0.348
 4516.00    1.21524   1.17656    0.347
 4517.00    1.21661   1.17682    0.346
 4518.00    1.19581   1.17703    0.339
 4519.00    1.17400   1.17674    0.332
 4520.00    1.20404   1.17524    0.336
 4521.00    1.23408   1.17240    0.340
 4522.00    1.23218   1.16789    0.340
 4523.00    1.22944   1.16106    0.339
 4524.00    1.21106   1.15319    0.332
 4525.00    1.19323   1.14504    0.327
 4526.00    1.18164   1.13642    0.328
 4527.00    1.17026   1.12894    0.328
 4528.00    1.16053   1.12339    0.326
 4529.00    1.14795   1.11952    0.325
 4530.00    1.11852   1.11805    0.324
 4531.00    1.09718   1.11885    0.325
 4532.00    1.11370   1.12111    0.331
 4533.00    1.13629   1.12504    0.336
 4534.00    1.18208   1.13050    0.332
 4535.00    1.20994   1.13620    0.329
 4536.00    1.18066   1.14199    0.328
 4537.00    1.16155   1.14832    0.328
 4538.00    1.16992   1.15377    0.327
 4539.00    1.17922   1.15768    0.327
 4540.00    1.19066   1.16119    0.327
 4541.00    1.19855   1.16361    0.327
 4542.00    1.19931   1.16421    0.327
 4543.00    1.19772   1.16430    0.329
 4544.00    1.19202   1.16407    0.332
 4545.00    1.17994   1.16277    0.334
 4546.00    1.15811   1.16049    0.333
 4547.00    1.14723   1.15831    0.330
 4548.00    1.15105   1.15662    0.324
 4549.00    1.15936   1.15389    0.322
 4550.00    1.17298   1.15129    0.000
 4551.00    1.18181   1.15132    0.000
 4552.00    1.18562   1.15181    0.000
 4553.00    1.18781   1.15269    0.000
 4554.00    1.18850   1.15693    0.000
 4555.00    1.19725   1.16252    0.000
 4556.00    1.21254   1.16783    0.000
 4557.00    1.21629   1.17423    0.000
 4558.00    1.21179   1.18016    0.000
 4559.00    1.22842   1.18441    0.000
 4560.00    1.25826   1.18731    0.000
 4561.00    1.26546   1.18842    0.000
 4562.00    1.26028   1.18823    0.000
 4563.00    1.25676   1.18743    0.000
 4564.00    1.25404   1.18616    0.000
 4565.00    1.24662   1.18480    0.000
 4566.00    1.23726   1.18403    0.000
 4567.00    1.23244   1.18428    0.000
 4568.00    1.22920   1.18415    0.000
 4569.00    1.24389   1.18368    0.000
 4570.00    1.26389   1.18474    0.000
 4571.00    1.25149   1.18520    0.000
 4572.00    1.23115   1.18403    0.000
 4573.00    1.22126   1.18426    0.000
 4574.00    1.21345   1.18441    0.000
 4575.00    1.19973   1.18245    0.000
 4576.00    1.18510   1.18091    0.000
 4577.00    1.16639   1.17954    0.000
 4578.00    1.14721   1.17688    0.000
 4579.00    1.14264   1.17463    0.000
 4580.00    1.13920   1.17307    0.000
 4581.00    1.15502   1.17159    0.000
 4582.00    1.17165   1.17128    0.000
 4583.00    1.17381   1.17190    0.000
 4584.00    1.17622   1.17264    0.000
 4585.00    1.19444   1.17403    0.000
 4586.00    1.21117   1.17572    0.000
 4587.00    1.20177   1.17659    0.000
 4588.00    1.19438   1.17670    0.000
 4589.00    1.20859   1.17632    0.000
 4590.00    1.22328   1.17500    0.000
 4591.00    1.24157   1.17270    0.000
 4592.00    1.25036   1.17010    0.000
 4593.00    1.20454   1.16773    0.000
 4594.00    1.16331   1.16562    0.000
 4595.00    1.14305   1.16380    0.000
 4596.00    1.13171   1.16283    0.000
 4597.00    1.15377   1.16267    0.000
 4598.00    1.17030   1.16256    0.000
 4599.00    1.16955   1.16292    0.000
 4600.00    1.16798   1.16394    0.000
 4601.00    1.16422   1.16497    0.000
 4602.00    1.16944   1.16665    0.000
 4603.00    1.19516   1.16931    0.000
 4604.00    1.21861   1.17245    0.000
 4605.00    1.23760   1.17648    0.000
 4606.00    1.24278   1.18126    0.000
 4607.00    1.22421   1.18588    0.000
 4608.00    1.21939   1.19048    0.000
 4609.00    1.23527   1.19500    0.000
 4610.00    1.23391   1.19817    0.000
 4611.00    1.20973   1.20042    0.000
 4612.00    1.20192   1.20277    0.000
 4613.00    1.21318   1.20371    0.000
 4614.00    1.22690   1.20376    0.000
 4615.00    1.24316   1.20476    0.000
 4616.00    1.23930   1.20471    0.000
 4617.00    1.21721   1.20401    0.000
 4618.00    1.20793   1.20483    0.000
 4619.00    1.20888   1.20494    0.000
 4620.00    1.22461   1.20447    0.000
 4621.00    1.25071   1.20540    0.000
 4622.00    1.25644   1.20590    0.000
 4623.00    1.24961   1.20539    0.000
 4624.00    1.23597   1.20528    0.000
 4625.00    1.21866   1.20504    0.000
 4626.00    1.22212   1.20382    0.000
 4627.00    1.23529   1.20211    0.000
 4628.00    1.23697   1.20074    0.000
 4629.00    1.23401   1.19912    0.000
 4630.00    1.22379   1.19643    0.000
 4631.00    1.21107   1.19373    0.000
 4632.00    1.20082   1.19097    0.000
 4633.00    1.19129   1.18687    0.000
 4634.00    1.19349   1.18216    0.000
 4635.00    1.19851   1.17728    0.000
 4636.00    1.18275   1.17182    0.000
 4637.00    1.16298   1.16635    0.000
 4638.00    1.14400   1.16116    0.000
 4639.00    1.12512   1.15656    0.000
 4640.00    1.13075   1.15258    0.000
 4641.00    1.13906   1.14874    0.000
 4642.00    1.13501   1.14534    0.000
 4643.00    1.13005   1.14191    0.000
 4644.00    1.12315   1.13794    0.000
 4645.00    1.11617   1.13448    0.000
 4646.00    1.10952   1.13159    0.000
 4647.00    1.10348   1.12944    0.000
 4648.00    1.12053   1.12933    0.000
 4649.00    1.13800   1.13121    0.000
 4650.00    1.16239   1.13505    0.000
 4651.00    1.18501   1.14068    0.000
 4652.00    1.18962   1.14737    0.000
 4653.00    1.19392   1.15516    0.000
 4654.00    1.19596   1.16299    0.000
 4655.00    1.19420   1.17028    0.000
 4656.00    1.17118   1.17738    0.000
 4657.00    1.15494   1.18331    0.000
 4658.00    1.16894   1.18743    0.000
 4659.00    1.18368   1.18972    0.000
 4660.00    1.20111   1.18996    0.000
 4661.00    1.21168   1.18767    0.000
 4662.00    1.20116   1.18328    0.000
 4663.00    1.19012   1.17785    0.000
 4664.00    1.17772   1.17147    0.000
 4665.00    1.15984   1.16531    0.000
 4666.00    1.12968   1.16064    0.000
 4667.00    1.10710   1.15733    0.000
 4668.00    1.09922   1.15601    0.000
 4669.00    1.10265   1.15685    0.000
 4670.00    1.12526   1.15884    0.000
 4671.00    1.14006   1.16180    0.000
 4672.00    1.14330   1.16513    0.000
 4673.00    1.16105   1.16795    0.000
 4674.00    1.19775   1.17034    0.000
 4675.00    1.20820   1.17197    0.000
 4676.00    1.18851   1.17264    0.000
 4677.00    1.16341   1.17283    0.000
 4678.00    1.13285   1.17261    0.000
 4679.00    1.12290   1.17181    0.000
 4680.00    1.13137   1.17104    0.000
 4681.00    1.14479   1.17067    0.000
 4682.00    1.16210   1.17002    0.000
 4683.00    1.17315   1.16973    0.000
 4684.00    1.17986   1.17027    0.000
 4685.00    1.17294   1.17043    0.000
 4686.00    1.15773   1.17083    0.000
 4687.00    1.14985   1.17207    0.000
 4688.00    1.14585   1.17276    0.000
 4689.00    1.14481   1.17358    0.000
 4690.00    1.14512   1.17504    0.000
 4691.00    1.14144   1.17583    0.000
 4692.00    1.13616   1.17642    0.000
 4693.00    1.14731   1.17672    0.000
 4694.00    1.16400   1.17591    0.000
 4695.00    1.14948   1.17437    0.000
 4696.00    1.12610   1.17159    0.000
 4697.00    1.12906   1.16800    0.000
 4698.00    1.13819   1.16428    0.000
 4699.00    1.14348   1.15993    0.000
 4700.00    1.14805   1.15615    0.000
 4701.00    1.13108   1.15334    0.000
 4702.00    1.11097   1.15085    0.000
 4703.00    1.13460   1.14943    0.000
 4704.00    1.16286   1.14868    0.000
 4705.00    1.15365   1.14827    0.000
 4706.00    1.14186   1.14851    0.000
 4707.00    1.11955   1.14835    0.000
 4708.00    1.09689   1.14851    0.000
 4709.00    1.12039   1.14939    0.000
 4710.00    1.14285   1.14960    0.000
 4711.00    1.12934   1.15088    0.000
 4712.00    1.11726   1.15378    0.000
 4713.00    1.12711   1.15682    0.000
 4714.00    1.13735   1.16167    0.000
 4715.00    1.15144   1.16834    0.000
 4716.00    1.16399   1.17510    0.000
 4717.00    1.16566   1.18247    0.000
 4718.00    1.16848   1.18985    0.000
 4719.00    1.17757   1.19583    0.000
 4720.00    1.18530   1.20025    0.000
 4721.00    1.18710   1.20292    0.000
 4722.00    1.18757   1.20332    0.000
 4723.00    1.18325   1.20154    0.000
 4724.00    1.18117   1.19822    0.000
 4725.00    1.18583   1.19330    0.000
 4726.00    1.18802   1.18759    0.000
 4727.00    1.18388   1.18228    0.000
 4728.00    1.17535   1.17722    0.000
 4729.00    1.15713   1.17341    0.000
 4730.00    1.14184   1.17185    0.000
 4731.00    1.13218   1.17121    0.000
 4732.00    1.13008   1.17202    0.000
 4733.00    1.14064   1.17480    0.000
 4734.00    1.15873   1.17704    0.000
 4735.00    1.18786   1.17963    0.000
 4736.00    1.20353   1.18290    0.000
 4737.00    1.20188   1.18460    0.000
 4738.00    1.19932   1.18650    0.000
 4739.00    1.19574   1.18846    0.000
 4740.00    1.20081   1.18924    0.000
 4741.00    1.21451   1.19085    0.000
 4742.00    1.22275   1.19239    0.000
 4743.00    1.22617   1.19341    0.000
 4744.00    1.23115   1.19532    0.000
 4745.00    1.23732   1.19674    0.000
 4746.00    1.22428   1.19762    0.000
 4747.00    1.19811   1.19859    0.000
 4748.00    1.20535   1.19851    0.000
 4749.00    1.23257   1.19758    0.000
 4750.00    1.24490   1.19632    0.000
 4751.00    1.24945   1.19426    0.000
 4752.00    1.23594   1.19167    0.000
 4753.00    1.21425   1.18919    0.000
 4754.00    1.20822   1.18659    0.000
 4755.00    1.20828   1.18405    0.000
 4756.00    1.20391   1.18170    0.000
 4757.00    1.19808   1.17918    0.000
 4758.00    1.20972   1.17668    0.000
 4759.00    1.22622   1.17381    0.000
 4760.00    1.20968   1.17044    0.000
 4761.00    1.18560   1.16716    0.285
 4762.00    1.15564   1.16376    0.284
 4763.00    1.12461   1.16054    0.284
 4764.00    1.14966   1.15836    0.280
 4765.00    1.18262   1.15712    0.277
 4766.00    1.18367   1.15680    0.280
 4767.00    1.18149   1.15798    0.284
 4768.00    1.15633   1.16005    0.281
 4769.00    1.12968   1.16260    0.277
 4770.00    1.13558   1.16585    0.277
 4771.00    1.14247   1.16890    0.278
 4772.00    1.15535   1.17185    0.280
 4773.00    1.16800   1.17454    0.282
 4774.00    1.17348   1.17623    0.282
 4775.00    1.17835   1.17743    0.283
 4776.00    1.17431   1.17771    0.284
 4777.00    1.17037   1.17688    0.285
 4778.00    1.16721   1.17518    0.280
 4779.00    1.16298   1.17273    0.276
 4780.00    1.15133   1.16991    0.271
 4781.00    1.13861   1.16649    0.267
 4782.00    1.12015   1.16353    0.271
 4783.00    1.10612   1.16117    0.273
 4784.00    1.11089   1.15891    0.274
 4785.00    1.11089   1.15833    0.273
 4786.00    1.09409   1.15868    0.271
 4787.00    1.08369   1.15957    0.269
 4788.00    1.09221   1.16252    0.271
 4789.00    1.10126   1.16608    0.272
 4790.00    1.11164   1.17004    0.276
 4791.00    1.13255   1.17512    0.279
 4792.00    1.17632   1.17985    0.279
 4793.00    1.20727   1.18402    0.280
 4794.00    1.21411   1.18761    0.281
 4795.00    1.21723   1.18996    0.280
 4796.00    1.21424   1.19121    0.279
 4797.00    1.21223   1.19146    0.280
 4798.00    1.21164   1.19111    0.286
 4799.00    1.21089   1.19031    0.287
 4800.00    1.20994   1.18914    0.282
 4801.00    1.20137   1.18837    0.280
 4802.00    1.18429   1.18735    0.282
 4803.00    1.19264   1.18594    0.283
 4804.00    1.22602   1.18508    0.284
 4805.00    1.22848   1.18379    0.282
 4806.00    1.20405   1.18240    0.278
 4807.00    1.18652   1.18155    0.278
 4808.00    1.17426   1.18062    0.280
 4809.00    1.17277   1.18038    0.280
 4810.00    1.17851   1.18059    0.279
 4811.00    1.18852   1.18096    0.278
 4812.00    1.20106   1.18224    0.277
 4813.00    1.20639   1.18365    0.279
 4814.00    1.20801   1.18517    0.281
 4815.00    1.21450   1.18693    0.283
 4816.00    1.22315   1.18835    0.284
 4817.00    1.21305   1.18955    0.284
 4818.00    1.19578   1.18971    0.284
 4819.00    1.20259   1.18909    0.284
 4820.00    1.21724   1.18814    0.285
 4821.00    1.20109   1.18590    0.285
 4822.00    1.17656   1.18342    0.285
 4823.00    1.19317   1.18074    0.284
 4824.00    1.21896   1.17774    0.284
 4825.00    1.19481   1.17574    0.283
 4826.00    1.16176   1.17339    0.281
 4827.00    1.17972   1.17105    0.283
 4828.00    1.20463   1.17028    0.286
 4829.00    1.18395   1.16929    0.285
 4830.00    1.15884   1.16831    0.284
 4831.00    1.15212   1.16839    0.282
 4832.00    1.14652   1.16843    0.280
 4833.00    1.18460   1.16868    0.281
 4834.00    1.22348   1.16887    0.283
 4835.00    1.19970   1.16839    0.282
 4836.00    1.17649   1.16794    0.282
 4837.00    1.16847   1.16710    0.283
 4838.00    1.16147   1.16512    0.284
 4839.00    1.16843   1.16317    0.286
 4840.00    1.17622   1.16153    0.287
 4841.00    1.19136   1.15932    0.283
 4842.00    1.20070   1.15738    0.280
 4843.00    1.17145   1.15543    0.275
 4844.00    1.14761   1.15320    0.272
 4845.00    1.15172   1.15124    0.277
 4846.00    1.15673   1.14766    0.281
 4847.00    1.16549   1.14298    0.284
 4848.00    1.17024   1.13797    0.000
 4849.00    1.16117   1.13000    0.000
 4850.00    1.15719   1.11971    0.000
 4851.00    1.16798   1.10788    0.000
 4852.00    1.16753   1.09268    0.000
 4853.00    1.13927   1.07456    0.000
 4854.00    1.11085   1.05438    0.000
 4855.00    1.08213   1.03130    0.000
 4856.00    1.07201   1.00690    0.000
 4857.00    1.09637   0.98407    0.000
 4858.00    1.09912   0.96267    0.000
 4859.00    1.06689   0.94435    0.000
 4860.00    1.05348   0.93308    0.000
 4861.00    1.06678   0.92851    0.000
 4862.00    1.07767   0.93052    0.000
 4863.00    1.08552   0.94026    0.000
 4864.00    1.07565   0.95521    0.000
 4865.00    1.04626   0.97379    0.000
 4866.00    1.04826   0.99421    0.000
 4867.00    1.08076   1.01395    0.000
 4868.00    1.09720   1.03292    0.000
 4869.00    1.09990   1.04988    0.000
 4870.00    1.09987   1.06415    0.000
 4871.00    1.09778   1.07701    0.000
 4872.00    1.09865   1.08874    0.000
 4873.00    1.10147   1.09934    0.000
 4874.00    1.10114   1.10961    0.000
 4875.00    1.09898   1.11934    0.277
 4876.00    1.10194   1.12781    0.276
 4877.00    1.10748   1.13574    0.275
 4878.00    1.12736   1.14194    0.276
 4879.00    1.15352   1.14611    0.277
 4880.00    1.15747   1.14908    0.275
 4881.00    1.15307   1.14965    0.273
 4882.00    1.13322   1.14914    0.271
 4883.00    1.10845   1.14798    0.268
 4884.00    1.10865   1.14548    0.271
 4885.00    1.11549   1.14319    0.275
 4886.00    1.07065   1.14124    0.276
 4887.00    1.01453   1.14071    0.277
 4888.00    1.01602   1.14150    0.279
 4889.00    1.02749   1.14342    0.281
 4890.00    1.04019   1.14857    0.280
 4891.00    1.05304   1.15494    0.278
 4892.00    1.09117   1.16249    0.276
 4893.00    1.13166   1.17200    0.273
 4894.00    1.12645   1.18016    0.270
 4895.00    1.11864   1.18786    0.268
 4896.00    1.15870   1.19511    0.276
 4897.00    1.19945   1.19899    0.284
 4898.00    1.19669   1.20103    0.283
 4899.00    1.19364   1.20206    0.281
 4900.00    1.18352   1.20126    0.275
 4901.00    1.17447   1.19995    0.269
 4902.00    1.17934   1.19816    0.270
 4903.00    1.18238   1.19617    0.271
 4904.00    1.16955   1.19497    0.271
 4905.00    1.15701   1.19349    0.271
 4906.00    1.14634   1.19202    0.271
 4907.00    1.14002   1.19088    0.271
 4908.00    1.15562   1.18958    0.272
 4909.00    1.16624   1.18847    0.273
 4910.00    1.15662   1.18706    0.273
 4911.00    1.15016   1.18527    0.273
 4912.00    1.15436   1.18294    0.271
 4913.00    1.15724   1.17892    0.269
 4914.00    1.15640   1.17328    0.267
 4915.00    1.15079   1.16606    0.265
 4916.00    1.13358   1.15606    0.265
 4917.00    1.12468   1.14552    0.265
 4918.00    1.13323   1.13554    0.264
 4919.00    1.13020   1.12560    0.262
 4920.00    1.10603   1.11887    0.262
 4921.00    1.09013   1.11677    0.261
 4922.00    1.08740   1.11831    0.261
 4923.00    1.08606   1.12406    0.260
 4924.00    1.08666   1.13426    0.258
 4925.00    1.10171   1.14614    0.259
 4926.00    1.13458   1.15946    0.263
 4927.00    1.16510   1.17267    0.265
 4928.00    1.19306   1.18214    0.266
 4929.00    1.19251   1.19050    0.264
 4930.00    1.16466   1.19617    0.261
 4931.00    1.14921   1.19688    0.257
 4932.00    1.14424   1.19598    0.255
 4933.00    1.13815   1.19317    0.254
 4934.00    1.13124   1.18850    0.256
 4935.00    1.12686   1.18424    0.257
 4936.00    1.12414   1.17997    0.256
 4937.00    1.12667   1.17619    0.257
 4938.00    1.13220   1.17523    0.259
 4939.00    1.14332   1.17623    0.261
 4940.00    1.15723   1.17776    0.000
 4941.00    1.16605   1.18167    0.000
 4942.00    1.17268   1.18720    0.000
 4943.00    1.17456   1.19295    0.000
 4944.00    1.17467   1.19937    0.000
 4945.00    1.18040   1.20516    0.000
 4946.00    1.18788   1.21028    0.000
 4947.00    1.20394   1.21456    0.000
 4948.00    1.22224   1.21686    0.000
 4949.00    1.21379   1.21746    0.000
 4950.00    1.19965   1.21622    0.000
 4951.00    1.18536   1.21295    0.000
 4952.00    1.17104   1.20720    0.000
 4953.00    1.17439   1.20031    0.000
 4954.00    1.17998   1.19377    0.000
 4955.00    1.16388   1.18579    0.000
 4956.00    1.14584   1.17892    0.000
 4957.00    1.14678   1.17452    0.000
 4958.00    1.14872   1.17140    0.000
 4959.00    1.15170   1.17037    0.000
 4960.00    1.15485   1.16966    0.000
 4961.00    1.17015   1.17021    0.000
 4962.00    1.18441   1.17210    0.000
 4963.00    1.17612   1.17270    0.000
 4964.00    1.16604   1.17320    0.000
 4965.00    1.13406   1.17366    0.000
 4966.00    1.10520   1.17415    0.000
 4967.00    1.10249   1.17561    0.000
 4968.00    1.10572   1.17671    0.000
 4969.00    1.14599   1.17895    0.000
 4970.00    1.17626   1.18211    0.000
 4971.00    1.15752   1.18429    0.000
 4972.00    1.14325   1.18673    0.000
 4973.00    1.14677   1.18762    0.000
 4974.00    1.14662   1.18684    0.000
 4975.00    1.13428   1.18510    0.000
 4976.00    1.12310   1.18060    0.000
 4977.00    1.11515   1.17474    0.000
 4978.00    1.10709   1.16821    0.000
 4979.00    1.09881   1.16092    0.000
 4980.00    1.09380   1.15385    0.000
 4981.00    1.09552   1.14755    0.000
 4982.00    1.09025   1.14336    0.000
 4983.00    1.07242   1.14111    0.000
 4984.00    1.07181   1.14059    0.000
 4985.00    1.09824   1.14192    0.000
 4986.00    1.10611   1.14424    0.000
 4987.00    1.08837   1.14821    0.000
 4988.00    1.08080   1.15208    0.000
 4989.00    1.08560   1.15476    0.000
 4990.00    1.09514   1.15832    0.000
 4991.00    1.10977   1.16049    0.000
 4992.00    1.12953   1.16100    0.000
 4993.00    1.15413   1.16157    0.000
 4994.00    1.14867   1.16022    0.000
 4995.00    1.11819   1.15798    0.000
 4996.00    1.10331   1.15528    0.000
 4997.00    1.09988   1.15026    0.000
 4998.00    1.10084   1.14527    0.000
 4999.00    1.10463   1.13994    0.000
 5000.00    1.10244   1.13366    0.000
 5001.00    1.09689   1.12893    0.000
 5002.00    1.09803   1.12408    0.000
 5003.00    1.10245   1.12021    0.000
 5004.00    1.09755   1.11742    0.000
 5005.00    1.08871   1.11527    0.000
 5006.00    1.10447   1.11495    0.000
 5007.00    1.12915   1.11371    0.000
 5008.00    1.12406   1.11207    0.000
 5009.00    1.10983   1.11040    0.000
 5010.00    1.11057   1.10726    0.000
 5011.00    1.11514   1.10476    0.000
 5012.00    1.08319   1.10154    0.000
 5013.00    1.04364   1.09759    0.000
 5014.00    1.03707   1.09632    0.000
 5015.00    1.03590   1.09566    0.000
 5016.00    1.02718   1.09660    0.000
 5017.00    1.01754   1.09925    0.000
 5018.00    1.01858   1.10274    0.000
 5019.00    1.02052   1.10813    0.000
 5020.00    1.04303   1.11320    0.000
 5021.00    1.06654   1.11842    0.000
 5022.00    1.07464   1.12357    0.000
 5023.00    1.08229   1.12811    0.000
 5024.00    1.07763   1.13313    0.000
 5025.00    1.07388   1.13661    0.000
 5026.00    1.08859   1.14037    0.000
 5027.00    1.10184   1.14537    0.000
 5028.00    1.09795   1.14876    0.000
 5029.00    1.09423   1.15228    0.254
 5030.00    1.09198   1.15465    0.253
 5031.00    1.09154   1.15541    0.251
 5032.00    1.10211   1.15606    0.248
 5033.00    1.11161   1.15360    0.245
 5034.00    1.11599   1.14881    0.248
 5035.00    1.11723   1.14389    0.251
 5036.00    1.10628   1.13737    0.251
 5037.00    1.09460   1.13102    0.251
 5038.00    1.08061   1.12488    0.251
 5039.00    1.06710   1.11909    0.249
 5040.00    1.05493   1.11754    0.246
 5041.00    1.04555   1.11824    0.243
 5042.00    1.04273   1.11935    0.242
 5043.00    1.04465   1.12267    0.241
 5044.00    1.05622   1.12633    0.240
 5045.00    1.06306   1.13039    0.240
 5046.00    1.06155   1.13438    0.243
 5047.00    1.06361   1.13656    0.244
 5048.00    1.07119   1.13872    0.243
 5049.00    1.07783   1.14054    0.242
 5050.00    1.08318   1.14190    0.243
 5051.00    1.08245   1.14366    0.244
 5052.00    1.07444   1.14657    0.244
 5053.00    1.07462   1.15038    0.245
 5054.00    1.08344   1.15418    0.245
 5055.00    1.09832   1.15835    0.247
 5056.00    1.11883   1.16327    0.251
 5057.00    1.13042   1.16680    0.250
 5058.00    1.13468   1.16939    0.247
 5059.00    1.13652   1.17071    0.246
 5060.00    1.13661   1.17015    0.248
 5061.00    1.13317   1.16909    0.248
 5062.00    1.12750   1.16518    0.248
 5063.00    1.11333   1.16037    0.247
 5064.00    1.09444   1.15648    0.247
 5065.00    1.09531   1.15184    0.249
 5066.00    1.10570   1.14762    0.252
 5067.00    1.09879   1.14390    0.252
 5068.00    1.08468   1.14134    0.251
 5069.00    1.07546   1.14043    0.249
 5070.00    1.06797   1.13919    0.247
 5071.00    1.07207   1.13827    0.249
 5072.00    1.07966   1.13753    0.252
 5073.00    1.07554   1.13657    0.252
 5074.00    1.06850   1.13465    0.250
 5075.00    1.07377   1.13174    0.251
 5076.00    1.08153   1.12919    0.252
 5077.00    1.06309   1.12551    0.251
 5078.00    1.04049   1.12190    0.249
 5079.00    1.03683   1.11913    0.248
 5080.00    1.03542   1.11735    0.248
 5081.00    1.03581   1.11706    0.249
 5082.00    1.03635   1.11730    0.249
 5083.00    1.03690   1.11931    0.244
 5084.00    1.03746   1.12321    0.239
 5085.00    1.05141   1.12773    0.245
 5086.00    1.06524   1.13234    0.251
 5087.00    1.06506   1.13731    0.245
 5088.00    1.06553   1.14195    0.240
 5089.00    1.07779   1.14571    0.241
 5090.00    1.08897   1.14847    0.242
 5091.00    1.08793   1.15028    0.243
 5092.00    1.08585   1.15069    0.244
 5093.00    1.07563   1.14949    0.246
 5094.00    1.06780   1.14700    0.248
 5095.00    1.07409   1.14394    0.249
 5096.00    1.08164   1.14061    0.251
 5097.00    1.09507   1.13636    0.251
 5098.00    1.10218   1.13274    0.251
 5099.00    1.08519   1.12973    0.248
 5100.00    1.06936   1.12724    0.245
 5101.00    1.05725   1.12540    0.242
 5102.00    1.04755   1.12326    0.240
 5103.00    1.04437   1.12206    0.240
 5104.00    1.04089   1.12159    0.240
 5105.00    1.03674   1.12039    0.243
 5106.00    1.03083   1.11963    0.244
 5107.00    1.02142   1.11964    0.243
 5108.00    1.02716   1.11975    0.242
 5109.00    1.05932   1.12161    0.241
 5110.00    1.07369   1.12403    0.241
 5111.00    1.06090   1.12666    0.242
 5112.00    1.05684   1.13094    0.243
 5113.00    1.06447   1.13472    0.244
 5114.00    1.07211   1.13831    0.244
 5115.00    1.07976   1.14184    0.244
 5116.00    1.09339   1.14296    0.246
 5117.00    1.11324   1.14279    0.249
 5118.00    1.10807   1.14117    0.248
 5119.00    1.07996   1.13695    0.244
 5120.00    1.07248   1.13214    0.243
 5121.00    1.08172   1.12575    0.245
 5122.00    1.08116   1.11871    0.243
 5123.00    1.07364   1.11289    0.240
 5124.00    1.04642   1.10740    0.238
 5125.00    1.00689   1.10336    0.238
 5126.00    0.99359   1.10086    0.237
 5127.00    0.99460   1.09996    0.235
 5128.00    1.00868   1.10112    0.236
 5129.00    1.02896   1.10380    0.238
 5130.00    1.04590   1.10688    0.239
 5131.00    1.06148   1.11043    0.240
 5132.00    1.06795   1.11400    0.240
 5133.00    1.07123   1.11777    0.240
 5134.00    1.07483   1.12050    0.242
 5135.00    1.07851   1.12164    0.243
 5136.00    1.07440   1.12202    0.241
 5137.00    1.06837   1.12059    0.239
 5138.00    1.05993   1.11965    0.240
 5139.00    1.05102   1.11798    0.240
 5140.00    1.03630   1.11424    0.239
 5141.00    1.02069   1.11137    0.237
 5142.00    1.01844   1.10866    0.239
 5143.00    1.01772   1.10597    0.241
 5144.00    1.01092   1.10407    0.242
 5145.00    1.00365   1.10149    0.242
 5146.00    1.02153   1.09921    0.243
 5147.00    1.04044   1.09891    0.244
 5148.00    1.03131   1.09779    0.242
 5149.00    1.02261   1.09739    0.239
 5150.00    1.04123   1.09805    0.242
 5151.00    1.05764   1.09931    0.246
 5152.00    1.03587   1.10217    0.246
 5153.00    1.01675   1.10553    0.247
 5154.00    1.02580   1.10996    0.246
 5155.00    1.03493   1.11466    0.245
 5156.00    1.04470   1.11981    0.247
 5157.00    1.05226   1.12318    0.248
 5158.00    1.04712   1.12528    0.247
 5159.00    1.04432   1.12548    0.247
 5160.00    1.05216   1.12172    0.249
 5161.00    1.05397   1.11562    0.250
 5162.00    1.03326   1.10619    0.248
 5163.00    1.01070   1.09406    0.246
 5164.00    0.98240   1.08024    0.243
 5165.00    0.94931   1.06450    0.241
 5166.00    0.90355   1.04971    0.242
 5167.00    0.86877   1.03759    0.241
 5168.00    0.85894   1.02765    0.240
 5169.00    0.84944   1.01985    0.239
 5170.00    0.84057   1.01426    0.237
 5171.00    0.84174   1.01274    0.237
 5172.00    0.86014   1.01576    0.242
 5173.00    0.87167   1.02114    0.243
 5174.00    0.87290   1.02670    0.238
 5175.00    0.88931   1.03198    0.237
 5176.00    0.92578   1.03707    0.238
 5177.00    0.95120   1.04180    0.239
 5178.00    0.96377   1.04532    0.237
 5179.00    0.96604   1.04650    0.237
 5180.00    0.95777   1.04644    0.237
 5181.00    0.93332   1.04553    0.236
 5182.00    0.89425   1.04585    0.232
 5183.00    0.87866   1.04915    0.229
 5184.00    0.88181   1.05346    0.228
 5185.00    0.89545   1.05923    0.228
 5186.00    0.91645   1.06554    0.229
 5187.00    0.94649   1.07290    0.231
 5188.00    0.98210   1.08156    0.234
 5189.00    0.99449   1.08815    0.234
 5190.00    0.99438   1.09320    0.000
 5191.00    0.99620   1.09737    0.000
 5192.00    0.99892   1.10165    0.000
 5193.00    1.00854   1.10520    0.000
 5194.00    1.02093   1.10843    0.000
 5195.00    1.02929   1.11137    0.000
 5196.00    1.03626   1.11405    0.000
 5197.00    1.04628   1.11685    0.000
 5198.00    1.05717   1.11692    0.000
 5199.00    1.06355   1.11569    0.000
 5200.00    1.06884   1.11232    0.000
 5201.00    1.06381   1.10667    0.000
 5202.00    1.05679   1.09928    0.000
 5203.00    1.04182   1.09005    0.000
 5204.00    1.02566   1.08141    0.000
 5205.00    1.00534   1.07454    0.000
 5206.00    0.98457   1.06912    0.000
 5207.00    0.97867   1.06690    0.000
 5208.00    0.97384   1.06785    0.000
 5209.00    0.98838   1.07232    0.000
 5210.00    1.00364   1.08091    0.000
 5211.00    1.02273   1.09078    0.234
 5212.00    1.04183   1.10239    0.236
 5213.00    1.06102   1.11379    0.236
 5214.00    1.08002   1.12467    0.237
 5215.00    1.09599   1.13518    0.237
 5216.00    1.11086   1.14372    0.238
 5217.00    1.11469   1.15037    0.239
 5218.00    1.11328   1.15408    0.240
 5219.00    1.07381   1.15572    0.241
 5220.00    1.04406   1.15527    0.242
 5221.00    1.06841   1.15297    0.241
 5222.00    1.08698   1.14908    0.241
 5223.00    1.07984   1.14399    0.240
 5224.00    1.06964   1.13925    0.240
 5225.00    1.04831   1.13499    0.240
 5226.00    1.03300   1.13303    0.241
 5227.00    1.03610   1.13336    0.243
 5228.00    1.03634   1.13455    0.244
 5229.00    1.02911   1.13834    0.243
 5230.00    1.03063   1.14266    0.244
 5231.00    1.05171   1.14770    0.246
 5232.00    1.07516   1.15426    0.248
 5233.00    1.10320   1.16014    0.247
 5234.00    1.12633   1.16690    0.246
 5235.00    1.14119   1.17303    0.244
 5236.00    1.14588   1.17791    0.243
 5237.00    1.13553   1.18285    0.242
 5238.00    1.13824   1.18667    0.242
 5239.00    1.15794   1.18978    0.243
 5240.00    1.16784   1.19130    0.243
 5241.00    1.16650   1.19099    0.243
 5242.00    1.15989   1.18972    0.242
 5243.00    1.14798   1.18670    0.241
 5244.00    1.14052   1.18197    0.240
 5245.00    1.13705   1.17598    0.240
 5246.00    1.13210   1.17078    0.241
 5247.00    1.12600   1.16625    0.240
 5248.00    1.11698   1.16120    0.240
 5249.00    1.10596   1.15784    0.241
 5250.00    1.09813   1.15607    0.240
 5251.00    1.09223   1.15643    0.239
 5252.00    1.10102   1.15816    0.238
 5253.00    1.11757   1.15948    0.237
 5254.00    1.11755   1.16261    0.237
 5255.00    1.10992   1.16563    0.237
 5256.00    1.10324   1.16726    0.235
 5257.00    1.09695   1.16692    0.233
 5258.00    1.11288   1.16350    0.234
 5259.00    1.13630   1.15792    0.236
 5260.00    1.12799   1.15005    0.236
 5261.00    1.11070   1.13961    0.235
 5262.00    1.07705   1.12747    0.235
 5263.00    1.03957   1.11511    0.235
 5264.00    1.00781   1.10320    0.235
 5265.00    0.97713   1.09412    0.234
 5266.00    0.96675   1.08687    0.236
 5267.00    0.95931   1.08080    0.238
 5268.00    0.96586   1.07860    0.239
 5269.00    0.97389   1.08121    0.240
 5270.00    0.99687   1.08775    0.245
 5271.00    1.02088   1.09594    0.249
 5272.00    1.02642   1.10570    0.244
 5273.00    1.03134   1.11631    0.239
 5274.00    1.03784   1.12813    0.238
 5275.00    1.04526   1.14089    0.238
 5276.00    1.08164   1.15189    0.240
 5277.00    1.11666   1.16136    0.241
 5278.00    1.13080   1.16875    0.242
 5279.00    1.14393   1.17443    0.243
 5280.00    1.14712   1.17970    0.243
 5281.00    1.14806   1.18380    0.243
 5282.00    1.13310   1.18764    0.241
 5283.00    1.12460   1.19240    0.239
 5284.00    1.15108   1.19734    0.238
 5285.00    1.17058   1.20229    0.237
 5286.00    1.15969   1.20662    0.238
 5287.00    1.15493   1.21073    0.238
 5288.00    1.17205   1.21451    0.240
 5289.00    1.18294   1.21651    0.241
 5290.00    1.17509   1.21641    0.241
 5291.00    1.17490   1.21374    0.242
 5292.00    1.19427   1.20991    0.245
 5293.00    1.20311   1.20458    0.247
 5294.00    1.18880   1.19768    0.247
 5295.00    1.17689   1.19040    0.246
 5296.00    1.16957   1.18386    0.244
 5297.00    1.16118   1.18013    0.243
 5298.00    1.15097   1.17844    0.242
 5299.00    1.14067   1.17803    0.242
 5300.00    1.13023   1.18046    0.240
 5301.00    1.13019   1.18522    0.239
 5302.00    1.14351   1.19241    0.237
 5303.00    1.15676   1.20049    0.237
 5304.00    1.16993   1.20806    0.238
 5305.00    1.18228   1.21530    0.238
 5306.00    1.19379   1.22165    0.236
 5307.00    1.21331   1.22740    0.237
 5308.00    1.23985   1.23153    0.239
 5309.00    1.24181   1.23382    0.240
 5310.00    1.22472   1.23484    0.238
 5311.00    1.21288   1.23439    0.237
 5312.00    1.20464   1.23339    0.236
 5313.00    1.20083   1.23147    0.237
 5314.00    1.19968   1.22861    0.237
 5315.00    1.19762   1.22524    0.237
 5316.00    1.19509   1.22142    0.235
 5317.00    1.19284   1.21705    0.233
 5318.00    1.19072   1.21186    0.231
 5319.00    1.17671   1.20601    0.230
 5320.00    1.15809   1.19916    0.230
 5321.00    1.14565   1.19140    0.230
 5322.00    1.13525   1.18260    0.230
 5323.00    1.12889   1.17404    0.229
 5324.00    1.12365   1.16577    0.228
 5325.00    1.10329   1.15735    0.228
 5326.00    1.07948   1.14946    0.228
 5327.00    1.07581   1.14530    0.228
 5328.00    1.07581   1.14462    0.228
 5329.00    1.09433   1.14666    0.229
 5330.00    1.11544   1.15051    0.229
 5331.00    1.11474   1.15568    0.230
 5332.00    1.11183   1.16319    0.230
 5333.00    1.12759   1.17081    0.228
 5334.00    1.14454   1.17782    0.225
 5335.00    1.15389   1.18340    0.227
 5336.00    1.16301   1.18711    0.229
 5337.00    1.16434   1.18895    0.232
 5338.00    1.16553   1.18863    0.234
 5339.00    1.16249   1.18756    0.235
 5340.00    1.15967   1.18712    0.235
 5341.00    1.15983   1.18581    0.235
 5342.00    1.15930   1.18501    0.235
 5343.00    1.15219   1.18424    0.234
 5344.00    1.14660   1.18421    0.233
 5345.00    1.15131   1.18630    0.233
 5346.00    1.15675   1.18867    0.232
 5347.00    1.16610   1.19210    0.235
 5348.00    1.17122   1.19722    0.238
 5349.00    1.15840   1.20319    0.239
 5350.00    1.15144   1.21077    0.240
 5351.00    1.16502   1.21808    0.239
 5352.00    1.18083   1.22601    0.238
 5353.00    1.20318   1.23409    0.239
 5354.00    1.22575   1.24080    0.239
 5355.00    1.24887   1.24680    0.240
 5356.00    1.25777   1.25078    0.239
 5357.00    1.23592   1.25306    0.236
 5358.00    1.22225   1.25312    0.236
 5359.00    1.22395   1.25113    0.238
 5360.00    1.22925   1.24729    0.239
 5361.00    1.24045   1.24238    0.238
 5362.00    1.22880   1.23616    0.237
 5363.00    1.18431   1.22886    0.235
 5364.00    1.15962   1.22160    0.234
 5365.00    1.16001   1.21397    0.236
 5366.00    1.15512   1.20708    0.235
 5367.00    1.14434   1.20055    0.231
 5368.00    1.13405   1.19489   -2.000
 5369.00    1.12424   1.19114   -2.000
 5370.00    1.11293   1.18982   -2.000
 5371.00    1.10032   1.19140   -2.000
 5372.00    1.09934   1.19467   -2.000
 5373.00    1.10724   1.19919   -2.000
 5374.00    1.12209   1.20473   -2.000
 5375.00    1.14161   1.21056   -2.000
 5376.00    1.16993   1.21704   -2.000
 5377.00    1.20343   1.22277   -2.000
 5378.00    1.20869   1.22709   -2.000
 5379.00    1.19947   1.22986   -2.000
 5380.00    1.19277   1.23101   -2.000
 5381.00    1.18721   1.23103   -2.000
 5382.00    1.19204   1.22980   -2.000
 5383.00    1.20085   1.22824    0.228
 5384.00    1.18518   1.22550    0.228
 5385.00    1.16157   1.22218    0.229
 5386.00    1.15108   1.21809    0.225
 5387.00    1.14415   1.21343    0.220
 5388.00    1.14629   1.20808    0.221
 5389.00    1.15044   1.20283    0.224
 5390.00    1.13781   1.19748    0.224
 5391.00    1.12220   1.19210    0.224
 5392.00    1.11566   1.18659    0.226
 5393.00    1.11034   1.18159    0.229
 5394.00    1.10535   1.17724    0.229
 5395.00    1.10038   1.17281    0.229
 5396.00    1.10417   1.17049    0.232
 5397.00    1.10849   1.16876    0.234
 5398.00    1.12609   1.16725    0.235
 5399.00    1.14378   1.16552    0.236
 5400.00    1.11963   1.16384    0.230
 5401.00    1.09687   1.16179    0.224
 5402.00    1.10960   1.15906    0.229
 5403.00    1.11933   1.15636    0.234
 5404.00    1.08818   1.15423    0.231
 5405.00    1.06037   1.15334    0.228
 5406.00    1.06250   1.15322    0.229
 5407.00    1.06492   1.15477    0.230
 5408.00    1.06925   1.15758    0.230
 5409.00    1.07810   1.16317    0.230
 5410.00    1.11022   1.17046    0.231
 5411.00    1.13690   1.17880    0.232
 5412.00    1.14100   1.18805    0.229
 5413.00    1.14533   1.19692    0.227
 5414.00    1.15047   1.20566    0.229
 5415.00    1.15783   1.21314    0.229
 5416.00    1.17163   1.21927    0.226
 5417.00    1.18046   1.22410    0.224
 5418.00    1.17699   1.22692    0.225
 5419.00    1.17610   1.22854    0.226
 5420.00    1.18068   1.22880    0.225
 5421.00    1.18489   1.22793    0.225
 5422.00    1.18841   1.22571    0.225
 5423.00    1.18453   1.22293    0.225
 5424.00    1.16868   1.21958    0.225
 5425.00    1.15630   1.21512    0.223
 5426.00    1.14881   1.21013    0.221
 5427.00    1.14909   1.20373    0.220
 5428.00    1.15906   1.19772    0.222
 5429.00    1.15921   1.19289    0.222
 5430.00    1.14857   1.18800    0.221
 5431.00    1.13421   1.18453    0.220
 5432.00    1.11622   1.18247    0.219
 5433.00    1.10917   1.18218    0.218
 5434.00    1.11145   1.18459    0.217
 5435.00    1.13031   1.18843    0.218
 5436.00    1.16167   1.19489    0.220
 5437.00    1.17662   1.20139    0.221
 5438.00    1.18071   1.20767    0.220
 5439.00    1.17870   1.21365    0.220
 5440.00    1.17317   1.21766    0.219
 5441.00    1.17119   1.22042    0.219
 5442.00    1.17100   1.22023    0.221
 5443.00    1.17553   1.21813    0.224
 5444.00    1.18213   1.21399    0.229
 5445.00    1.18778   1.20875    0.230
 5446.00    1.19308   1.20409    0.228
 5447.00    1.18250   1.19920    0.227
 5448.00    1.16686   1.19516    0.225
 5449.00    1.15273   1.19114    0.225
 5450.00    1.13900   1.18817    0.225
 5451.00    1.14079   1.18543    0.226
 5452.00    1.14594   1.18379    0.227
 5453.00    1.13497   1.18270    0.227
 5454.00    1.12122   1.18263    0.227
 5455.00    1.13246   1.18347    0.229
 5456.00    1.14696   1.18453    0.231
 5457.00    1.15879   1.18618    0.231
 5458.00    1.17037   1.18757    0.232
 5459.00    1.16425   1.18943    0.230
 5460.00    1.15714   1.19138    0.228
 5461.00    1.16000   1.19313    0.226
 5462.00    1.16301   1.19525    0.224
 5463.00    1.15888   1.19715    0.224
 5464.00    1.15450   1.19803    0.224
 5465.00    1.14441   1.19860    0.221
 5466.00    1.13621   1.19850    0.219
 5467.00    1.15229   1.19802    0.220
 5468.00    1.16570   1.19643    0.221
 5469.00    1.15599   1.19445    0.218
 5470.00    1.14808   1.19217    0.217
 5471.00    1.15179   1.18881    0.218
 5472.00    1.15409   1.18509    0.219
 5473.00    1.14937   1.18190    0.218
 5474.00    1.14268   1.17867    0.218
 5475.00    1.12799   1.17586    0.219
 5476.00    1.11547   1.17490    0.219
 5477.00    1.11024   1.17452    0.217
 5478.00    1.10728   1.17518   -2.000
 5479.00    1.11078   1.17601   -2.000
 5480.00    1.11868   1.17865   -2.000
 5481.00    1.13727   1.18172   -2.000
 5482.00    1.14780   1.18494   -2.000
 5483.00    1.14144   1.18894   -2.000
 5484.00    1.11376   1.19223   -2.000
 5485.00    1.04725   1.19515   -2.000
 5486.00    0.97536   1.19714   -2.000
 5487.00    0.89489   1.19973   -2.000
 5488.00    0.90607   1.20168   -2.000
 5489.00    1.04525   1.20318   -2.000
 5490.00    1.16988   1.20463   -2.000
 5491.00    1.27661   1.20514   -2.000
 5492.00    1.33540   1.20543   -2.000
 5493.00    1.34224   1.20555   -2.000
 5494.00    1.31264   1.20565   -2.000
 5495.00    1.24820   1.20533   -2.000
 5496.00    1.20095   1.20452   -2.000
 5497.00    1.16818   1.20409   -2.000
 5498.00    1.15597   1.20255   -2.000
 5499.00    1.15901   1.20065   -2.000
 5500.00    1.16098   1.19876   -2.000
 5501.00    1.16224   1.19667   -2.000
 5502.00    1.16786   1.19428    0.230
 5503.00    1.17595   1.19184    0.227
 5504.00    1.16741   1.18984    0.227
 5505.00    1.15060   1.18744    0.227
 5506.00    1.14876   1.18577    0.226
 5507.00    1.15334   1.18383    0.223
 5508.00    1.14457   1.18226    0.224
 5509.00    1.13088   1.18097    0.224
 5510.00    1.13193   1.17971    0.224
 5511.00    1.13757   1.17934    0.222
 5512.00    1.13608   1.17981    0.220
 5513.00    1.13274   1.18159    0.219
 5514.00    1.12977   1.18461    0.219
 5515.00    1.12690   1.18819    0.219
 5516.00    1.14243   1.19302    0.219
 5517.00    1.16106   1.19787    0.219
 5518.00    1.17242   1.20284    0.220
 5519.00    1.18286   1.20750    0.222
 5520.00    1.18416   1.21126    0.221
 5521.00    1.18465   1.21398    0.219
 5522.00    1.16859   1.21532    0.217
 5523.00    1.15167   1.21540    0.215
 5524.00    1.15743   1.21428    0.213
 5525.00    1.16353   1.21253    0.210
 5526.00    1.16342   1.21035    0.213
 5527.00    1.16321   1.20873    0.215
 5528.00    1.16075   1.20747    0.215
 5529.00    1.15826   1.20678    0.215
 5530.00    1.15541   1.20656    0.216
 5531.00    1.15350   1.20681    0.216
 5532.00    1.15939   1.20789    0.217
 5533.00    1.16410   1.20911    0.218
 5534.00    1.16144   1.21102    0.216
 5535.00    1.16173   1.21339    0.216
 5536.00    1.17642   1.21554    0.219
 5537.00    1.18652   1.21794    0.223
 5538.00    1.17840   1.22009    0.223
 5539.00    1.17164   1.22222    0.252
 5540.00    1.16943   1.22401    0.595
 5541.00    1.16958   1.22566   -1.000
 5542.00    1.17630   1.22730   -1.000
 5543.00    1.18527   1.22880   -1.000
 5544.00    1.19964   1.23040   -1.000
 5545.00    1.21143   1.23198    1.435
 5546.00    1.21789   1.23369    0.353
 5547.00    1.22142   1.23504    0.236
 5548.00    1.21970   1.23617    0.232
 5549.00    1.21618   1.23692    0.228
 5550.00    1.20984   1.23729    0.225
 5551.00    1.20543   1.23697    0.223
 5552.00    1.20369   1.23617    0.223
 5553.00    1.20520   1.23494    0.223
 5554.00    1.21065   1.23311    0.223
 5555.00    1.21001   1.23101    0.224
 5556.00    1.20286   1.22848    0.224
 5557.00    1.19638   1.22608    0.223
 5558.00    1.19053   1.22327    0.220
 5559.00    1.17823   1.22050    0.218
 5560.00    1.16057   1.21781    0.215
 5561.00    1.15534   1.21493    0.214
 5562.00    1.15921   1.21230    0.214
 5563.00    1.16130   1.20966    0.213
 5564.00    1.16224   1.20743    0.210
 5565.00    1.16500   1.20551    0.210
 5566.00    1.16877   1.20408    0.211
 5567.00    1.16664   1.20337    0.211
 5568.00    1.16161   1.20290    0.211
 5569.00    1.15877   1.20325    0.210
 5570.00    1.15685   1.20418    0.209
 5571.00    1.15971   1.20512    0.210
 5572.00    1.16430   1.20682    0.212
 5573.00    1.16560   1.20863    0.213
 5574.00    1.16590   1.21013    0.214
 5575.00    1.17006   1.21154    0.214
 5576.00    1.17520   1.21269    0.214
 5577.00    1.17510   1.21294    0.214
 5578.00    1.17391   1.21236    0.215
 5579.00    1.18212   1.21108    0.216
 5580.00    1.19187   1.20842    0.217
 5581.00    1.17545   1.20471    0.217
 5582.00    1.15584   1.19998    0.217
 5583.00    1.15120   1.19422    0.217
 5584.00    1.14781   1.18811    0.217
 5585.00    1.14513   1.18189    0.220
 5586.00    1.14248   1.17640    0.223
 5587.00    1.11989   1.17175    0.222
 5588.00    1.09746   1.16846    0.222
 5589.00    1.10303   1.16675    0.225
 5590.00    1.10804   1.16619    0.227
 5591.00    1.10172   1.16714    0.225
 5592.00    1.09777   1.16909    0.223
 5593.00    1.12127   1.17146    0.225
 5594.00    1.14203   1.17411    0.227
 5595.00    1.14085   1.17642    0.226
 5596.00    1.13907   1.17847    0.226
 5597.00    1.13364   1.17995    0.225
 5598.00    1.12848   1.18163    0.224
 5599.00    1.12467   1.18300    0.224
 5600.00    1.12209   1.18543    0.224
 5601.00    1.12431   1.18829    0.221
 5602.00    1.12983   1.19246    0.220
 5603.00    1.14601   1.19710    0.221
 5604.00    1.16153   1.20253    0.221
 5605.00    1.17525   1.20812    0.220
 5606.00    1.18878   1.21325    0.218
 5607.00    1.20186   1.21800    0.214
 5608.00    1.21037   1.22117    0.212
 5609.00    1.20958   1.22324    0.212
 5610.00    1.20731   1.22319    0.211
 5611.00    1.20241   1.22131    0.210
 5612.00    1.18979   1.21812    0.208
 5613.00    1.16526   1.21394    0.207
 5614.00    1.14429   1.20935    0.207
 5615.00    1.12817   1.20484    0.207
 5616.00    1.12618   1.20063    0.208
 5617.00    1.14110   1.19720    0.209
 5618.00    1.14545   1.19460    0.209
 5619.00    1.13866   1.19276    0.208
 5620.00    1.14001   1.19150    0.209
 5621.00    1.14891   1.19088    0.212
 5622.00    1.14638   1.19135    0.213
 5623.00    1.13449   1.19221    0.214
 5624.00    1.13158   1.19399    0.213
 5625.00    1.13515   1.19622    0.213
 5626.00    1.14568   1.19880    0.214
 5627.00    1.16061   1.20183    0.215
 5628.00    1.16226   1.20474    0.216
 5629.00    1.15655   1.20759    0.217
 5630.00    1.15318   1.20984    0.217
 5631.00    1.15094   1.21148    0.216
 5632.00    1.15869   1.21228    0.216
 5633.00    1.17060   1.21207    0.216
 5634.00    1.16223   1.21135    0.215
 5635.00    1.14665   1.20957    0.213
 5636.00    1.13228   1.20778    0.212
 5637.00    1.11828   1.20530    0.211
 5638.00    1.13013   1.20349    0.212
 5639.00    1.14843   1.20164    0.214
 5640.00    1.14362   1.20052    0.211
 5641.00    1.13414   1.20002    0.207
 5642.00    1.14100   1.19998    0.206
 5643.00    1.15045   1.20082    0.206
 5644.00    1.16495   1.20191    0.208
 5645.00    1.18003   1.20363    0.209
 5646.00    1.17969   1.20545    0.207
 5647.00    1.17812   1.20751    0.204
 5648.00    1.18374   1.20945    0.205
 5649.00    1.18967   1.21100    0.205
 5650.00    1.18839   1.21197    0.205
 5651.00    1.18686   1.21196    0.205
 5652.00    1.17704   1.21137    0.205
 5653.00    1.16798   1.20964    0.205
 5654.00    1.17303   1.20678    0.206
 5655.00    1.17702   1.20353    0.207
 5656.00    1.16927   1.20022    0.207
 5657.00    1.16109   1.19676    0.207
 5658.00    1.14957   1.19372    0.208
 5659.00    1.14016   1.19132    0.208
 5660.00    1.14313   1.18996    0.208
 5661.00    1.14605   1.18956    0.207
 5662.00    1.14877   1.19013    0.209
 5663.00    1.14972   1.19153    0.210
 5664.00    1.14390   1.19354    0.208
 5665.00    1.13843   1.19635    0.207
 5666.00    1.13410   1.19928    0.208
 5667.00    1.13482   1.20289    0.209
 5668.00    1.14917   1.20641    0.211
 5669.00    1.15850   1.21015    0.213
 5670.00    1.15625   1.21378    0.214
 5671.00    1.16407   1.21709    0.216
 5672.00    1.19201   1.22031    0.217
 5673.00    1.20781   1.22277    0.217
 5674.00    1.20249   1.22485    0.213
 5675.00    1.20058   1.22572    0.212
 5676.00    1.20386   1.22632    0.217
 5677.00    1.20680   1.22580    0.219
 5678.00    1.20928   1.22472    0.218
 5679.00    1.20419   1.22279    0.216
 5680.00    1.19017   1.22114    0.213
 5681.00    1.18883   1.21888    0.212
 5682.00    1.20068   1.21701    0.212
 5683.00    1.19987   1.21499    0.211
 5684.00    1.18745   1.21405    0.208
 5685.00    1.18079   1.21324    0.205
 5686.00    1.17877   1.21368    0.202
 5687.00    1.17662   1.21433    0.202
 5688.00    1.17438   1.21598    0.204
 5689.00    1.17202   1.21758    0.203
 5690.00    1.16960   1.21929    0.201
 5691.00    1.17431   1.22069    0.201
 5692.00    1.18291   1.22154    0.202
 5693.00    1.18757   1.22172    0.203
 5694.00    1.19036   1.22066    0.203
 5695.00    1.19268   1.21903    0.206
 5696.00    1.19481   1.21639    0.209
 5697.00    1.18759   1.21301    0.209
 5698.00    1.17712   1.20913    0.207
 5699.00    1.17368   1.20501    0.207
 5700.00    1.17232   1.20100    0.207
 5701.00    1.17645   1.19690    0.208
 5702.00    1.18192   1.19286    0.209
 5703.00    1.18107   1.18911    0.209
 5704.00    1.17899   1.18579    0.209
 5705.00    1.16380   1.18280    0.208
 5706.00    1.14659   1.18079    0.208
 5707.00    1.13618   1.17968    0.207
 5708.00    1.12654   1.17915    0.206
 5709.00    1.12859   1.18068    0.207
 5710.00    1.13152   1.18306    0.208
 5711.00    1.13818   1.18704    0.207
 5712.00    1.14499   1.19191    0.205
 5713.00    1.16602   1.19784    0.209
 5714.00    1.18685   1.20428    0.212
 5715.00    1.19464   1.21117    0.209
 5716.00    1.20232   1.21796    0.207
 5717.00    1.20817   1.22432    0.207
 5718.00    1.21427   1.23016    0.208
 5719.00    1.22300   1.23498    0.207
 5720.00    1.23066   1.23876    0.207
 5721.00    1.23024   1.24165    0.205
 5722.00    1.23076   1.24314    0.204
 5723.00    1.23660   1.24374    0.205
 5724.00    1.24232   1.24360    0.206
 5725.00    1.24750   1.24317    0.204
 5726.00    1.25044   1.24218    0.203
 5727.00    1.24507   1.24094    0.203
 5728.00    1.24001   1.23983    0.203
 5729.00    1.23588   1.23925    0.204
 5730.00    1.23269   1.23875    0.204
 5731.00    1.23193   1.23875    0.202
 5732.00    1.23377   1.23880    0.200
 5733.00    1.24147   1.23913    0.197
 5734.00    1.24599   1.23953    0.196
 5735.00    1.24427   1.23982    0.198
 5736.00    1.24243   1.24043    0.199
 5737.00    1.24039   1.24053    0.200
 5738.00    1.23799   1.24116    0.201
 5739.00    1.23504   1.24099    0.201
 5740.00    1.23527   1.24171    0.000
 5741.00    1.23968   1.24189    0.000
 5742.00    1.24202   1.24245    0.000
 5743.00    1.24194   1.24259    0.000
 5744.00    1.24601   1.24254    0.000
 5745.00    1.25432   1.24267    0.000
 5746.00    1.25574   1.24247    0.000
 5747.00    1.25093   1.24219    0.000
 5748.00    1.25033   1.24142    0.000
 5749.00    1.25307   1.24064    0.000
 5750.00    1.24597   1.23978    0.000
 5751.00    1.23199   1.23924    0.000
 5752.00    1.22946   1.23902    0.000
 5753.00    1.23398   1.23878    0.000
 5754.00    1.23451   1.23886    0.000
 5755.00    1.23291   1.23877    0.000
 5756.00    1.23340   1.23885    0.000
 5757.00    1.23485   1.23878    0.000
 5758.00    1.23208   1.23893    0.000
 5759.00    1.22762   1.23908    0.000
 5760.00    1.23439   1.23975    0.000
 5761.00    1.24501   1.24057    0.000
 5762.00    1.24650   1.24186    0.000
 5763.00    1.24536   1.24352    0.000
 5764.00    1.24946   1.24560    0.000
 5765.00    1.25482   1.24775    0.000
 5766.00    1.24842   1.24989    0.000
 5767.00    1.23978   1.25177    0.000
 5768.00    1.24804   1.25303    0.000
 5769.00    1.25882   1.25377    0.000
 5770.00    1.25607   1.25359    0.000
 5771.00    1.25184   1.25260    0.000
 5772.00    1.24784   1.25080    0.000
 5773.00    1.24385   1.24801    0.000
 5774.00    1.25067   1.24450    0.000
 5775.00    1.25789   1.23993    0.000
 5776.00    1.26054   1.23483    0.000
 5777.00    1.26288   1.22888    0.000
 5778.00    1.25455   1.22297    0.000
 5779.00    1.24538   1.21691    0.000
 5780.00    1.22276   1.21135    0.000
 5781.00    1.20096   1.20642    0.000
 5782.00    1.18745   1.20261    0.000
 5783.00    1.17480   1.20053    0.000
 5784.00    1.16841   1.19958    0.000
 5785.00    1.16422   1.20055    0.000
 5786.00    1.17223   1.20272    0.000
 5787.00    1.18207   1.20621    0.000
 5788.00    1.20004   1.21084    0.000
 5789.00    1.21562   1.21601    0.000
 5790.00    1.22247   1.22170    0.000
 5791.00    1.22694   1.22719   -2.000
 5792.00    1.22416   1.23274   -2.000
 5793.00    1.22231   1.23769   -2.000
 5794.00    1.22283   1.24241   -2.000
 5795.00    1.22531   1.24674   -2.000
 5796.00    1.23211   1.25073   -2.000
 5797.00    1.24299   1.25412   -2.000
 5798.00    1.26172   1.25703   -2.000
 5799.00    1.27228   1.25947   -2.000
 5800.00    1.26905   1.26131   -2.000
 5801.00    1.27055   1.26275   -2.000
 5802.00    1.27905   1.26378   -2.000
 5803.00    1.28177   1.26427   -2.000
 5804.00    1.27697   1.26451   -2.000
 5805.00    1.27729   1.26434   -2.000
 5806.00    1.28347   1.26405   -2.000
 5807.00    1.28307   1.26358   -2.000
 5808.00    1.27603   1.26306   -2.000
 5809.00    1.26905   1.26251   -2.000
 5810.00    1.26212   1.26182   -2.000
 5811.00    1.26373   1.26131    0.000
 5812.00    1.27204   1.26077    0.000
 5813.00    1.27254   1.26062    0.000
 5814.00    1.26765   1.26058    0.000
 5815.00    1.25969   1.26105    0.000
 5816.00    1.24989   1.26161    0.000
 5817.00    1.24899   1.26268    0.000
 5818.00    1.25280   1.26376    0.000
 5819.00    1.25798   1.26525    0.000
 5820.00    1.26379   1.26653    0.000
 5821.00    1.26615   1.26803    0.000
 5822.00    1.26716   1.26913    0.000
 5823.00    1.27347   1.27025    0.000
 5824.00    1.28155   1.27098    0.000
 5825.00    1.28802   1.27153    0.000
 5826.00    1.29404   1.27185    0.000
 5827.00    1.28644   1.27188    0.000
 5828.00    1.27566   1.27172    0.000
 5829.00    1.27163   1.27119    0.000
 5830.00    1.26886   1.27070    0.000
 5831.00    1.25877   1.26987    0.000
 5832.00    1.24763   1.26913    0.000
 5833.00    1.25453   1.26830    0.000
 5834.00    1.26332   1.26775    0.000
 5835.00    1.26514   1.26733    0.000
 5836.00    1.26647   1.26720    0.000
 5837.00    1.26675   1.26728    0.000
 5838.00    1.26700   1.26742    0.000
 5839.00    1.26934   1.26764    0.000
 5840.00    1.27197   1.26757    0.000
 5841.00    1.28370   1.26728    0.000
 5842.00    1.29423   1.26637    0.000
 5843.00    1.28659   1.26506    0.000
 5844.00    1.27815   1.26291    0.000
 5845.00    1.26200   1.26029    0.000
 5846.00    1.24787   1.25683    0.000
 5847.00    1.24789   1.25295    0.000
 5848.00    1.24747   1.24864    0.000
 5849.00    1.24465   1.24410    0.000
 5850.00    1.24160   1.23944    0.000
 5851.00    1.23762   1.23459    0.000
 5852.00    1.23285   1.23007    0.000
 5853.00    1.22529   1.22583    0.000
 5854.00    1.21751   1.22224    0.000
 5855.00    1.20912   1.21926    0.000
 5856.00    1.20061   1.21700    0.000
 5857.00    1.19181   1.21556    0.000
 5858.00    1.18900   1.21497    0.000
 5859.00    1.19931   1.21518    0.000
 5860.00    1.20531   1.21590    0.000
 5861.00    1.20311   1.21715    0.000
 5862.00    1.20356   1.21877    0.000
 5863.00    1.20845   1.22057    0.000
 5864.00    1.21381   1.22231    0.000
 5865.00    1.21986   1.22389    0.000
 5866.00    1.22462   1.22496    0.000
 5867.00    1.22774   1.22570    0.000
 5868.00    1.23064   1.22558    0.000
 5869.00    1.23328   1.22480    0.000
 5870.00    1.23601   1.22334    0.000
 5871.00    1.23883   1.22099    0.000
 5872.00    1.23912   1.21858    0.000
 5873.00    1.23719   1.21484    0.000
 5874.00    1.23486   1.21166    0.000
 5875.00    1.23220   1.20740    0.000
 5876.00    1.22966   1.20405    0.000
 5877.00    1.22720   1.19956    0.000
 5878.00    1.21931   1.19542    0.000
 5879.00    1.20818   1.19007    0.000
 5880.00    1.19901   1.18387    0.000
 5881.00    1.19085   1.17591    0.000
 5882.00    1.17959   1.16571    0.000
 5883.00    1.16694   1.15328    0.000
 5884.00    1.14991   1.13838    0.000
 5885.00    1.13119   1.12205    0.000
 5886.00    1.10209   1.10446    0.000
 5887.00    1.06958   1.08619    0.000
 5888.00    1.03409   1.06899    0.000
 5889.00    0.99778   1.05272    0.000
 5890.00    0.97315   1.03987    0.000
 5891.00    0.95118   1.03001    0.000
 5892.00    0.94254   1.02503    0.000
 5893.00    0.93633   1.02368    0.000
 5894.00    0.94701   1.02725    0.000
 5895.00    0.96004   1.03451    0.000
 5896.00    0.98468   1.04551    0.000
 5897.00    1.01047   1.05934    0.000
 5898.00    1.04125   1.07522    0.000
 5899.00    1.07234   1.09247    0.000
 5900.00    1.09255   1.11002    0.000
 5901.00    1.11245   1.12742    0.183
 5902.00    1.13600   1.14372    0.183
 5903.00    1.15924   1.15869    0.183
 5904.00    1.17416   1.17165    0.183
 5905.00    1.18891   1.18284    0.183
 5906.00    1.20150   1.19169    0.184
 5907.00    1.21285   1.19888    0.184
 5908.00    1.21259   1.20386    0.183
 5909.00    1.21230   1.20774    0.183
 5910.00    1.21171   1.20980    0.183
 5911.00    1.21067   1.21134    0.183
 5912.00    1.20727   1.21171    0.183
 5913.00    1.20407   1.21201    0.183
 5914.00    1.20171   1.21186    0.182
 5915.00    1.20029   1.21198    0.182
 5916.00    1.20217   1.21217    0.183
 5917.00    1.20425   1.21271    0.185
 5918.00    1.20694   1.21361    0.189
 5919.00    1.21120   1.21467    0.191
 5920.00    1.21939   1.21602    0.192
 5921.00    1.22142   1.21727    0.192
 5922.00    1.21019   1.21861    0.192
 5923.00    1.20341   1.21967    0.192
 5924.00    1.20496   1.22069    0.193
 5925.00    1.20829   1.22131    0.192
 5926.00    1.21451   1.22186    0.190
 5927.00    1.21935   1.22196    0.187
 5928.00    1.22220   1.22216    0.185
 5929.00    1.22269   1.22196    0.185
 5930.00    1.22018   1.22201    0.186
 5931.00    1.21933   1.22178    0.186
 5932.00    1.22034   1.22184    0.185
 5933.00    1.22006   1.22168    0.184
 5934.00    1.21853   1.22185    0.183
 5935.00    1.21974   1.22190    0.183
 5936.00    1.22331   1.22220    0.184
 5937.00    1.22605   1.22246    0.184
 5938.00    1.22814   1.22289    0.183
 5939.00    1.23033   1.22330    0.183
 5940.00    1.23259   1.22379    0.183
 5941.00    1.23374   1.22427    0.184
 5942.00    1.23426   1.22481    0.186
 5943.00    1.23125   1.22529    0.185
 5944.00    1.22643   1.22561    0.182
 5945.00    1.22274   1.22574    0.181
 5946.00    1.21954   1.22561    0.180
 5947.00    1.22086   1.22524    0.182
 5948.00    1.22390   1.22450    0.185
 5949.00    1.21852   1.22363    0.185
 5950.00    1.21041   1.22256    0.185
 5951.00    1.20893   1.22162    0.185
 5952.00    1.20924   1.22077    0.185
 5953.00    1.21038   1.22033    0.185
 5954.00    1.21170   1.22027    0.185
 5955.00    1.21390   1.22080    0.185
 5956.00    1.21626   1.22187    0.185
 5957.00    1.22093   1.22349    0.186
 5958.00    1.22591   1.22556    0.189
 5959.00    1.23171   1.22802    0.189
 5960.00    1.23759   1.23064    0.189
 5961.00    1.23273   1.23340    0.187
 5962.00    1.22723   1.23601    0.185
 5963.00    1.22809   1.23859    0.183
 5964.00    1.22913   1.24079    0.180
 5965.00    1.23292   1.24287    0.182
 5966.00    1.23647   1.24445    0.185
 5967.00    1.23380   1.24580    0.183
 5968.00    1.23181   1.24652    0.181
 5969.00    1.23883   1.24688    0.180
 5970.00    1.24628   1.24649    0.180
 5971.00    1.25757   1.24563    0.181
 5972.00    1.26698   1.24397    0.181
 5973.00    1.26410   1.24190    0.181
 5974.00    1.26022   1.23918    0.181
 5975.00    1.25129   1.23634    0.179
 5976.00    1.24198   1.23316    0.178
 5977.00    1.23111   1.23026    0.179
 5978.00    1.22254   1.22739    0.179
 5979.00    1.22185   1.22511    0.179
 5980.00    1.22014   1.22312    0.179
 5981.00    1.21549   1.22189    0.180
 5982.00    1.21181   1.22113    0.181
 5983.00    1.21054   1.22115    0.182
 5984.00    1.20842   1.22171    0.182
 5985.00    1.20447   1.22293    0.183
 5986.00    1.20097   1.22459    0.183
 5987.00    1.19831   1.22667    0.182
 5988.00    1.20220   1.22895    0.182
 5989.00    1.21664   1.23130    0.183
 5990.00    1.23043   1.23352    0.184
 5991.00    1.24330   1.23546    0.185
 5992.00    1.25161   1.23696    0.186
 5993.00    1.25426   1.23792    0.185
 5994.00    1.25422   1.23836    0.184
 5995.00    1.25124   1.23817    0.183
 5996.00    1.24819   1.23753    0.182
 5997.00    1.24506   1.23639    0.180
 5998.00    1.24124   1.23501    0.180
 5999.00    1.23681   1.23333    0.180
 6000.00    1.23697   1.23165    0.180
 6001.00    1.24056   1.22984    0.180
 6002.00    1.23871   1.22822    0.179
 6003.00    1.23325   1.22659    0.178
 6004.00    1.22767   1.22527    0.178
 6005.00    1.22202   1.22400    0.178
 6006.00    1.21814   1.22310    0.178
 6007.00    1.21514   1.22222    0.178
 6008.00    1.21005   1.22170    0.178
 6009.00    1.20405   1.22111    0.178
 6010.00    1.20149   1.22077    0.179
 6011.00    1.20023   1.22029    0.180
 6012.00    1.20179   1.21995    0.182
 6013.00    1.20424   1.21948    0.183
 6014.00    1.20795   1.21914    0.184
 6015.00    1.21199   1.21883    0.184
 6016.00    1.20895   1.21876    0.185
 6017.00    1.20438   1.21896    0.184
 6018.00    1.20527   1.21958    0.184
 6019.00    1.20711   1.22069    0.184
 6020.00    1.20600   1.22234    0.184
 6021.00    1.20451   1.22452    0.183
 6022.00    1.20777   1.22728    0.184
 6023.00    1.21147   1.23040    0.185
 6024.00    1.21889   1.23402    0.185
 6025.00    1.22651   1.23770    0.185
 6026.00    1.23720   1.24169    0.185
 6027.00    1.24788   1.24543    0.185
 6028.00    1.25125   1.24925    0.182
 6029.00    1.25440   1.25259    0.179
 6030.00    1.25279   1.25584    0.179
 6031.00    1.25163   1.25848    0.179
 6032.00    1.25636   1.26093    0.179
 6033.00    1.26103   1.26278    0.178
 6034.00    1.26522   1.26444    0.179
 6035.00    1.26924   1.26564    0.180
 6036.00    1.27222   1.26671    0.178
 6037.00    1.27540   1.26756    0.177
 6038.00    1.27960   1.26839    0.177
 6039.00    1.28196   1.26924    0.178
 6040.00    1.27692   1.27017    0.179
 6041.00    1.27371   1.27121    0.180
 6042.00    1.27663   1.27233    0.181
 6043.00    1.27908   1.27347    0.181
 6044.00    1.28017   1.27456    0.181
 6045.00    1.28029   1.27543    0.181
 6046.00    1.27805   1.27603    0.180
 6047.00    1.27704   1.27619    0.180
 6048.00    1.27858   1.27591    0.182
 6049.00    1.27931   1.27510    0.183
 6050.00    1.27855   1.27382    0.183
 6051.00    1.27798   1.27215    0.184
 6052.00    1.27770   1.27014    0.184
 6053.00    1.27448   1.26799    0.184
 6054.00    1.26716   1.26575    0.184
 6055.00    1.26196   1.26360    0.184
 6056.00    1.25937   1.26162    0.184
 6057.00    1.25661   1.25985    0.183
 6058.00    1.25367   1.25845    0.180
 6059.00    1.25009   1.25731    0.180
 6060.00    1.24589   1.25669    0.181
 6061.00    1.24474   1.25643    0.181
 6062.00    1.24614   1.25684    0.181
 6063.00    1.25244   1.25775    0.180
 6064.00    1.26237   1.25941    0.181
 6065.00    1.26714   1.26164    0.180
 6066.00    1.26853   1.26445    0.179
 6067.00    1.27111   1.26765    0.178
 6068.00    1.27435   1.27097    0.178
 6069.00    1.28035   1.27419    0.178
 6070.00    1.28772   1.27694    0.178
 6071.00    1.29561   1.27900    0.179
 6072.00    1.30372   1.28013    0.179
 6073.00    1.30358   1.28022    0.180
 6074.00    1.30041   1.27927    0.182
 6075.00    1.29137   1.27729    0.181
 6076.00    1.28051   1.27456    0.180
 6077.00    1.27494   1.27115    0.180
 6078.00    1.27074   1.26751    0.181
 6079.00    1.26524   1.26367    0.181
 6080.00    1.25945   1.26008    0.180
 6081.00    1.25255   1.25668    0.182
 6082.00    1.24545   1.25383    0.184
 6083.00    1.24431   1.25132    0.184
 6084.00    1.24390   1.24940    0.185
 6085.00    1.24772   1.24781    0.184
 6086.00    1.25190   1.24671    0.182
 6087.00    1.25579   1.24585    0.182
 6088.00    1.25966   1.24539    0.181
 6089.00    1.25693   1.24512    0.181
 6090.00    1.25403   1.24516    0.181
 6091.00    1.24680   1.24533    0.179
 6092.00    1.24002   1.24565    0.178
 6093.00    1.24282   1.24594    0.177
 6094.00    1.24598   1.24609    0.177
 6095.00    1.25363   1.24601    0.177
 6096.00    1.26042   1.24547    0.178
 6097.00    1.26004   1.24462    0.180
 6098.00    1.25932   1.24323    0.182
 6099.00    1.25651   1.24172    0.180
 6100.00    1.25178   1.23997    0.178
 6101.00    1.23775   1.23853    0.180
 6102.00    1.22687   1.23737    0.180
 6103.00    1.22845   1.23694    0.178
 6104.00    1.23193   1.23716    0.177
 6105.00    1.24165   1.23823    0.178
 6106.00    1.25042   1.23993    0.179
 6107.00    1.25657   1.24220    0.178
 6108.00    1.26204   1.24470    0.178
 6109.00    1.26589   1.24724    0.178
 6110.00    1.26743   1.24942    0.179
 6111.00    1.26423   1.25111    0.182
 6112.00    1.26255   1.25192    0.183
 6113.00    1.26359   1.25192    0.181
 6114.00    1.26185   1.25075    0.180
 6115.00    1.25576   1.24879    0.180
 6116.00    1.25179   1.24575    0.180
 6117.00    1.25075   1.24230    0.180
 6118.00    1.24804   1.23825    0.180
 6119.00    1.24331   1.23444    0.181
 6120.00    1.23772   1.23075    0.181
 6121.00    1.23123   1.22795    0.181
 6122.00    1.22824   1.22584    0.179
 6123.00    1.22854   1.22489    0.177
 6124.00    1.23244   1.22481    0.176
 6125.00    1.23932   1.22562    0.174
 6126.00    1.24590   1.22692    0.175
 6127.00    1.25225   1.22841    0.177
 6128.00    1.25460   1.22973    0.178
 6129.00    1.25438   1.23047    0.177
 6130.00    1.25419   1.23050    0.177
 6131.00    1.25401   1.22960    0.176
 6132.00    1.24890   1.22797    0.176
 6133.00    1.24138   1.22573    0.177
 6134.00    1.23609   1.22332    0.179
 6135.00    1.23175   1.22112    0.181
 6136.00    1.22688   1.21957    0.182
 6137.00    1.22181   1.21902    0.183
 6138.00    1.22241   1.21957    0.182
 6139.00    1.22474   1.22138    0.181
 6140.00    1.23068   1.22408    0.181
 6141.00    1.23754   1.22763    0.181
 6142.00    1.24826   1.23133    0.182
 6143.00    1.25978   1.23514    0.183
 6144.00    1.26959   1.23830    0.182
 6145.00    1.27913   1.24093    0.180
 6146.00    1.27353   1.24247    0.179
 6147.00    1.26610   1.24322    0.178
 6148.00    1.25875   1.24281    0.178
 6149.00    1.25141   1.24163    0.178
 6150.00    1.25182   1.23937    0.178
 6151.00    1.25259   1.23636    0.177
 6152.00    1.25171   1.23231    0.177
 6153.00    1.25063   1.22739    0.177
 6154.00    1.23986   1.22140    0.176
 6155.00    1.22906   1.21447    0.176
 6156.00    1.21785   1.20662    0.176
 6157.00    1.20619   1.19807    0.176
 6158.00    1.18934   1.18914    0.176
 6159.00    1.17292   1.18023    0.176
 6160.00    1.16002   1.17182    0.175
 6161.00    1.14899   1.16434    0.174
 6162.00    1.14919   1.15823    0.175
 6163.00    1.14992   1.15372    0.176
 6164.00    1.15315   1.15101    0.176
 6165.00    1.15566   1.15003    0.176
 6166.00    1.15542   1.15076    0.176
 6167.00    1.15498   1.15289    0.177
 6168.00    1.15387   1.15630    0.177
 6169.00    1.15642   1.16057    0.178
 6170.00    1.16893   1.16564    0.178
 6171.00    1.18088   1.17107    0.178
 6172.00    1.19151   1.17683    0.180
 6173.00    1.19575   1.18259    0.181
 6174.00    1.18706   1.18826    0.178
 6175.00    1.17900   1.19359    0.176
 6176.00    1.17204   1.19842    0.175
 6177.00    1.16906   1.20260    0.175
 6178.00    1.17220   1.20591    0.176
 6179.00    1.17829   1.20829    0.177
 6180.00    1.18838   1.20951    0.177
 6181.00    1.19540   1.20967    0.175
 6182.00    1.19873   1.20859    0.173
 6183.00    1.19750   1.20651    0.172
 6184.00    1.19145   1.20345    0.172
 6185.00    1.18675   1.19978    0.173
 6186.00    1.18330   1.19569    0.174
 6187.00    1.17991   1.19165    0.175
 6188.00    1.17656   1.18791    0.176
 6189.00    1.17297   1.18489    0.176
 6190.00    1.16920   1.18273    0.175
 6191.00    1.17006   1.18170    0.176
 6192.00    1.17383   1.18165    0.178
 6193.00    1.18004   1.18269    0.179
 6194.00    1.18758   1.18440    0.179
 6195.00    1.18389   1.18684    0.187
 6196.00    1.17479   1.18951   -2.000
 6197.00    1.14650   1.19245   -2.000
 6198.00    1.11025   1.19530   -2.000
 6199.00    1.10127   1.19811   -2.000
 6200.00    1.10196   1.20063   -2.000
 6201.00    1.15583   1.20288   -2.000
 6202.00    1.22561   1.20464   -2.000
 6203.00    1.27400   1.20585   -2.000
 6204.00    1.31707   1.20628   -2.000
 6205.00    1.31196   1.20583   -2.000
 6206.00    1.29714   1.20430   -2.000
 6207.00    1.27054   1.20165   -2.000
 6208.00    1.24207   1.19786    0.183
 6209.00    1.22722   1.19306    0.181
 6210.00    1.21396   1.18743    0.179
 6211.00    1.20002   1.18126    0.176
 6212.00    1.18604   1.17489    0.174
 6213.00    1.17690   1.16866    0.173
 6214.00    1.16798   1.16289    0.173
 6215.00    1.16220   1.15786    0.172
 6216.00    1.15658   1.15369    0.171
 6217.00    1.15629   1.15050    0.171
 6218.00    1.15620   1.14821    0.171
 6219.00    1.15953   1.14675    0.171
 6220.00    1.16265   1.14589    0.171
 6221.00    1.16337   1.14550    0.173
 6222.00    1.16394   1.14528    0.175
 6223.00    1.16338   1.14515    0.175
 6224.00    1.16281   1.14489    0.175
 6225.00    1.16215   1.14455    0.175
 6226.00    1.16292   1.14402    0.176
 6227.00    1.17029   1.14349    0.179
 6228.00    1.17569   1.14299    0.181
 6229.00    1.17368   1.14267    0.181
 6230.00    1.17162   1.14266    0.181
 6231.00    1.16942   1.14286    0.180
 6232.00    1.16864   1.14343    0.179
 6233.00    1.17170   1.14397    0.176
 6234.00    1.17305   1.14461    0.175
 6235.00    1.17047   1.14487    0.174
 6236.00    1.16848   1.14491    0.174
 6237.00    1.16767   1.14441    0.173
 6238.00    1.16942   1.14360    0.173
 6239.00    1.17558   1.14245    0.174
 6240.00    1.17907   1.14127    0.174
 6241.00    1.17846   1.14017    0.173
 6242.00    1.17733   1.13938    0.172
 6243.00    1.17548   1.13894    0.171
 6244.00    1.17226   1.13888    0.171
 6245.00    1.16742   1.13908    0.172
 6246.00    1.16403   1.13931    0.172
 6247.00    1.16215   1.13943    0.171
 6248.00    1.16470   1.13905    0.171
 6249.00    1.17131   1.13825    0.173
 6250.00    1.17211   1.13664    0.174
 6251.00    1.16822   1.13464    0.173
 6252.00    1.16207   1.13205    0.174
 6253.00    1.15430   1.12953    0.175
 6254.00    1.14775   1.12704    0.176
 6255.00    1.14197   1.12524    0.177
 6256.00    1.13392   1.12424    0.178
 6257.00    1.12465   1.12431    0.179
 6258.00    1.11904   1.12566    0.181
 6259.00    1.11515   1.12798    0.185
 6260.00    1.11476   1.13156    0.193
 6261.00    1.11578   1.13562    0.204
 6262.00    1.13629   1.14050    0.210
 6263.00    1.16359   1.14525    0.213
 6264.00    1.19129   1.15025    0.209
 6265.00    1.21911   1.15471    0.203
 6266.00    1.22213   1.15901    0.192
 6267.00    1.21913   1.16268    0.181
 6268.00    1.21595   1.16598    0.176
 6269.00    1.21274   1.16877    0.172
 6270.00    1.21247   1.17113    0.171
 6271.00    1.21266   1.17315    0.171
 6272.00    1.21241   1.17471    0.170
 6273.00    1.21212   1.17611    0.169
 6274.00    1.21368   1.17705    0.171
 6275.00    1.21538   1.17802    0.174
 6276.00    1.21608   1.17863    0.175
 6277.00    1.21675   1.17949    0.176
 6278.00    1.21482   1.18024    0.175
 6279.00    1.21291   1.18142    0.175
 6280.00    1.21238   1.18276    0.000
 6281.00    1.21207   1.18454    0.000
 6282.00    1.21541   1.18662    0.000
 6283.00    1.21883   1.18892    0.000
 6284.00    1.22311   1.19138    0.000
 6285.00    1.22814   1.19363    0.000
 6286.00    1.23873   1.19570    0.000
 6287.00    1.24764   1.19713    0.000
 6288.00    1.24702   1.19803    0.000
 6289.00    1.24638   1.19807    0.000
 6290.00    1.24567   1.19744    0.000
 6291.00    1.24453   1.19605    0.000
 6292.00    1.24176   1.19417    0.000
 6293.00    1.23871   1.19194    0.000
 6294.00    1.23478   1.18960    0.000
 6295.00    1.23196   1.18740    0.000
 6296.00    1.23202   1.18552    0.000
 6297.00    1.23091   1.18419    0.000
 6298.00    1.22713   1.18343    0.000
 6299.00    1.22350   1.18344    0.000
 6300.00    1.22014   1.18405    0.000
 6301.00    1.21911   1.18539    0.000
 6302.00    1.22203   1.18716    0.000
 6303.00    1.22427   1.18943    0.000
 6304.00    1.22549   1.19177    0.000
 6305.00    1.22597   1.19426    0.000
 6306.00    1.22550   1.19640    0.000
 6307.00    1.22463   1.19834    0.000
 6308.00    1.22331   1.19960    0.000
 6309.00    1.22428   1.20044    0.000
 6310.00    1.22761   1.20054    0.000
 6311.00    1.22750   1.20025    0.000
 6312.00    1.22427   1.19946    0.000
 6313.00    1.21921   1.19857    0.000
 6314.00    1.21269   1.19764    0.000
 6315.00    1.20413   1.19704    0.000
 6316.00    1.19414   1.19681    0.000
 6317.00    1.18992   1.19730    0.000
 6318.00    1.18924   1.19837    0.000
 6319.00    1.19455   1.20029    0.000
 6320.00    1.20306   1.20272    0.000
 6321.00    1.20813   1.20580    0.171
 6322.00    1.21159   1.20915    0.171
 6323.00    1.22212   1.21268    0.171
 6324.00    1.23548   1.21618    0.171
 6325.00    1.24828   1.21936    0.172
 6326.00    1.26090   1.22221    0.173
 6327.00    1.26291   1.22441    0.173
 6328.00    1.26188   1.22604    0.173
 6329.00    1.25704   1.22694    0.174
 6330.00    1.25130   1.22715    0.174
 6331.00    1.24920   1.22681    0.174
 6332.00    1.24779   1.22585    0.173
 6333.00    1.24314   1.22465    0.174
 6334.00    1.23801   1.22308    0.175
 6335.00    1.23126   1.22157    0.175
 6336.00    1.22433   1.22004    0.175
 6337.00    1.21608   1.21875    0.177
 6338.00    1.20773   1.21771    0.179
 6339.00    1.20978   1.21698    0.177
 6340.00    1.21221   1.21662    0.175
 6341.00    1.21167   1.21656    0.177
 6342.00    1.21133   1.21686    0.179
 6343.00    1.21859   1.21748    0.177
 6344.00    1.22572   1.21827    0.175
 6345.00    1.23061   1.21934    0.175
 6346.00    1.23515   1.22025    0.176
 6347.00    1.23609   1.22128    0.174
 6348.00    1.23747   1.22169    0.172
 6349.00    1.24202   1.22191    0.171
 6350.00    1.24567   1.22109    0.171
 6351.00    1.24440   1.21976    0.171
 6352.00    1.24188   1.21725    0.171
 6353.00    1.23386   1.21415    0.172
 6354.00    1.22777   1.21013    0.172
 6355.00    1.22866   1.20578    0.172
 6356.00    1.22904   1.20113    0.173
 6357.00    1.22789   1.19675    0.174
 6358.00    1.22317   1.19285    0.175
 6359.00    1.20920   1.18989    0.175
 6360.00    1.19608   1.18806    0.175
 6361.00    1.18484   1.18766    0.177
 6362.00    1.17925   1.18869    0.178
 6363.00    1.18455   1.19120    0.178
 6364.00    1.19237   1.19498    0.179
 6365.00    1.20443   1.19985    0.181
 6366.00    1.21834   1.20545    0.183
 6367.00    1.23499   1.21146    0.182
 6368.00    1.24669   1.21751    0.181
 6369.00    1.25198   1.22329    0.181
 6370.00    1.25518   1.22847    0.179
 6371.00    1.25598   1.23292    0.176
 6372.00    1.25846   1.23638    0.175
 6373.00    1.26265   1.23895    0.175
 6374.00    1.26572   1.24050    0.175
 6375.00    1.26781   1.24126    0.173
 6376.00    1.26622   1.24129    0.172
 6377.00    1.26175   1.24078    0.172
 6378.00    1.25684   1.23998    0.171
 6379.00    1.25163   1.23893    0.172
 6380.00    1.24797   1.23798    0.172
 6381.00    1.24525   1.23695    0.171
 6382.00    1.24915   1.23621    0.173
 6383.00    1.25654   1.23540    0.175
 6384.00    1.26586   1.23480    0.176
 6385.00    1.27607   1.23402    0.176
 6386.00    1.27928   1.23329    0.177
 6387.00    1.27973   1.23224    0.177
 6388.00    1.27848   1.23119    0.175
 6389.00    1.27666   1.22981    0.173
 6390.00    1.26605   1.22855    0.174
 6391.00    1.25298   1.22707    0.176
 6392.00    1.24773   1.22600    0.178
 6393.00    1.24429   1.22489    0.181
 6394.00    1.24542   1.22442    0.183
 6395.00    1.24740   1.22410    0.185
 6396.00    1.24773   1.22444    0.184
 6397.00    1.24782   1.22505    0.182
 6398.00    1.25032   1.22615    0.181
 6399.00    1.25307   1.22754    0.180
 6400.00    1.24968   1.22912    0.177
 6401.00    1.24589   1.23086    0.174
 6402.00    1.24619   1.23249    0.174
 6403.00    1.24663   1.23405    0.175
 6404.00    1.25201   1.23530    0.175
 6405.00    1.25726   1.23629    0.176
 6406.00    1.25812   1.23687    0.175
 6407.00    1.25808   1.23718    0.174
 6408.00    1.24465   1.23712    0.175
 6409.00    1.23232   1.23690    0.175
 6410.00    1.23058   1.23649    0.175
 6411.00    1.22992   1.23610    0.175
 6412.00    1.23676   1.23571    0.176
 6413.00    1.24328   1.23542    0.176
 6414.00    1.24808   1.23529    0.177
 6415.00    1.25203   1.23533    0.178
 6416.00    1.25236   1.23556    0.180
 6417.00    1.25211   1.23605    0.181
 6418.00    1.24977   1.23674    0.180
 6419.00    1.24785   1.23775    0.178
 6420.00    1.24722   1.23886    0.178
 6421.00    1.24635   1.24025    0.178
 6422.00    1.24488   1.24153    0.178
 6423.00    1.24534   1.24296    0.178
 6424.00    1.25004   1.24399    0.176
 6425.00    1.25395   1.24497    0.176
 6426.00    1.25635   1.24538    0.177
 6427.00    1.25525   1.24563    0.178
 6428.00    1.24835   1.24540    0.176
 6429.00    1.24288   1.24506    0.176
 6430.00    1.23949   1.24456    0.177
 6431.00    1.24080   1.24410    0.177
 6432.00    1.24815   1.24389    0.176
 6433.00    1.25175   1.24382    0.176
 6434.00    1.25114   1.24425    0.175
 6435.00    1.24972   1.24480    0.175
 6436.00    1.24750   1.24596    0.176
 6437.00    1.24732   1.24712    0.177
 6438.00    1.24893   1.24870    0.179
 6439.00    1.25160   1.25005    0.180
 6440.00    1.25507   1.25147    0.182
 6441.00    1.25814   1.25240    0.182
 6442.00    1.26095   1.25299    0.182
 6443.00    1.27146   1.25293    0.182
 6444.00    1.28656   1.25218    0.183
 6445.00    1.28038   1.25088    0.182
 6446.00    1.26316   1.24899    0.180
 6447.00    1.24957   1.24702    0.180
 6448.00    1.23761   1.24486    0.181
 6449.00    1.23569   1.24325    0.181
 6450.00    1.23765   1.24195    0.181
 6451.00    1.24200   1.24163    0.178
 6452.00    1.24714   1.24178    0.175
 6453.00    1.24934   1.24290    0.174
 6454.00    1.25074   1.24432    0.175
 6455.00    1.25110   1.24631    0.175
 6456.00    1.25123   1.24813    0.176
 6457.00    1.25209   1.25002    0.176
 6458.00    1.25307   1.25140    0.176
 6459.00    1.25526   1.25265    0.178
 6460.00    1.25762   1.25333    0.180
 6461.00    1.25513   1.25393    0.179
 6462.00    1.25215   1.25421    0.178
 6463.00    1.26048   1.25455    0.178
 6464.00    1.26952   1.25495    0.179
 6465.00    1.28414   1.25546    0.180
 6466.00    1.29887   1.25630    0.182
 6467.00    1.29752   1.25700    0.183
 6468.00    1.29620   1.25811    0.183
 6469.00    1.29596   1.25875    0.182
 6470.00    1.29572   1.25971    0.181
 6471.00    1.29560   1.26003    0.184
 6472.00    1.29561   1.26055    0.186
 6473.00    1.29693   1.26043    0.184
 6474.00    1.29822   1.26021    0.183
 6475.00    1.29927   1.25956    0.182
 6476.00    1.30005   1.25862    0.182
 6477.00    1.29932   1.25751    0.181
 6478.00    1.29855   1.25602    0.181
 6479.00    1.29755   1.25460    0.178
 6480.00    1.29595   1.25276    0.176
 6481.00    1.29222   1.25109    0.177
 6482.00    1.28871   1.24895    0.177
 6483.00    1.28585   1.24679    0.178
 6484.00    1.28335   1.24402    0.178
 6485.00    1.28176   1.24092    0.177
 6486.00    1.27823   1.23692    0.177
 6487.00    1.27048   1.23222    0.178
 6488.00    1.26033   1.22653    0.179
 6489.00    1.24566   1.22016    0.180
 6490.00    1.23410   1.21302    0.181
 6491.00    1.22761   1.20585    0.181
 6492.00    1.22363   1.19868    0.182
 6493.00    1.22325   1.19235    0.185
 6494.00    1.21685   1.18702    0.185
 6495.00    1.20287   1.18336    0.184
 6496.00    1.19248   1.18168    0.182
 6497.00    1.18607   1.18186    0.181
 6498.00    1.18831   1.18442    0.181
 6499.00    1.19903   1.18834    0.181
 6500.00    1.20640   1.19436    0.180
 6501.00    1.21087   1.20076    0.178
 6502.00    1.22520   1.20838    0.177
 6503.00    1.24703   1.21558    0.176
 6504.00    1.26405   1.22308    0.176
 6505.00    1.27785   1.22961    0.178
 6506.00    1.28107   1.23556    0.179
 6507.00    1.27808   1.24054    0.179
 6508.00    1.27907   1.24453    0.179
 6509.00    1.28210   1.24780    0.179
 6510.00    1.28343   1.25006    0.179
 6511.00    1.28400   1.25187    0.180
 6512.00    1.28731   1.25294    0.181
 6513.00    1.29166   1.25382    0.182
 6514.00    1.29349   1.25425    0.182
 6515.00    1.29451   1.25475    0.181
 6516.00    1.29967   1.25510    0.183
 6517.00    1.30595   1.25566    0.186
 6518.00    1.30839   1.25623    0.186
 6519.00    1.30997   1.25700    0.184
 6520.00    1.31210   1.25778    0.183
 6521.00    1.31434   1.25864    0.183
 6522.00    1.30668   1.25948    0.182
 6523.00    1.29769   1.26023    0.181
 6524.00    1.29600   1.26083    0.183
 6525.00    1.29501   1.26129    0.185
 6526.00    1.29200   1.26161    0.184
 6527.00    1.28888   1.26180    0.182
 6528.00    1.28966   1.26191    0.000
 6529.00    1.29052   1.26199    0.000
 6530.00    1.28909   1.26210    0.000
 6531.00    1.28774   1.26229    0.000
 6532.00    1.28839   1.26254    0.000
 6533.00    1.28931   1.26277    0.000
 6534.00    1.29402   1.26301    0.000
 6535.00    1.29840   1.26305    0.000
 6536.00    1.29993   1.26286    0.000
 6537.00    1.30238   1.26217    0.000
 6538.00    1.31082   1.26102    0.000
 6539.00    1.31851   1.25917    0.000
 6540.00    1.32238   1.25682    0.000
 6541.00    1.32609   1.25371    0.000
 6542.00    1.32912   1.25014    0.000
 6543.00    1.33020   1.24588    0.000
 6544.00    1.32458   1.24130    0.000
 6545.00    1.32219   1.23632    0.000
 6546.00    1.32906   1.23103    0.000
 6547.00    1.33438   1.22543    0.000
 6548.00    1.33589   1.21938    0.000
 6549.00    1.33454   1.21293    0.000
 6550.00    1.32714   1.20577    0.000
 6551.00    1.31825   1.19801    0.000
 6552.00    1.30665   1.18918    0.000
 6553.00    1.29500   1.17975    0.000
 6554.00    1.28327   1.16930    0.000
 6555.00    1.27012   1.15831    0.000
 6556.00    1.25496   1.14666    0.000
 6557.00    1.24698   1.13519    0.000
 6558.00    1.24793   1.12405    0.000
 6559.00    1.25068   1.11429    0.000
 6560.00    1.25541   1.10613    0.000
 6561.00    1.25971   1.10034    0.000
 6562.00    1.26361   1.09731    0.000
 6563.00    1.26535   1.09714    0.000
 6564.00    1.26527   1.10001    0.000
 6565.00    1.26554   1.10531    0.000
 6566.00    1.26608   1.11301    0.000
 6567.00    1.25774   1.12202    0.000
 6568.00    1.24354   1.13206    0.000
 6569.00    1.23697   1.14232    0.000
 6570.00    1.23480   1.15298    0.000
 6571.00    1.23222   1.16298    0.000
 6572.00    1.22943   1.17202    0.000
 6573.00    1.23418   1.17995    0.000
 6574.00    1.24220   1.18732    0.000
 6575.00    1.25060   1.19347    0.000
 6576.00    1.25915   1.19964    0.000
 6577.00    1.28162   1.20485    0.000
 6578.00    1.30851   1.21025    0.000
 6579.00    1.33929   1.21460    0.000
 6580.00    1.37109   1.21930    0.000
 6581.00    1.40671   1.22305    0.000
 6582.00    1.44314   1.22672    0.000
 6583.00    1.46189   1.22975    0.000
 6584.00    1.47760   1.23197    0.000
 6585.00    1.46829   1.23393    0.000
 6586.00    1.45574   1.23453    0.000
 6587.00    1.42990   1.23525    0.000
 6588.00    1.40286   1.23448    0.000
 6589.00    1.37337   1.23425    0.000
 6590.00    1.34375   1.23280    0.000
 6591.00    1.32382   1.23184    0.000
 6592.00    1.30411   1.23052    0.000
 6593.00    1.28625   1.22966    0.000
 6594.00    1.26883   1.22927    0.000
 6595.00    1.26149   1.22910    0.000
 6596.00    1.25445   1.22965    0.000
 6597.00    1.25130   1.23030    0.000
 6598.00    1.24965   1.23142    0.000
 6599.00    1.26081   1.23237    0.000
 6600.00    1.27130   1.23368    0.000
 6601.00    1.27759   1.23462    0.000
 6602.00    1.28275   1.23535    0.000
 6603.00    1.28231   1.23552    0.000
 6604.00    1.28111   1.23567    0.000
 6605.00    1.27685   1.23555    0.000
 6606.00    1.27265   1.23574    0.000
 6607.00    1.26866   1.23592    0.000
 6608.00    1.26330   1.23656    0.000
 6609.00    1.25404   1.23739    0.189
 6610.00    1.25175   1.23889    0.191
 6611.00    1.26629   1.24057    0.191
 6612.00    1.27822   1.24266    0.190
 6613.00    1.28470   1.24482    0.190
 6614.00    1.29305   1.24681    0.190
 6615.00    1.30478   1.24874    0.194
 6616.00    1.31056   1.24998    0.196
 6617.00    1.30689   1.25112    0.195
 6618.00    1.30277   1.25111    0.193
 6619.00    1.29801   1.25081    0.191
 6620.00    1.29302   1.24961    0.190
 6621.00    1.28774   1.24818    0.191
 6622.00    1.28746   1.24621    0.192
 6623.00    1.29258   1.24388    0.193
 6624.00    1.29391   1.24151    0.192
 6625.00    1.29162   1.23899    0.190
 6626.00    1.28527   1.23676    0.189
 6627.00    1.27552   1.23448    0.190
 6628.00    1.26374   1.23263    0.190
 6629.00    1.25047   1.23091    0.190
 6630.00    1.24190   1.22974    0.189
 6631.00    1.23639   1.22885    0.187
 6632.00    1.23133   1.22844    0.187
 6633.00    1.22653   1.22836    0.187
 6634.00    1.23052   1.22840    0.188
 6635.00    1.23886   1.22882    0.190
 6636.00    1.24872   1.22937    0.192
 6637.00    1.25924   1.23010    0.194
 6638.00    1.26559   1.23083    0.195
 6639.00    1.27041   1.23159    0.197
 6640.00    1.27516   1.23235    0.199
 6641.00    1.27989   1.23299    0.202
 6642.00    1.27403   1.23358    0.202
 6643.00    1.26542   1.23391    0.201
 6644.00    1.26658   1.23428    0.201
 6645.00    1.26980   1.23450    0.202
 6646.00    1.26198   1.23478    0.200
 6647.00    1.25231   1.23489    0.197
 6648.00    1.25257   1.23497    0.195
 6649.00    1.25407   1.23500    0.194
 6650.00    1.26151   1.23476    0.194
 6651.00    1.26947   1.23457    0.193
 6652.00    1.27216   1.23384    0.192
 6653.00    1.27459   1.23318    0.190
 6654.00    1.27989   1.23181    0.190
 6655.00    1.28511   1.23060    0.190
 6656.00    1.28011   1.22884    0.192
 6657.00    1.27528   1.22709    0.194
 6658.00    1.27411   1.22509    0.195
 6659.00    1.27276   1.22312    0.196
 6660.00    1.26939   1.22138    0.196
 6661.00    1.26442   1.21959    0.196
 6662.00    1.24613   1.21849    0.198
 6663.00    1.23053   1.21734    0.200
 6664.00    1.23157   1.21705    0.200
 6665.00    1.23298   1.21683    0.200
 6666.00    1.23622   1.21719    0.200
 6667.00    1.23984   1.21759    0.201
 6668.00    1.24499   1.21787    0.204
 6669.00    1.25046   1.21822    0.206
 6670.00    1.25703   1.21795    0.202
 6671.00    1.26103   1.21779    0.198
 6672.00    1.25792   1.21657    0.196
 6673.00    1.25184   1.21534    0.194
 6674.00    1.23874   1.21346    0.193
 6675.00    1.23121   1.21167    0.193
 6676.00    1.23513   1.20981    0.194
 6677.00    1.23884   1.20821    0.196
 6678.00    1.24217   1.20734    0.196
 6679.00    1.24688   1.20672    0.198
 6680.00    1.25375   1.20743    0.201
 6681.00    1.25955   1.20806    0.203
 6682.00    1.26387   1.20996    0.204
 6683.00    1.26754   1.21190    0.205
 6684.00    1.27040   1.21464    0.204
 6685.00    1.27086   1.21703    0.204
 6686.00    1.26873   1.21930    0.204
 6687.00    1.26499   1.22114    0.205
 6688.00    1.25974   1.22247    0.207
 6689.00    1.25932   1.22349    0.207
 6690.00    1.26292   1.22394    0.207
 6691.00    1.26120   1.22421    0.207
 6692.00    1.25562   1.22396    0.207
 6693.00    1.25096   1.22379    0.207
 6694.00    1.24691   1.22327    0.208
 6695.00    1.23382   1.22291    0.204
 6696.00    1.21567   1.22244    0.000
 6697.00    1.21499   1.22222    0.000
 6698.00    1.22282   1.22202    0.000
 6699.00    1.23244   1.22199    0.000
 6700.00    1.24281   1.22199    0.000
 6701.00    1.24413   1.22198    0.000
 6702.00    1.24219   1.22216    0.000
 6703.00    1.23746   1.22204    0.000
 6704.00    1.23189   1.22190    0.000
 6705.00    1.23341   1.22133    0.000
 6706.00    1.23672   1.22033    0.000
 6707.00    1.24250   1.21904    0.000
 6708.00    1.24878   1.21712    0.000
 6709.00    1.25031   1.21518    0.000
 6710.00    1.25108   1.21285    0.000
 6711.00    1.25893   1.21041    0.000
 6712.00    1.26764   1.20789    0.000
 6713.00    1.27320   1.20536    0.000
 6714.00    1.27849   1.20319    0.000
 6715.00    1.28367   1.20123    0.000
 6716.00    1.28885   1.20009    0.000
 6717.00    1.29829   1.19920    0.000
 6718.00    1.30732   1.19912    0.000
 6719.00    1.28925   1.19960    0.000
 6720.00    1.27158   1.20055    0.000
 6721.00    1.26166   1.20222    0.000
 6722.00    1.25228   1.20394    0.000
 6723.00    1.24928   1.20640    0.000
 6724.00    1.24727   1.20844    0.000
 6725.00    1.25315   1.21064    0.000
 6726.00    1.25862   1.21248    0.000
 6727.00    1.26154   1.21426    0.000
 6728.00    1.26738   1.21571    0.000
 6729.00    1.28708   1.21670    0.000
 6730.00    1.30515   1.21741    0.000
 6731.00    1.31698   1.21764    0.000
 6732.00    1.32371   1.21784    0.000
 6733.00    1.31405   1.21731    0.000
 6734.00    1.30939   1.21687    0.000
 6735.00    1.31841   1.21573    0.000
 6736.00    1.31596   1.21462    0.000
 6737.00    1.28675   1.21308    0.000
 6738.00    1.26629   1.21168    0.000
 6739.00    1.26354   1.21003    0.000
 6740.00    1.25473   1.20854    0.000
 6741.00    1.23530   1.20689    0.000
 6742.00    1.22427   1.20538    0.000
 6743.00    1.22618   1.20390    0.000
 6744.00    1.22395   1.20268    0.000
 6745.00    1.21611   1.20187    0.000
 6746.00    1.21272   1.20093    0.000
 6747.00    1.21464   1.20062    0.000
 6748.00    1.21235   1.20048    0.000
 6749.00    1.20564   1.20120    0.000
 6750.00    1.19615   1.20181    0.000
 6751.00    1.18408   1.20336    0.000
 6752.00    1.18220   1.20503    0.000
 6753.00    1.18864   1.20721    0.226
 6754.00    1.19290   1.20969    0.231
 6755.00    1.19558   1.21205    0.235
 6756.00    1.20324   1.21491    0.239
 6757.00    1.21404   1.21679    0.245
 6758.00    1.24844   1.21922    0.250
 6759.00    1.29586   1.22072    0.255
 6760.00    1.33885   1.22182    0.259
 6761.00    1.37971   1.22250    0.262
 6762.00    1.41165   1.22253    0.265
 6763.00    1.43990   1.22237    0.269
 6764.00    1.44915   1.22164    0.271
 6765.00    1.45168   1.22126    0.272
 6766.00    1.44791   1.22053    0.267
 6767.00    1.44227   1.22052    0.260
 6768.00    1.42687   1.22056    0.252
 6769.00    1.40905   1.22116    0.245
 6770.00    1.40713   1.22189    0.244
 6771.00    1.40839   1.22299    0.245
 6772.00    1.37144   1.22452    0.240
 6773.00    1.32848   1.22596    0.235
 6774.00    1.30963   1.22723    0.235
 6775.00    1.29360   1.22784    0.236
 6776.00    1.27259   1.22823    0.235
 6777.00    1.25119   1.22790    0.234
 6778.00    1.28084   1.22709    0.241
 6779.00    1.31271   1.22554    0.248
 6780.00    1.31754   1.22364    0.251
 6781.00    1.32203   1.22134    0.254
 6782.00    1.32326   1.21879    0.253
 6783.00    1.32469   1.21647    0.252
 6784.00    1.32954   1.21416    0.252
 6785.00    1.33394   1.21233    0.251
 6786.00    1.33329   1.21062    0.250
 6787.00    1.33081   1.20961    0.249
 6788.00    1.31417   1.20906    0.245
 6789.00    1.30087   1.20918    0.241
 6790.00    1.30699   1.20978    0.240
 6791.00    1.31130   1.21052    0.240
 6792.00    1.30729   1.21169    0.238
 6793.00    1.30734   1.21268    0.237
 6794.00    1.32269   1.21390    0.240
 6795.00    1.33163   1.21522    0.242
 6796.00    1.32031   1.21667    0.240
 6797.00    1.31515   1.21784    0.239
 6798.00    1.32646   1.21917    0.241
 6799.00    1.32442   1.22052    0.242
 6800.00    1.29169   1.22157    0.240
 6801.00    1.27181   1.22262    0.240
 6802.00    1.27747   1.22345    0.244
 6803.00    1.28350   1.22388    0.247
 6804.00    1.29019   1.22439    0.247
 6805.00    1.29299   1.22453    0.246
 6806.00    1.28989   1.22451    0.242
 6807.00    1.28653   1.22443    0.239
 6808.00    1.28282   1.22397    0.236
 6809.00    1.28424   1.22395    0.236
 6810.00    1.29169   1.22381    0.240
 6811.00    1.28864   1.22367    0.240
 6812.00    1.27475   1.22369    0.239
 6813.00    1.27772   1.22386    0.239
 6814.00    1.29607   1.22412    0.242
 6815.00    1.30486   1.22464    0.242
 6816.00    1.30596   1.22544    0.240
 6817.00    1.31041   1.22605    0.238
 6818.00    1.31722   1.22702    0.237
 6819.00    1.31739   1.22767    0.235
 6820.00    1.31343   1.22861    0.234
 6821.00    1.33036   1.22934    0.237
 6822.00    1.35864   1.22981    0.242
 6823.00    1.35787   1.23015    0.245
 6824.00    1.34340   1.23031    0.245
 6825.00    1.32778   1.23031    0.244
 6826.00    1.31170   1.23011    0.242
 6827.00    1.30217   1.22990    0.243
 6828.00    1.29490   1.22934    0.245
 6829.00    1.30393   1.22875    0.248
 6830.00    1.31773   1.22781    0.251
 6831.00    1.31923   1.22699    0.247
 6832.00    1.31776   1.22566    0.242
 6833.00    1.31452   1.22452    0.240
 6834.00    1.31093   1.22316    0.239
 6835.00    1.30600   1.22172    0.239
 6836.00    1.30085   1.22032    0.239
 6837.00    1.28597   1.21874    0.241
 6838.00    1.27000   1.21767    0.243
 6839.00    1.28033   1.21644    0.245
 6840.00    1.29264   1.21557    0.247
 6841.00    1.29241   1.21483    0.244
 6842.00    1.29169   1.21454    0.241
 6843.00    1.26642   1.21447    0.235
 6844.00    1.24170   1.21468    0.230
 6845.00    1.24625   1.21526    0.232
 6846.00    1.25156   1.21586    0.235
 6847.00    1.26987   1.21658    0.239
 6848.00    1.28942   1.21679    0.244
 6849.00    1.32193   1.21701    0.247
 6850.00    1.34785   1.21670    0.250
 6851.00    1.32472   1.21616    0.247
 6852.00    1.30549   1.21544    0.244
 6853.00    1.30838   1.21438    0.242
 6854.00    1.30762   1.21306    0.240
 6855.00    1.29036   1.21184    0.239
 6856.00    1.27038   1.21093    0.238
 6857.00    1.24032   1.21006    0.237
 6858.00    1.22088   1.20939    0.236
 6859.00    1.23430   1.20874    0.234
 6860.00    1.24577   1.20846    0.233
 6861.00    1.25213   1.20848    0.233
 6862.00    1.25733   1.20859    0.233
 6863.00    1.25993   1.20900    0.233
 6864.00    1.26058   1.20922    0.235
 6865.00    1.25740   1.20951    0.238
 6866.00    1.25780   1.20998    0.241
 6867.00    1.26432   1.21073    0.245
 6868.00    1.27673   1.21135    0.247
 6869.00    1.29792   1.21184    0.249
 6870.00    1.30564   1.21249    0.250
 6871.00    1.29566   1.21328    0.252
 6872.00    1.29565   1.21432    0.252
 6873.00    1.30717   1.21545    0.249
 6874.00    1.30154   1.21673    0.247
 6875.00    1.27839   1.21768    0.246
 6876.00    1.26839   1.21870    0.245
 6877.00    1.27022   1.21985    0.243
 6878.00    1.26464   1.22130    0.240
 6879.00    1.25319   1.22223    0.237
 6880.00    1.25096   1.22371    0.235
 6881.00    1.25517   1.22489    0.234
 6882.00    1.27181   1.22647    0.235
 6883.00    1.29606   1.22791    0.238
 6884.00    1.29555   1.22955    0.239
 6885.00    1.28182   1.23133    0.239
 6886.00    1.28014   1.23314    0.239
 6887.00    1.28406   1.23546    0.240
 6888.00    1.27638   1.23734    0.239
 6889.00    1.26407   1.23961    0.237
 6890.00    1.26377   1.24121    0.238
 6891.00    1.26757   1.24289    0.241
 6892.00    1.26912   1.24424    0.244
 6893.00    1.27004   1.24523    0.247
 6894.00    1.27442   1.24597    0.248
 6895.00    1.27962   1.24674    0.248
 6896.00    1.27948   1.24716    0.248
 6897.00    1.27831   1.24769    0.248
 6898.00    1.28275   1.24811    0.245
 6899.00    1.28801   1.24876    0.242
 6900.00    1.28851   1.24932    0.244
 6901.00    1.28850   1.25006    0.246
 6902.00    1.30210   1.25088    0.246
 6903.00    1.31667   1.25149    0.246
 6904.00    1.31131   1.25214    0.243
 6905.00    1.30524   1.25248    0.240
 6906.00    1.30248   1.25298    0.239
 6907.00    1.29929   1.25278    0.237
 6908.00    1.28066   1.25274    0.236
 6909.00    1.26276   1.25234    0.234
 6910.00    1.25632   1.25182    0.236
 6911.00    1.25185   1.25144    0.238
 6912.00    1.26704   1.25058    0.239
 6913.00    1.27906   1.25012    0.240
 6914.00    1.26821   1.24937    0.244
 6915.00    1.25827   1.24899    0.248
 6916.00    1.25326   1.24843    0.247
 6917.00    1.25344   1.24806    0.247
 6918.00    1.27649   1.24789    0.250
 6919.00    1.29266   1.24736    0.252
 6920.00    1.28389   1.24764    0.250
 6921.00    1.27853   1.24721    0.249
 6922.00    1.28354   1.24742    0.246
 6923.00    1.28614   1.24753    0.244
 6924.00    1.28253   1.24745    0.243
 6925.00    1.27529   1.24789    0.243
 6926.00    1.25998   1.24763    0.242
 6927.00    1.25011   1.24835    0.242
 6928.00    1.25073   1.24855    0.243
 6929.00    1.26059   1.24953    0.243
 6930.00    1.28601   1.25061    0.244
 6931.00    1.30131   1.25159    0.244
 6932.00    1.30170   1.25306    0.244
 6933.00    1.29223   1.25377    0.244
 6934.00    1.26999   1.25517    0.247
 6935.00    1.26389   1.25575    0.249
 6936.00    1.27621   1.25665    0.251
 6937.00    1.28666   1.25722    0.254
 6938.00    1.29524   1.25734    0.259
 6939.00    1.29084   1.25788    0.260
 6940.00    1.27493   1.25761    0.257
 6941.00    1.27666   1.25771    0.256
 6942.00    1.29217   1.25755    0.257
 6943.00    1.29775   1.25734    0.254
 6944.00    1.29650   1.25706    0.251
 6945.00    1.29370   1.25659    0.251
 6946.00    1.28996   1.25622    0.254
 6947.00    1.28958   1.25574    0.252
 6948.00    1.29098   1.25581    0.247
 6949.00    1.28665   1.25596    0.245
 6950.00    1.27970   1.25652    0.245
 6951.00    1.26793   1.25724    0.243
 6952.00    1.25428   1.25820    0.240
 6953.00    1.25804   1.25883    0.243
 6954.00    1.26763   1.26012    0.248
 6955.00    1.27260   1.26118    0.250
 6956.00    1.27627   1.26259    0.250
 6957.00    1.28311   1.26433    0.254
 6958.00    1.29067   1.26581    0.259
 6959.00    1.29640   1.26768    0.260
 6960.00    1.30177   1.26902    0.260
 6961.00    1.29128   1.27055    0.257
 6962.00    1.27852   1.27148    0.254
 6963.00    1.25778   1.27250    0.254
 6964.00    1.23621   1.27291    0.254
 6965.00    1.25296   1.27305    0.253
 6966.00    1.27226   1.27283    0.252
 6967.00    1.27582   1.27209    0.253
 6968.00    1.27888   1.27101    0.254
 6969.00    1.28466   1.26933    0.253
 6970.00    1.28980   1.26718    0.252
 6971.00    1.27573   1.26454    0.252
 6972.00    1.26214   1.26166    0.252
 6973.00    1.25562   1.25849    0.252
 6974.00    1.24787   1.25542    0.252
 6975.00    1.22822   1.25328    0.249
 6976.00    1.21163   1.25126    0.247
 6977.00    1.21630   1.25006    0.251
 6978.00    1.22089   1.24944    0.255
 6979.00    1.22509   1.24938    0.257
 6980.00    1.22952   1.25019    0.258
 6981.00    1.23501   1.25144    0.258
 6982.00    1.23993   1.25376    0.257
 6983.00    1.24281   1.25615    0.260
 6984.00    1.24789   1.25910    0.261
 6985.00    1.25947   1.26190    0.259
 6986.00    1.26359   1.26436    0.258
 6987.00    1.24876   1.26654    0.256
 6988.00    1.24303   1.26822    0.256
 6989.00    1.25719   1.26943    0.257
 6990.00    1.26514   1.27018    0.256
 6991.00    1.26128   1.27080    0.253
 6992.00    1.26273   1.27082    0.250
 6993.00    1.27296   1.27086    0.251
 6994.00    1.27226   1.27050    0.251
 6995.00    1.25570   1.27004    0.251
 6996.00    1.25103   1.26965    0.253
 6997.00    1.26154   1.26887    0.256
 6998.00    1.27134   1.26851    0.258
 6999.00    1.28032   1.26741    0.258
 7000.00    1.27803   1.26708    0.257
 7001.00    1.26454   1.26635    0.256
 7002.00    1.01480   1.26582    0.210
 7003.00    0.55835   1.26564    0.157
 7004.00    0.57900   1.26533    0.199
 7005.00    0.96738   1.26558    0.692
 7006.00    1.12598   1.26511   -1.000
 7007.00    1.12888   1.26516   -1.000
 7008.00    1.12925   1.26485   -1.000
 7009.00    1.12812   1.26435   -1.000
 7010.00    1.12767   1.26393   -1.000
 7011.00    1.12757   1.26309   -1.000
 7012.00    1.13095   1.26289   -1.000
 7013.00    1.13588   1.26262   -1.000
 7014.00    1.13047   1.26260   -1.000
 7015.00    1.12107   1.26243   -1.000
 7016.00    1.12179   1.26231   -1.000
 7017.00    1.12582   1.26236   -1.000
 7018.00    1.12360   1.26193   -1.000
 7019.00    1.11964   1.26228   -1.000
 7020.00    1.11617   1.26292   -1.000
 7021.00    1.11281   1.26414   -1.000
 7022.00    1.11484   1.26522   -1.000
 7023.00    1.11784   1.26646   -1.000
 7024.00    1.12640   1.26750   -1.000
 7025.00    1.13572   1.26862   -1.000
 7026.00    1.14379   1.26995   -1.000
 7027.00    1.15172   1.27131   -1.000
 7028.00    1.14779   1.27325   -1.000
 7029.00    1.14311   1.27517   -1.000
 7030.00    1.13615   1.27742   -1.000
 7031.00    1.12918   1.27942   -1.000
 7032.00    1.13622   1.28154   -1.000
 7033.00    1.14305   1.28336   -1.000
 7034.00    1.14415   1.28555   -1.000
 7035.00    1.14569   1.28838   -1.000
 7036.00    1.15344   1.29116   -1.000
 7037.00    1.16026   1.29414   -1.000
 7038.00    1.15846   1.29689   -1.000
 7039.00    1.15736   1.29966   -1.000
 7040.00    1.16097   1.30171   -1.000
 7041.00    1.16381   1.30422   -1.000
 7042.00    1.16268   1.30670   -1.000
 7043.00    1.16586   1.30857   -1.000
 7044.00    1.18722   1.31003   -1.000
 7045.00    1.20163   1.30993   -1.000
 7046.00    1.19188   1.30901   -1.000
 7047.00    1.18657   1.30650   -1.000
 7048.00    1.19421   1.30336   -1.000
 7049.00    1.20079   1.29974   -1.000
 7050.00    1.20469   1.29526   -2.000
 7051.00    1.20662   1.29101   -2.000
 7052.00    1.20432   1.28560   -2.000
 7053.00    1.20089   1.28016   -2.000
 7054.00    1.19536   1.27417   -2.000
 7055.00    1.19335   1.26822   -2.000
 7056.00    1.19707   1.26322   -2.000
 7057.00    1.20053   1.25855   -2.000
 7058.00    1.20361   1.25485   -2.000
 7059.00    1.21116   1.25161   -2.000
 7060.00    1.22431   1.24883   -2.000
 7061.00    1.23292   1.24603   -2.000
 7062.00    1.23650   1.24390   -2.000
 7063.00    1.24620   1.24233   -2.000
 7064.00    1.26188   1.24174   -2.000
 7065.00    1.25235   1.24199   -2.000
 7066.00    1.22106   1.24311   -2.000
 7067.00    1.19485   1.24443   -2.000
 7068.00    1.17248   1.24594   -2.000
 7069.00    1.18119   1.24822   -2.000
 7070.00    1.21064   1.25019   -2.000
 7071.00    1.23662   1.25283   -2.000
 7072.00    1.26058   1.25547   -2.000
 7073.00    1.27642   1.25811   -2.000
 7074.00    1.28812   1.25994   -2.000
 7075.00    1.28600   1.26111   -2.000
 7076.00    1.27776   1.26160   -2.000
 7077.00    1.27718   1.26050   -2.000
 7078.00    1.27951   1.25881   -2.000
 7079.00    1.27596   1.25564   -2.000
 7080.00    1.27052   1.25197   -2.000
 7081.00    1.27059   1.24796   -2.000
 7082.00    1.27215   1.24291   -2.000
 7083.00    1.25363   1.23741   -2.000
 7084.00    1.23068   1.23169   -2.000
 7085.00    1.21273   1.22600   -2.000
 7086.00    1.19566   1.22041   -2.000
 7087.00    1.19290   1.21566   -2.000
 7088.00    1.19206   1.21149   -2.000
 7089.00    1.18622   1.20826   -2.000
 7090.00    1.17991   1.20540   -2.000
 7091.00    1.16451   1.20364   -2.000
 7092.00    1.14857   1.20256   -2.000
 7093.00    1.14141   1.20186   -2.000
 7094.00    1.13456   1.20275   -2.000
 7095.00    1.13971   1.20277   -2.000
 7096.00    1.14385   1.20406   -2.000
 7097.00    1.12291   1.20474   -2.000
 7098.00    1.10288   1.20572   -2.000
 7099.00    1.09513   1.20714   -2.000
 7100.00    1.08657   1.20825   -2.000
 7101.00    1.07086   1.20978   -2.000
 7102.00    1.05818   1.21026   -2.000
 7103.00    1.06527   1.21122   -2.000
 7104.00    1.07113   1.21170   -2.000
 7105.00    1.07068   1.21191   -2.000
 7106.00    1.06738   1.21213   -2.000
 7107.00    1.05236   1.21269   -2.000
 7108.00    1.03911   1.21331   -2.000
 7109.00    1.03189   1.21393   -2.000
 7110.00    1.03083   1.21432   -2.000
 7111.00    1.04746   1.21517   -2.000
 7112.00    1.05971   1.21560   -2.000
 7113.00    1.06120   1.21597   -2.000
 7114.00    1.06446   1.21659   -2.000
 7115.00    1.07150   1.21683   -2.000
 7116.00    1.08314   1.21752   -2.000
 7117.00    1.10324   1.21682   -2.000
 7118.00    1.11680   1.21647   -2.000
 7119.00    1.11986   1.21536   -2.000
 7120.00    1.12492   1.21318   -2.000
 7121.00    1.13279   1.21089   -2.000
 7122.00    1.14385   1.20784   -2.000
 7123.00    1.15883   1.20551   -2.000
 7124.00    1.16068   1.20199   -2.000
 7125.00    1.14816   1.19868   -2.000
 7126.00    1.13656   1.19544   -2.000
 7127.00    1.12583   1.19251   -2.000
 7128.00    1.12834   1.19015   -2.000
 7129.00    1.14212   1.18841   -2.000
 7130.00    1.13815   1.18758   -2.000
 7131.00    1.12088   1.18681   -2.000
 7132.00    1.10741   1.18714   -2.000
 7133.00    1.09643   1.18725   -2.000
 7134.00    1.09223   1.18823   -2.000
 7135.00    1.09195   1.18960   -2.000
 7136.00    1.09420   1.19154   -2.000
 7137.00    1.09773   1.19336   -2.000
 7138.00    1.11436   1.19453   -2.000
 7139.00    1.13668   1.19634   -2.000
 7140.00    1.14268   1.19717   -2.000
 7141.00    1.14260   1.19824   -2.000
 7142.00    1.13114   1.19906   -2.000
 7143.00    1.11607   1.19929   -2.000
 7144.00    1.10046   1.20018   -2.000
 7145.00    1.08470   1.20074   -2.000
 7146.00    1.07505   1.20157   -2.000
 7147.00    1.06672   1.20254   -2.000
 7148.00    1.07521   1.20381   -2.000
 7149.00    1.08657   1.20532   -2.000
 7150.00    1.08647   1.20601   -2.000
 7151.00    1.08488   1.20800   -2.000
 7152.00    1.07718   1.21037   -2.000
 7153.00    1.06893   1.21215   -2.000
 7154.00    1.07653   1.21431   -2.000
 7155.00    1.08500   1.21598   -2.000
 7156.00    1.07448   1.21775   -2.000
 7157.00    1.06377   1.21907   -2.000
 7158.00    1.07140   1.22012   -2.000
 7159.00    1.07990   1.22116   -2.000
 7160.00    1.10807   1.22150   -2.000
 7161.00    1.13541   1.22257   -2.000
 7162.00    1.15239   1.22350   -2.000
 7163.00    1.17005   1.22478   -2.000
 7164.00    1.19346   1.22610   -2.000
 7165.00    1.21129   1.22740   -2.000
 7166.00    1.19372   1.22908   -2.000
 7167.00    1.17891   1.23077   -2.000
 7168.00    1.17780   1.23308   -2.000
 7169.00    1.17348   1.23510   -2.000
 7170.00    1.15624   1.23717   -2.000
 7171.00    1.13985   1.23859   -2.000
 7172.00    1.12632   1.23990   -2.000
 7173.00    1.11177   1.24131   -2.000
 7174.00    1.09435   1.24193   -2.000
 7175.00    1.08896   1.24179   -2.000
 7176.00    1.11255   1.24114   -2.000
 7177.00    1.13158   1.24039   -2.000
 7178.00    1.14111   1.23977   -2.000
 7179.00    1.14088   1.23886   -2.000
 7180.00    1.12298   1.23783   -2.000
 7181.00    1.10048   1.23656   -2.000
 7182.00    1.07073   1.23405   -2.000
 7183.00    1.05292   1.23218   -2.000
 7184.00    1.05171   1.23065   -2.000
 7185.00    1.04945   1.22960   -2.000
 7186.00    1.04589   1.22954   -2.000
 7187.00    1.05425   1.22820   -2.000
 7188.00    1.07545   1.22808   -2.000
 7189.00    1.07678   1.22697   -2.000
 7190.00    1.05922   1.22687   -2.000
 7191.00    1.04683   1.22772   -2.000
 7192.00    1.03878   1.22772   -2.000
 7193.00    1.04195   1.22986   -2.000
 7194.00    1.05341   1.23038   -2.000
 7195.00    1.05945   1.23152   -2.000
 7196.00    1.06199   1.23226   -2.000
 7197.00    1.04611   1.23263   -2.000
 7198.00    1.01978   1.23394   -2.000
 7199.00    1.04159   1.23394   -2.000
 7200.00    1.08719   1.23470   -2.000
 7201.00    1.10309   1.23473   -2.000
 7202.00    1.10632   1.23368   -2.000
 7203.00    1.10733   1.23362   -2.000
 7204.00    1.10753   1.23273   -2.000
 7205.00    1.07071   1.23320   -2.000
 7206.00    1.02242   1.23394   -2.000
 7207.00    1.00634   1.23411   -2.000
 7208.00    0.99858   1.23492   -2.000
 7209.00    0.99502   1.23471   -2.000
 7210.00    0.99235   1.23634   -2.000
 7211.00    0.99942   1.23790   -2.000
 7212.00    1.00812   1.24043   -2.000
 7213.00    1.01753   1.24388   -2.000
 7214.00    1.02703   1.24622   -2.000
 7215.00    1.01726   1.24902   -2.000
 7216.00    1.00583   1.25130   -2.000
 7217.00    1.01880   1.25442   -2.000
 7218.00    1.03302   1.25712   -2.000
