###################################################################
## OUTPUT of StarlightChains_v04.for    [Cid@UFSC - 01/Apr/2007] ##
###################################################################

## Some input info
KUG0210-078._28_33.txt                   [arq_obs]
Base.CB07.vall.4m                        [arq_base]
Masks.EmLines.NEW.gm                     [arq_masks]
StCv04.C11.config                        [arq_config]
   66                                    [N_base]
    0                                    [N_YAV_components = # of components with extra extinction!]
    0                                    [i_FitPowerLaw (1/0 = Yes/No)]
-9.99                                    [alpha_PowerLaw]
CCM                                      [red_law_option]
 1.458241                                [q_norm = A(l_norm)/A(V)]

## (Re)Sampling Parameters
 3741.00                                 [l_ini (A)]
 7218.00                                 [l_fin (A)]
    1.00                                 [dl    (A)]     (OBS: dl_cushion =    50.00 A)

## Normalization info
 4020.00                                 [l_norm (A) - for base]
 4010.00                                 [llow_norm (A) - window for f_obs]
 4060.00                                 [lupp_norm (A) - window for f_obs]
7.442722E-17                             [fobs_norm (in input units)]

## S/N
 3691.00                                 [llow_SN (A) - window for S/N]
 7268.00                                 [lupp_SN (A) - window for S/N]
   7.879                                 [S/N in S/N window]
   9.244                                 [S/N in norm. window]
   0.092                                 [S/N_err in S/N window]
   0.108                                 [S/N_err in norm. window]
  1.0000                                 [fscale_chi2]

## etc...
    -2007381                             [idum_orig]
  2432                                   [NOl_eff]
  2420                                   [Nl_eff]
    12    NSIGMA                         [Ntot_cliped & clip_method]
  6374760                                [Nglobal_steps]
   7                                     [N_chains]
  45                                     [NEX0s_base = N_base in EX0s-fits]
 0   0   1       12   2.0   1.063E+04    [Clip-Bug, RC-Crash & Burn-In warning-flags, n_censored_weights, wei_nsig_threshold & wei_limit]
    64     63.476     63.014      0.461  [idt_all, wdt_TotTime, wdt_UsrTime & wdt_SysTime (sec)]

## Synthesis Results - Best model ##

 7.13406E-05                             [chi2/Nl_eff]
     4.00007                             [adev (%)]

   107.52858                             [sum-of-x (%)]
 7.08673E-17                             [Flux_tot (units of input spectrum!)]
 2.67027E-12                             [Mini_tot (???)]
 1.34595E-12                             [Mcor_tot (???)]

 -67.53                                  [v0_min  (km/s)]
 298.45                                  [vd_min  (km/s)]
-0.0905                                  [AV_min  (mag)]
 0.0000                                  [YAV_min (mag)]

# j     x_j(%)      Mini_j(%)     Mcor_j(%)     age_j(yr)     Z_j      (L/M)_j    YAV?  Mstars   component_j        a/Fe...       SSP_chi2r SSP_adev(%)   SSP_AV   SSP_x(%)
  1      0.0000     0.0000E+00    0.0000E+00    1.000000E+06  0.00400  1.094E-02    0   1.0000   age020_m42            0.0000     9.4125E-05     5.8646   2.4930    96.2662
  2      0.0000     0.0000E+00    0.0000E+00    3.160000E+06  0.00400  4.007E-02    0   0.9999   age045_m42            0.0000     1.2434E-04     5.7995   1.7330   103.8535
  3      0.0000     0.0000E+00    0.0000E+00    5.010000E+06  0.00400  2.539E-02    0   0.9488   age055_m42            0.0000     1.0648E-04     5.6976   2.0710   100.8108
  4      0.0000     0.0000E+00    0.0000E+00    6.610000E+06  0.00400  2.620E-02    0   0.9220   age061_m42            0.0000     1.3475E-04     5.6520   1.6667   103.8548
  5      0.0000     0.0000E+00    0.0000E+00    1.000000E+07  0.00400  1.322E-02    0   0.8862   age070_m42            0.0000     1.2069E-04     4.5713   1.4451   104.2794
  6      0.0000     0.0000E+00    0.0000E+00    1.445000E+07  0.00400  7.883E-03    0   0.8571   age078_m42            0.0000     1.0827E-04     4.6542   1.7709   101.6871
  7      0.0000     0.0000E+00    0.0000E+00    2.512000E+07  0.00400  5.251E-03    0   0.8174   age090_m42            0.0000     1.2398E-04     4.5259   1.3237   104.6240
  8      0.0000     0.0000E+00    0.0000E+00    4.000000E+07  0.00400  3.649E-03    0   0.7851   age104_m42            0.0000     1.3157E-04     4.5501   1.0840   105.8678
  9      0.0000     0.0000E+00    0.0000E+00    5.500000E+07  0.00400  3.098E-03    0   0.7629   age110_m42            0.0000     1.5930E-04     5.0326   1.2054   106.8316
 10      0.0000     0.0000E+00    0.0000E+00    1.015200E+08  0.00400  2.228E-03    0   0.7207   age116_m42            0.0000     1.9113E-04     5.4694   1.2068   107.5718
 11      0.0000     0.0000E+00    0.0000E+00    2.861200E+08  0.00400  1.093E-03    0   0.6648   age125_m42            0.0000     2.1508E-04     5.1398   0.6521   110.1793
 12      0.0000     0.0000E+00    0.0000E+00    5.088000E+08  0.00400  6.597E-04    0   0.6365   age130_m42            0.0000     2.5954E-04     5.7995   0.6089   112.1393
 13      0.0000     0.0000E+00    0.0000E+00    1.434000E+09  0.00400  2.132E-04    0   0.5798   age139_m42            0.0000     2.4241E-04     5.7866  -0.3851   115.0542
 14      0.0000     0.0000E+00    0.0000E+00    4.250000E+09  0.00400  5.895E-05    0   0.5377   age158_m42            0.0000     1.8628E-04     6.3607  -0.8599   111.5859
 15      0.0000     0.0000E+00    0.0000E+00    7.500000E+09  0.00400  3.510E-05    0   0.5212   age171_m42            0.0000     2.0428E-04     6.3749  -1.0000   109.9533
 16     10.7761     1.3265E+01    1.3248E+01    1.300000E+10  0.00400  2.005E-05    0   0.5034   age193_m42            0.0000     2.5147E-04     6.8714  -1.0000   105.7815
 17      0.0000     0.0000E+00    0.0000E+00    1.800000E+10  0.00400  1.525E-05    0   0.4967   age213_m42            0.0000     2.4697E-04     6.9801  -1.0000   104.7704
 18      2.9434     5.8680E-03    1.1642E-02    1.000000E+06  0.00800  1.238E-02    0   1.0000   age020_m52            0.0000     9.4508E-05     5.8707   2.4894    96.4617
 19      6.0640     4.8688E-03    9.6265E-03    3.160000E+06  0.00800  3.074E-02    0   0.9966   age045_m52            0.0000     9.5730E-05     5.8992   2.4081    97.4623
 20      0.0000     0.0000E+00    0.0000E+00    5.010000E+06  0.00800  2.668E-02    0   0.9443   age055_m52            0.0000     1.0157E-04     5.6248   2.1605    99.7300
 21      0.0000     0.0000E+00    0.0000E+00    6.610000E+06  0.00800  2.136E-02    0   0.9177   age061_m52            0.0000     8.8322E-05     4.2978   0.9426   105.5488
 22      0.0000     0.0000E+00    0.0000E+00    1.000000E+07  0.00800  1.215E-02    0   0.8827   age070_m52            0.0000     1.0957E-04     4.4320   1.6430   103.4982
 23      0.0000     0.0000E+00    0.0000E+00    1.445000E+07  0.00800  8.717E-03    0   0.8552   age078_m52            0.0000     1.1068E-04     4.5691   1.7362   103.1132
 24      0.0000     0.0000E+00    0.0000E+00    2.512000E+07  0.00800  5.592E-03    0   0.8162   age090_m52            0.0000     1.2613E-04     4.4705   1.3881   105.8536
 25      0.0000     0.0000E+00    0.0000E+00    4.000000E+07  0.00800  3.896E-03    0   0.7841   age104_m52            0.0000     1.4083E-04     4.5315   1.2816   107.2127
 26      0.0000     0.0000E+00    0.0000E+00    1.015200E+08  0.00800  2.148E-03    0   0.7226   age116_m52            0.0000     1.7196E-04     5.0057   1.1893   107.9330
 27      0.0000     0.0000E+00    0.0000E+00    2.861200E+08  0.00800  9.925E-04    0   0.6683   age125_m52            0.0000     2.6464E-04     5.7093   0.6750   113.1419
 28      0.0000     0.0000E+00    0.0000E+00    9.047900E+08  0.00800  3.141E-04    0   0.6138   age135_m52            0.0000     2.9332E-04     6.7510  -0.1842   119.7603
 29      0.0000     0.0000E+00    0.0000E+00    1.434000E+09  0.00800  1.719E-04    0   0.5853   age139_m52            0.0000     2.2248E-04     6.3309  -0.7613   117.1264
 30      0.0000     0.0000E+00    0.0000E+00    2.500000E+09  0.00800  7.872E-05    0   0.5600   age150_m52            0.0000     2.3447E-04     6.8100  -1.0000   113.7258
 31      1.3738     7.8198E-01    8.4178E-01    4.250000E+09  0.00800  4.336E-05    0   0.5426   age158_m52            0.0000     2.3154E-04     6.7190  -1.0000   112.3108
 32      0.0000     0.0000E+00    0.0000E+00    6.250000E+09  0.00800  3.159E-05    0   0.5319   age166_m52            0.0000     3.2343E-04     7.7584  -1.0000   107.7598
 33      0.0000     0.0000E+00    0.0000E+00    1.300000E+10  0.00800  1.361E-05    0   0.5073   age193_m52            0.0000     6.7278E-04    16.4097  -1.0000    94.9476
 34      0.0000     0.0000E+00    0.0000E+00    1.800000E+10  0.00800  9.886E-06    0   0.4990   age213_m52            0.0000     8.4560E-04    18.7337  -1.0000    91.4317
 35      0.0000     0.0000E+00    0.0000E+00    1.000000E+06  0.02000  1.544E-02    0   1.0000   age020_m62            0.0000     9.5208E-05     5.8858   2.4862    96.6663
 36     31.6006     2.0732E-02    4.0547E-02    3.160000E+06  0.02000  3.762E-02    0   0.9858   age045_m62            0.0000     9.6369E-05     5.9259   2.4213    97.6460
 37      0.0000     0.0000E+00    0.0000E+00    5.010000E+06  0.02000  3.296E-02    0   0.9342   age055_m62            0.0000     1.2095E-04     5.8686   2.0185   102.4413
 38      7.0972     1.5179E-02    2.6684E-02    8.710000E+06  0.02000  1.154E-02    0   0.8861   age067_m62            0.0000     1.2142E-04     6.6725   1.2026   103.0625
 39      0.0000     0.0000E+00    0.0000E+00    1.445000E+07  0.02000  7.663E-03    0   0.8472   age078_m62            0.0000     1.0223E-04     4.6602   1.3186   104.9268
 40      0.0000     0.0000E+00    0.0000E+00    2.512000E+07  0.02000  4.532E-03    0   0.8099   age090_m62            0.0000     1.1314E-04     4.8668   1.3150   104.4818
 41      0.0000     0.0000E+00    0.0000E+00    5.500000E+07  0.02000  2.733E-03    0   0.7595   age110_m62            0.0000     1.3658E-04     4.4540   1.2675   106.3139
 42      0.0000     0.0000E+00    0.0000E+00    1.609000E+08  0.02000  1.369E-03    0   0.6985   age120_m62            0.0000     2.2685E-04     5.3204   1.0614   110.6001
 43      0.0000     0.0000E+00    0.0000E+00    2.861200E+08  0.02000  9.013E-04    0   0.6714   age125_m62            0.0000     3.0647E-04     5.9610   0.7851   114.6071
 44      0.0000     0.0000E+00    0.0000E+00    5.088000E+08  0.02000  5.028E-04    0   0.6449   age130_m62            0.0000     3.5474E-04     7.1597   0.3480   119.5818
 45      0.0000     0.0000E+00    0.0000E+00    9.047900E+08  0.02000  2.428E-04    0   0.6179   age135_m62            0.0000     2.7904E-04     7.2747  -0.2665   119.7252
 46      7.7096     1.5066E+00    1.7659E+00    1.434000E+09  0.02000  1.263E-04    0   0.5908   age139_m62            0.0000     2.4473E-04     7.3213  -0.7183   118.1308
 47      0.0650     2.6825E-02    3.0191E-02    2.500000E+09  0.02000  5.985E-05    0   0.5673   age150_m62            0.0000     2.7386E-04     7.4156  -1.0000   114.8946
 48      2.2138     1.6704E+00    1.8121E+00    4.250000E+09  0.02000  3.271E-05    0   0.5468   age158_m62            0.0000     4.4137E-04     9.6636  -1.0000   106.6456
 49      0.0000     0.0000E+00    0.0000E+00    1.000000E+10  0.02000  1.360E-05    0   0.5167   age181_m62            0.0000     8.0392E-04    16.4296  -1.0000    96.7100
 50     22.5969     7.8288E+01    7.7860E+01    1.800000E+10  0.02000  7.124E-06    0   0.5013   age213_m62            0.0000     1.1122E-03    20.6533  -1.0000    89.8285
 51     10.7508     1.0237E-02    2.0305E-02    1.000000E+06  0.05000  2.592E-02    0   0.9998   age020_m72            0.0000     9.6435E-05     5.8882   2.4826    96.5592
 52      0.0000     0.0000E+00    0.0000E+00    3.160000E+06  0.05000  4.845E-02    0   0.9577   age045_m72            0.0000     1.0321E-04     5.9832   2.2889    99.3650
 53      0.0000     0.0000E+00    0.0000E+00    5.010000E+06  0.05000  3.072E-02    0   0.9147   age055_m72            0.0000     9.6575E-05     4.6507   1.8722   101.7890
 54      0.0000     0.0000E+00    0.0000E+00    6.610000E+06  0.05000  1.455E-02    0   0.8877   age061_m72            0.0000     1.6585E-04     8.7359   1.2720   102.7717
 55      0.0000     0.0000E+00    0.0000E+00    1.000000E+07  0.05000  9.074E-03    0   0.8524   age070_m72            0.0000     1.0698E-04     5.6274   2.0450   101.5477
 56      3.5333     2.0519E-02    3.2167E-02    2.512000E+07  0.05000  4.250E-03    0   0.7902   age090_m72            0.0000     1.2526E-04     5.0932   1.7421   103.7142
 57      0.0000     0.0000E+00    0.0000E+00    4.000000E+07  0.05000  3.087E-03    0   0.7618   age104_m72            0.0000     1.4298E-04     5.2265   1.5188   105.3145
 58      0.0000     0.0000E+00    0.0000E+00    1.015200E+08  0.05000  1.700E-03    0   0.7096   age116_m72            0.0000     2.1359E-04     5.0861   1.2227   109.5340
 59      0.0000     0.0000E+00    0.0000E+00    2.861200E+08  0.05000  7.384E-04    0   0.6633   age125_m72            0.0000     3.3682E-04     6.4860   0.6216   117.1927
 60      0.0000     0.0000E+00    0.0000E+00    5.088000E+08  0.05000  3.819E-04    0   0.6372   age130_m72            0.0000     3.0913E-04     7.3375   0.0760   120.8887
 61      0.0000     0.0000E+00    0.0000E+00    9.047900E+08  0.05000  1.676E-04    0   0.6110   age135_m72            0.0000     2.7938E-04     8.4996  -0.6745   120.3796
 62      0.0000     0.0000E+00    0.0000E+00    1.434000E+09  0.05000  8.837E-05    0   0.5874   age139_m72            0.0000     2.9967E-04     7.6295  -1.0000   116.6877
 63      0.0000     0.0000E+00    0.0000E+00    2.500000E+09  0.05000  4.233E-05    0   0.5598   age150_m72            0.0000     4.7401E-04     9.9328  -1.0000   107.6456
 64      0.0000     0.0000E+00    0.0000E+00    6.250000E+09  0.05000  1.435E-05    0   0.5249   age166_m72            0.0000     9.1121E-04    18.3905  -1.0000    93.5936
 65      0.0000     0.0000E+00    0.0000E+00    1.300000E+10  0.05000  6.513E-06    0   0.5036   age193_m72            0.0000     1.3466E-03    23.7545  -1.0000    86.0440
 66      0.8041     4.3840E+00    4.3009E+00    1.800000E+10  0.05000  4.527E-06    0   0.4945   age213_m72            0.0000     1.6249E-03    26.4997  -1.0000    80.9525


## Synthesis Results - Average & Chains ##

# j      x_j: min, <> & last-chain-values for 1 ...  7 chains
  1      0.0000      6.5675      5.7017      5.4408      6.0001      5.6933      6.0447      6.4151      3.5936
  2      0.0000      0.4520      0.0000      1.7923      2.1424      2.1207      0.0040      0.5685      0.2811
  3      0.0000      0.5040      0.5056      0.2593      0.0000      0.7735      3.0410      0.5168      0.0000
  4      0.0000      0.5204      2.8955      0.0349      0.3654      0.6022      1.9832      0.4006      0.7502
  5      0.0000      0.3856      0.0000      1.1705      0.0000      0.6543      0.0000      0.3946      2.3157
  6      0.0000      0.5342      0.6684      0.5906      1.4964      0.1756      1.8812      0.3350      1.5136
  7      0.0000      0.5142      0.0000      0.4601      2.7868      0.0000      1.9331      1.2013      0.8150
  8      0.0000      0.5729      0.0000      1.0352      1.4982      0.3049      0.6921      1.3550      0.0000
  9      0.0000      0.4775      0.0000      2.5315      0.5269      0.0000      0.6219      1.1656      0.0000
 10      0.0000      0.4337      0.0000      0.0686      0.0000      0.4216      1.3810      0.0279      2.3579
 11      0.0000      0.5579      0.0000      0.1745      0.1972      0.9994      0.5470      0.7707      0.8896
 12      0.0000      0.4281      1.3153      1.5916      1.3731      3.3575      0.7219      0.0000      1.8535
 13      0.0000      0.3428      1.5262      0.3073      0.1803      0.0000      0.0000      0.0000      0.5099
 14      0.0000      0.4359      0.8712      0.1530      0.0000      0.7500      1.6148      0.1986      0.3698
 15      0.0000      0.6182      0.0000      0.5597      0.0095      0.0000      0.0000      0.5994      1.7409
 16     10.7761      0.7950      2.8059      1.2996      2.5517      3.0193      1.5188      0.5955      1.3283
 17      0.0000      0.3545      0.0000      0.0000      1.4057      0.6710      1.0960      0.9276      0.0000
 18      2.9434      0.5530      0.5667      0.4248      0.7093      1.8885      0.6268      0.9967      4.1725
 19      6.0640      0.6233      1.2358      0.4666      0.0989      2.5304      0.9533      0.0280      0.0423
 20      0.0000      0.4262      0.4109      1.1598      0.6902      0.4224      2.6125      0.7694      0.3894
 21      0.0000      0.4619      1.2093      0.4905      2.1282      1.0567      1.8427      1.5752      0.0000
 22      0.0000      0.5172      1.0383      0.5685      0.8760      0.9083      0.0000      0.5561      1.2894
 23      0.0000      0.4906      0.0000      1.0736      2.1274      0.7223      0.0000      0.4390      1.3208
 24      0.0000      0.5828      0.0000      0.3212      0.2436      4.1511      0.7617      0.0000      0.3359
 25      0.0000      0.4493      0.9422      0.0000      1.7707      0.1026      0.0000      0.6427      0.0000
 26      0.0000      0.3109      0.0000      0.2287      0.0000      0.0263      2.2318      0.0000      0.5479
 27      0.0000      0.3812      0.8423      0.0000      0.4983      0.0000      0.7584      0.5022      0.0000
 28      0.0000      0.4697      1.2524      0.0000      0.1609      3.9909      0.4766      1.3585      0.7355
 29      0.0000      0.5942      0.8583      1.6531      0.5423      2.8032      1.8081      0.0000      1.7394
 30      0.0000      0.4917      0.1007      2.0777      0.0400      0.6715      0.3555      0.0000      0.4851
 31      1.3738      7.3675      6.2629      8.5963      6.5709      2.0784      7.0040      7.5760      8.5626
 32      0.0000      7.9118      5.8127      6.4952      7.3647      1.4227      9.3610      7.8281      3.7939
 33      0.0000      2.6025      2.8173      2.9079      1.8096      2.7035      1.6311      2.3790      2.6575
 34      0.0000      1.7785      2.4800      1.8240      0.2838      2.7182      3.2037      1.6711      3.1172
 35      0.0000      0.5368      1.3518      3.8186      1.4059      0.0000      1.2436      1.9531      0.8626
 36     31.6006      0.3310      0.8907      0.0000      0.3804      1.9889      1.5824      0.8824      0.4424
 37      0.0000      0.5173      2.1844      0.5912      0.8134      0.0000      0.4304      0.0000      2.9506
 38      7.0972      0.4028      0.0000      0.7150      0.0000      2.1354      0.5511      0.8907      0.0572
 39      0.0000      0.4589      0.9275      0.8290      0.7414      2.1563      0.3390      0.0308      0.0000
 40      0.0000      0.4200      0.4594      1.0809      1.1372      1.3190      0.3665      0.7215      0.0000
 41      0.0000      0.5011      0.5280      0.5629      0.6823      1.5450      0.9297      0.6934      1.1719
 42      0.0000      0.5488      0.0000      0.0675      0.1156      1.1675      0.0000      0.5441      1.4452
 43      0.0000      0.4172      1.5772      0.1252      0.6365      0.8602      0.0000      0.6845      1.4701
 44      0.0000      0.4137      0.4181      0.0000      0.0000      2.1416      0.0000      0.1542      0.2661
 45      0.0000      0.4817      0.0000      0.0000      0.1966      0.0000      0.2941      0.1860      0.0000
 46      7.7096      0.4938      0.0000      0.3094      0.0000      1.3394      0.1680      0.7485      1.6202
 47      0.0650     20.0824     15.4338     16.8218     18.6329     15.3144     12.2334     16.5540      9.7751
 48      2.2138      2.7614      2.5614      2.1663      2.0029      1.1423      2.2205      1.4610      3.8659
 49      0.0000      1.7457      0.5421      0.9887      2.2668      0.0000      2.9716      3.3097      0.5536
 50     22.5969      0.6786      2.8379      0.0000      0.5931      0.4765      1.3687      0.0837      0.0000
 51     10.7508      0.5684      2.5076      2.0643      0.1154      1.7465      0.5970      0.2314      1.0583
 52      0.0000      0.4404      1.7156      1.1398      0.9955      0.0000      0.0000      2.2108      0.2896
 53      0.0000      0.4456      0.4032      0.6872      0.4987      0.0000      0.0888      0.2487      0.5402
 54      0.0000      0.6099      2.9803      0.2392      0.7578      0.2310      1.9151      1.6113      2.3691
 55      0.0000      0.4403      0.0000      0.0764      0.1509      1.5199      0.0000      0.1096      3.3464
 56      3.5333      0.3863      0.0000      0.0000      1.3697      0.4792      0.2724      2.2082      0.0000
 57      0.0000      3.9970      3.6513      3.8793      3.5630      3.2789      2.7462      4.7566      2.4914
 58      0.0000     19.5504     16.1905     17.0780     15.6375     10.5079     13.2262     17.1400     17.8807
 59      0.0000      0.5215      0.0000      0.0000      0.6542      1.4915      0.0000      0.0000      1.8323
 60      0.0000      0.4993      0.5037      0.0000      0.3019      0.3359      0.0000      0.8461      0.2134
 61      0.0000      0.5794      0.0000      0.0000      0.0000      0.0879      0.0000      0.0466      0.0000
 62      0.0000      0.6913      0.8464      1.4652      0.0000      1.6269      0.0000      0.6513      0.0000
 63      0.0000      3.8120      3.3856      2.7914      1.9938      3.1966      3.8396      1.7087      0.3526
 64      0.0000      0.6635      0.8821      1.2984      0.5850      1.0487      0.0000      0.0000      0.7887
 65      0.0000      0.5405      0.4213      0.6811      1.6107      0.0000      0.0000      2.3259      0.0000
 66      0.8041      0.3592      0.4828      0.0686      1.2126      1.5523      1.6314      0.3852      2.0520

# j      m_j: min, <> & last-chain-values for 1 ...  7 chains
  1  0.0000E+00  6.0301E-02  4.7970E-02  5.6340E-02  5.1818E-02  5.7937E-02  4.7212E-02  5.6457E-02  3.4085E-02
  2  0.0000E+00  1.1329E-03  0.0000E+00  5.0665E-03  5.0510E-03  5.8914E-03  8.5185E-06  1.3658E-03  7.2777E-04
  3  0.0000E+00  1.8917E-03  1.7391E-03  1.0979E-03  0.0000E+00  3.2178E-03  9.7102E-03  1.8593E-03  0.0000E+00
  4  0.0000E+00  1.8396E-03  9.3786E-03  1.3910E-04  1.2150E-03  2.3592E-03  5.9634E-03  1.3575E-03  2.7395E-03
  5  0.0000E+00  2.5964E-03  0.0000E+00  8.8884E-03  0.0000E+00  4.8827E-03  0.0000E+00  2.5470E-03  1.6108E-02
  6  0.0000E+00  5.8346E-03  6.6893E-03  7.2741E-03  1.5372E-02  2.1253E-03  1.7477E-02  3.5069E-03  1.7076E-02
  7  0.0000E+00  8.0399E-03  0.0000E+00  8.1138E-03  4.0986E-02  0.0000E+00  2.5713E-02  1.8005E-02  1.3165E-02
  8  0.0000E+00  1.2380E-02  0.0000E+00  2.5232E-02  3.0456E-02  7.3029E-03  1.2723E-02  2.8069E-02  0.0000E+00
  9  0.0000E+00  1.1811E-02  0.0000E+00  7.0621E-02  1.2260E-02  0.0000E+00  1.3086E-02  2.7636E-02  0.0000E+00
 10  0.0000E+00  1.4092E-02  0.0000E+00  2.5132E-03  0.0000E+00  1.5184E-02  3.8170E-02  8.6966E-04  7.9146E-02
 11  0.0000E+00  3.4086E-02  0.0000E+00  1.2023E-02  1.1335E-02  6.7671E-02  2.8431E-02  4.5131E-02  5.6147E-02
 12  0.0000E+00  4.1485E-02  1.1681E-01  1.7396E-01  1.2517E-01  3.6064E-01  5.9514E-02  0.0000E+00  1.8557E-01
 13  0.0000E+00  9.3640E-02  3.8202E-01  9.4668E-02  4.6332E-02  0.0000E+00  0.0000E+00  0.0000E+00  1.4389E-01
 14  0.0000E+00  3.9940E-01  7.3141E-01  1.5813E-01  0.0000E+00  7.6155E-01  1.2585E+00  1.7445E-01  3.5000E-01
 15  0.0000E+00  9.2209E-01  0.0000E+00  9.4156E-01  1.3305E-02  0.0000E+00  0.0000E+00  8.5700E-01  2.6823E+00
 16  1.3248E+01  2.0050E+00  6.4842E+00  3.6964E+00  6.0530E+00  8.4393E+00  3.2583E+00  1.4394E+00  3.4605E+00
 17  0.0000E+00  1.1598E+00  0.0000E+00  0.0000E+00  4.3257E+00  2.4331E+00  3.0502E+00  2.9087E+00  0.0000E+00
 18  1.1642E-02  4.4867E-03  4.2133E-03  3.8875E-03  5.4135E-03  1.6982E-02  4.3264E-03  7.7517E-03  3.4972E-02
 19  9.6265E-03  2.0297E-03  3.6877E-03  1.7135E-03  3.0299E-04  9.1328E-03  2.6409E-03  8.7396E-05  1.4226E-04
 20  0.0000E+00  1.5152E-03  1.3385E-03  4.6504E-03  2.3082E-03  1.6645E-03  7.9008E-03  2.6220E-03  1.4302E-03
 21  0.0000E+00  1.9932E-03  4.7822E-03  2.3875E-03  8.6388E-03  5.0543E-03  6.7647E-03  6.5160E-03  0.0000E+00
 22  0.0000E+00  3.7744E-03  6.9433E-03  4.6785E-03  6.0126E-03  7.3462E-03  0.0000E+00  3.8899E-03  9.7201E-03
 23  0.0000E+00  4.8345E-03  0.0000E+00  1.1932E-02  1.9719E-02  7.8890E-03  0.0000E+00  4.1469E-03  1.3446E-02
 24  0.0000E+00  8.5449E-03  0.0000E+00  5.3103E-03  3.3596E-03  6.7453E-02  9.4992E-03  0.0000E+00  5.0874E-03
 25  0.0000E+00  9.0829E-03  1.7454E-02  0.0000E+00  3.3670E-02  2.2990E-03  0.0000E+00  1.2453E-02  0.0000E+00
 26  0.0000E+00  1.0504E-02  0.0000E+00  8.7153E-03  0.0000E+00  9.8679E-04  6.4152E-02  0.0000E+00  1.9126E-02
 27  0.0000E+00  2.5785E-02  5.2205E-02  0.0000E+00  3.1699E-02  0.0000E+00  4.3633E-02  3.2560E-02  0.0000E+00
 28  0.0000E+00  9.2191E-02  2.2526E-01  0.0000E+00  2.9698E-02  8.6822E-01  7.9581E-02  2.5559E-01  1.4915E-01
 29  0.0000E+00  2.0321E-01  2.6899E-01  6.3763E-01  1.7447E-01  1.0626E+00  5.2605E-01  0.0000E+00  6.1455E-01
 30  0.0000E+00  3.5135E-01  6.5905E-02  1.6744E+00  2.6905E-02  5.3177E-01  2.1609E-01  0.0000E+00  3.5811E-01
 31  8.4178E-01  9.2608E+00  7.2136E+00  1.2186E+01  7.7689E+00  2.8955E+00  7.4891E+00  9.1278E+00  1.1119E+01
 32  0.0000E+00  1.3381E+01  9.0083E+00  1.2389E+01  1.1716E+01  2.6668E+00  1.3468E+01  1.2690E+01  6.6285E+00
 33  0.0000E+00  9.7441E+00  9.6655E+00  1.2279E+01  6.3728E+00  1.1219E+01  5.1949E+00  8.5377E+00  1.0278E+01
 34  0.0000E+00  9.0171E+00  1.1522E+01  1.0430E+01  1.3534E+00  1.5274E+01  1.3817E+01  8.1214E+00  1.6327E+01
 35  0.0000E+00  3.4919E-03  8.0584E-03  2.8017E-02  8.6029E-03  0.0000E+00  6.8822E-03  1.2179E-02  5.7975E-03
 36  4.0547E-02  8.7125E-04  2.1483E-03  0.0000E+00  9.4168E-04  5.8022E-03  3.5431E-03  2.2263E-03  1.2030E-03
 37  0.0000E+00  1.4727E-03  5.6986E-03  1.8984E-03  2.1783E-03  0.0000E+00  1.0423E-03  0.0000E+00  8.6780E-03
 38  2.6684E-02  3.1068E-03  0.0000E+00  6.2197E-03  0.0000E+00  1.8254E-02  3.6156E-03  6.5850E-03  4.5601E-04
 39  0.0000E+00  5.0956E-03  9.4384E-03  1.0383E-02  7.7444E-03  2.6540E-02  3.2022E-03  3.2776E-04  0.0000E+00
 40  0.0000E+00  7.5399E-03  7.5566E-03  2.1883E-02  1.9202E-02  2.6242E-02  5.5960E-03  1.2414E-02  0.0000E+00
 41  0.0000E+00  1.3989E-02  1.3505E-02  1.7720E-02  1.7914E-02  4.7800E-02  2.2077E-02  1.8552E-02  3.3793E-02
 42  0.0000E+00  2.8127E-02  0.0000E+00  3.8991E-03  5.5710E-03  6.6317E-02  0.0000E+00  2.6728E-02  7.6512E-02
 43  0.0000E+00  3.1216E-02  1.0814E-01  1.0562E-02  4.4797E-02  7.1338E-02  0.0000E+00  4.9096E-02  1.1363E-01
 44  0.0000E+00  5.3299E-02  4.9361E-02  0.0000E+00  0.0000E+00  3.0580E-01  0.0000E+00  1.9039E-02  3.5422E-02
 45  0.0000E+00  1.2314E-01  0.0000E+00  0.0000E+00  4.7264E-02  0.0000E+00  6.3946E-02  4.5586E-02  0.0000E+00
 46  1.7659E+00  2.3200E-01  0.0000E+00  1.6393E-01  0.0000E+00  6.9753E-01  6.7164E-02  3.3711E-01  7.8641E-01
 47  3.0191E-02  1.9121E+01  1.3465E+01  1.8063E+01  1.6687E+01  1.6160E+01  9.9081E+00  1.5107E+01  9.6144E+00
 48  1.8121E+00  4.6367E+00  3.9411E+00  4.1024E+00  3.1634E+00  2.1258E+00  3.1718E+00  2.3515E+00  6.7058E+00
 49  0.0000E+00  6.6621E+00  1.8958E+00  4.2552E+00  8.1369E+00  0.0000E+00  9.6470E+00  1.2107E+01  2.1826E+00
 50  7.7860E+01  4.7966E+00  1.8381E+01  0.0000E+00  3.9429E+00  3.7327E+00  8.2293E+00  5.6680E-01  0.0000E+00
 51  2.0305E-02  2.2022E-03  8.9026E-03  9.0201E-03  4.2064E-04  7.4999E-03  1.9676E-03  8.5954E-04  4.2359E-03
 52  0.0000E+00  8.7437E-04  3.1213E-03  2.5523E-03  1.8591E-03  0.0000E+00  0.0000E+00  4.2075E-03  5.9406E-04
 53  0.0000E+00  1.3328E-03  1.1050E-03  2.3179E-03  1.4030E-03  0.0000E+00  2.2593E-04  7.1307E-04  1.6690E-03
 54  0.0000E+00  3.7374E-03  1.6736E-02  1.6534E-03  4.3682E-03  1.5687E-03  9.9838E-03  9.4651E-03  1.4998E-02
 55  0.0000E+00  4.1548E-03  0.0000E+00  8.1272E-04  1.3391E-03  1.5895E-02  0.0000E+00  9.9141E-04  3.2620E-02
 56  3.2167E-02  7.2151E-03  0.0000E+00  0.0000E+00  2.4062E-02  9.9189E-03  4.3271E-03  3.9529E-02  0.0000E+00
 57  0.0000E+00  9.9076E-02  8.2936E-02  1.0845E-01  8.3074E-02  9.0083E-02  5.7908E-02  1.1302E-01  6.3798E-02
 58  0.0000E+00  8.1970E-01  6.2203E-01  8.0755E-01  6.1670E-01  4.8830E-01  4.7173E-01  6.8883E-01  7.7447E-01
 59  0.0000E+00  4.7052E-02  0.0000E+00  0.0000E+00  5.5520E-02  1.4916E-01  0.0000E+00  0.0000E+00  1.7079E-01
 60  0.0000E+00  8.3674E-02  7.7351E-02  0.0000E+00  4.7586E-02  6.2394E-02  0.0000E+00  1.3592E-01  3.6944E-02
 61  0.0000E+00  2.1216E-01  0.0000E+00  0.0000E+00  0.0000E+00  3.5667E-02  0.0000E+00  1.6343E-02  0.0000E+00
 62  0.0000E+00  4.6156E-01  5.1785E-01  1.1033E+00  0.0000E+00  1.2039E+00  0.0000E+00  4.1681E-01  0.0000E+00
 63  0.0000E+00  5.0638E+00  4.1211E+00  4.1819E+00  2.4912E+00  4.7063E+00  4.3387E+00  2.1757E+00  4.8384E-01
 64  0.0000E+00  2.4378E+00  2.9697E+00  5.3804E+00  2.0216E+00  4.2706E+00  0.0000E+00  0.0000E+00  2.9937E+00
 65  0.0000E+00  4.1976E+00  2.9986E+00  5.9661E+00  1.1767E+01  0.0000E+00  0.0000E+00  1.7315E+01  0.0000E+00
 66  4.3009E+00  3.9409E+00  4.8538E+00  8.4917E-01  1.2514E+01  1.8877E+01  1.5227E+01  4.0515E+00  2.3258E+01

# AV, chi2 & Mass for <> & i_chain = 1 ...  7 solutions
AV      -0.0905     -0.1668     -0.1328     -0.0958     -0.1020      0.0224     -0.1726     -0.0971      0.0458
chi2 7.1341E-05  1.6046E-04  1.3419E-04  1.3540E-04  1.3790E-04  1.2747E-04  1.3013E-04  1.3960E-04  1.3707E-04
Mass 1.3460E-12  5.9227E-13  6.7653E-13  5.7766E-13  6.8687E-13  6.8894E-13  6.9084E-13  6.7854E-13  7.6277E-13
 -67.53                                  [v0_min (km/s) before EX0s...]
 298.45                                  [vd_min (km/s) before EX0s...]


## Synthetic spectrum (Best Model) ##l_obs f_obs f_syn wei
 3478    [Nl_obs]
 3741.00    0.88579   0.89079    0.000
 3742.00    0.88077   0.88620    0.000
 3743.00    0.84788   0.87709    0.000
 3744.00    0.84895   0.86344    0.000
 3745.00    0.86980   0.84836    0.257
 3746.00    0.93341   0.83565    0.266
 3747.00    1.01873   0.82591    0.271
 3748.00    1.02263   0.82115    0.261
 3749.00    0.99072   0.82365    0.247
 3750.00    0.98271   0.83210    0.237
 3751.00    0.98372   0.84481    0.228
 3752.00    0.98485   0.86058    0.228
 3753.00    0.98601   0.87685    0.230
 3754.00    0.98861   0.89187    0.225
 3755.00    0.99159   0.90409    0.218
 3756.00    1.02780   0.91259    0.220
 3757.00    1.07131   0.91890    0.225
 3758.00    1.04596   0.92250    0.228
 3759.00    1.00858   0.92306    0.231
 3760.00    1.00240   0.92278    0.233
 3761.00    1.00037   0.92073    0.235
 3762.00    1.02511   0.91546    0.226
 3763.00    1.05238   0.90875    0.217
 3764.00    1.01565   0.90097    0.215
 3765.00    0.97523   0.89078    0.213
 3766.00    0.89361   0.88041    0.215
 3767.00    0.81142   0.87305    0.217
 3768.00    0.77843   0.86814    0.213
 3769.00    0.74766   0.86641    0.210
 3770.00    0.77083   0.87111    0.208
 3771.00    0.79514   0.88129    0.206
 3772.00    0.83425   0.89473    0.208
 3773.00    0.87116   0.91202    0.208
 3774.00    0.88877   0.93178    0.204
 3775.00    0.90033   0.95147    0.201
 3776.00    0.87272   0.97027    0.204
 3777.00    0.84907   0.98717    0.207
 3778.00    0.84549   1.00129    0.210
 3779.00    0.84387   1.01202    0.214
 3780.00    0.85035   1.01877    0.220
 3781.00    0.86238   1.02135    0.222
 3782.00    0.89327   1.01999    0.210
 3783.00    0.92206   1.01503    0.206
 3784.00    0.94482   1.00640    0.219
 3785.00    0.96891   0.99504    0.228
 3786.00    0.99627   0.98201    0.223
 3787.00    1.02131   0.96703    0.218
 3788.00    1.04148   0.95058    0.212
 3789.00    1.05105   0.93310    0.213
 3790.00    1.04122   0.91401    0.225
 3791.00    1.01848   0.89384    0.233
 3792.00    0.97508   0.87338    0.234
 3793.00    0.95068   0.85300    0.228
 3794.00    0.95297   0.83490    0.215
 3795.00    0.94406   0.82163    0.212
 3796.00    0.92133   0.81375    0.218
 3797.00    0.89304   0.81293    0.223
 3798.00    0.85870   0.82052    0.226
 3799.00    0.85930   0.83455    0.227
 3800.00    0.89348   0.85338    0.225
 3801.00    0.93873   0.87577    0.223
 3802.00    0.99337   0.89845    0.222
 3803.00    1.01120   0.91958    0.220
 3804.00    1.00158   0.93868    0.217
 3805.00    1.02473   0.95376    0.214
 3806.00    1.06937   0.96517    0.210
 3807.00    1.05592   0.97377    0.205
 3808.00    1.00913   0.97807    0.200
 3809.00    0.96040   0.97878    0.204
 3810.00    0.91070   0.97724    0.213
 3811.00    0.91660   0.97194    0.215
 3812.00    0.94655   0.96334    0.214
 3813.00    0.94563   0.95395    0.212
 3814.00    0.93326   0.94290    0.211
 3815.00    0.94269   0.93010    0.214
 3816.00    0.95896   0.91895    0.219
 3817.00    0.96278   0.90913    0.222
 3818.00    0.96333   0.89945    0.224
 3819.00    0.93446   0.89250    0.223
 3820.00    0.89930   0.88764    0.221
 3821.00    0.85434   0.88302    0.212
 3822.00    0.80773   0.87928    0.204
 3823.00    0.76964   0.87527    0.196
 3824.00    0.73264   0.86951    0.188
 3825.00    0.69902   0.86179    0.199
 3826.00    0.66570   0.85177    0.214
 3827.00    0.68078   0.83856    0.207
 3828.00    0.69845   0.82237    0.199
 3829.00    0.71576   0.80490    0.196
 3830.00    0.73284   0.78590    0.194
 3831.00    0.73122   0.76678    0.200
 3832.00    0.73131   0.75142    0.207
 3833.00    0.76920   0.73976    0.207
 3834.00    0.80529   0.73315    0.207
 3835.00    0.81892   0.73510    0.202
 3836.00    0.82953   0.74341    0.198
 3837.00    0.81464   0.75758    0.199
 3838.00    0.80462   0.77838    0.201
 3839.00    0.82526   0.80169    0.203
 3840.00    0.84202   0.82642    0.208
 3841.00    0.83963   0.85171    0.218
 3842.00    0.83643   0.87417    0.228
 3843.00    0.82992   0.89407    0.227
 3844.00    0.83793   0.91096    0.226
 3845.00    0.89424   0.92338    0.221
 3846.00    0.93496   0.93250    0.218
 3847.00    0.93191   0.93914    0.000
 3848.00    0.92589   0.94277    0.000
 3849.00    0.91272   0.94394    0.000
 3850.00    0.90448   0.94435    0.000
 3851.00    0.90647   0.94315    0.000
 3852.00    0.89310   0.94006    0.000
 3853.00    0.85205   0.93735    0.000
 3854.00    0.82914   0.93395    0.000
 3855.00    0.83484   0.92980    0.000
 3856.00    0.84678   0.92714    0.000
 3857.00    0.86736   0.92519    0.000
 3858.00    0.86369   0.92411    0.000
 3859.00    0.83047   0.92475    0.000
 3860.00    0.81451   0.92602    0.000
 3861.00    0.81711   0.92792    0.000
 3862.00    0.81181   0.93017    0.000
 3863.00    0.79903   0.93117    0.000
 3864.00    0.75944   0.93143    0.000
 3865.00    0.69746   0.93102    0.000
 3866.00    0.66136   0.92881    0.000
 3867.00    0.64429   0.92603    0.000
 3868.00    0.60278   0.92286    0.000
 3869.00    0.54548   0.91943    0.000
 3870.00    0.50486   0.91681    0.000
 3871.00    0.47366   0.91393    0.000
 3872.00    0.50639   0.91156    0.000
 3873.00    0.57056   0.90990    0.000
 3874.00    0.63464   0.90688    0.000
 3875.00    0.69868   0.90371    0.000
 3876.00    0.72833   0.90012    0.000
 3877.00    0.74545   0.89384    0.000
 3878.00    0.75725   0.88591    0.000
 3879.00    0.76740   0.87684    0.000
 3880.00    0.79453   0.86534    0.000
 3881.00    0.82603   0.85067    0.195
 3882.00    0.82836   0.83454    0.192
 3883.00    0.82460   0.81874    0.186
 3884.00    0.84511   0.80177    0.190
 3885.00    0.86963   0.78651    0.196
 3886.00    0.86579   0.77731    0.195
 3887.00    0.85844   0.77253    0.193
 3888.00    0.88394   0.77355    0.191
 3889.00    0.91225   0.78265    0.189
 3890.00    0.92417   0.79694    0.188
 3891.00    0.93527   0.81479    0.188
 3892.00    0.93510   0.83590    0.192
 3893.00    0.93436   0.85746    0.196
 3894.00    0.90832   0.87693    0.194
 3895.00    0.88294   0.89446    0.193
 3896.00    0.87127   0.90962    0.194
 3897.00    0.85890   0.92200    0.196
 3898.00    0.83836   0.93112    0.189
 3899.00    0.81565   0.93810    0.182
 3900.00    0.77525   0.94484    0.179
 3901.00    0.73483   0.94913    0.176
 3902.00    0.69434   0.95267    0.173
 3903.00    0.65690   0.95787    0.169
 3904.00    0.63418   0.96215    0.161
 3905.00    0.61560   0.96688    0.155
 3906.00    0.61319   0.97272    0.154
 3907.00    0.62475   0.97805    0.154
 3908.00    0.68187   0.98357    0.161
 3909.00    0.73688   0.98797    0.166
 3910.00    0.78608   0.99074    0.167
 3911.00    0.82687   0.99224    0.169
 3912.00    0.84778   0.99081    0.172
 3913.00    0.87380   0.98730    0.174
 3914.00    0.91024   0.98191    0.176
 3915.00    0.93391   0.97375    0.178
 3916.00    0.93488   0.96437    0.179
 3917.00    0.92423   0.95430    0.180
 3918.00    0.89553   0.94361    0.183
 3919.00    0.90658   0.93261    0.184
 3920.00    0.97186   0.92208    0.183
 3921.00    1.01867   0.91175    0.187
 3922.00    1.04330   0.90065    0.198
 3923.00    1.01665   0.88965    0.203
 3924.00    0.93570   0.87765    0.201
 3925.00    0.89397   0.86432    0.198
 3926.00    0.88887   0.85068    0.193
 3927.00    0.89926   0.83613    0.196
 3928.00    0.92241   0.82193    0.205
 3929.00    0.90220   0.80902    0.208
 3930.00    0.85056   0.79802    0.206
 3931.00    0.81160   0.79055    0.204
 3932.00    0.78071   0.78681    0.202
 3933.00    0.76504   0.78738    0.196
 3934.00    0.75784   0.79229    0.190
 3935.00    0.79533   0.80101    0.188
 3936.00    0.85444   0.81285    0.188
 3937.00    0.90418   0.82612    0.191
 3938.00    0.95001   0.84071    0.194
 3939.00    0.93074   0.85535    0.192
 3940.00    0.88817   0.86837    0.187
 3941.00    0.88044   0.88149    0.184
 3942.00    0.88325   0.89394    0.182
 3943.00    0.86239   0.90410    0.184
 3944.00    0.83559   0.91419    0.187
 3945.00    0.83595   0.92415    0.186
 3946.00    0.84185   0.93270    0.185
 3947.00    0.86755   0.94055    0.187
 3948.00    0.89642   0.94670    0.191
 3949.00    0.96023   0.95164    0.192
 3950.00    1.02822   0.95592    0.194
 3951.00    1.02208   0.95691    0.189
 3952.00    1.00990   0.95552    0.185
 3953.00    0.97543   0.95313    0.185
 3954.00    0.93993   0.94746    0.184
 3955.00    0.97892   0.93860    0.188
 3956.00    1.01791   0.92695    0.191
 3957.00    1.00775   0.91096    0.190
 3958.00    0.99545   0.89214    0.189
 3959.00    0.94280   0.87024    0.189
 3960.00    0.89554   0.84324    0.000
 3961.00    0.90892   0.81438    0.000
 3962.00    0.91743   0.78460    0.000
 3963.00    0.88776   0.75279    0.000
 3964.00    0.85385   0.72253    0.000
 3965.00    0.79481   0.69530    0.000
 3966.00    0.75366   0.67249    0.000
 3967.00    0.79645   0.65782    0.000
 3968.00    0.82672   0.65127    0.000
 3969.00    0.80902   0.65344    0.000
 3970.00    0.79309   0.66644    0.000
 3971.00    0.78283   0.68802    0.000
 3972.00    0.79383   0.71551    0.000
 3973.00    0.86240   0.74820    0.000
 3974.00    0.91475   0.78331    0.000
 3975.00    0.92941   0.81787    0.000
 3976.00    0.92689   0.85088    0.000
 3977.00    0.88986   0.88036    0.000
 3978.00    0.88145   0.90559    0.000
 3979.00    0.92312   0.92743    0.000
 3980.00    0.95413   0.94499    0.000
 3981.00    0.96882   0.95915    0.187
 3982.00    0.99044   0.97104    0.188
 3983.00    1.02140   0.98068    0.190
 3984.00    1.03029   0.98974    0.190
 3985.00    1.01305   0.99684    0.187
 3986.00    0.98318   1.00256    0.185
 3987.00    0.94014   1.00890    0.183
 3988.00    0.95048   1.01303    0.184
 3989.00    1.00997   1.01618    0.188
 3990.00    1.05250   1.01889    0.188
 3991.00    1.08127   1.02000    0.184
 3992.00    1.07506   1.02129    0.182
 3993.00    1.04385   1.02148    0.181
 3994.00    1.01638   1.02130    0.182
 3995.00    0.99125   1.02255    0.182
 3996.00    0.98354   1.02337    0.182
 3997.00    0.98538   1.02401    0.182
 3998.00    0.94948   1.02566    0.180
 3999.00    0.89562   1.02689    0.177
 4000.00    0.90150   1.02667    0.177
 4001.00    0.93193   1.02558    0.179
 4002.00    0.95679   1.02448    0.182
 4003.00    0.97969   1.02299    0.186
 4004.00    0.99451   1.02068    0.184
 4005.00    1.00694   1.01924    0.181
 4006.00    1.01055   1.01991    0.181
 4007.00    1.01199   1.02179    0.181
 4008.00    1.02086   1.02420    0.182
 4009.00    1.03121   1.02831    0.182
 4010.00    0.99383   1.03339    0.179
 4011.00    0.94902   1.03856    0.176
 4012.00    0.98554   1.04380    0.176
 4013.00    1.03141   1.04728    0.177
 4014.00    1.05048   1.05054    0.178
 4015.00    1.06748   1.05305    0.179
 4016.00    1.04997   1.05239    0.177
 4017.00    1.03100   1.05084    0.175
 4018.00    1.02962   1.04827    0.174
 4019.00    1.02822   1.04356    0.172
 4020.00    1.01945   1.03753    0.173
 4021.00    1.01224   1.03043    0.174
 4022.00    1.03260   1.02343    0.173
 4023.00    1.05257   1.01706    0.173
 4024.00    1.06821   1.01086    0.174
 4025.00    1.07677   1.00546    0.176
 4026.00    1.03152   1.00148    0.178
 4027.00    0.99277   0.99911    0.181
 4028.00    0.99157   0.99772    0.184
 4029.00    0.98543   0.99618    0.187
 4030.00    0.95666   0.99665    0.188
 4031.00    0.92651   0.99938    0.187
 4032.00    0.89122   1.00314    0.180
 4033.00    0.86073   1.00892    0.175
 4034.00    0.84534   1.01487    0.176
 4035.00    0.82734   1.02130    0.178
 4036.00    0.80239   1.02757    0.180
 4037.00    0.79705   1.03120    0.179
 4038.00    0.83645   1.03323    0.173
 4039.00    0.89022   1.03206    0.170
 4040.00    0.97235   1.02789    0.175
 4041.00    1.01406   1.02331    0.178
 4042.00    0.98611   1.01755    0.176
 4043.00    0.96387   1.01230    0.176
 4044.00    0.95021   1.00836    0.177
 4045.00    0.95754   1.00623    0.179
 4046.00    0.99271   1.00828    0.182
 4047.00    1.01274   1.01158    0.182
 4048.00    1.01511   1.01445    0.180
 4049.00    1.01635   1.01814    0.179
 4050.00    1.01641   1.02098    0.179
 4051.00    1.01823   1.02209    0.179
 4052.00    1.02165   1.02207    0.180
 4053.00    1.01490   1.01944    0.183
 4054.00    1.00000   1.01536    0.186
 4055.00    1.00121   1.01196    0.186
 4056.00    1.01377   1.00714    0.183
 4057.00    1.00692   1.00181    0.181
 4058.00    0.98808   0.99729    0.180
 4059.00    0.97138   0.99254    0.179
 4060.00    0.95583   0.98878    0.180
 4061.00    0.94349   0.98539    0.180
 4062.00    0.93266   0.98101    0.181
 4063.00    0.93090   0.97845    0.180
 4064.00    0.93281   0.97832    0.179
 4065.00    0.94158   0.97745    0.179
 4066.00    0.95272   0.97632    0.179
 4067.00    0.93361   0.97571    0.177
 4068.00    0.90572   0.97544    0.175
 4069.00    0.90186   0.97596    0.174
 4070.00    0.90378   0.97470    0.174
 4071.00    0.91075   0.97275    0.175
 4072.00    0.91871   0.97313    0.176
 4073.00    0.95030   0.97336    0.175
 4074.00    0.98547   0.97365    0.172
 4075.00    1.00759   0.97500    0.172
 4076.00    1.02828   0.97737    0.172
 4077.00    1.00842   0.98242    0.172
 4078.00    0.98558   0.98816    0.171
 4079.00    0.96947   0.99379    0.172
 4080.00    0.95361   1.00009    0.172
 4081.00    0.96986   1.00577    0.172
 4082.00    0.98641   1.01076    0.171
 4083.00    1.00794   1.01516    0.170
 4084.00    1.02749   1.01854    0.169
 4085.00    1.01439   1.02091    0.171
 4086.00    0.99947   1.02189    0.172
 4087.00    0.96591   1.02095    0.170
 4088.00    0.93405   1.01767    0.169
 4089.00    0.91475   1.01222    0.167
 4090.00    0.90032   1.00410    0.166
 4091.00    0.91321   0.99165    0.169
 4092.00    0.93157   0.97627    0.000
 4093.00    0.97434   0.95828    0.000
 4094.00    1.00590   0.93670    0.000
 4095.00    0.99629   0.91353    0.000
 4096.00    0.97985   0.89007    0.000
 4097.00    0.94243   0.86837    0.000
 4098.00    0.91756   0.85059    0.000
 4099.00    0.92550   0.83690    0.000
 4100.00    0.91897   0.82805    0.000
 4101.00    0.87994   0.82720    0.000
 4102.00    0.86116   0.83441    0.000
 4103.00    0.88181   0.84640    0.000
 4104.00    0.89425   0.86246    0.000
 4105.00    0.89278   0.88073    0.000
 4106.00    0.89679   0.89952    0.000
 4107.00    0.90896   0.91864    0.000
 4108.00    0.92272   0.93533    0.000
 4109.00    0.93857   0.94904    0.000
 4110.00    0.95118   0.96067    0.000
 4111.00    0.96005   0.96957    0.000
 4112.00    0.95313   0.97613    0.000
 4113.00    0.93019   0.98095    0.170
 4114.00    0.93186   0.98344    0.169
 4115.00    0.95557   0.98453    0.167
 4116.00    0.95083   0.98565    0.166
 4117.00    0.92365   0.98524    0.166
 4118.00    0.90733   0.98474    0.238
 4119.00    0.89855   0.98519    0.866
 4120.00    0.94850   0.98530   -1.000
 4121.00    1.03418   0.98653   -1.000
 4122.00    1.02702   0.98720   -1.000
 4123.00    0.97053   0.98745   -1.000
 4124.00    0.93878   0.98803   -1.000
 4125.00    0.91843   0.98688   -1.000
 4126.00    0.90590   0.98456    0.466
 4127.00    0.89648   0.98175    0.194
 4128.00    0.88831   0.97859    0.170
 4129.00    0.88056   0.97617    0.172
 4130.00    0.89694   0.97423    0.172
 4131.00    0.92018   0.97234    0.171
 4132.00    0.89686   0.97302    0.170
 4133.00    0.86260   0.97438    0.169
 4134.00    0.85134   0.97657    0.167
 4135.00    0.84443   0.97931    0.165
 4136.00    0.85479   0.97914    0.166
 4137.00    0.86767   0.97846    0.168
 4138.00    0.90280   0.97621    0.171
 4139.00    0.94028   0.97246    0.174
 4140.00    0.92976   0.96840    0.174
 4141.00    0.91591   0.96282    0.174
 4142.00    0.87041   0.95728    0.171
 4143.00    0.82382   0.95381    0.168
 4144.00    0.88774   0.95313    0.169
 4145.00    0.94887   0.95345    0.170
 4146.00    0.91070   0.95411    0.169
 4147.00    0.87547   0.95528    0.168
 4148.00    0.88580   0.95647    0.169
 4149.00    0.89093   0.95853    0.170
 4150.00    0.84492   0.96029    0.166
 4151.00    0.80720   0.96107    0.163
 4152.00    0.82832   0.96248    0.164
 4153.00    0.84849   0.96395    0.165
 4154.00    0.86348   0.96655    0.168
 4155.00    0.86563   0.96985    0.169
 4156.00    0.81166   0.97358    0.163
 4157.00    0.76844   0.97833    0.159
 4158.00    0.76392   0.98249    0.157
 4159.00    0.80412   0.98643    0.156
 4160.00    0.97926   0.98903    0.159
 4161.00    1.09202   0.99038    0.161
 4162.00    1.04458   0.99096    0.161
 4163.00    1.01436   0.98932    0.160
 4164.00    1.02218   0.98654    0.160
 4165.00    1.02283   0.98264    0.160
 4166.00    1.00974   0.97695    0.160
 4167.00    1.00902   0.97149    0.161
 4168.00    1.02896   0.96592    0.162
 4169.00    1.02570   0.96030    0.163
 4170.00    0.98847   0.95536    0.163
 4171.00    0.96352   0.94983    0.163
 4172.00    0.95440   0.94605    0.162
 4173.00    0.96587   0.94454    0.164
 4174.00    1.00071   0.94393    0.167
 4175.00    1.01663   0.94435    0.167
 4176.00    1.01361   0.94497    0.165
 4177.00    1.01483   0.94666    0.163
 4178.00    1.01980   0.94960    0.162
 4179.00    1.01061   0.95264    0.161
 4180.00    0.99040   0.95466    0.160
 4181.00    0.98528   0.95569    0.159
 4182.00    0.99049   0.95739    0.159
 4183.00    1.00067   0.95876    0.160
 4184.00    1.01384   0.96011    0.161
 4185.00    1.02069   0.96048    0.162
 4186.00    1.02425   0.95985    0.163
 4187.00    1.02715   0.96101    0.161
 4188.00    1.02975   0.96182    0.158
 4189.00    1.01669   0.96180    0.158
 4190.00    0.99751   0.96069    0.159
 4191.00    0.95246   0.95849    0.157
 4192.00    0.89882   0.95620    0.154
 4193.00    0.92673   0.95225    0.157
 4194.00    0.97738   0.94701    0.161
 4195.00    1.00191   0.94097    0.161
 4196.00    1.02044   0.93563    0.161
 4197.00    1.04579   0.93157    0.163
 4198.00    1.07240   0.92867    0.166
 4199.00    1.03746   0.92818    0.165
 4200.00    0.99381   0.92959    0.163
 4201.00    0.95097   0.93305    0.159
 4202.00    0.90821   0.93910    0.155
 4203.00    0.88921   0.94566    0.154
 4204.00    0.87176   0.95253    0.153
 4205.00    0.92352   0.95973    0.156
 4206.00    0.97732   0.96575    0.160
 4207.00    0.97427   0.97101    0.160
 4208.00    0.97175   0.97439    0.161
 4209.00    0.98473   0.97544    0.160
 4210.00    0.99914   0.97639    0.159
 4211.00    1.03420   0.97723    0.160
 4212.00    1.06507   0.97711    0.161
 4213.00    1.05625   0.97695    0.160
 4214.00    1.04687   0.97598    0.158
 4215.00    1.03362   0.97578    0.157
 4216.00    1.02060   0.97621    0.156
 4217.00    1.00883   0.97488    0.156
 4218.00    0.99712   0.97185    0.157
 4219.00    0.98567   0.96621    0.155
 4220.00    0.97643   0.95851    0.155
 4221.00    0.97501   0.94910    0.156
 4222.00    0.96165   0.93969    0.157
 4223.00    0.91297   0.93042    0.156
 4224.00    0.88916   0.92197    0.155
 4225.00    0.92812   0.91613    0.157
 4226.00    0.94729   0.91309    0.157
 4227.00    0.92348   0.91482    0.154
 4228.00    0.91594   0.91955    0.152
 4229.00    0.93912   0.92495    0.152
 4230.00    0.94387   0.93103    0.151
 4231.00    0.91827   0.93676    0.149
 4232.00    0.89630   0.94176    0.147
 4233.00    0.87955   0.94677    0.146
 4234.00    0.87864   0.95063    0.146
 4235.00    0.89784   0.95361    0.147
 4236.00    0.90155   0.95722    0.147
 4237.00    0.88791   0.96073    0.146
 4238.00    0.87373   0.96526    0.145
 4239.00    0.85903   0.96978    0.143
 4240.00    0.88020   0.97390    0.144
 4241.00    0.93258   0.97717    0.147
 4242.00    0.95615   0.97885    0.149
 4243.00    0.95766   0.97997    0.149
 4244.00    0.96438   0.97838    0.151
 4245.00    0.97463   0.97496    0.153
 4246.00    0.97526   0.97043    0.155
 4247.00    0.97020   0.96442    0.156
 4248.00    0.97801   0.95876    0.158
 4249.00    0.99243   0.95281    0.160
 4250.00    1.00585   0.94848    0.161
 4251.00    1.01882   0.94637    0.160
 4252.00    1.01386   0.94373    0.158
 4253.00    1.00203   0.94188    0.155
 4254.00    0.98900   0.94147    0.152
 4255.00    0.97557   0.94263    0.149
 4256.00    0.94168   0.94574    0.149
 4257.00    0.90221   0.94779    0.149
 4258.00    0.91580   0.94989    0.150
 4259.00    0.94129   0.95260    0.150
 4260.00    0.95873   0.95568    0.151
 4261.00    0.97473   0.95943    0.152
 4262.00    1.00771   0.96198    0.153
 4263.00    1.04302   0.96248    0.154
 4264.00    1.03666   0.96071    0.155
 4265.00    1.02624   0.95656    0.156
 4266.00    0.99489   0.94984    0.154
 4267.00    0.96226   0.94259    0.151
 4268.00    0.90510   0.93433    0.149
 4269.00    0.84742   0.92566    0.146
 4270.00    0.81560   0.91830    0.145
 4271.00    0.78519   0.91299    0.144
 4272.00    0.79191   0.91192    0.144
 4273.00    0.80076   0.91243    0.144
 4274.00    0.83894   0.91456    0.147
 4275.00    0.87810   0.91986    0.150
 4276.00    0.92624   0.92545    0.151
 4277.00    0.96787   0.93122    0.152
 4278.00    0.96617   0.93575    0.150
 4279.00    0.96665   0.93725    0.149
 4280.00    0.97837   0.93861    0.151
 4281.00    0.98572   0.93797    0.153
 4282.00    0.97488   0.93555   -2.000
 4283.00    0.96364   0.93213   -2.000
 4284.00    0.95104   0.92651   -2.000
 4285.00    0.94489   0.92163   -2.000
 4286.00    0.95748   0.91700   -2.000
 4287.00    0.97342   0.91264   -2.000
 4288.00    0.99768   0.90771   -2.000
 4289.00    1.01990   0.90355   -2.000
 4290.00    1.03778   0.90107   -2.000
 4291.00    1.04396   0.89834   -2.000
 4292.00    1.02844   0.89577   -2.000
 4293.00    1.03268   0.89043   -2.000
 4294.00    1.06899   0.88469   -2.000
 4295.00    1.05240   0.87863   -2.000
 4296.00    0.96055   0.87039   -2.000
 4297.00    0.90323   0.86197   -2.000
 4298.00    0.88912   0.85234    0.152
 4299.00    0.90462   0.84319    0.151
 4300.00    0.95277   0.83592    0.152
 4301.00    0.95014   0.82898    0.152
 4302.00    0.89808   0.82321    0.152
 4303.00    0.86458   0.81995    0.152
 4304.00    0.84699   0.81803    0.153
 4305.00    0.86237   0.81864    0.153
 4306.00    0.90264   0.82143    0.152
 4307.00    0.92715   0.82663    0.152
 4308.00    0.94118   0.83600    0.153
 4309.00    0.94353   0.84821    0.153
 4310.00    0.93909   0.86382    0.152
 4311.00    0.92970   0.88102    0.151
 4312.00    0.91780   0.89934    0.149
 4313.00    0.94185   0.91769    0.148
 4314.00    0.98168   0.93497    0.148
 4315.00    1.00006   0.95092    0.148
 4316.00    1.01036   0.96238    0.148
 4317.00    1.02648   0.96888    0.149
 4318.00    1.04447   0.97077    0.151
 4319.00    1.05726   0.96903    0.153
 4320.00    1.06866   0.96395    0.155
 4321.00    1.07737   0.95818    0.155
 4322.00    1.08548   0.95071    0.155
 4323.00    1.09028   0.94386    0.156
 4324.00    1.09451   0.93883    0.156
 4325.00    1.05622   0.93638    0.155
 4326.00    1.01231   0.93854    0.153
 4327.00    1.02233   0.94156    0.153
 4328.00    1.03738   0.94469    0.152
 4329.00    1.05942   0.94553    0.154
 4330.00    1.08185   0.94405    0.000
 4331.00    1.09504   0.93975    0.000
 4332.00    1.10762   0.93083    0.000
 4333.00    1.07641   0.91867    0.000
 4334.00    1.04615   0.90301    0.000
 4335.00    1.03886   0.88541    0.000
 4336.00    1.03242   0.86652    0.000
 4337.00    1.03703   0.84995    0.000
 4338.00    1.04081   0.83791    0.000
 4339.00    1.03724   0.83015    0.000
 4340.00    1.03496   0.82981    0.000
 4341.00    1.04099   0.83668    0.000
 4342.00    1.04009   0.84748    0.000
 4343.00    1.00419   0.86065    0.000
 4344.00    0.98471   0.87625    0.000
 4345.00    1.03221   0.89182    0.000
 4346.00    1.06342   0.90583    0.000
 4347.00    1.03950   0.91855    0.000
 4348.00    1.03364   0.92941    0.000
 4349.00    1.07936   0.93735    0.000
 4350.00    1.11017   0.94201    0.000
 4351.00    1.10465   0.94637    0.156
 4352.00    1.10540   0.95216    0.156
 4353.00    1.11936   0.95790    0.158
 4354.00    1.11192   0.96366    0.193
 4355.00    1.06536   0.97007    0.508
 4356.00    1.02998   0.97693   -1.000
 4357.00    1.01243   0.98314   -1.000
 4358.00    1.01494   0.98862   -1.000
 4359.00    1.04556   0.99464   -1.000
 4360.00    1.05550   0.99999   -1.000
 4361.00    1.03991   1.00376   -1.000
 4362.00    1.03800   1.00555    0.622
 4363.00    1.05098   1.00630    0.201
 4364.00    1.06528   1.00582    0.152
 4365.00    1.08084   1.00274    0.154
 4366.00    1.07912   0.99811    0.154
 4367.00    1.06280   0.99284    0.153
 4368.00    1.05633   0.98767    0.153
 4369.00    1.05721   0.98192    0.154
 4370.00    1.05579   0.97625    0.153
 4371.00    1.05285   0.97115    0.151
 4372.00    1.03206   0.96582    0.151
 4373.00    1.00104   0.96054    0.152
 4374.00    0.98557   0.95559    0.152
 4375.00    0.97785   0.95095    0.151
 4376.00    0.98875   0.94632    0.150
 4377.00    1.00768   0.94032    0.149
 4378.00    1.01726   0.93324    0.150
 4379.00    1.02339   0.92480    0.151
 4380.00    0.99755   0.91618    0.150
 4381.00    0.96168   0.90780    0.148
 4382.00    0.95936   0.89928    0.150
 4383.00    0.96582   0.89413    0.153
 4384.00    0.98957   0.89259    0.153
 4385.00    1.01703   0.89436    0.152
 4386.00    1.01252   0.89751    0.150
 4387.00    1.00261   0.90224    0.148
 4388.00    1.02013   0.90976    0.149
 4389.00    1.04114   0.91781    0.150
 4390.00    1.00958   0.92649    0.148
 4391.00    0.97333   0.93581    0.145
 4392.00    1.01846   0.94383    0.148
 4393.00    1.06791   0.95024    0.150
 4394.00    1.04591   0.95518    0.148
 4395.00    1.02272   0.95923    0.147
 4396.00    1.01661   0.96167    0.145
 4397.00    1.01062   0.96113    0.143
 4398.00    1.00746   0.95920    0.144
 4399.00    1.00487   0.95521    0.146
 4400.00    1.00940   0.95030    0.147
 4401.00    1.01173   0.94665    0.148
 4402.00    0.99551   0.94269    0.148
 4403.00    0.97869   0.93852    0.148
 4404.00    0.95813   0.93647    0.146
 4405.00    0.94442   0.93788    0.145
 4406.00    0.96446   0.94028    0.145
 4407.00    0.98310   0.94329    0.145
 4408.00    0.99617   0.94846    0.145
 4409.00    1.01604   0.95428    0.146
 4410.00    1.05848   0.95905    0.147
 4411.00    1.09009   0.96327    0.147
 4412.00    1.09135   0.96719    0.147
 4413.00    1.08291   0.96917    0.147
 4414.00    1.05122   0.96979    0.146
 4415.00    1.03144   0.97227    0.145
 4416.00    1.03631   0.97502    0.145
 4417.00    1.04356   0.97730    0.144
 4418.00    1.05512   0.97995    0.145
 4419.00    1.06156   0.98157    0.144
 4420.00    1.05993   0.98264    0.144
 4421.00    1.05672   0.98260    0.144
 4422.00    1.05131   0.98256    0.145
 4423.00    1.05675   0.98309    0.146
 4424.00    1.07539   0.98229    0.147
 4425.00    1.09231   0.98098    0.147
 4426.00    1.10739   0.97920    0.146
 4427.00    1.10426   0.97716    0.145
 4428.00    1.08393   0.97550    0.144
 4429.00    1.06847   0.97265    0.143
 4430.00    1.05708   0.97111    0.143
 4431.00    1.06878   0.97050    0.144
 4432.00    1.09745   0.96923    0.145
 4433.00    1.07411   0.96858    0.145
 4434.00    1.01724   0.96852    0.144
 4435.00    0.99544   0.97010    0.143
 4436.00    0.99343   0.97283    0.142
 4437.00    1.01055   0.97562    0.144
 4438.00    1.03707   0.97887    0.147
 4439.00    1.06946   0.98099    0.147
 4440.00    1.10434   0.98282    0.146
 4441.00    1.12064   0.98477    0.147
 4442.00    1.13018   0.98702    0.150
 4443.00    1.11896   0.98997    0.148
 4444.00    1.10135   0.99281    0.146
 4445.00    1.06939   0.99470    0.145
 4446.00    1.03375   0.99461    0.144
 4447.00    1.03475   0.99369    0.144
 4448.00    1.04339   0.99202    0.144
 4449.00    1.04367   0.98772    0.143
 4450.00    1.04257   0.98277    0.143
 4451.00    1.02169   0.97666    0.142
 4452.00    0.99837   0.96927    0.141
 4453.00    1.00244   0.96157    0.141
 4454.00    1.00883   0.95370    0.141
 4455.00    0.99792   0.94818    0.141
 4456.00    0.98615   0.94359    0.142
 4457.00    0.99126   0.94032    0.141
 4458.00    0.99621   0.93848    0.141
 4459.00    0.97426   0.93829    0.138
 4460.00    0.95327   0.93945    0.137
 4461.00    0.95175   0.94088    0.000
 4462.00    0.95222   0.94471    0.000
 4463.00    0.97617   0.94823    0.000
 4464.00    0.99736   0.95117    0.000
 4465.00    0.99618   0.95445    0.000
 4466.00    1.00212   0.95754    0.000
 4467.00    1.05137   0.96131    0.000
 4468.00    1.09077   0.96465    0.000
 4469.00    1.08289   0.96948    0.000
 4470.00    1.07772   0.97456    0.000
 4471.00    1.08316   0.98040    0.000
 4472.00    1.08722   0.98717    0.000
 4473.00    1.08681   0.99308    0.000
 4474.00    1.08371   0.99787    0.000
 4475.00    1.07320   1.00168    0.000
 4476.00    1.06834   1.00481    0.000
 4477.00    1.07679   1.00628    0.000
 4478.00    1.07513   1.00646    0.000
 4479.00    1.05288   1.00564    0.000
 4480.00    1.03117   1.00522    0.000
 4481.00    1.01042   1.00522    0.000
 4482.00    1.02146   1.00619    0.136
 4483.00    1.08180   1.00735    0.137
 4484.00    1.11151   1.00786    0.137
 4485.00    1.09951   1.00817    0.137
 4486.00    1.08661   1.00744    0.138
 4487.00    1.07265   1.00602    0.140
 4488.00    1.07827   1.00420    0.141
 4489.00    1.10459   1.00250    0.142
 4490.00    1.09806   1.00160    0.141
 4491.00    1.06091   1.00065    0.140
 4492.00    1.04340   1.00051    0.140
 4493.00    1.04203   1.00040    0.141
 4494.00    1.04807   1.00201    0.140
 4495.00    1.05947   1.00533    0.139
 4496.00    1.05275   1.00982    0.140
 4497.00    1.03450   1.01579    0.141
 4498.00    1.04422   1.02192    0.141
 4499.00    1.06948   1.02858    0.140
 4500.00    1.09236   1.03471    0.140
 4501.00    1.11408   1.04071    0.142
 4502.00    1.10788   1.04697    0.141
 4503.00    1.09003   1.05137    0.140
 4504.00    1.08400   1.05441    0.140
 4505.00    1.08219   1.05570    0.140
 4506.00    1.08948   1.05563    0.139
 4507.00    1.09950   1.05423    0.137
 4508.00    1.08143   1.05183    0.136
 4509.00    1.05633   1.04862    0.134
 4510.00    1.06860   1.04476    0.135
 4511.00    1.08848   1.04033    0.136
 4512.00    1.09794   1.03598    0.136
 4513.00    1.10574   1.03193    0.136
 4514.00    1.09761   1.02840    0.138
 4515.00    1.08759   1.02551    0.140
 4516.00    1.08262   1.02269    0.140
 4517.00    1.07806   1.01923    0.141
 4518.00    1.06835   1.01631    0.140
 4519.00    1.05841   1.01217    0.138
 4520.00    1.06121   1.00729    0.138
 4521.00    1.06477   1.00084    0.138
 4522.00    1.09903   0.99304    0.140
 4523.00    1.13006   0.98530    0.141
 4524.00    1.10026   0.97672    0.140
 4525.00    1.06947   0.96835    0.139
 4526.00    1.02761   0.96069    0.137
 4527.00    0.99408   0.95474    0.135
 4528.00    1.02578   0.95019    0.136
 4529.00    1.04984   0.94833    0.136
 4530.00    1.02873   0.94762    0.136
 4531.00    1.01477   0.94937    0.136
 4532.00    1.03434   0.95207    0.137
 4533.00    1.05267   0.95565    0.138
 4534.00    1.06627   0.96046    0.137
 4535.00    1.06894   0.96546    0.136
 4536.00    1.03673   0.97165    0.136
 4537.00    1.02349   0.97618    0.136
 4538.00    1.06149   0.97977    0.137
 4539.00    1.08246   0.98242    0.138
 4540.00    1.06396   0.98403    0.137
 4541.00    1.04818   0.98546    0.137
 4542.00    1.03786   0.98595    0.138
 4543.00    1.03189   0.98577    0.138
 4544.00    1.03352   0.98458    0.138
 4545.00    1.04104   0.98404    0.138
 4546.00    1.05758   0.98291    0.138
 4547.00    1.06745   0.98204    0.139
 4548.00    1.06836   0.98116    0.138
 4549.00    1.04425   0.98102    0.137
 4550.00    0.99055   0.98247    0.000
 4551.00    0.98582   0.98375    0.000
 4552.00    1.03214   0.98631    0.000
 4553.00    1.05318   0.98957    0.000
 4554.00    1.05097   0.99385    0.000
 4555.00    1.03964   0.99857    0.000
 4556.00    1.02091   1.00376    0.000
 4557.00    1.02220   1.00811    0.000
 4558.00    1.03775   1.01175    0.000
 4559.00    1.05832   1.01447    0.000
 4560.00    1.08203   1.01601    0.000
 4561.00    1.06006   1.01702    0.000
 4562.00    1.01310   1.01682    0.000
 4563.00    1.01451   1.01636    0.000
 4564.00    1.03891   1.01605    0.000
 4565.00    1.06944   1.01600    0.000
 4566.00    1.10249   1.01637    0.000
 4567.00    1.08292   1.01663    0.000
 4568.00    1.04491   1.01657    0.000
 4569.00    1.04065   1.01682    0.000
 4570.00    1.04636   1.01645    0.000
 4571.00    1.05857   1.01592    0.000
 4572.00    1.07238   1.01575    0.000
 4573.00    1.05073   1.01446    0.000
 4574.00    1.02204   1.01218    0.000
 4575.00    1.03115   1.00974    0.000
 4576.00    1.04610   1.00651    0.000
 4577.00    1.04657   1.00305    0.000
 4578.00    1.04539   0.99927    0.000
 4579.00    1.02353   0.99605    0.000
 4580.00    1.00008   0.99350    0.000
 4581.00    1.04824   0.99213    0.000
 4582.00    1.09938   0.99152    0.000
 4583.00    1.06754   0.99119    0.000
 4584.00    1.03571   0.99208    0.000
 4585.00    1.03527   0.99278    0.000
 4586.00    1.03758   0.99419    0.000
 4587.00    1.08806   0.99507    0.000
 4588.00    1.13186   0.99548    0.000
 4589.00    1.10430   0.99492    0.000
 4590.00    1.07876   0.99375    0.000
 4591.00    1.06853   0.99207    0.000
 4592.00    1.05791   0.99039    0.000
 4593.00    1.04503   0.98856    0.000
 4594.00    1.03462   0.98692    0.000
 4595.00    1.03549   0.98557    0.000
 4596.00    1.03573   0.98521    0.000
 4597.00    1.03356   0.98495    0.000
 4598.00    1.03337   0.98579    0.000
 4599.00    1.03937   0.98697    0.000
 4600.00    1.03649   0.98865    0.000
 4601.00    1.01003   0.99180    0.000
 4602.00    0.99593   0.99480    0.000
 4603.00    1.01001   0.99907    0.000
 4604.00    1.03162   1.00301    0.000
 4605.00    1.06810   1.00781    0.000
 4606.00    1.08757   1.01231    0.000
 4607.00    1.07779   1.01678    0.000
 4608.00    1.06996   1.02054    0.000
 4609.00    1.06509   1.02345    0.000
 4610.00    1.05502   1.02561    0.000
 4611.00    1.03805   1.02723    0.000
 4612.00    1.04046   1.02855    0.000
 4613.00    1.06544   1.02906    0.000
 4614.00    1.08796   1.03011    0.000
 4615.00    1.10796   1.03005    0.000
 4616.00    1.09697   1.03043    0.000
 4617.00    1.05790   1.03050    0.000
 4618.00    1.05168   1.03050    0.000
 4619.00    1.07170   1.03039    0.000
 4620.00    1.08739   1.03059    0.000
 4621.00    1.10005   1.03019    0.000
 4622.00    1.10320   1.02957    0.000
 4623.00    1.10050   1.02889    0.000
 4624.00    1.08172   1.02767    0.000
 4625.00    1.05427   1.02621    0.000
 4626.00    1.05118   1.02441    0.000
 4627.00    1.05948   1.02233    0.000
 4628.00    1.08421   1.01968    0.000
 4629.00    1.11556   1.01670    0.000
 4630.00    1.09160   1.01346    0.000
 4631.00    1.04860   1.00984    0.000
 4632.00    1.02546   1.00549    0.000
 4633.00    1.00806   1.00121    0.000
 4634.00    1.01306   0.99677    0.000
 4635.00    1.02342   0.99223    0.000
 4636.00    1.01444   0.98776    0.000
 4637.00    1.00172   0.98308    0.000
 4638.00    0.99651   0.97910    0.000
 4639.00    0.99243   0.97476    0.000
 4640.00    1.00922   0.97101    0.000
 4641.00    1.02831   0.96707    0.000
 4642.00    1.01753   0.96332    0.000
 4643.00    1.00459   0.95949    0.000
 4644.00    0.99118   0.95649    0.000
 4645.00    0.97775   0.95397    0.000
 4646.00    1.00767   0.95271    0.000
 4647.00    1.03697   0.95283    0.000
 4648.00    1.03506   0.95439    0.000
 4649.00    1.03423   0.95693    0.000
 4650.00    1.05085   0.96082    0.000
 4651.00    1.06405   0.96500    0.000
 4652.00    1.04225   0.97011    0.000
 4653.00    1.01806   0.97487    0.000
 4654.00    0.97641   0.97966    0.000
 4655.00    0.94384   0.98431    0.000
 4656.00    0.96205   0.98783    0.000
 4657.00    0.98269   0.99058    0.000
 4658.00    1.01420   0.99128    0.000
 4659.00    1.04121   0.99043    0.000
 4660.00    1.05174   0.98745    0.000
 4661.00    1.05873   0.98317    0.000
 4662.00    1.05483   0.97791    0.000
 4663.00    1.03893   0.97210    0.000
 4664.00    0.99172   0.96660    0.000
 4665.00    0.96642   0.96168    0.000
 4666.00    0.99026   0.95827    0.000
 4667.00    0.99987   0.95660    0.000
 4668.00    0.98185   0.95699    0.000
 4669.00    0.96927   0.95855    0.000
 4670.00    0.96589   0.96112    0.000
 4671.00    0.98184   0.96412    0.000
 4672.00    1.02645   0.96698    0.000
 4673.00    1.04899   0.96979    0.000
 4674.00    1.04273   0.97173    0.000
 4675.00    1.03712   0.97301    0.000
 4676.00    1.03224   0.97323    0.000
 4677.00    1.01107   0.97258    0.000
 4678.00    0.97338   0.97145    0.000
 4679.00    0.97014   0.97001    0.000
 4680.00    0.99766   0.96870    0.000
 4681.00    1.01719   0.96748    0.000
 4682.00    1.03042   0.96659    0.000
 4683.00    1.03000   0.96620    0.000
 4684.00    1.02011   0.96596    0.000
 4685.00    1.01234   0.96641    0.000
 4686.00    1.00585   0.96720    0.000
 4687.00    0.99596   0.96836    0.000
 4688.00    0.98426   0.96959    0.000
 4689.00    0.99605   0.97099    0.000
 4690.00    1.01866   0.97209    0.000
 4691.00    1.01935   0.97296    0.000
 4692.00    1.01136   0.97345    0.000
 4693.00    0.99431   0.97307    0.000
 4694.00    0.97421   0.97206    0.000
 4695.00    0.97431   0.96995    0.000
 4696.00    0.98013   0.96717    0.000
 4697.00    0.97758   0.96392    0.000
 4698.00    0.97307   0.96029    0.000
 4699.00    0.97766   0.95709    0.000
 4700.00    0.98398   0.95382    0.000
 4701.00    0.98674   0.95136    0.000
 4702.00    0.98898   0.94933    0.000
 4703.00    0.98453   0.94821    0.000
 4704.00    0.97937   0.94773    0.000
 4705.00    0.98815   0.94778    0.000
 4706.00    0.99788   0.94866    0.000
 4707.00    0.97508   0.94984    0.000
 4708.00    0.95117   0.95235    0.000
 4709.00    0.97276   0.95466    0.000
 4710.00    0.99407   0.95839    0.000
 4711.00    1.00417   0.96185    0.000
 4712.00    1.01467   0.96657    0.000
 4713.00    1.03124   0.97136    0.000
 4714.00    1.04482   0.97708    0.000
 4715.00    1.02910   0.98252    0.000
 4716.00    1.01572   0.98818    0.000
 4717.00    1.01895   0.99283    0.000
 4718.00    1.02039   0.99689    0.000
 4719.00    1.01204   0.99939    0.000
 4720.00    1.00535   1.00061    0.000
 4721.00    1.00592   1.00025    0.000
 4722.00    1.00857   0.99841    0.000
 4723.00    1.01874   0.99531    0.000
 4724.00    1.02389   0.99092    0.000
 4725.00    1.01393   0.98602    0.000
 4726.00    1.01285   0.98099    0.000
 4727.00    1.03453   0.97643    0.000
 4728.00    1.04738   0.97285    0.000
 4729.00    1.04075   0.97030    0.000
 4730.00    1.02401   0.96911    0.000
 4731.00    0.98794   0.96879    0.000
 4732.00    0.97102   0.96992    0.000
 4733.00    0.98605   0.97132    0.000
 4734.00    0.99640   0.97357    0.000
 4735.00    0.99991   0.97620    0.000
 4736.00    1.00990   0.97889    0.000
 4737.00    1.02822   0.98172    0.000
 4738.00    1.02959   0.98437    0.000
 4739.00    1.01175   0.98695    0.000
 4740.00    0.99366   0.98938    0.000
 4741.00    0.97534   0.99171    0.000
 4742.00    0.98746   0.99365    0.000
 4743.00    1.02642   0.99551    0.000
 4744.00    1.04407   0.99686    0.000
 4745.00    1.04518   0.99770    0.000
 4746.00    1.04797   0.99811    0.000
 4747.00    1.05189   0.99761    0.000
 4748.00    1.03020   0.99683    0.000
 4749.00    0.99319   0.99489    0.000
 4750.00    0.99791   0.99301    0.000
 4751.00    1.02442   0.99007    0.000
 4752.00    1.02390   0.98745    0.000
 4753.00    1.01114   0.98421    0.000
 4754.00    1.01520   0.98122    0.000
 4755.00    1.02581   0.97800    0.000
 4756.00    1.02158   0.97478    0.000
 4757.00    1.01243   0.97159    0.000
 4758.00    1.00142   0.96812    0.000
 4759.00    0.98990   0.96470    0.000
 4760.00    1.00193   0.96138    0.000
 4761.00    1.01935   0.95843    0.135
 4762.00    1.01830   0.95597    0.134
 4763.00    1.01386   0.95435    0.132
 4764.00    0.98317   0.95376    0.132
 4765.00    0.94878   0.95433    0.132
 4766.00    0.98396   0.95591    0.134
 4767.00    1.02620   0.95867    0.136
 4768.00    1.00502   0.96172    0.136
 4769.00    0.97974   0.96559    0.136
 4770.00    0.97034   0.96945    0.135
 4771.00    0.96144   0.97354    0.133
 4772.00    0.96534   0.97716    0.133
 4773.00    0.96932   0.98006    0.133
 4774.00    0.97573   0.98235    0.134
 4775.00    0.98272   0.98356    0.135
 4776.00    0.99822   0.98380    0.133
 4777.00    1.00988   0.98305    0.132
 4778.00    0.98529   0.98146    0.130
 4779.00    0.95747   0.97913    0.127
 4780.00    0.90751   0.97626    0.126
 4781.00    0.86682   0.97334    0.124
 4782.00    0.87527   0.97070    0.127
 4783.00    0.87662   0.96818    0.129
 4784.00    0.84774   0.96653    0.128
 4785.00    0.83027   0.96589    0.127
 4786.00    0.85286   0.96589    0.127
 4787.00    0.88002   0.96723    0.127
 4788.00    0.92070   0.96925    0.127
 4789.00    0.94948   0.97215    0.128
 4790.00    0.94833   0.97540    0.130
 4791.00    0.95388   0.97892    0.131
 4792.00    0.97395   0.98213    0.131
 4793.00    0.98658   0.98476    0.131
 4794.00    0.98518   0.98673    0.130
 4795.00    0.98074   0.98788    0.130
 4796.00    0.97130   0.98824    0.130
 4797.00    0.97542   0.98811    0.131
 4798.00    0.99910   0.98743    0.132
 4799.00    1.00532   0.98666    0.132
 4800.00    0.98943   0.98526    0.132
 4801.00    0.98395   0.98405    0.133
 4802.00    0.99011   0.98222    0.135
 4803.00    1.00582   0.98109    0.135
 4804.00    1.03094   0.97958    0.132
 4805.00    1.02604   0.97869    0.132
 4806.00    0.99507   0.97793    0.133
 4807.00    0.97241   0.97792    0.133
 4808.00    0.95611   0.97811    0.131
 4809.00    0.96852   0.97897    0.129
 4810.00    1.00026   0.98012    0.128
 4811.00    1.00081   0.98175    0.128
 4812.00    0.98299   0.98356    0.130
 4813.00    0.96174   0.98536    0.129
 4814.00    0.93873   0.98708    0.128
 4815.00    0.96362   0.98820    0.127
 4816.00    1.00985   0.98891    0.127
 4817.00    1.01167   0.98876    0.128
 4818.00    0.99651   0.98791    0.129
 4819.00    0.99810   0.98638    0.130
 4820.00    1.00514   0.98404    0.131
 4821.00    1.02814   0.98148    0.130
 4822.00    1.05549   0.97887    0.129
 4823.00    1.04654   0.97622    0.128
 4824.00    1.02949   0.97362    0.128
 4825.00    0.99274   0.97120    0.128
 4826.00    0.95249   0.96919    0.128
 4827.00    0.96564   0.96749    0.128
 4828.00    0.98608   0.96625    0.128
 4829.00    0.97820   0.96492    0.127
 4830.00    0.96758   0.96433    0.125
 4831.00    0.94942   0.96351    0.125
 4832.00    0.93079   0.96309    0.124
 4833.00    0.96464   0.96218    0.127
 4834.00    0.99960   0.96158    0.130
 4835.00    0.98551   0.96050    0.129
 4836.00    0.97253   0.95949    0.127
 4837.00    0.98871   0.95823    0.128
 4838.00    1.00196   0.95712    0.128
 4839.00    0.97524   0.95603    0.127
 4840.00    0.94904   0.95493    0.126
 4841.00    0.92752   0.95394    0.125
 4842.00    0.91488   0.95303    0.124
 4843.00    0.96110   0.95183    0.125
 4844.00    0.99675   0.95028    0.126
 4845.00    0.97786   0.94808    0.126
 4846.00    0.96314   0.94505    0.126
 4847.00    0.96581   0.94103    0.125
 4848.00    0.96608   0.93556    0.000
 4849.00    0.95810   0.92847    0.000
 4850.00    0.95362   0.91971    0.000
 4851.00    0.95928   0.90913    0.000
 4852.00    0.96045   0.89700    0.000
 4853.00    0.95051   0.88340    0.000
 4854.00    0.94587   0.86915    0.000
 4855.00    0.95255   0.85424    0.000
 4856.00    0.94182   0.84004    0.000
 4857.00    0.89884   0.82697    0.000
 4858.00    0.86917   0.81667    0.000
 4859.00    0.86105   0.80899    0.000
 4860.00    0.86611   0.80552    0.000
 4861.00    0.88989   0.80489    0.000
 4862.00    0.91068   0.80828    0.000
 4863.00    0.92773   0.81389    0.000
 4864.00    0.92962   0.82221    0.000
 4865.00    0.91481   0.83129    0.000
 4866.00    0.90731   0.84127    0.000
 4867.00    0.90689   0.85092    0.000
 4868.00    0.90506   0.86040    0.000
 4869.00    0.90202   0.86915    0.000
 4870.00    0.90600   0.87748    0.000
 4871.00    0.91529   0.88511    0.000
 4872.00    0.92671   0.89250    0.000
 4873.00    0.93955   0.89919    0.000
 4874.00    0.93606   0.90587    0.000
 4875.00    0.92310   0.91155    0.124
 4876.00    0.91550   0.91672    0.124
 4877.00    0.91062   0.92060    0.125
 4878.00    0.92605   0.92364    0.126
 4879.00    0.95037   0.92514    0.127
 4880.00    0.95865   0.92558    0.127
 4881.00    0.96092   0.92480    0.127
 4882.00    0.95914   0.92335    0.127
 4883.00    0.95608   0.92153    0.127
 4884.00    0.95309   0.91958    0.127
 4885.00    0.95011   0.91833    0.128
 4886.00    0.94628   0.91754    0.128
 4887.00    0.94225   0.91866    0.127
 4888.00    0.94478   0.92088    0.127
 4889.00    0.94845   0.92500    0.127
 4890.00    0.95629   0.93018    0.128
 4891.00    0.96468   0.93662    0.130
 4892.00    0.95537   0.94348    0.129
 4893.00    0.94441   0.95051    0.127
 4894.00    0.94749   0.95701    0.128
 4895.00    0.95136   0.96253    0.130
 4896.00    0.96073   0.96700    0.131
 4897.00    0.97021   0.96998    0.132
 4898.00    0.97809   0.97167    0.130
 4899.00    0.98500   0.97211    0.128
 4900.00    0.96902   0.97167    0.129
 4901.00    0.95545   0.97045    0.130
 4902.00    0.97309   0.96867    0.131
 4903.00    0.98536   0.96647    0.131
 4904.00    0.95087   0.96413    0.130
 4905.00    0.92692   0.96152    0.129
 4906.00    0.97079   0.95903    0.131
 4907.00    1.00320   0.95624    0.132
 4908.00    0.97802   0.95361    0.133
 4909.00    0.95900   0.95044    0.133
 4910.00    0.96503   0.94730    0.133
 4911.00    0.96803   0.94333    0.133
 4912.00    0.96083   0.93903    0.133
 4913.00    0.96216   0.93386    0.133
 4914.00    0.98774   0.92828    0.133
 4915.00    1.00723   0.92246    0.133
 4916.00    1.01186   0.91656    0.132
 4917.00    1.00689   0.91157    0.132
 4918.00    0.98177   0.90722    0.131
 4919.00    0.95934   0.90514    0.130
 4920.00    0.94186   0.90435    0.130
 4921.00    0.91948   0.90641    0.129
 4922.00    0.88929   0.90980    0.127
 4923.00    0.88082   0.91547    0.126
 4924.00    0.90272   0.92164    0.127
 4925.00    0.92349   0.92875    0.128
 4926.00    0.94286   0.93508    0.128
 4927.00    0.95956   0.94089    0.128
 4928.00    0.97337   0.94513    0.129
 4929.00    0.98173   0.94787    0.129
 4930.00    0.98489   0.94885    0.130
 4931.00    0.98479   0.94836    0.129
 4932.00    0.98195   0.94685    0.127
 4933.00    0.97700   0.94460    0.127
 4934.00    0.97049   0.94252    0.127
 4935.00    0.95902   0.94054    0.127
 4936.00    0.94432   0.93980    0.126
 4937.00    0.93440   0.93978    0.125
 4938.00    0.92722   0.94152    0.125
 4939.00    0.92937   0.94394    0.126
 4940.00    0.93616   0.94796    0.000
 4941.00    0.95306   0.95212    0.000
 4942.00    0.97430   0.95720    0.000
 4943.00    0.97317   0.96163    0.000
 4944.00    0.96378   0.96610    0.000
 4945.00    0.96592   0.96929    0.000
 4946.00    0.97167   0.97174    0.000
 4947.00    0.95911   0.97257    0.000
 4948.00    0.94178   0.97213    0.000
 4949.00    0.94915   0.97021    0.000
 4950.00    0.96179   0.96692    0.000
 4951.00    0.99079   0.96271    0.000
 4952.00    1.02254   0.95754    0.000
 4953.00    0.98934   0.95232    0.000
 4954.00    0.94787   0.94696    0.000
 4955.00    0.92724   0.94237    0.000
 4956.00    0.90845   0.93847    0.000
 4957.00    0.92384   0.93563    0.000
 4958.00    0.94103   0.93383    0.000
 4959.00    0.94390   0.93282    0.000
 4960.00    0.94642   0.93267    0.000
 4961.00    0.94368   0.93274    0.000
 4962.00    0.94123   0.93331    0.000
 4963.00    0.94508   0.93370    0.000
 4964.00    0.94608   0.93442    0.000
 4965.00    0.91203   0.93493    0.000
 4966.00    0.88677   0.93576    0.000
 4967.00    0.93516   0.93650    0.000
 4968.00    0.97668   0.93743    0.000
 4969.00    0.97534   0.93818    0.000
 4970.00    0.96801   0.93870    0.000
 4971.00    0.93128   0.93865    0.000
 4972.00    0.90555   0.93782    0.000
 4973.00    0.92357   0.93595    0.000
 4974.00    0.93634   0.93302    0.000
 4975.00    0.93176   0.92893    0.000
 4976.00    0.92842   0.92401    0.000
 4977.00    0.92857   0.91839    0.000
 4978.00    0.93111   0.91269    0.000
 4979.00    0.93933   0.90717    0.000
 4980.00    0.93899   0.90247    0.000
 4981.00    0.92096   0.89881    0.000
 4982.00    0.91209   0.89656    0.000
 4983.00    0.91964   0.89574    0.000
 4984.00    0.92355   0.89625    0.000
 4985.00    0.92177   0.89799    0.000
 4986.00    0.92183   0.90042    0.000
 4987.00    0.92443   0.90344    0.000
 4988.00    0.92454   0.90633    0.000
 4989.00    0.92160   0.90913    0.000
 4990.00    0.93055   0.91112    0.000
 4991.00    0.95222   0.91251    0.000
 4992.00    0.96714   0.91279    0.000
 4993.00    0.97569   0.91221    0.000
 4994.00    0.96627   0.91050    0.000
 4995.00    0.94188   0.90793    0.000
 4996.00    0.91870   0.90450    0.000
 4997.00    0.89639   0.90043    0.000
 4998.00    0.88235   0.89596    0.000
 4999.00    0.87363   0.89126    0.000
 5000.00    0.87867   0.88669    0.000
 5001.00    0.89145   0.88228    0.000
 5002.00    0.89129   0.87843    0.000
 5003.00    0.88480   0.87491    0.000
 5004.00    0.89807   0.87204    0.000
 5005.00    0.91970   0.86941    0.000
 5006.00    0.92361   0.86726    0.000
 5007.00    0.92109   0.86509    0.000
 5008.00    0.91376   0.86317    0.000
 5009.00    0.90496   0.86111    0.000
 5010.00    0.90996   0.85924    0.000
 5011.00    0.91848   0.85744    0.000
 5012.00    0.89062   0.85601    0.000
 5013.00    0.85521   0.85509    0.000
 5014.00    0.87618   0.85476    0.000
 5015.00    0.90638   0.85532    0.000
 5016.00    0.89967   0.85651    0.000
 5017.00    0.88843   0.85870    0.000
 5018.00    0.88065   0.86130    0.000
 5019.00    0.87316   0.86477    0.000
 5020.00    0.86721   0.86830    0.000
 5021.00    0.86133   0.87249    0.000
 5022.00    0.89034   0.87644    0.000
 5023.00    0.91950   0.88084    0.000
 5024.00    0.92482   0.88479    0.000
 5025.00    0.92928   0.88890    0.000
 5026.00    0.91648   0.89243    0.000
 5027.00    0.90372   0.89563    0.000
 5028.00    0.89137   0.89807    0.000
 5029.00    0.88064   0.89954    0.123
 5030.00    0.88297   0.90007    0.123
 5031.00    0.88770   0.89917    0.123
 5032.00    0.90687   0.89735    0.124
 5033.00    0.92319   0.89411    0.124
 5034.00    0.92580   0.89042    0.123
 5035.00    0.92648   0.88598    0.122
 5036.00    0.91964   0.88190    0.123
 5037.00    0.91529   0.87808    0.124
 5038.00    0.91905   0.87542    0.123
 5039.00    0.91024   0.87382    0.122
 5040.00    0.86693   0.87368    0.123
 5041.00    0.84791   0.87471    0.123
 5042.00    0.88603   0.87684    0.121
 5043.00    0.91250   0.87966    0.120
 5044.00    0.91525   0.88287    0.120
 5045.00    0.91612   0.88616    0.120
 5046.00    0.91365   0.88932    0.121
 5047.00    0.91388   0.89234    0.120
 5048.00    0.91831   0.89512    0.119
 5049.00    0.92324   0.89798    0.118
 5050.00    0.92887   0.90076    0.119
 5051.00    0.93458   0.90388    0.119
 5052.00    0.94041   0.90696    0.118
 5053.00    0.93116   0.91033    0.118
 5054.00    0.90600   0.91337    0.118
 5055.00    0.90205   0.91631    0.117
 5056.00    0.91786   0.91841    0.113
 5057.00    0.93797   0.91991    0.114
 5058.00    0.96161   0.92020    0.118
 5059.00    0.95372   0.91963    0.119
 5060.00    0.92305   0.91784    0.118
 5061.00    0.90280   0.91535    0.118
 5062.00    0.88916   0.91200    0.118
 5063.00    0.87859   0.90846    0.118
 5064.00    0.86972   0.90458    0.118
 5065.00    0.88114   0.90103    0.118
 5066.00    0.90234   0.89754    0.119
 5067.00    0.91109   0.89463    0.119
 5068.00    0.91466   0.89187    0.119
 5069.00    0.91504   0.88958    0.120
 5070.00    0.91427   0.88723    0.122
 5071.00    0.91905   0.88506    0.123
 5072.00    0.92549   0.88257    0.124
 5073.00    0.91535   0.88012    0.123
 5074.00    0.90105   0.87724    0.121
 5075.00    0.88927   0.87461    0.121
 5076.00    0.87799   0.87174    0.122
 5077.00    0.87998   0.86962    0.121
 5078.00    0.88408   0.86770    0.121
 5079.00    0.89393   0.86702    0.122
 5080.00    0.90447   0.86696    0.122
 5081.00    0.87806   0.86829    0.120
 5082.00    0.84869   0.87037    0.117
 5083.00    0.85255   0.87355    0.118
 5084.00    0.85791   0.87722    0.120
 5085.00    0.84277   0.88130    0.120
 5086.00    0.82832   0.88537    0.120
 5087.00    0.86049   0.88910    0.120
 5088.00    0.88957   0.89226    0.120
 5089.00    0.86122   0.89453    0.119
 5090.00    0.83613   0.89585    0.118
 5091.00    0.84730   0.89609    0.119
 5092.00    0.86042   0.89530    0.121
 5093.00    0.88876   0.89368    0.122
 5094.00    0.90907   0.89126    0.123
 5095.00    0.88204   0.88856    0.123
 5096.00    0.86133   0.88543    0.124
 5097.00    0.87008   0.88262    0.124
 5098.00    0.87623   0.87971    0.124
 5099.00    0.87241   0.87747    0.123
 5100.00    0.86732   0.87529    0.121
 5101.00    0.85817   0.87380    0.119
 5102.00    0.84955   0.87245    0.118
 5103.00    0.84234   0.87163    0.118
 5104.00    0.84166   0.87108    0.119
 5105.00    0.85607   0.87098    0.121
 5106.00    0.87186   0.87139    0.122
 5107.00    0.89039   0.87224    0.122
 5108.00    0.90442   0.87377    0.121
 5109.00    0.91063   0.87565    0.120
 5110.00    0.89626   0.87811    0.119
 5111.00    0.85050   0.88059    0.118
 5112.00    0.83568   0.88316    0.118
 5113.00    0.86232   0.88527    0.120
 5114.00    0.89010   0.88679    0.121
 5115.00    0.91921   0.88734    0.120
 5116.00    0.93464   0.88680    0.122
 5117.00    0.93581   0.88510    0.124
 5118.00    0.93046   0.88223    0.124
 5119.00    0.91912   0.87853    0.121
 5120.00    0.90040   0.87405    0.118
 5121.00    0.87571   0.86942    0.117
 5122.00    0.86684   0.86477    0.115
 5123.00    0.86924   0.86067    0.114
 5124.00    0.85478   0.85726    0.115
 5125.00    0.82980   0.85482    0.116
 5126.00    0.83030   0.85340    0.116
 5127.00    0.84471   0.85286    0.116
 5128.00    0.83731   0.85330    0.116
 5129.00    0.81956   0.85410    0.116
 5130.00    0.83333   0.85548    0.116
 5131.00    0.86001   0.85655    0.117
 5132.00    0.89176   0.85772    0.116
 5133.00    0.92528   0.85813    0.116
 5134.00    0.91448   0.85822    0.116
 5135.00    0.89061   0.85751    0.116
 5136.00    0.87986   0.85638    0.117
 5137.00    0.87233   0.85472    0.118
 5138.00    0.87821   0.85276    0.118
 5139.00    0.88674   0.85066    0.117
 5140.00    0.88031   0.84856    0.117
 5141.00    0.87156   0.84658    0.117
 5142.00    0.88541   0.84486    0.117
 5143.00    0.90183   0.84340    0.118
 5144.00    0.88921   0.84242    0.118
 5145.00    0.87438   0.84169    0.118
 5146.00    0.85287   0.84168    0.118
 5147.00    0.83108   0.84180    0.118
 5148.00    0.81967   0.84273    0.118
 5149.00    0.80924   0.84393    0.118
 5150.00    0.83717   0.84583    0.119
 5151.00    0.86481   0.84784    0.120
 5152.00    0.88758   0.85028    0.120
 5153.00    0.90626   0.85249    0.121
 5154.00    0.88140   0.85444    0.121
 5155.00    0.86585   0.85552    0.121
 5156.00    0.92033   0.85535    0.123
 5157.00    0.96411   0.85362    0.125
 5158.00    0.94650   0.84992    0.125
 5159.00    0.92905   0.84416    0.125
 5160.00    0.91230   0.83624    0.124
 5161.00    0.89381   0.82650    0.124
 5162.00    0.86884   0.81517    0.123
 5163.00    0.85362   0.80305    0.123
 5164.00    0.86876   0.79055    0.124
 5165.00    0.87121   0.77884    0.124
 5166.00    0.84003   0.76824    0.122
 5167.00    0.81171   0.75978    0.122
 5168.00    0.78987   0.75343    0.123
 5169.00    0.77321   0.75001    0.123
 5170.00    0.76674   0.74884    0.120
 5171.00    0.77435   0.75020    0.119
 5172.00    0.80613   0.75323    0.122
 5173.00    0.81990   0.75768    0.122
 5174.00    0.80659   0.76256    0.121
 5175.00    0.80623   0.76746    0.120
 5176.00    0.82297   0.77160    0.121
 5177.00    0.83531   0.77503    0.121
 5178.00    0.84253   0.77753    0.120
 5179.00    0.83017   0.77950    0.120
 5180.00    0.79773   0.78097    0.120
 5181.00    0.77701   0.78240    0.119
 5182.00    0.76690   0.78426    0.116
 5183.00    0.76943   0.78681    0.116
 5184.00    0.78203   0.79033    0.117
 5185.00    0.79887   0.79456    0.117
 5186.00    0.81868   0.79958    0.115
 5187.00    0.81752   0.80495    0.115
 5188.00    0.80345   0.81060    0.114
 5189.00    0.81676   0.81614    0.115
 5190.00    0.84478   0.82127    0.000
 5191.00    0.86545   0.82605    0.000
 5192.00    0.88268   0.82997    0.000
 5193.00    0.87259   0.83366    0.000
 5194.00    0.85151   0.83642    0.000
 5195.00    0.84788   0.83870    0.000
 5196.00    0.85024   0.84014    0.000
 5197.00    0.85043   0.84070    0.000
 5198.00    0.84999   0.84030    0.000
 5199.00    0.87389   0.83874    0.000
 5200.00    0.90360   0.83648    0.000
 5201.00    0.88530   0.83312    0.000
 5202.00    0.85776   0.82983    0.000
 5203.00    0.84963   0.82613    0.000
 5204.00    0.84439   0.82342    0.000
 5205.00    0.83905   0.82120    0.000
 5206.00    0.83371   0.82074    0.000
 5207.00    0.82243   0.82138    0.000
 5208.00    0.81073   0.82380    0.000
 5209.00    0.82475   0.82749    0.000
 5210.00    0.83974   0.83238    0.000
 5211.00    0.84654   0.83798    0.117
 5212.00    0.85313   0.84365    0.118
 5213.00    0.85343   0.84956    0.116
 5214.00    0.85476   0.85443    0.114
 5215.00    0.87283   0.85882    0.117
 5216.00    0.88975   0.86170    0.120
 5217.00    0.89497   0.86347    0.119
 5218.00    0.89707   0.86381    0.118
 5219.00    0.87642   0.86296    0.120
 5220.00    0.86167   0.86128    0.121
 5221.00    0.87982   0.85880    0.119
 5222.00    0.89026   0.85609    0.118
 5223.00    0.86638   0.85327    0.119
 5224.00    0.85080   0.85092    0.121
 5225.00    0.86554   0.84935    0.121
 5226.00    0.87574   0.84871    0.120
 5227.00    0.87206   0.84930    0.120
 5228.00    0.86665   0.85102    0.120
 5229.00    0.85673   0.85390    0.119
 5230.00    0.84888   0.85768    0.119
 5231.00    0.84566   0.86234    0.119
 5232.00    0.85498   0.86743    0.119
 5233.00    0.88864   0.87243    0.120
 5234.00    0.90189   0.87731    0.121
 5235.00    0.88065   0.88188    0.122
 5236.00    0.87257   0.88567    0.122
 5237.00    0.88400   0.88907    0.121
 5238.00    0.89462   0.89152    0.121
 5239.00    0.90420   0.89305    0.121
 5240.00    0.91009   0.89356    0.121
 5241.00    0.91172   0.89288    0.119
 5242.00    0.90802   0.89133    0.118
 5243.00    0.89893   0.88894    0.118
 5244.00    0.87660   0.88615    0.118
 5245.00    0.84247   0.88300    0.116
 5246.00    0.84354   0.87991    0.116
 5247.00    0.87228   0.87708    0.118
 5248.00    0.88872   0.87488    0.118
 5249.00    0.89665   0.87298    0.119
 5250.00    0.86774   0.87174    0.117
 5251.00    0.81650   0.87115    0.115
 5252.00    0.82142   0.87093    0.114
 5253.00    0.85608   0.87046    0.114
 5254.00    0.86126   0.86948    0.114
 5255.00    0.85292   0.86805    0.113
 5256.00    0.85074   0.86512    0.113
 5257.00    0.85099   0.86099    0.113
 5258.00    0.85327   0.85519    0.114
 5259.00    0.85624   0.84832    0.116
 5260.00    0.85149   0.84052    0.116
 5261.00    0.84457   0.83185    0.115
 5262.00    0.83947   0.82318    0.115
 5263.00    0.83481   0.81487    0.115
 5264.00    0.82367   0.80785    0.116
 5265.00    0.81132   0.80231    0.117
 5266.00    0.79607   0.79902    0.117
 5267.00    0.78039   0.79790    0.117
 5268.00    0.78530   0.79928    0.118
 5269.00    0.79237   0.80272    0.119
 5270.00    0.80493   0.80821    0.118
 5271.00    0.81786   0.81526    0.117
 5272.00    0.84720   0.82291    0.119
 5273.00    0.87709   0.83134    0.121
 5274.00    0.88896   0.84031    0.122
 5275.00    0.90021   0.84899    0.122
 5276.00    0.89219   0.85677    0.122
 5277.00    0.88396   0.86387    0.121
 5278.00    0.87250   0.87039    0.119
 5279.00    0.86212   0.87602    0.117
 5280.00    0.86220   0.88154    0.118
 5281.00    0.86361   0.88629    0.119
 5282.00    0.87443   0.89079    0.120
 5283.00    0.88205   0.89478    0.121
 5284.00    0.87237   0.89873    0.121
 5285.00    0.86357   0.90208    0.121
 5286.00    0.85857   0.90514    0.119
 5287.00    0.85951   0.90719    0.119
 5288.00    0.88170   0.90849    0.121
 5289.00    0.89626   0.90860    0.122
 5290.00    0.88789   0.90737    0.120
 5291.00    0.88044   0.90516    0.120
 5292.00    0.87533   0.90210    0.120
 5293.00    0.88056   0.89876    0.120
 5294.00    0.90855   0.89530    0.120
 5295.00    0.92463   0.89216    0.120
 5296.00    0.91798   0.88983    0.121
 5297.00    0.90832   0.88850    0.120
 5298.00    0.89367   0.88850    0.119
 5299.00    0.88607   0.88965    0.119
 5300.00    0.88876   0.89210    0.119
 5301.00    0.89236   0.89564    0.118
 5302.00    0.89713   0.89993    0.117
 5303.00    0.91398   0.90466    0.117
 5304.00    0.94450   0.90903    0.117
 5305.00    0.95014   0.91320    0.117
 5306.00    0.93095   0.91677    0.116
 5307.00    0.92381   0.91952    0.115
 5308.00    0.92724   0.92128    0.114
 5309.00    0.91955   0.92200    0.113
 5310.00    0.90323   0.92184    0.113
 5311.00    0.89661   0.92079    0.113
 5312.00    0.89659   0.91898    0.114
 5313.00    0.88618   0.91635    0.113
 5314.00    0.86956   0.91289    0.112
 5315.00    0.86195   0.90891    0.110
 5316.00    0.85902   0.90418    0.108
 5317.00    0.87619   0.89904    0.109
 5318.00    0.90243   0.89324    0.112
 5319.00    0.90748   0.88717    0.112
 5320.00    0.90431   0.88073    0.110
 5321.00    0.88716   0.87430    0.110
 5322.00    0.86540   0.86816    0.111
 5323.00    0.85283   0.86221    0.111
 5324.00    0.84281   0.85754    0.112
 5325.00    0.83985   0.85339    0.112
 5326.00    0.83850   0.85132    0.111
 5327.00    0.84463   0.85007    0.112
 5328.00    0.85212   0.85096    0.114
 5329.00    0.87738   0.85261    0.114
 5330.00    0.90514   0.85581    0.115
 5331.00    0.89884   0.85950    0.115
 5332.00    0.88911   0.86383    0.116
 5333.00    0.88241   0.86820    0.114
 5334.00    0.87591   0.87181    0.112
 5335.00    0.89539   0.87477    0.113
 5336.00    0.91553   0.87691    0.114
 5337.00    0.88809   0.87844    0.114
 5338.00    0.86171   0.87938    0.114
 5339.00    0.86581   0.87989    0.113
 5340.00    0.86993   0.88021    0.113
 5341.00    0.87441   0.88062    0.114
 5342.00    0.88047   0.88129    0.115
 5343.00    0.90127   0.88258    0.116
 5344.00    0.91838   0.88432    0.117
 5345.00    0.91030   0.88688    0.116
 5346.00    0.90282   0.88987    0.116
 5347.00    0.89847   0.89326    0.116
 5348.00    0.89102   0.89730    0.115
 5349.00    0.87044   0.90157    0.112
 5350.00    0.85624   0.90607    0.111
 5351.00    0.86434   0.91069    0.111
 5352.00    0.87411   0.91488    0.112
 5353.00    0.88879   0.91870    0.113
 5354.00    0.89869   0.92162    0.113
 5355.00    0.89661   0.92347    0.112
 5356.00    0.89488   0.92420    0.111
 5357.00    0.89392   0.92345    0.111
 5358.00    0.89294   0.92169    0.111
 5359.00    0.89192   0.91849    0.110
 5360.00    0.89348   0.91447    0.110
 5361.00    0.89927   0.90956    0.110
 5362.00    0.89441   0.90416    0.110
 5363.00    0.87424   0.89859    0.109
 5364.00    0.86712   0.89309    0.109
 5365.00    0.87651   0.88825    0.109
 5366.00    0.86659   0.88388    0.109
 5367.00    0.83514   0.88089    0.109
 5368.00    0.82638   0.87871   -2.000
 5369.00    0.83992   0.87793   -2.000
 5370.00    0.85354   0.87836   -2.000
 5371.00    0.86725   0.87955   -2.000
 5372.00    0.86329   0.88196   -2.000
 5373.00    0.84584   0.88477   -2.000
 5374.00    0.84184   0.88843   -2.000
 5375.00    0.84687   0.89174   -2.000
 5376.00    0.87070   0.89497   -2.000
 5377.00    0.90560   0.89741   -2.000
 5378.00    0.91837   0.89891   -2.000
 5379.00    0.91979   0.89994   -2.000
 5380.00    0.90795   0.89991   -2.000
 5381.00    0.89021   0.89938   -2.000
 5382.00    0.88355   0.89791   -2.000
 5383.00    0.88112   0.89600    0.110
 5384.00    0.88684   0.89330    0.110
 5385.00    0.89521   0.89022    0.111
 5386.00    0.90625   0.88686    0.112
 5387.00    0.91803   0.88297    0.112
 5388.00    0.90040   0.87904    0.110
 5389.00    0.87623   0.87470    0.108
 5390.00    0.86266   0.87054    0.109
 5391.00    0.85097   0.86627    0.110
 5392.00    0.85425   0.86239    0.110
 5393.00    0.85956   0.85868    0.110
 5394.00    0.86303   0.85535    0.110
 5395.00    0.86633   0.85248    0.111
 5396.00    0.85686   0.84967    0.110
 5397.00    0.84662   0.84735    0.109
 5398.00    0.84129   0.84459    0.109
 5399.00    0.83614   0.84284    0.109
 5400.00    0.83787   0.84085    0.110
 5401.00    0.84022   0.83933    0.111
 5402.00    0.85825   0.83791    0.112
 5403.00    0.87457   0.83698    0.113
 5404.00    0.86772   0.83658    0.111
 5405.00    0.85956   0.83671    0.109
 5406.00    0.83964   0.83801    0.109
 5407.00    0.82250   0.84001    0.110
 5408.00    0.82367   0.84360    0.110
 5409.00    0.82644   0.84772    0.109
 5410.00    0.83741   0.85272    0.108
 5411.00    0.84915   0.85771    0.107
 5412.00    0.86413   0.86311    0.108
 5413.00    0.87441   0.86840    0.108
 5414.00    0.86855   0.87324    0.107
 5415.00    0.86538   0.87758    0.106
 5416.00    0.86996   0.88083    0.106
 5417.00    0.87377   0.88334    0.106
 5418.00    0.87571   0.88491    0.104
 5419.00    0.87263   0.88552    0.104
 5420.00    0.85885   0.88530    0.104
 5421.00    0.85062   0.88421    0.104
 5422.00    0.85263   0.88254    0.102
 5423.00    0.85682   0.88044    0.102
 5424.00    0.86454   0.87792    0.103
 5425.00    0.86408   0.87500    0.103
 5426.00    0.85204   0.87233    0.103
 5427.00    0.84640   0.86980    0.103
 5428.00    0.84875   0.86767    0.103
 5429.00    0.85441   0.86592    0.104
 5430.00    0.86370   0.86464    0.103
 5431.00    0.85911   0.86409    0.104
 5432.00    0.84105   0.86522    0.104
 5433.00    0.84006   0.86653    0.105
 5434.00    0.85366   0.86892    0.105
 5435.00    0.86551   0.87150    0.106
 5436.00    0.87604   0.87427    0.106
 5437.00    0.87825   0.87726    0.107
 5438.00    0.87496   0.87982    0.108
 5439.00    0.87620   0.88201    0.108
 5440.00    0.88006   0.88323    0.107
 5441.00    0.88649   0.88348    0.107
 5442.00    0.89421   0.88287    0.107
 5443.00    0.89161   0.88131    0.108
 5444.00    0.88450   0.87935    0.110
 5445.00    0.88661   0.87685    0.110
 5446.00    0.89219   0.87415    0.110
 5447.00    0.88917   0.87168    0.110
 5448.00    0.88342   0.86915    0.110
 5449.00    0.87496   0.86786    0.109
 5450.00    0.86577   0.86632    0.107
 5451.00    0.86680   0.86560    0.107
 5452.00    0.87005   0.86455    0.107
 5453.00    0.84610   0.86409    0.107
 5454.00    0.81746   0.86350    0.107
 5455.00    0.84261   0.86350    0.107
 5456.00    0.87480   0.86330    0.107
 5457.00    0.87694   0.86362    0.107
 5458.00    0.87630   0.86451    0.106
 5459.00    0.87661   0.86516    0.105
 5460.00    0.87697   0.86590    0.105
 5461.00    0.87776   0.86615    0.105
 5462.00    0.87874   0.86632    0.105
 5463.00    0.89792   0.86612    0.105
 5464.00    0.91623   0.86556    0.106
 5465.00    0.91392   0.86504    0.105
 5466.00    0.91048   0.86410    0.104
 5467.00    0.89234   0.86261    0.103
 5468.00    0.87492   0.86093    0.102
 5469.00    0.86370   0.85902    0.101
 5470.00    0.85641   0.85662    0.100
 5471.00    0.87428   0.85404    0.099
 5472.00    0.88604   0.85165    0.098
 5473.00    0.86711   0.84961    0.101
 5474.00    0.85229   0.84782    0.103
 5475.00    0.85417   0.84660    0.103
 5476.00    0.85376   0.84616    0.102
 5477.00    0.84566   0.84592    0.101
 5478.00    0.84046   0.84630   -2.000
 5479.00    0.84355   0.84811   -2.000
 5480.00    0.85011   0.84981   -2.000
 5481.00    0.86507   0.85214   -2.000
 5482.00    0.87160   0.85400   -2.000
 5483.00    0.86048   0.85631   -2.000
 5484.00    0.84225   0.85856   -2.000
 5485.00    0.81108   0.86071   -2.000
 5486.00    0.78951   0.86285   -2.000
 5487.00    0.78321   0.86408   -2.000
 5488.00    0.81301   0.86524   -2.000
 5489.00    0.89324   0.86598   -2.000
 5490.00    0.92899   0.86691   -2.000
 5491.00    0.91006   0.86711   -2.000
 5492.00    0.89197   0.86731   -2.000
 5493.00    0.87479   0.86738   -2.000
 5494.00    0.87408   0.86684   -2.000
 5495.00    0.88913   0.86629   -2.000
 5496.00    0.88021   0.86539   -2.000
 5497.00    0.85109   0.86442   -2.000
 5498.00    0.83894   0.86310   -2.000
 5499.00    0.83937   0.86173   -2.000
 5500.00    0.84762   0.86061   -2.000
 5501.00    0.86098   0.85900   -2.000
 5502.00    0.85994   0.85725    0.105
 5503.00    0.85070   0.85551    0.104
 5504.00    0.84571   0.85410    0.104
 5505.00    0.84285   0.85276    0.104
 5506.00    0.83793   0.85176    0.103
 5507.00    0.83214   0.85075    0.102
 5508.00    0.83324   0.85032    0.101
 5509.00    0.83688   0.85062    0.101
 5510.00    0.83366   0.85106    0.100
 5511.00    0.82830   0.85192    0.099
 5512.00    0.82219   0.85324    0.097
 5513.00    0.81588   0.85467    0.096
 5514.00    0.81800   0.85667    0.097
 5515.00    0.82191   0.85899    0.099
 5516.00    0.82843   0.86127    0.098
 5517.00    0.83538   0.86354    0.097
 5518.00    0.83991   0.86515    0.098
 5519.00    0.84412   0.86668    0.099
 5520.00    0.84385   0.86751    0.100
 5521.00    0.84318   0.86771    0.100
 5522.00    0.85355   0.86743    0.101
 5523.00    0.86449   0.86673    0.101
 5524.00    0.87785   0.86580    0.100
 5525.00    0.89066   0.86468    0.099
 5526.00    0.85835   0.86373    0.099
 5527.00    0.82719   0.86269    0.099
 5528.00    0.82091   0.86216    0.100
 5529.00    0.81496   0.86172    0.100
 5530.00    0.81303   0.86211    0.099
 5531.00    0.81213   0.86316    0.099
 5532.00    0.81985   0.86416    0.099
 5533.00    0.82860   0.86545    0.099
 5534.00    0.84369   0.86668    0.101
 5535.00    0.85584   0.86819    0.103
 5536.00    0.85361   0.86954    0.104
 5537.00    0.84814   0.87116    0.105
 5538.00    0.82982   0.87292    0.102
 5539.00    0.82021   0.87425    0.101
 5540.00    0.83935   0.87594    0.104
 5541.00    0.85806   0.87735    0.106
 5542.00    0.87556   0.87870    0.107
 5543.00    0.88403   0.87975    0.108
 5544.00    0.87096   0.88044    0.107
 5545.00    0.85869   0.88117    0.106
 5546.00    0.84808   0.88180    0.105
 5547.00    0.84245   0.88209    0.103
 5548.00    0.84574   0.88224    0.102
 5549.00    0.85090   0.88229    0.100
 5550.00    0.85898   0.88181    0.099
 5551.00    0.86655   0.88107    0.099
 5552.00    0.87341   0.87992    0.099
 5553.00    0.87055   0.87852    0.098
 5554.00    0.85591   0.87670    0.096
 5555.00    0.85422   0.87471    0.096
 5556.00    0.86636   0.87275    0.099
 5557.00    0.86858   0.87072    0.099
 5558.00    0.86143   0.86853    0.099
 5559.00    0.85071   0.86615    0.097
 5560.00    0.83702   0.86411    0.095
 5561.00    0.83060   0.86189    0.095
 5562.00    0.82951   0.85976    0.097
 5563.00    0.83068   0.85799    0.097
 5564.00    0.83330   0.85611    0.096
 5565.00    0.82998   0.85488    0.096
 5566.00    0.82332   0.85398    0.096
 5567.00    0.81878   0.85332    0.096
 5568.00    0.81526   0.85308    0.096
 5569.00    0.81891   0.85325    0.097
 5570.00    0.82558   0.85362    0.099
 5571.00    0.83078   0.85399    0.099
 5572.00    0.83543   0.85502    0.098
 5573.00    0.83460   0.85544    0.098
 5574.00    0.83209   0.85550    0.098
 5575.00    0.83987   0.85606    0.099
 5576.00    0.85028   0.85581    0.101
 5577.00    0.85726   0.85478    0.102
 5578.00    0.86353   0.85332    0.102
 5579.00    0.86527   0.85108    0.102
 5580.00    0.86628   0.84825    0.102
 5581.00    0.85726   0.84512    0.101
 5582.00    0.84701   0.84171    0.100
 5583.00    0.85764   0.83785    0.101
 5584.00    0.87001   0.83439    0.102
 5585.00    0.84497   0.83102    0.102
 5586.00    0.81811   0.82794    0.103
 5587.00    0.82385   0.82561    0.102
 5588.00    0.82971   0.82382    0.102
 5589.00    0.81367   0.82308    0.100
 5590.00    0.79828   0.82281    0.098
 5591.00    0.79566   0.82347    0.098
 5592.00    0.79359   0.82468    0.098
 5593.00    0.79779   0.82579    0.098
 5594.00    0.80449   0.82738    0.098
 5595.00    0.83122   0.82890    0.100
 5596.00    0.85269   0.83115    0.102
 5597.00    0.84237   0.83366    0.101
 5598.00    0.83539   0.83613    0.101
 5599.00    0.84431   0.83824    0.100
 5600.00    0.85081   0.84089    0.099
 5601.00    0.84789   0.84404    0.097
 5602.00    0.84513   0.84680    0.096
 5603.00    0.84291   0.85010    0.096
 5604.00    0.84191   0.85294    0.096
 5605.00    0.84427   0.85608    0.095
 5606.00    0.84516   0.85835    0.095
 5607.00    0.84261   0.85932    0.095
 5608.00    0.83805   0.85992    0.096
 5609.00    0.82941   0.85965    0.096
 5610.00    0.82664   0.85877    0.096
 5611.00    0.83425   0.85705    0.097
 5612.00    0.83661   0.85495    0.097
 5613.00    0.83086   0.85289    0.096
 5614.00    0.82686   0.85043    0.096
 5615.00    0.82525   0.84803    0.096
 5616.00    0.82074   0.84486    0.097
 5617.00    0.81275   0.84303    0.097
 5618.00    0.80691   0.84255    0.097
 5619.00    0.80334   0.84200    0.096
 5620.00    0.80257   0.84181    0.097
 5621.00    0.80439   0.84204    0.098
 5622.00    0.80862   0.84292    0.098
 5623.00    0.81480   0.84403    0.098
 5624.00    0.81075   0.84511    0.098
 5625.00    0.79930   0.84601    0.098
 5626.00    0.79673   0.84715    0.098
 5627.00    0.79978   0.84892    0.097
 5628.00    0.81466   0.85030    0.097
 5629.00    0.83610   0.85103    0.097
 5630.00    0.84634   0.85182    0.097
 5631.00    0.85119   0.85206    0.097
 5632.00    0.85199   0.85188    0.097
 5633.00    0.85111   0.85101    0.097
 5634.00    0.83861   0.85008    0.096
 5635.00    0.82198   0.84898    0.094
 5636.00    0.81361   0.84782    0.094
 5637.00    0.80771   0.84690    0.095
 5638.00    0.81443   0.84580    0.095
 5639.00    0.82428   0.84542    0.096
 5640.00    0.82618   0.84515    0.096
 5641.00    0.82647   0.84512    0.095
 5642.00    0.82779   0.84502    0.095
 5643.00    0.82927   0.84536    0.095
 5644.00    0.82222   0.84615    0.093
 5645.00    0.81417   0.84649    0.092
 5646.00    0.81291   0.84687    0.093
 5647.00    0.81219   0.84682    0.094
 5648.00    0.81858   0.84676    0.094
 5649.00    0.82528   0.84626    0.095
 5650.00    0.83125   0.84472    0.094
 5651.00    0.83699   0.84336    0.094
 5652.00    0.83179   0.84190    0.095
 5653.00    0.82720   0.84027    0.095
 5654.00    0.83384   0.83829    0.096
 5655.00    0.83915   0.83613    0.097
 5656.00    0.82973   0.83441    0.095
 5657.00    0.82062   0.83322    0.094
 5658.00    0.81396   0.83260    0.096
 5659.00    0.80774   0.83132    0.098
 5660.00    0.80413   0.83144    0.098
 5661.00    0.80159   0.83283    0.098
 5662.00    0.80404   0.83413    0.096
 5663.00    0.80619   0.83559    0.095
 5664.00    0.80724   0.83754    0.096
 5665.00    0.80851   0.84037    0.097
 5666.00    0.81044   0.84298    0.097
 5667.00    0.81112   0.84562    0.097
 5668.00    0.80846   0.84783    0.096
 5669.00    0.81041   0.85023    0.095
 5670.00    0.82301   0.85264    0.096
 5671.00    0.83023   0.85456    0.095
 5672.00    0.82674   0.85611    0.093
 5673.00    0.82686   0.85728    0.093
 5674.00    0.83328   0.85807    0.094
 5675.00    0.83837   0.85812    0.095
 5676.00    0.84144   0.85756    0.096
 5677.00    0.84082   0.85672    0.096
 5678.00    0.83526   0.85588    0.095
 5679.00    0.82828   0.85435    0.094
 5680.00    0.81963   0.85279    0.094
 5681.00    0.81316   0.85129    0.093
 5682.00    0.80895   0.85029    0.092
 5683.00    0.80831   0.84899    0.093
 5684.00    0.81093   0.84834    0.094
 5685.00    0.81064   0.84828    0.094
 5686.00    0.80799   0.84834    0.092
 5687.00    0.80593   0.84860    0.091
 5688.00    0.80430   0.84860    0.090
 5689.00    0.81276   0.84917    0.091
 5690.00    0.82751   0.84929    0.093
 5691.00    0.83661   0.84984    0.093
 5692.00    0.84263   0.84943    0.092
 5693.00    0.84486   0.84877    0.093
 5694.00    0.84529   0.84769    0.094
 5695.00    0.83961   0.84577    0.096
 5696.00    0.83144   0.84378    0.097
 5697.00    0.83051   0.84125    0.098
 5698.00    0.83212   0.83869    0.099
 5699.00    0.81722   0.83541    0.099
 5700.00    0.79747   0.83223    0.099
 5701.00    0.79838   0.82925    0.099
 5702.00    0.80432   0.82626    0.099
 5703.00    0.80525   0.82355    0.099
 5704.00    0.80521   0.82174    0.098
 5705.00    0.80335   0.82063    0.097
 5706.00    0.80123   0.81985    0.096
 5707.00    0.80296   0.81973    0.096
 5708.00    0.80513   0.82046    0.095
 5709.00    0.80451   0.82208    0.095
 5710.00    0.80367   0.82418    0.095
 5711.00    0.80082   0.82758    0.094
 5712.00    0.79789   0.83141    0.093
 5713.00    0.80490   0.83528    0.093
 5714.00    0.81204   0.84021    0.092
 5715.00    0.82148   0.84475    0.092
 5716.00    0.83037   0.84887    0.093
 5717.00    0.82968   0.85283    0.090
 5718.00    0.82911   0.85623    0.089
 5719.00    0.82970   0.85892    0.089
 5720.00    0.83182   0.86135    0.089
 5721.00    0.84541   0.86315    0.090
 5722.00    0.85831   0.86436    0.091
 5723.00    0.86733   0.86524    0.092
 5724.00    0.87361   0.86558    0.092
 5725.00    0.86742   0.86544    0.091
 5726.00    0.86124   0.86516    0.090
 5727.00    0.85510   0.86497    0.090
 5728.00    0.84948   0.86431    0.090
 5729.00    0.84547   0.86424    0.091
 5730.00    0.84157   0.86440    0.092
 5731.00    0.83794   0.86432    0.093
 5732.00    0.83677   0.86394    0.093
 5733.00    0.84121   0.86378    0.093
 5734.00    0.84326   0.86429    0.094
 5735.00    0.84063   0.86435    0.094
 5736.00    0.84033   0.86451    0.095
 5737.00    0.84404   0.86436    0.094
 5738.00    0.84359   0.86428    0.094
 5739.00    0.83692   0.86411    0.095
 5740.00    0.82877   0.86367    0.000
 5741.00    0.81867   0.86331    0.000
 5742.00    0.81759   0.86258    0.000
 5743.00    0.82698   0.86216    0.000
 5744.00    0.84006   0.86128    0.000
 5745.00    0.85692   0.86052    0.000
 5746.00    0.86449   0.85960    0.000
 5747.00    0.86369   0.85841    0.000
 5748.00    0.86032   0.85714    0.000
 5749.00    0.85492   0.85581    0.000
 5750.00    0.85581   0.85540    0.000
 5751.00    0.86111   0.85502    0.000
 5752.00    0.86000   0.85454    0.000
 5753.00    0.85495   0.85365    0.000
 5754.00    0.84974   0.85284    0.000
 5755.00    0.84444   0.85232    0.000
 5756.00    0.84534   0.85262    0.000
 5757.00    0.84913   0.85334    0.000
 5758.00    0.84736   0.85416    0.000
 5759.00    0.84337   0.85501    0.000
 5760.00    0.84576   0.85554    0.000
 5761.00    0.85035   0.85624    0.000
 5762.00    0.86087   0.85691    0.000
 5763.00    0.87311   0.85796    0.000
 5764.00    0.87676   0.85881    0.000
 5765.00    0.87837   0.86038    0.000
 5766.00    0.86901   0.86120    0.000
 5767.00    0.85755   0.86140    0.000
 5768.00    0.86151   0.86129    0.000
 5769.00    0.86777   0.86057    0.000
 5770.00    0.86036   0.85971    0.000
 5771.00    0.85145   0.85807    0.000
 5772.00    0.84902   0.85630    0.000
 5773.00    0.84705   0.85353    0.000
 5774.00    0.84555   0.85064    0.000
 5775.00    0.84406   0.84718    0.000
 5776.00    0.84344   0.84367    0.000
 5777.00    0.84318   0.84064    0.000
 5778.00    0.85581   0.83742    0.000
 5779.00    0.86681   0.83440    0.000
 5780.00    0.85165   0.83177    0.000
 5781.00    0.83735   0.83004    0.000
 5782.00    0.83166   0.82819    0.000
 5783.00    0.82703   0.82797    0.000
 5784.00    0.83015   0.82854    0.000
 5785.00    0.83444   0.82936    0.000
 5786.00    0.84535   0.83095    0.000
 5787.00    0.85330   0.83317    0.000
 5788.00    0.84815   0.83650    0.000
 5789.00    0.84173   0.83924    0.000
 5790.00    0.83067   0.84233    0.000
 5791.00    0.82049   0.84505   -2.000
 5792.00    0.81297   0.84715   -2.000
 5793.00    0.80749   0.85037   -2.000
 5794.00    0.80732   0.85318   -2.000
 5795.00    0.80745   0.85554   -2.000
 5796.00    0.80827   0.85758   -2.000
 5797.00    0.80737   0.85903   -2.000
 5798.00    0.80316   0.85969   -2.000
 5799.00    0.80003   0.86014   -2.000
 5800.00    0.79871   0.86134   -2.000
 5801.00    0.80414   0.86227   -2.000
 5802.00    0.81956   0.86249   -2.000
 5803.00    0.83239   0.86256   -2.000
 5804.00    0.84185   0.86253   -2.000
 5805.00    0.84975   0.86199   -2.000
 5806.00    0.85586   0.86169   -2.000
 5807.00    0.85778   0.86178   -2.000
 5808.00    0.85545   0.86185   -2.000
 5809.00    0.85052   0.86172   -2.000
 5810.00    0.84329   0.86154   -2.000
 5811.00    0.83632   0.86177    0.000
 5812.00    0.82956   0.86235    0.000
 5813.00    0.82095   0.86281    0.000
 5814.00    0.81107   0.86350    0.000
 5815.00    0.80767   0.86430    0.000
 5816.00    0.80818   0.86490    0.000
 5817.00    0.80957   0.86566    0.000
 5818.00    0.81140   0.86668    0.000
 5819.00    0.81583   0.86835    0.000
 5820.00    0.82144   0.86937    0.000
 5821.00    0.82470   0.87021    0.000
 5822.00    0.82702   0.87093    0.000
 5823.00    0.83373   0.87143    0.000
 5824.00    0.84190   0.87188    0.000
 5825.00    0.84676   0.87194    0.000
 5826.00    0.85068   0.87238    0.000
 5827.00    0.84537   0.87228    0.000
 5828.00    0.83792   0.87196    0.000
 5829.00    0.84453   0.87150    0.000
 5830.00    0.85376   0.87130    0.000
 5831.00    0.86561   0.87106    0.000
 5832.00    0.87784   0.87024    0.000
 5833.00    0.87112   0.86992    0.000
 5834.00    0.86241   0.86957    0.000
 5835.00    0.85502   0.86922    0.000
 5836.00    0.84772   0.86872    0.000
 5837.00    0.85234   0.86849    0.000
 5838.00    0.85734   0.86814    0.000
 5839.00    0.85892   0.86697    0.000
 5840.00    0.86054   0.86601    0.000
 5841.00    0.86371   0.86484    0.000
 5842.00    0.86570   0.86352    0.000
 5843.00    0.85005   0.86179    0.000
 5844.00    0.83545   0.85966    0.000
 5845.00    0.83117   0.85725    0.000
 5846.00    0.82576   0.85418    0.000
 5847.00    0.81242   0.85100    0.000
 5848.00    0.80154   0.84792    0.000
 5849.00    0.80396   0.84510    0.000
 5850.00    0.80677   0.84223    0.000
 5851.00    0.81118   0.83903    0.000
 5852.00    0.81414   0.83619    0.000
 5853.00    0.81188   0.83389    0.000
 5854.00    0.81066   0.83177    0.000
 5855.00    0.81256   0.83071    0.000
 5856.00    0.81173   0.82988    0.000
 5857.00    0.80394   0.82940    0.000
 5858.00    0.79730   0.82916    0.000
 5859.00    0.79321   0.82937    0.000
 5860.00    0.79418   0.83042    0.000
 5861.00    0.80480   0.83123    0.000
 5862.00    0.81577   0.83296    0.000
 5863.00    0.82733   0.83413    0.000
 5864.00    0.83240   0.83531    0.000
 5865.00    0.82803   0.83663    0.000
 5866.00    0.82258   0.83735    0.000
 5867.00    0.81575   0.83802    0.000
 5868.00    0.81716   0.83796    0.000
 5869.00    0.82788   0.83830    0.000
 5870.00    0.83317   0.83795    0.000
 5871.00    0.83307   0.83701    0.000
 5872.00    0.82722   0.83627    0.000
 5873.00    0.81632   0.83410    0.000
 5874.00    0.81684   0.83195    0.000
 5875.00    0.82619   0.82909    0.000
 5876.00    0.82766   0.82594    0.000
 5877.00    0.82377   0.82194    0.000
 5878.00    0.82239   0.81703    0.000
 5879.00    0.82250   0.81233    0.000
 5880.00    0.82432   0.80618    0.000
 5881.00    0.82702   0.79948    0.000
 5882.00    0.82064   0.79149    0.000
 5883.00    0.81018   0.78226    0.000
 5884.00    0.79312   0.77222    0.000
 5885.00    0.77351   0.76385    0.000
 5886.00    0.76896   0.75645    0.000
 5887.00    0.76938   0.74894    0.000
 5888.00    0.75565   0.74253    0.000
 5889.00    0.73802   0.73523    0.000
 5890.00    0.71808   0.72899    0.000
 5891.00    0.69761   0.72604    0.000
 5892.00    0.69360   0.72735    0.000
 5893.00    0.69259   0.73074    0.000
 5894.00    0.69952   0.73414    0.000
 5895.00    0.70756   0.73929    0.000
 5896.00    0.72635   0.74439    0.000
 5897.00    0.74621   0.75018    0.000
 5898.00    0.76597   0.75925    0.000
 5899.00    0.78573   0.76892    0.000
 5900.00    0.79247   0.77730    0.000
 5901.00    0.79884   0.78507    0.087
 5902.00    0.80572   0.79235    0.088
 5903.00    0.81230   0.79856    0.088
 5904.00    0.81017   0.80395    0.089
 5905.00    0.80780   0.80903    0.089
 5906.00    0.80208   0.81321    0.088
 5907.00    0.79589   0.81595    0.088
 5908.00    0.78541   0.81780    0.089
 5909.00    0.77687   0.81961    0.090
 5910.00    0.78155   0.82041    0.091
 5911.00    0.78803   0.82120    0.091
 5912.00    0.80392   0.82192    0.091
 5913.00    0.81635   0.82226    0.090
 5914.00    0.81410   0.82271    0.089
 5915.00    0.80984   0.82248    0.089
 5916.00    0.79855   0.82297    0.089
 5917.00    0.79097   0.82348    0.089
 5918.00    0.79432   0.82421    0.088
 5919.00    0.79879   0.82508    0.088
 5920.00    0.80606   0.82567    0.089
 5921.00    0.81143   0.82636    0.089
 5922.00    0.81268   0.82665    0.089
 5923.00    0.81170   0.82675    0.089
 5924.00    0.80652   0.82676    0.087
 5925.00    0.80521   0.82739    0.086
 5926.00    0.81023   0.82761    0.086
 5927.00    0.81512   0.82777    0.085
 5928.00    0.81983   0.82752    0.085
 5929.00    0.82298   0.82693    0.085
 5930.00    0.82415   0.82698    0.086
 5931.00    0.82288   0.82660    0.086
 5932.00    0.81888   0.82707    0.086
 5933.00    0.81294   0.82757    0.086
 5934.00    0.80510   0.82742    0.087
 5935.00    0.80266   0.82696    0.087
 5936.00    0.80492   0.82658    0.087
 5937.00    0.80466   0.82702    0.087
 5938.00    0.80249   0.82718    0.086
 5939.00    0.80025   0.82726    0.087
 5940.00    0.79797   0.82732    0.087
 5941.00    0.79321   0.82704    0.088
 5942.00    0.78699   0.82607    0.089
 5943.00    0.79806   0.82553    0.090
 5944.00    0.81797   0.82556    0.091
 5945.00    0.82264   0.82530    0.092
 5946.00    0.82055   0.82483    0.092
 5947.00    0.81211   0.82406    0.091
 5948.00    0.80124   0.82369    0.091
 5949.00    0.79353   0.82316    0.090
 5950.00    0.78683   0.82261    0.089
 5951.00    0.78521   0.82284    0.088
 5952.00    0.78496   0.82317    0.087
 5953.00    0.78788   0.82331    0.087
 5954.00    0.79151   0.82355    0.087
 5955.00    0.80292   0.82451    0.086
 5956.00    0.81570   0.82597    0.084
 5957.00    0.81766   0.82675    0.084
 5958.00    0.81816   0.82784    0.084
 5959.00    0.82027   0.82912    0.085
 5960.00    0.82254   0.83037    0.087
 5961.00    0.82530   0.83203    0.087
 5962.00    0.82808   0.83312    0.087
 5963.00    0.82303   0.83434    0.085
 5964.00    0.81780   0.83505    0.083
 5965.00    0.81725   0.83555    0.084
 5966.00    0.81651   0.83597    0.086
 5967.00    0.81132   0.83587    0.086
 5968.00    0.80628   0.83604    0.086
 5969.00    0.80314   0.83562    0.086
 5970.00    0.80013   0.83469    0.085
 5971.00    0.79817   0.83366    0.086
 5972.00    0.79655   0.83226    0.086
 5973.00    0.79714   0.83084    0.087
 5974.00    0.79627   0.82956    0.087
 5975.00    0.78797   0.82815    0.088
 5976.00    0.78081   0.82664    0.089
 5977.00    0.77842   0.82488    0.088
 5978.00    0.77888   0.82323    0.088
 5979.00    0.78915   0.82228    0.089
 5980.00    0.79899   0.82148    0.091
 5981.00    0.80760   0.82113    0.091
 5982.00    0.81399   0.82100    0.090
 5983.00    0.81489   0.82075    0.089
 5984.00    0.81299   0.82086    0.088
 5985.00    0.80516   0.82063    0.087
 5986.00    0.80159   0.82124    0.086
 5987.00    0.80591   0.82247    0.086
 5988.00    0.80821   0.82313    0.087
 5989.00    0.80723   0.82387    0.086
 5990.00    0.80976   0.82433    0.086
 5991.00    0.81726   0.82457    0.085
 5992.00    0.82110   0.82456    0.084
 5993.00    0.82040   0.82439    0.083
 5994.00    0.81407   0.82462    0.083
 5995.00    0.80155   0.82449    0.084
 5996.00    0.79295   0.82354    0.085
 5997.00    0.78813   0.82229    0.085
 5998.00    0.78223   0.82115    0.086
 5999.00    0.77539   0.82022    0.086
 6000.00    0.77678   0.81944    0.086
 6001.00    0.78435   0.81838    0.086
 6002.00    0.78975   0.81689    0.086
 6003.00    0.79371   0.81572    0.086
 6004.00    0.79046   0.81458    0.087
 6005.00    0.78304   0.81406    0.087
 6006.00    0.78386   0.81371    0.088
 6007.00    0.78882   0.81259    0.089
 6008.00    0.79943   0.81184    0.090
 6009.00    0.81252   0.81082    0.089
 6010.00    0.80917   0.81049    0.089
 6011.00    0.79967   0.81092    0.089
 6012.00    0.78771   0.81057    0.088
 6013.00    0.77498   0.80998    0.086
 6014.00    0.77613   0.80948    0.086
 6015.00    0.78095   0.80954    0.086
 6016.00    0.78394   0.81011    0.087
 6017.00    0.78653   0.81052    0.087
 6018.00    0.78482   0.81087    0.087
 6019.00    0.78237   0.81213    0.086
 6020.00    0.77623   0.81316    0.086
 6021.00    0.76961   0.81427    0.086
 6022.00    0.77224   0.81625    0.084
 6023.00    0.77572   0.81798    0.083
 6024.00    0.78383   0.82044    0.083
 6025.00    0.79219   0.82229    0.083
 6026.00    0.79551   0.82452    0.084
 6027.00    0.79867   0.82699    0.084
 6028.00    0.79603   0.82865    0.085
 6029.00    0.79323   0.83090    0.086
 6030.00    0.78694   0.83265    0.086
 6031.00    0.78173   0.83423    0.085
 6032.00    0.79052   0.83558    0.086
 6033.00    0.79945   0.83664    0.086
 6034.00    0.80956   0.83777    0.087
 6035.00    0.81822   0.83853    0.089
 6036.00    0.81764   0.83899    0.087
 6037.00    0.81716   0.83961    0.085
 6038.00    0.81727   0.84003    0.088
 6039.00    0.81758   0.84056    0.090
 6040.00    0.81867   0.84092    0.089
 6041.00    0.81817   0.84097    0.088
 6042.00    0.81232   0.84132    0.088
 6043.00    0.80564   0.84128    0.088
 6044.00    0.79660   0.84150    0.087
 6045.00    0.79255   0.84145    0.086
 6046.00    0.80060   0.84113    0.086
 6047.00    0.80931   0.84069    0.086
 6048.00    0.81939   0.84005    0.086
 6049.00    0.82562   0.83930    0.085
 6050.00    0.82486   0.83822    0.085
 6051.00    0.82217   0.83739    0.085
 6052.00    0.81642   0.83618    0.084
 6053.00    0.81132   0.83512    0.084
 6054.00    0.80714   0.83367    0.083
 6055.00    0.80520   0.83262    0.083
 6056.00    0.80602   0.83193    0.084
 6057.00    0.80690   0.83089    0.085
 6058.00    0.80785   0.83045    0.084
 6059.00    0.80921   0.82955    0.085
 6060.00    0.81095   0.82966    0.085
 6061.00    0.80929   0.82973    0.086
 6062.00    0.80475   0.82998    0.086
 6063.00    0.80369   0.83096    0.087
 6064.00    0.80520   0.83138    0.088
 6065.00    0.80415   0.83245    0.088
 6066.00    0.80142   0.83299    0.087
 6067.00    0.79519   0.83387    0.088
 6068.00    0.78698   0.83538    0.089
 6069.00    0.78887   0.83606    0.088
 6070.00    0.79578   0.83630    0.087
 6071.00    0.79566   0.83603    0.087
 6072.00    0.79253   0.83549    0.088
 6073.00    0.79500   0.83494    0.088
 6074.00    0.79954   0.83383    0.087
 6075.00    0.80483   0.83221    0.086
 6076.00    0.81036   0.83063    0.084
 6077.00    0.80284   0.82875    0.083
 6078.00    0.79193   0.82669    0.082
 6079.00    0.78648   0.82466    0.083
 6080.00    0.78219   0.82280    0.083
 6081.00    0.78848   0.82145    0.082
 6082.00    0.79654   0.82003    0.082
 6083.00    0.80202   0.81857    0.082
 6084.00    0.80719   0.81772    0.082
 6085.00    0.79905   0.81712    0.082
 6086.00    0.78975   0.81634    0.082
 6087.00    0.78513   0.81582    0.083
 6088.00    0.78075   0.81578    0.085
 6089.00    0.78568   0.81597    0.085
 6090.00    0.79070   0.81601    0.085
 6091.00    0.79040   0.81542    0.085
 6092.00    0.79049   0.81505    0.086
 6093.00    0.79893   0.81516    0.086
 6094.00    0.80717   0.81502    0.086
 6095.00    0.81309   0.81505    0.086
 6096.00    0.81879   0.81454    0.086
 6097.00    0.82273   0.81370    0.088
 6098.00    0.82574   0.81294    0.089
 6099.00    0.82303   0.81226    0.088
 6100.00    0.82018   0.81285    0.087
 6101.00    0.81663   0.81306    0.088
 6102.00    0.81093   0.81284    0.089
 6103.00    0.79670   0.81240    0.087
 6104.00    0.78434   0.81218    0.086
 6105.00    0.77815   0.81389    0.084
 6106.00    0.77354   0.81527    0.083
 6107.00    0.77335   0.81570    0.082
 6108.00    0.77512   0.81593    0.082
 6109.00    0.78154   0.81615    0.083
 6110.00    0.79019   0.81694    0.083
 6111.00    0.80342   0.81724    0.082
 6112.00    0.81315   0.81652    0.082
 6113.00    0.81661   0.81558    0.082
 6114.00    0.81619   0.81510    0.083
 6115.00    0.80969   0.81413    0.082
 6116.00    0.80183   0.81237    0.082
 6117.00    0.79213   0.81062    0.082
 6118.00    0.78666   0.80872    0.083
 6119.00    0.78633   0.80812    0.084
 6120.00    0.78658   0.80743    0.085
 6121.00    0.78745   0.80567    0.087
 6122.00    0.78850   0.80473    0.088
 6123.00    0.78971   0.80340    0.088
 6124.00    0.79141   0.80338    0.088
 6125.00    0.79352   0.80373    0.088
 6126.00    0.79959   0.80260    0.089
 6127.00    0.80857   0.80198    0.089
 6128.00    0.81246   0.80072    0.089
 6129.00    0.81309   0.80018    0.088
 6130.00    0.80733   0.79968    0.087
 6131.00    0.79800   0.79805    0.085
 6132.00    0.78989   0.79689    0.084
 6133.00    0.78237   0.79519    0.084
 6134.00    0.77762   0.79499    0.085
 6135.00    0.77402   0.79523    0.087
 6136.00    0.77148   0.79462    0.085
 6137.00    0.76933   0.79442    0.083
 6138.00    0.76783   0.79390    0.084
 6139.00    0.76653   0.79573    0.084
 6140.00    0.77156   0.79834    0.084
 6141.00    0.77819   0.79958    0.084
 6142.00    0.78595   0.80037    0.083
 6143.00    0.79393   0.80067    0.083
 6144.00    0.79978   0.80234    0.082
 6145.00    0.80528   0.80399    0.082
 6146.00    0.80864   0.80413    0.083
 6147.00    0.81174   0.80374    0.085
 6148.00    0.80346   0.80269    0.085
 6149.00    0.79423   0.80166    0.085
 6150.00    0.77896   0.79989    0.084
 6151.00    0.76340   0.79716    0.084
 6152.00    0.77094   0.79432    0.085
 6153.00    0.77860   0.79109    0.085
 6154.00    0.77378   0.78766    0.086
 6155.00    0.76892   0.78349    0.086
 6156.00    0.76324   0.77909    0.086
 6157.00    0.75827   0.77468    0.086
 6158.00    0.76156   0.77060    0.087
 6159.00    0.76394   0.76728    0.087
 6160.00    0.75904   0.76410    0.087
 6161.00    0.75305   0.76152    0.086
 6162.00    0.74051   0.75890    0.084
 6163.00    0.73009   0.75716    0.083
 6164.00    0.72976   0.75692    0.082
 6165.00    0.73170   0.75702    0.082
 6166.00    0.74244   0.75795    0.082
 6167.00    0.74973   0.75923    0.082
 6168.00    0.74595   0.76101    0.081
 6169.00    0.74316   0.76339    0.080
 6170.00    0.74312   0.76543    0.081
 6171.00    0.74498   0.76787    0.082
 6172.00    0.75127   0.77115    0.082
 6173.00    0.75545   0.77420    0.082
 6174.00    0.75537   0.77667    0.083
 6175.00    0.75439   0.77851    0.084
 6176.00    0.75186   0.78013    0.084
 6177.00    0.74820   0.78207    0.085
 6178.00    0.74282   0.78349    0.086
 6179.00    0.73628   0.78433    0.086
 6180.00    0.72819   0.78437    0.085
 6181.00    0.72601   0.78407    0.084
 6182.00    0.73089   0.78321    0.085
 6183.00    0.73449   0.78232    0.085
 6184.00    0.73674   0.78181    0.085
 6185.00    0.73903   0.78028    0.085
 6186.00    0.74136   0.77920    0.085
 6187.00    0.74331   0.77746    0.085
 6188.00    0.74493   0.77630    0.085
 6189.00    0.74861   0.77676    0.085
 6190.00    0.75377   0.77612    0.084
 6191.00    0.75898   0.77629    0.083
 6192.00    0.76423   0.77623    0.083
 6193.00    0.76139   0.77654    0.083
 6194.00    0.75408   0.77872    0.083
 6195.00    0.74888   0.77953    0.085
 6196.00    0.74469   0.78044   -2.000
 6197.00    0.75645   0.78181   -2.000
 6198.00    0.77481   0.78295   -2.000
 6199.00    0.79850   0.78470   -2.000
 6200.00    0.82407   0.78515   -2.000
 6201.00    0.82882   0.78516   -2.000
 6202.00    0.82732   0.78586   -2.000
 6203.00    0.81661   0.78609   -2.000
 6204.00    0.80360   0.78548   -2.000
 6205.00    0.79478   0.78404   -2.000
 6206.00    0.78680   0.78226   -2.000
 6207.00    0.78363   0.78064   -2.000
 6208.00    0.78122   0.77903    0.087
 6209.00    0.77201   0.77626    0.087
 6210.00    0.76201   0.77309    0.087
 6211.00    0.74944   0.77042    0.085
 6212.00    0.73667   0.76774    0.083
 6213.00    0.74056   0.76588    0.083
 6214.00    0.74519   0.76351    0.084
 6215.00    0.74655   0.76067    0.082
 6216.00    0.74791   0.75902    0.081
 6217.00    0.75066   0.75780    0.081
 6218.00    0.75342   0.75728    0.082
 6219.00    0.75655   0.75675    0.081
 6220.00    0.75961   0.75525    0.081
 6221.00    0.76197   0.75447    0.081
 6222.00    0.76363   0.75441    0.081
 6223.00    0.75985   0.75455    0.081
 6224.00    0.75740   0.75454    0.081
 6225.00    0.76274   0.75380    0.081
 6226.00    0.76770   0.75293    0.081
 6227.00    0.77085   0.75279    0.082
 6228.00    0.77066   0.75319    0.083
 6229.00    0.75780   0.75298    0.083
 6230.00    0.74703   0.75289    0.083
 6231.00    0.74285   0.75231    0.084
 6232.00    0.73926   0.75197    0.085
 6233.00    0.73725   0.75257    0.085
 6234.00    0.73825   0.75199    0.086
 6235.00    0.74617   0.75201    0.085
 6236.00    0.75378   0.75154    0.085
 6237.00    0.76080   0.75074    0.085
 6238.00    0.76181   0.75089    0.085
 6239.00    0.75240   0.74968    0.085
 6240.00    0.74562   0.74922    0.085
 6241.00    0.74283   0.74883    0.084
 6242.00    0.74243   0.74770    0.083
 6243.00    0.74522   0.74739    0.083
 6244.00    0.74505   0.74630    0.083
 6245.00    0.74139   0.74552    0.082
 6246.00    0.73758   0.74527    0.082
 6247.00    0.73361   0.74397    0.081
 6248.00    0.72906   0.74289    0.080
 6249.00    0.72397   0.74197    0.080
 6250.00    0.72275   0.74103    0.080
 6251.00    0.72464   0.74081    0.080
 6252.00    0.72917   0.73975    0.080
 6253.00    0.73558   0.73885    0.080
 6254.00    0.73296   0.73884    0.080
 6255.00    0.72472   0.73904    0.081
 6256.00    0.71904   0.74025    0.082
 6257.00    0.71473   0.74095    0.084
 6258.00    0.71600   0.74211    0.085
 6259.00    0.71990   0.74412    0.087
 6260.00    0.72692   0.74593    0.091
 6261.00    0.73523   0.74835    0.097
 6262.00    0.73834   0.75050    0.099
 6263.00    0.73963   0.75293    0.100
 6264.00    0.74444   0.75549    0.100
 6265.00    0.75029   0.75720    0.100
 6266.00    0.74976   0.75889    0.095
 6267.00    0.74769   0.76069    0.090
 6268.00    0.75380   0.76248    0.086
 6269.00    0.76153   0.76407    0.083
 6270.00    0.76775   0.76475    0.081
 6271.00    0.77374   0.76518    0.080
 6272.00    0.77147   0.76614    0.080
 6273.00    0.76826   0.76699    0.080
 6274.00    0.76718   0.76772    0.080
 6275.00    0.76627   0.76817    0.080
 6276.00    0.76350   0.76795    0.080
 6277.00    0.76067   0.76861    0.080
 6278.00    0.75429   0.76952    0.081
 6279.00    0.74803   0.77007    0.081
 6280.00    0.74806   0.77118    0.000
 6281.00    0.74823   0.77109    0.000
 6282.00    0.75087   0.77156    0.000
 6283.00    0.75398   0.77275    0.000
 6284.00    0.76203   0.77307    0.000
 6285.00    0.76979   0.77406    0.000
 6286.00    0.77542   0.77380    0.000
 6287.00    0.77949   0.77303    0.000
 6288.00    0.77472   0.77310    0.000
 6289.00    0.77157   0.77243    0.000
 6290.00    0.77579   0.77216    0.000
 6291.00    0.78010   0.77118    0.000
 6292.00    0.78472   0.76901    0.000
 6293.00    0.78501   0.76778    0.000
 6294.00    0.77182   0.76689    0.000
 6295.00    0.75980   0.76633    0.000
 6296.00    0.75086   0.76555    0.000
 6297.00    0.74539   0.76377    0.000
 6298.00    0.74775   0.76314    0.000
 6299.00    0.75112   0.76353    0.000
 6300.00    0.75645   0.76400    0.000
 6301.00    0.75980   0.76414    0.000
 6302.00    0.75976   0.76367    0.000
 6303.00    0.75896   0.76425    0.000
 6304.00    0.75704   0.76533    0.000
 6305.00    0.75605   0.76588    0.000
 6306.00    0.75627   0.76579    0.000
 6307.00    0.75453   0.76554    0.000
 6308.00    0.75053   0.76578    0.000
 6309.00    0.74558   0.76575    0.000
 6310.00    0.73965   0.76536    0.000
 6311.00    0.73610   0.76445    0.000
 6312.00    0.73469   0.76413    0.000
 6313.00    0.73161   0.76395    0.000
 6314.00    0.72719   0.76324    0.000
 6315.00    0.72561   0.76341    0.000
 6316.00    0.72601   0.76341    0.000
 6317.00    0.73014   0.76418    0.000
 6318.00    0.73657   0.76489    0.000
 6319.00    0.74252   0.76531    0.000
 6320.00    0.74820   0.76713    0.000
 6321.00    0.75579   0.76818    0.081
 6322.00    0.76426   0.76971    0.081
 6323.00    0.77179   0.77090    0.080
 6324.00    0.77893   0.77194    0.079
 6325.00    0.77967   0.77378    0.079
 6326.00    0.77821   0.77371    0.079
 6327.00    0.77367   0.77409    0.079
 6328.00    0.76823   0.77467    0.078
 6329.00    0.76486   0.77473    0.079
 6330.00    0.76200   0.77486    0.079
 6331.00    0.76485   0.77349    0.080
 6332.00    0.76879   0.77261    0.080
 6333.00    0.77248   0.77261    0.081
 6334.00    0.77613   0.77211    0.082
 6335.00    0.77294   0.77104    0.081
 6336.00    0.76900   0.77026    0.080
 6337.00    0.76163   0.76991    0.081
 6338.00    0.75403   0.76990    0.081
 6339.00    0.74925   0.76998    0.082
 6340.00    0.74458   0.76919    0.082
 6341.00    0.74251   0.76949    0.083
 6342.00    0.74053   0.77020    0.083
 6343.00    0.74139   0.77015    0.083
 6344.00    0.74252   0.77041    0.083
 6345.00    0.74791   0.76995    0.082
 6346.00    0.75344   0.76979    0.081
 6347.00    0.76045   0.77012    0.080
 6348.00    0.76661   0.76942    0.080
 6349.00    0.76658   0.76833    0.079
 6350.00    0.76571   0.76689    0.079
 6351.00    0.76022   0.76531    0.079
 6352.00    0.75469   0.76419    0.078
 6353.00    0.74896   0.76259    0.078
 6354.00    0.74451   0.76020    0.078
 6355.00    0.74463   0.75819    0.080
 6356.00    0.74531   0.75679    0.081
 6357.00    0.74768   0.75569    0.081
 6358.00    0.74885   0.75474    0.081
 6359.00    0.74691   0.75397    0.082
 6360.00    0.74481   0.75393    0.083
 6361.00    0.74233   0.75473    0.084
 6362.00    0.74116   0.75580    0.085
 6363.00    0.74249   0.75723    0.085
 6364.00    0.74544   0.75940    0.085
 6365.00    0.75113   0.76166    0.085
 6366.00    0.75169   0.76387    0.084
 6367.00    0.74467   0.76635    0.083
 6368.00    0.74229   0.76901    0.083
 6369.00    0.74592   0.77157    0.084
 6370.00    0.75174   0.77358    0.084
 6371.00    0.76005   0.77508    0.083
 6372.00    0.76277   0.77663    0.082
 6373.00    0.75983   0.77832    0.082
 6374.00    0.75828   0.77913    0.081
 6375.00    0.75796   0.77938    0.080
 6376.00    0.75913   0.77970    0.079
 6377.00    0.76149   0.77983    0.078
 6378.00    0.76127   0.78024    0.078
 6379.00    0.75928   0.77996    0.078
 6380.00    0.75776   0.77915    0.078
 6381.00    0.75653   0.77887    0.077
 6382.00    0.75478   0.77863    0.078
 6383.00    0.75277   0.77830    0.079
 6384.00    0.75188   0.77732    0.080
 6385.00    0.75151   0.77625    0.081
 6386.00    0.74803   0.77580    0.081
 6387.00    0.74333   0.77535    0.082
 6388.00    0.74284   0.77453    0.082
 6389.00    0.74378   0.77295    0.083
 6390.00    0.74985   0.77181    0.082
 6391.00    0.75738   0.77133    0.081
 6392.00    0.76013   0.77114    0.082
 6393.00    0.76178   0.77074    0.084
 6394.00    0.76197   0.76989    0.084
 6395.00    0.76189   0.76933    0.084
 6396.00    0.76081   0.76845    0.084
 6397.00    0.75959   0.76923    0.083
 6398.00    0.75444   0.77018    0.081
 6399.00    0.74887   0.76965    0.079
 6400.00    0.74183   0.77021    0.080
 6401.00    0.73469   0.76994    0.080
 6402.00    0.74162   0.77037    0.079
 6403.00    0.74901   0.77125    0.078
 6404.00    0.75539   0.77036    0.079
 6405.00    0.76144   0.77118    0.079
 6406.00    0.75748   0.77171    0.079
 6407.00    0.75345   0.77076    0.079
 6408.00    0.74842   0.77074    0.080
 6409.00    0.74385   0.77055    0.081
 6410.00    0.74365   0.77066    0.082
 6411.00    0.74317   0.77088    0.083
 6412.00    0.74073   0.77017    0.083
 6413.00    0.73873   0.77005    0.082
 6414.00    0.73910   0.77075    0.082
 6415.00    0.74084   0.77079    0.082
 6416.00    0.74847   0.77051    0.083
 6417.00    0.75597   0.77056    0.083
 6418.00    0.76305   0.77120    0.084
 6419.00    0.76664   0.77257    0.085
 6420.00    0.75983   0.77298    0.083
 6421.00    0.75368   0.77254    0.082
 6422.00    0.74921   0.77292    0.080
 6423.00    0.74922   0.77398    0.079
 6424.00    0.75908   0.77497    0.079
 6425.00    0.76774   0.77529    0.080
 6426.00    0.77412   0.77458    0.080
 6427.00    0.77461   0.77438    0.080
 6428.00    0.76532   0.77551    0.080
 6429.00    0.76066   0.77584    0.080
 6430.00    0.76273   0.77553    0.080
 6431.00    0.76499   0.77550    0.081
 6432.00    0.76747   0.77554    0.081
 6433.00    0.76704   0.77656    0.081
 6434.00    0.76334   0.77665    0.082
 6435.00    0.76076   0.77579    0.083
 6436.00    0.75929   0.77688    0.083
 6437.00    0.75983   0.77787    0.083
 6438.00    0.76213   0.77801    0.083
 6439.00    0.76285   0.77827    0.083
 6440.00    0.76235   0.77721    0.084
 6441.00    0.76078   0.77733    0.084
 6442.00    0.75849   0.77806    0.082
 6443.00    0.75563   0.77710    0.082
 6444.00    0.75244   0.77691    0.082
 6445.00    0.75112   0.77533    0.081
 6446.00    0.75078   0.77337    0.079
 6447.00    0.75551   0.77393    0.079
 6448.00    0.76252   0.77328    0.080
 6449.00    0.76057   0.77281    0.081
 6450.00    0.75515   0.77225    0.081
 6451.00    0.74269   0.77059    0.080
 6452.00    0.72790   0.77125    0.079
 6453.00    0.71741   0.77152    0.079
 6454.00    0.70809   0.77148    0.079
 6455.00    0.69799   0.77230    0.079
 6456.00    0.68771   0.77228    0.079
 6457.00    0.68098   0.77295    0.079
 6458.00    0.67489   0.77273    0.080
 6459.00    0.67911   0.77243    0.081
 6460.00    0.68477   0.77391    0.082
 6461.00    0.69306   0.77448    0.081
 6462.00    0.70161   0.77458    0.081
 6463.00    0.70791   0.77442    0.081
 6464.00    0.71407   0.77435    0.080
 6465.00    0.72444   0.77509    0.081
 6466.00    0.73495   0.77534    0.081
 6467.00    0.75192   0.77494    0.082
 6468.00    0.76865   0.77497    0.083
 6469.00    0.77873   0.77541    0.082
 6470.00    0.78757   0.77506    0.080
 6471.00    0.77895   0.77438    0.080
 6472.00    0.76986   0.77379    0.080
 6473.00    0.75646   0.77340    0.081
 6474.00    0.74377   0.77308    0.085
 6475.00    0.73581   0.77212    0.100
 6476.00    0.73148   0.77110    0.121
 6477.00    0.74622   0.76988    0.129
 6478.00    0.76304   0.76839    0.137
 6479.00    0.78867   0.76707    0.138
 6480.00    0.80561   0.76581    0.131
 6481.00    0.79223   0.76427    0.103
 6482.00    0.77765   0.76190    0.089
 6483.00    0.75954   0.75943    0.086
 6484.00    0.74491   0.75713    0.083
 6485.00    0.73897   0.75436    0.082
 6486.00    0.73543   0.75130    0.081
 6487.00    0.73706   0.74772    0.081
 6488.00    0.73737   0.74480    0.081
 6489.00    0.73520   0.74196    0.082
 6490.00    0.73352   0.73766    0.081
 6491.00    0.73263   0.73466    0.080
 6492.00    0.73340   0.73248    0.080
 6493.00    0.73652   0.73088    0.080
 6494.00    0.73462   0.73045    0.080
 6495.00    0.72638   0.72873    0.078
 6496.00    0.72228   0.72908    0.078
 6497.00    0.72276   0.73105    0.078
 6498.00    0.72633   0.73245    0.079
 6499.00    0.73293   0.73527    0.079
 6500.00    0.73827   0.73760    0.080
 6501.00    0.74251   0.74068    0.080
 6502.00    0.74669   0.74465    0.080
 6503.00    0.75082   0.74734    0.081
 6504.00    0.75224   0.75018    0.081
 6505.00    0.75186   0.75294    0.080
 6506.00    0.75367   0.75536    0.080
 6507.00    0.75678   0.75770    0.080
 6508.00    0.76398   0.75911    0.081
 6509.00    0.77327   0.76009    0.082
 6510.00    0.77637   0.76107    0.082
 6511.00    0.77673   0.76165    0.082
 6512.00    0.77501   0.76194    0.082
 6513.00    0.77250   0.76228    0.081
 6514.00    0.77348   0.76208    0.082
 6515.00    0.77559   0.76197    0.083
 6516.00    0.77941   0.76237    0.081
 6517.00    0.78370   0.76230    0.079
 6518.00    0.78142   0.76243    0.079
 6519.00    0.77769   0.76237    0.079
 6520.00    0.77055   0.76227    0.078
 6521.00    0.76281   0.76312    0.077
 6522.00    0.76651   0.76320    0.077
 6523.00    0.77176   0.76297    0.077
 6524.00    0.78023   0.76347    0.078
 6525.00    0.78901   0.76369    0.080
 6526.00    0.78156   0.76420    0.080
 6527.00    0.77315   0.76435    0.081
 6528.00    0.76765   0.76392    0.000
 6529.00    0.76231   0.76434    0.000
 6530.00    0.76827   0.76462    0.000
 6531.00    0.77412   0.76474    0.000
 6532.00    0.77720   0.76496    0.000
 6533.00    0.77918   0.76441    0.000
 6534.00    0.76634   0.76398    0.000
 6535.00    0.75486   0.76388    0.000
 6536.00    0.75556   0.76342    0.000
 6537.00    0.75705   0.76258    0.000
 6538.00    0.76373   0.76125    0.000
 6539.00    0.76987   0.75967    0.000
 6540.00    0.77324   0.75845    0.000
 6541.00    0.77581   0.75669    0.000
 6542.00    0.77513   0.75373    0.000
 6543.00    0.77460   0.75127    0.000
 6544.00    0.77463   0.74886    0.000
 6545.00    0.77683   0.74580    0.000
 6546.00    0.78532   0.74238    0.000
 6547.00    0.79192   0.73784    0.000
 6548.00    0.79386   0.73394    0.000
 6549.00    0.79369   0.73021    0.000
 6550.00    0.78907   0.72432    0.000
 6551.00    0.78232   0.71846    0.000
 6552.00    0.77166   0.71348    0.000
 6553.00    0.76121   0.70788    0.000
 6554.00    0.75108   0.70221    0.000
 6555.00    0.74368   0.69578    0.000
 6556.00    0.74014   0.68993    0.000
 6557.00    0.73918   0.68622    0.000
 6558.00    0.74145   0.68070    0.000
 6559.00    0.74329   0.67562    0.000
 6560.00    0.74465   0.67508    0.000
 6561.00    0.74392   0.67481    0.000
 6562.00    0.74119   0.67465    0.000
 6563.00    0.73753   0.67505    0.000
 6564.00    0.73309   0.67606    0.000
 6565.00    0.73111   0.68077    0.000
 6566.00    0.73098   0.68555    0.000
 6567.00    0.72970   0.68923    0.000
 6568.00    0.72769   0.69471    0.000
 6569.00    0.72605   0.70013    0.000
 6570.00    0.72462   0.70509    0.000
 6571.00    0.72697   0.70981    0.000
 6572.00    0.73121   0.71439    0.000
 6573.00    0.73973   0.71940    0.000
 6574.00    0.75013   0.72357    0.000
 6575.00    0.75038   0.72724    0.000
 6576.00    0.74685   0.73051    0.000
 6577.00    0.74123   0.73309    0.000
 6578.00    0.73494   0.73591    0.000
 6579.00    0.73975   0.73809    0.000
 6580.00    0.74748   0.73982    0.000
 6581.00    0.76639   0.74133    0.000
 6582.00    0.78771   0.74178    0.000
 6583.00    0.80246   0.74292    0.000
 6584.00    0.81607   0.74381    0.000
 6585.00    0.81311   0.74358    0.000
 6586.00    0.80799   0.74358    0.000
 6587.00    0.79880   0.74343    0.000
 6588.00    0.78924   0.74317    0.000
 6589.00    0.77509   0.74246    0.000
 6590.00    0.76069   0.74187    0.000
 6591.00    0.75134   0.74208    0.000
 6592.00    0.74212   0.74203    0.000
 6593.00    0.73519   0.74173    0.000
 6594.00    0.72861   0.74114    0.000
 6595.00    0.73001   0.74124    0.000
 6596.00    0.73175   0.74223    0.000
 6597.00    0.73781   0.74221    0.000
 6598.00    0.74392   0.74246    0.000
 6599.00    0.75054   0.74315    0.000
 6600.00    0.75539   0.74336    0.000
 6601.00    0.74906   0.74377    0.000
 6602.00    0.74444   0.74375    0.000
 6603.00    0.74834   0.74418    0.000
 6604.00    0.75199   0.74504    0.000
 6605.00    0.75461   0.74487    0.000
 6606.00    0.75481   0.74523    0.000
 6607.00    0.74691   0.74604    0.000
 6608.00    0.74087   0.74663    0.000
 6609.00    0.74009   0.74722    0.079
 6610.00    0.74019   0.74738    0.078
 6611.00    0.74241   0.74846    0.079
 6612.00    0.74565   0.74960    0.079
 6613.00    0.75097   0.74976    0.078
 6614.00    0.75616   0.75031    0.078
 6615.00    0.76110   0.75078    0.078
 6616.00    0.76505   0.75125    0.079
 6617.00    0.76742   0.75135    0.079
 6618.00    0.76849   0.75058    0.079
 6619.00    0.76775   0.75051    0.080
 6620.00    0.76826   0.75004    0.081
 6621.00    0.77033   0.74881    0.082
 6622.00    0.77308   0.74813    0.083
 6623.00    0.77658   0.74705    0.084
 6624.00    0.77695   0.74595    0.084
 6625.00    0.77432   0.74484    0.083
 6626.00    0.77059   0.74327    0.082
 6627.00    0.76592   0.74236    0.082
 6628.00    0.75659   0.74149    0.081
 6629.00    0.74381   0.74035    0.080
 6630.00    0.74070   0.73964    0.081
 6631.00    0.74387   0.73905    0.083
 6632.00    0.74572   0.73861    0.088
 6633.00    0.74681   0.73827    0.094
 6634.00    0.74800   0.73808    0.095
 6635.00    0.74923   0.73788    0.093
 6636.00    0.74583   0.73763    0.090
 6637.00    0.74045   0.73811    0.086
 6638.00    0.73312   0.73847    0.083
 6639.00    0.72507   0.73827    0.081
 6640.00    0.73038   0.73842    0.080
 6641.00    0.73983   0.73866    0.081
 6642.00    0.73926   0.73919    0.081
 6643.00    0.73610   0.73943    0.081
 6644.00    0.73452   0.73895    0.081
 6645.00    0.73329   0.73929    0.081
 6646.00    0.73694   0.73990    0.082
 6647.00    0.74140   0.73961    0.083
 6648.00    0.74118   0.73937    0.083
 6649.00    0.74037   0.73928    0.083
 6650.00    0.73769   0.73923    0.081
 6651.00    0.73485   0.73899    0.080
 6652.00    0.73573   0.73821    0.078
 6653.00    0.73679   0.73764    0.077
 6654.00    0.73871   0.73726    0.078
 6655.00    0.74068   0.73652    0.079
 6656.00    0.74560   0.73542    0.079
 6657.00    0.74997   0.73466    0.079
 6658.00    0.74272   0.73414    0.079
 6659.00    0.73501   0.73304    0.079
 6660.00    0.72161   0.73232    0.079
 6661.00    0.70984   0.73191    0.079
 6662.00    0.71147   0.73128    0.080
 6663.00    0.71262   0.73110    0.081
 6664.00    0.71075   0.73053    0.081
 6665.00    0.70941   0.73020    0.082
 6666.00    0.71068   0.73053    0.083
 6667.00    0.71246   0.73015    0.083
 6668.00    0.71626   0.73002    0.083
 6669.00    0.71938   0.73024    0.082
 6670.00    0.72025   0.72975    0.081
 6671.00    0.72266   0.72941    0.080
 6672.00    0.72933   0.72949    0.080
 6673.00    0.73333   0.72911    0.081
 6674.00    0.73098   0.72846    0.081
 6675.00    0.72901   0.72838    0.081
 6676.00    0.72780   0.72853    0.080
 6677.00    0.72883   0.72849    0.079
 6678.00    0.73387   0.72828    0.078
 6679.00    0.73737   0.72813    0.078
 6680.00    0.73845   0.72876    0.079
 6681.00    0.73617   0.72937    0.078
 6682.00    0.72927   0.72941    0.078
 6683.00    0.72811   0.72989    0.079
 6684.00    0.73387   0.73064    0.081
 6685.00    0.73681   0.73110    0.082
 6686.00    0.73675   0.73123    0.081
 6687.00    0.73773   0.73147    0.082
 6688.00    0.73970   0.73169    0.083
 6689.00    0.74329   0.73141    0.082
 6690.00    0.74821   0.73145    0.081
 6691.00    0.75313   0.73127    0.082
 6692.00    0.75806   0.73056    0.083
 6693.00    0.75422   0.73049    0.083
 6694.00    0.74478   0.73009    0.082
 6695.00    0.73508   0.72953    0.081
 6696.00    0.72522   0.72937    0.000
 6697.00    0.72209   0.72849    0.000
 6698.00    0.72223   0.72814    0.000
 6699.00    0.72995   0.72809    0.000
 6700.00    0.74085   0.72714    0.000
 6701.00    0.74038   0.72685    0.000
 6702.00    0.73583   0.72663    0.000
 6703.00    0.73019   0.72564    0.000
 6704.00    0.72424   0.72521    0.000
 6705.00    0.72551   0.72442    0.000
 6706.00    0.72862   0.72314    0.000
 6707.00    0.73012   0.72256    0.000
 6708.00    0.73130   0.72151    0.000
 6709.00    0.72844   0.72028    0.000
 6710.00    0.72493   0.71934    0.000
 6711.00    0.72751   0.71800    0.000
 6712.00    0.73083   0.71742    0.000
 6713.00    0.73877   0.71671    0.000
 6714.00    0.74708   0.71552    0.000
 6715.00    0.74842   0.71545    0.000
 6716.00    0.74943   0.71542    0.000
 6717.00    0.75137   0.71532    0.000
 6718.00    0.75327   0.71534    0.000
 6719.00    0.75204   0.71546    0.000
 6720.00    0.74994   0.71659    0.000
 6721.00    0.73088   0.71724    0.000
 6722.00    0.71286   0.71749    0.000
 6723.00    0.70661   0.71858    0.000
 6724.00    0.70167   0.71951    0.000
 6725.00    0.70710   0.72016    0.000
 6726.00    0.71354   0.72064    0.000
 6727.00    0.72602   0.72096    0.000
 6728.00    0.73711   0.72154    0.000
 6729.00    0.74156   0.72185    0.000
 6730.00    0.74439   0.72165    0.000
 6731.00    0.74093   0.72151    0.000
 6732.00    0.73886   0.72137    0.000
 6733.00    0.74128   0.72096    0.000
 6734.00    0.74207   0.72043    0.000
 6735.00    0.73840   0.71967    0.000
 6736.00    0.73237   0.71885    0.000
 6737.00    0.72087   0.71842    0.000
 6738.00    0.71349   0.71761    0.000
 6739.00    0.71446   0.71656    0.000
 6740.00    0.71989   0.71598    0.000
 6741.00    0.73319   0.71541    0.000
 6742.00    0.73917   0.71489    0.000
 6743.00    0.73389   0.71414    0.000
 6744.00    0.72716   0.71384    0.000
 6745.00    0.71847   0.71404    0.000
 6746.00    0.71015   0.71360    0.000
 6747.00    0.70227   0.71383    0.000
 6748.00    0.69781   0.71433    0.000
 6749.00    0.69694   0.71453    0.000
 6750.00    0.69518   0.71548    0.000
 6751.00    0.69259   0.71596    0.000
 6752.00    0.69817   0.71673    0.000
 6753.00    0.71042   0.71806    0.088
 6754.00    0.71445   0.71846    0.091
 6755.00    0.71258   0.71942    0.093
 6756.00    0.70487   0.72054    0.093
 6757.00    0.69347   0.72085    0.092
 6758.00    0.69317   0.72162    0.091
 6759.00    0.69901   0.72217    0.091
 6760.00    0.72707   0.72213    0.092
 6761.00    0.76579   0.72242    0.094
 6762.00    0.79264   0.72270    0.094
 6763.00    0.81458   0.72239    0.095
 6764.00    0.82648   0.72226    0.095
 6765.00    0.83483   0.72239    0.094
 6766.00    0.84057   0.72230    0.093
 6767.00    0.84552   0.72228    0.093
 6768.00    0.84307   0.72221    0.093
 6769.00    0.83879   0.72233    0.092
 6770.00    0.82237   0.72267    0.091
 6771.00    0.80350   0.72259    0.091
 6772.00    0.78975   0.72271    0.090
 6773.00    0.77679   0.72295    0.088
 6774.00    0.76959   0.72294    0.089
 6775.00    0.76306   0.72287    0.089
 6776.00    0.74554   0.72241    0.088
 6777.00    0.72716   0.72210    0.088
 6778.00    0.74422   0.72180    0.089
 6779.00    0.76283   0.72090    0.091
 6780.00    0.76869   0.72033    0.091
 6781.00    0.77412   0.71986    0.090
 6782.00    0.76512   0.71893    0.089
 6783.00    0.75661   0.71825    0.089
 6784.00    0.75693   0.71776    0.087
 6785.00    0.75737   0.71716    0.086
 6786.00    0.75910   0.71667    0.086
 6787.00    0.76031   0.71640    0.086
 6788.00    0.75748   0.71622    0.086
 6789.00    0.75537   0.71618    0.087
 6790.00    0.75754   0.71638    0.089
 6791.00    0.75972   0.71637    0.090
 6792.00    0.76197   0.71662    0.090
 6793.00    0.76552   0.71714    0.090
 6794.00    0.77405   0.71707    0.090
 6795.00    0.77665   0.71745    0.090
 6796.00    0.76051   0.71801    0.088
 6797.00    0.75032   0.71778    0.087
 6798.00    0.75606   0.71840    0.089
 6799.00    0.75705   0.71877    0.090
 6800.00    0.74710   0.71834    0.088
 6801.00    0.73920   0.71910    0.087
 6802.00    0.73535   0.71916    0.086
 6803.00    0.73276   0.71873    0.086
 6804.00    0.73234   0.71932    0.086
 6805.00    0.72835   0.71897    0.085
 6806.00    0.71895   0.71905    0.084
 6807.00    0.72068   0.71939    0.083
 6808.00    0.73725   0.71856    0.082
 6809.00    0.74512   0.71917    0.082
 6810.00    0.74275   0.71956    0.083
 6811.00    0.73197   0.71892    0.085
 6812.00    0.71246   0.71955    0.087
 6813.00    0.71071   0.71963    0.089
 6814.00    0.72516   0.71962    0.091
 6815.00    0.73548   0.72028    0.092
 6816.00    0.74245   0.72020    0.092
 6817.00    0.74638   0.72061    0.091
 6818.00    0.74814   0.72107    0.090
 6819.00    0.74268   0.72103    0.089
 6820.00    0.73274   0.72146    0.087
 6821.00    0.73031   0.72141    0.086
 6822.00    0.73194   0.72143    0.085
 6823.00    0.73268   0.72175    0.084
 6824.00    0.73300   0.72154    0.083
 6825.00    0.72922   0.72136    0.082
 6826.00    0.72377   0.72108    0.081
 6827.00    0.72374   0.72085    0.082
 6828.00    0.72559   0.72057    0.084
 6829.00    0.72894   0.71970    0.085
 6830.00    0.73272   0.71918    0.085
 6831.00    0.73968   0.71866    0.085
 6832.00    0.74741   0.71758    0.085
 6833.00    0.74406   0.71680    0.087
 6834.00    0.73855   0.71587    0.088
 6835.00    0.74106   0.71507    0.088
 6836.00    0.74478   0.71440    0.088
 6837.00    0.74199   0.71345    0.090
 6838.00    0.73846   0.71303    0.093
 6839.00    0.73397   0.71254    0.092
 6840.00    0.72941   0.71182    0.090
 6841.00    0.72102   0.71171    0.090
 6842.00    0.71247   0.71138    0.090
 6843.00    0.71227   0.71112    0.087
 6844.00    0.71250   0.71120    0.085
 6845.00    0.72783   0.71093    0.083
 6846.00    0.74229   0.71118    0.082
 6847.00    0.74209   0.71110    0.083
 6848.00    0.74223   0.71039    0.084
 6849.00    0.74601   0.71069    0.084
 6850.00    0.74931   0.71050    0.084
 6851.00    0.74912   0.70955    0.084
 6852.00    0.74785   0.70960    0.084
 6853.00    0.74052   0.70920    0.085
 6854.00    0.73189   0.70831    0.086
 6855.00    0.71743   0.70804    0.085
 6856.00    0.70578   0.70758    0.084
 6857.00    0.70452   0.70746    0.085
 6858.00    0.70352   0.70728    0.086
 6859.00    0.70328   0.70660    0.088
 6860.00    0.70433   0.70670    0.089
 6861.00    0.70880   0.70666    0.088
 6862.00    0.71220   0.70627    0.087
 6863.00    0.71318   0.70674    0.086
 6864.00    0.71306   0.70689    0.086
 6865.00    0.71077   0.70660    0.085
 6866.00    0.71020   0.70685    0.084
 6867.00    0.71255   0.70730    0.086
 6868.00    0.71324   0.70751    0.086
 6869.00    0.71147   0.70752    0.085
 6870.00    0.71081   0.70796    0.084
 6871.00    0.71160   0.70858    0.082
 6872.00    0.71565   0.70860    0.082
 6873.00    0.72347   0.70888    0.083
 6874.00    0.73166   0.70974    0.085
 6875.00    0.74024   0.71011    0.086
 6876.00    0.73998   0.71015    0.087
 6877.00    0.73176   0.71096    0.087
 6878.00    0.72048   0.71190    0.086
 6879.00    0.70675   0.71205    0.086
 6880.00    0.70315   0.71266    0.085
 6881.00    0.70662   0.71379    0.085
 6882.00    0.71440   0.71429    0.085
 6883.00    0.72482   0.71491    0.085
 6884.00    0.72455   0.71590    0.085
 6885.00    0.71855   0.71659    0.084
 6886.00    0.72056   0.71733    0.084
 6887.00    0.72628   0.71805    0.084
 6888.00    0.72495   0.71882    0.083
 6889.00    0.72081   0.71979    0.082
 6890.00    0.71486   0.72016    0.083
 6891.00    0.70831   0.72071    0.085
 6892.00    0.70787   0.72176    0.085
 6893.00    0.70920   0.72179    0.084
 6894.00    0.71253   0.72202    0.085
 6895.00    0.71632   0.72302    0.085
 6896.00    0.71640   0.72305    0.085
 6897.00    0.71576   0.72312    0.085
 6898.00    0.72528   0.72362    0.087
 6899.00    0.73629   0.72377    0.089
 6900.00    0.73096   0.72409    0.089
 6901.00    0.72387   0.72395    0.089
 6902.00    0.72248   0.72407    0.088
 6903.00    0.72149   0.72452    0.087
 6904.00    0.72318   0.72383    0.086
 6905.00    0.72496   0.72374    0.085
 6906.00    0.72149   0.72397    0.085
 6907.00    0.71797   0.72303    0.084
 6908.00    0.71299   0.72291    0.084
 6909.00    0.70854   0.72266    0.083
 6910.00    0.71237   0.72171    0.083
 6911.00    0.71524   0.72169    0.083
 6912.00    0.70842   0.72109    0.084
 6913.00    0.70293   0.72038    0.084
 6914.00    0.70700   0.72032    0.084
 6915.00    0.71026   0.71951    0.085
 6916.00    0.70912   0.71914    0.085
 6917.00    0.70774   0.71911    0.086
 6918.00    0.70531   0.71824    0.087
 6919.00    0.70551   0.71811    0.087
 6920.00    0.71525   0.71830    0.088
 6921.00    0.72187   0.71786    0.089
 6922.00    0.71901   0.71775    0.089
 6923.00    0.71937   0.71771    0.088
 6924.00    0.72809   0.71769    0.087
 6925.00    0.73115   0.71776    0.086
 6926.00    0.72166   0.71750    0.085
 6927.00    0.71282   0.71764    0.084
 6928.00    0.70523   0.71800    0.083
 6929.00    0.70138   0.71783    0.083
 6930.00    0.70383   0.71802    0.083
 6931.00    0.70571   0.71843    0.083
 6932.00    0.70674   0.71847    0.084
 6933.00    0.70774   0.71874    0.085
 6934.00    0.70868   0.71876    0.085
 6935.00    0.70944   0.71858    0.086
 6936.00    0.71001   0.71896    0.087
 6937.00    0.71383   0.71875    0.088
 6938.00    0.72092   0.71816    0.090
 6939.00    0.71926   0.71857    0.091
 6940.00    0.70983   0.71851    0.090
 6941.00    0.70217   0.71771    0.089
 6942.00    0.69587   0.71786    0.088
 6943.00    0.69276   0.71778    0.087
 6944.00    0.69183   0.71709    0.085
 6945.00    0.69398   0.71730    0.084
 6946.00    0.69800   0.71716    0.083
 6947.00    0.70220   0.71684    0.083
 6948.00    0.70650   0.71732    0.084
 6949.00    0.70723   0.71721    0.085
 6950.00    0.70632   0.71737    0.086
 6951.00    0.70900   0.71832    0.086
 6952.00    0.71308   0.71841    0.085
 6953.00    0.71579   0.71877    0.086
 6954.00    0.71803   0.71995    0.086
 6955.00    0.71524   0.72016    0.087
 6956.00    0.71103   0.72054    0.087
 6957.00    0.70713   0.72183    0.088
 6958.00    0.70331   0.72221    0.088
 6959.00    0.71035   0.72246    0.089
 6960.00    0.71940   0.72345    0.090
 6961.00    0.71522   0.72366    0.089
 6962.00    0.70913   0.72372    0.089
 6963.00    0.70615   0.72418    0.088
 6964.00    0.70348   0.72373    0.087
 6965.00    0.70132   0.72343    0.087
 6966.00    0.69920   0.72332    0.086
 6967.00    0.70920   0.72241    0.087
 6968.00    0.71960   0.72151    0.088
 6969.00    0.71659   0.72072    0.087
 6970.00    0.71367   0.71973    0.086
 6971.00    0.71349   0.71864    0.087
 6972.00    0.71316   0.71758    0.088
 6973.00    0.71047   0.71691    0.087
 6974.00    0.70633   0.71620    0.087
 6975.00    0.68815   0.71538    0.088
 6976.00    0.67261   0.71501    0.088
 6977.00    0.67541   0.71501    0.089
 6978.00    0.68030   0.71524    0.090
 6979.00    0.69639   0.71517    0.090
 6980.00    0.70859   0.71548    0.091
 6981.00    0.70402   0.71672    0.090
 6982.00    0.70278   0.71714    0.089
 6983.00    0.71338   0.71753    0.090
 6984.00    0.71855   0.71900    0.090
 6985.00    0.70748   0.71991    0.089
 6986.00    0.69919   0.72041    0.088
 6987.00    0.69795   0.72111    0.086
 6988.00    0.69771   0.72164    0.085
 6989.00    0.69967   0.72192    0.085
 6990.00    0.69975   0.72183    0.085
 6991.00    0.69626   0.72195    0.086
 6992.00    0.69262   0.72198    0.086
 6993.00    0.68873   0.72135    0.087
 6994.00    0.69035   0.72098    0.088
 6995.00    0.69995   0.72071    0.089
 6996.00    0.70319   0.72013    0.090
 6997.00    0.69830   0.71957    0.091
 6998.00    0.69763   0.71885    0.092
 6999.00    0.70170   0.71834    0.092
 7000.00    0.69306   0.71783    0.091
 7001.00    0.67179   0.71704    0.091
 7002.00    0.66997   0.71671    0.090
 7003.00    0.68516   0.71623    0.089
 7004.00    0.69232   0.71550    0.089
 7005.00    0.69329   0.71522    0.090
 7006.00    0.67448   0.71467    0.088
 7007.00    0.64225   0.71433    0.087
 7008.00    0.64139   0.71420    0.087
 7009.00    0.65917   0.71338    0.088
 7010.00    0.65797   0.71321    0.089
 7011.00    0.64696   0.71336    0.089
 7012.00    0.64401   0.71266    0.090
 7013.00    0.64468   0.71262    0.090
 7014.00    0.65240   0.71261    0.091
 7015.00    0.66284   0.71222    0.091
 7016.00    0.66368   0.71260    0.092
 7017.00    0.66138   0.71248    0.092
 7018.00    0.66427   0.71257    0.093
 7019.00    0.66859   0.71335    0.094
 7020.00    0.66646   0.71311    0.093
 7021.00    0.66287   0.71336    0.092
 7022.00    0.65826   0.71453    0.093
 7023.00    0.65347   0.71498    0.093
 7024.00    0.65097   0.71543    0.092
 7025.00    0.64879   0.71605    0.091
 7026.00    0.65929   0.71696    0.091
 7027.00    0.67106   0.71780    0.092
 7028.00    0.66940   0.71786    0.092
 7029.00    0.66689   0.71890    0.091
 7030.00    0.66509   0.72047    0.091
 7031.00    0.66330   0.72084    0.092
 7032.00    0.65808   0.72188    0.092
 7033.00    0.65286   0.72331    0.092
 7034.00    0.64775   0.72399    0.091
 7035.00    0.64291   0.72516    0.091
 7036.00    0.64185   0.72628    0.093
 7037.00    0.64205   0.72717    0.095
 7038.00    0.65383   0.72852    0.096
 7039.00    0.66297   0.72907    0.097
 7040.00    0.65440   0.72961    0.095
 7041.00    0.64929   0.73080    0.093
 7042.00    0.66223   0.73044    0.095
 7043.00    0.67770   0.72980    0.096
 7044.00    0.70376   0.73030    0.096
 7045.00    0.71882   0.72940    0.096
 7046.00    0.69561   0.72774    0.096
 7047.00    0.67663   0.72679    0.096
 7048.00    0.67003   0.72497    0.094
 7049.00    0.67004   0.72246    0.093
 7050.00    0.68659   0.72024   -2.000
 7051.00    0.69872   0.71792   -2.000
 7052.00    0.70136   0.71541   -2.000
 7053.00    0.70416   0.71259   -2.000
 7054.00    0.70726   0.71011   -2.000
 7055.00    0.71258   0.70782   -2.000
 7056.00    0.72153   0.70514   -2.000
 7057.00    0.72351   0.70309   -2.000
 7058.00    0.71555   0.70116   -2.000
 7059.00    0.71183   0.69928   -2.000
 7060.00    0.71345   0.69833   -2.000
 7061.00    0.71950   0.69705   -2.000
 7062.00    0.73046   0.69608   -2.000
 7063.00    0.74852   0.69590   -2.000
 7064.00    0.77351   0.69507   -2.000
 7065.00    0.76838   0.69498   -2.000
 7066.00    0.73727   0.69553   -2.000
 7067.00    0.71121   0.69520   -2.000
 7068.00    0.68898   0.69567   -2.000
 7069.00    0.69295   0.69635   -2.000
 7070.00    0.71442   0.69620   -2.000
 7071.00    0.73024   0.69662   -2.000
 7072.00    0.74275   0.69686   -2.000
 7073.00    0.75246   0.69650   -2.000
 7074.00    0.76074   0.69627   -2.000
 7075.00    0.76087   0.69580   -2.000
 7076.00    0.75742   0.69493   -2.000
 7077.00    0.74750   0.69352   -2.000
 7078.00    0.73513   0.69207   -2.000
 7079.00    0.73266   0.69055   -2.000
 7080.00    0.73338   0.68809   -2.000
 7081.00    0.72956   0.68601   -2.000
 7082.00    0.72452   0.68405   -2.000
 7083.00    0.71261   0.68115   -2.000
 7084.00    0.69918   0.67912   -2.000
 7085.00    0.70165   0.67703   -2.000
 7086.00    0.70690   0.67448   -2.000
 7087.00    0.71263   0.67314   -2.000
 7088.00    0.71841   0.67126   -2.000
 7089.00    0.71902   0.66962   -2.000
 7090.00    0.71913   0.66927   -2.000
 7091.00    0.69432   0.66824   -2.000
 7092.00    0.66805   0.66768   -2.000
 7093.00    0.66160   0.66790   -2.000
 7094.00    0.65575   0.66767   -2.000
 7095.00    0.66424   0.66809   -2.000
 7096.00    0.67242   0.66863   -2.000
 7097.00    0.67282   0.66898   -2.000
 7098.00    0.67226   0.66972   -2.000
 7099.00    0.65913   0.67026   -2.000
 7100.00    0.64580   0.67101   -2.000
 7101.00    0.63071   0.67160   -2.000
 7102.00    0.61662   0.67190   -2.000
 7103.00    0.60902   0.67282   -2.000
 7104.00    0.60596   0.67313   -2.000
 7105.00    0.62599   0.67327   -2.000
 7106.00    0.63938   0.67390   -2.000
 7107.00    0.62549   0.67402   -2.000
 7108.00    0.61376   0.67415   -2.000
 7109.00    0.60939   0.67443   -2.000
 7110.00    0.61541   0.67452   -2.000
 7111.00    0.65127   0.67464   -2.000
 7112.00    0.66571   0.67442   -2.000
 7113.00    0.62759   0.67444   -2.000
 7114.00    0.60691   0.67456   -2.000
 7115.00    0.62314   0.67389   -2.000
 7116.00    0.64085   0.67363   -2.000
 7117.00    0.66129   0.67348   -2.000
 7118.00    0.67212   0.67259   -2.000
 7119.00    0.66752   0.67213   -2.000
 7120.00    0.67032   0.67143   -2.000
 7121.00    0.68356   0.67048   -2.000
 7122.00    0.69386   0.67005   -2.000
 7123.00    0.70052   0.66888   -2.000
 7124.00    0.70546   0.66814   -2.000
 7125.00    0.70850   0.66800   -2.000
 7126.00    0.70948   0.66674   -2.000
 7127.00    0.70846   0.66648   -2.000
 7128.00    0.71640   0.66676   -2.000
 7129.00    0.73196   0.66593   -2.000
 7130.00    0.72783   0.66626   -2.000
 7131.00    0.70895   0.66672   -2.000
 7132.00    0.67400   0.66648   -2.000
 7133.00    0.62848   0.66748   -2.000
 7134.00    0.62144   0.66794   -2.000
 7135.00    0.63655   0.66787   -2.000
 7136.00    0.64018   0.66925   -2.000
 7137.00    0.63805   0.66972   -2.000
 7138.00    0.65902   0.66975   -2.000
 7139.00    0.69002   0.67111   -2.000
 7140.00    0.68935   0.67140   -2.000
 7141.00    0.67687   0.67151   -2.000
 7142.00    0.65463   0.67276   -2.000
 7143.00    0.62929   0.67281   -2.000
 7144.00    0.63311   0.67307   -2.000
 7145.00    0.64462   0.67437   -2.000
 7146.00    0.64818   0.67442   -2.000
 7147.00    0.65003   0.67478   -2.000
 7148.00    0.64603   0.67605   -2.000
 7149.00    0.64103   0.67622   -2.000
 7150.00    0.63423   0.67663   -2.000
 7151.00    0.62720   0.67766   -2.000
 7152.00    0.63104   0.67770   -2.000
 7153.00    0.63587   0.67785   -2.000
 7154.00    0.63049   0.67863   -2.000
 7155.00    0.62455   0.67859   -2.000
 7156.00    0.63262   0.67816   -2.000
 7157.00    0.64082   0.67843   -2.000
 7158.00    0.63433   0.67831   -2.000
 7159.00    0.63024   0.67749   -2.000
 7160.00    0.68049   0.67732   -2.000
 7161.00    0.72670   0.67714   -2.000
 7162.00    0.72198   0.67637   -2.000
 7163.00    0.71853   0.67605   -2.000
 7164.00    0.72595   0.67582   -2.000
 7165.00    0.72773   0.67541   -2.000
 7166.00    0.69382   0.67525   -2.000
 7167.00    0.67082   0.67507   -2.000
 7168.00    0.70199   0.67479   -2.000
 7169.00    0.72736   0.67462   -2.000
 7170.00    0.72934   0.67467   -2.000
 7171.00    0.72185   0.67432   -2.000
 7172.00    0.68268   0.67391   -2.000
 7173.00    0.65336   0.67394   -2.000
 7174.00    0.65180   0.67321   -2.000
 7175.00    0.65745   0.67263   -2.000
 7176.00    0.68050   0.67248   -2.000
 7177.00    0.69005   0.67127   -2.000
 7178.00    0.67150   0.67059   -2.000
 7179.00    0.65700   0.67030   -2.000
 7180.00    0.64983   0.66889   -2.000
 7181.00    0.64495   0.66830   -2.000
 7182.00    0.64370   0.66795   -2.000
 7183.00    0.64422   0.66672   -2.000
 7184.00    0.64722   0.66641   -2.000
 7185.00    0.64689   0.66605   -2.000
 7186.00    0.64251   0.66530   -2.000
 7187.00    0.63501   0.66546   -2.000
 7188.00    0.62416   0.66518   -2.000
 7189.00    0.62559   0.66488   -2.000
 7190.00    0.63869   0.66546   -2.000
 7191.00    0.64119   0.66540   -2.000
 7192.00    0.63481   0.66544   -2.000
 7193.00    0.63494   0.66614   -2.000
 7194.00    0.63987   0.66617   -2.000
 7195.00    0.62745   0.66643   -2.000
 7196.00    0.60378   0.66710   -2.000
 7197.00    0.59987   0.66715   -2.000
 7198.00    0.60716   0.66743   -2.000
 7199.00    0.62560   0.66793   -2.000
 7200.00    0.64954   0.66791   -2.000
 7201.00    0.66977   0.66812   -2.000
 7202.00    0.68841   0.66843   -2.000
 7203.00    0.67758   0.66854   -2.000
 7204.00    0.65597   0.66889   -2.000
 7205.00    0.62358   0.66901   -2.000
 7206.00    0.58785   0.66937   -2.000
 7207.00    0.58496   0.67010   -2.000
 7208.00    0.59055   0.67026   -2.000
 7209.00    0.59158   0.67098   -2.000
 7210.00    0.59165   0.67199   -2.000
 7211.00    0.60602   0.67235   -2.000
 7212.00    0.62276   0.67349   -2.000
 7213.00    0.61474   0.67466   -2.000
 7214.00    0.60363   0.67518   -2.000
 7215.00    0.60820   0.67653   -2.000
 7216.00    0.61413   0.67779   -2.000
 7217.00    0.59624   0.67866   -2.000
 7218.00    0.57714   0.68001   -2.000
