###################################################################
## OUTPUT of StarlightChains_v04.for    [Cid@UFSC - 01/Apr/2007] ##
###################################################################

## Some input info
KUG0210-078._26_35.txt                   [arq_obs]
Base.CB07.vall.4m                        [arq_base]
Masks.EmLines.NEW.gm                     [arq_masks]
StCv04.C11.config                        [arq_config]
   66                                    [N_base]
    0                                    [N_YAV_components = # of components with extra extinction!]
    0                                    [i_FitPowerLaw (1/0 = Yes/No)]
-9.99                                    [alpha_PowerLaw]
CCM                                      [red_law_option]
 1.458241                                [q_norm = A(l_norm)/A(V)]

## (Re)Sampling Parameters
 3741.00                                 [l_ini (A)]
 7218.00                                 [l_fin (A)]
    1.00                                 [dl    (A)]     (OBS: dl_cushion =    50.00 A)

## Normalization info
 4020.00                                 [l_norm (A) - for base]
 4010.00                                 [llow_norm (A) - window for f_obs]
 4060.00                                 [lupp_norm (A) - window for f_obs]
5.160654E-17                             [fobs_norm (in input units)]

## S/N
 3691.00                                 [llow_SN (A) - window for S/N]
 7268.00                                 [lupp_SN (A) - window for S/N]
   8.962                                 [S/N in S/N window]
   9.165                                 [S/N in norm. window]
   0.067                                 [S/N_err in S/N window]
   0.069                                 [S/N_err in norm. window]
  1.0000                                 [fscale_chi2]

## etc...
    -2007331                             [idum_orig]
  2432                                   [NOl_eff]
  2425                                   [Nl_eff]
     7    NSIGMA                         [Ntot_cliped & clip_method]
  5291230                                [Nglobal_steps]
   7                                     [N_chains]
  49                                     [NEX0s_base = N_base in EX0s-fits]
 0   1   1        8   2.0   5.986E+03    [Clip-Bug, RC-Crash & Burn-In warning-flags, n_censored_weights, wei_nsig_threshold & wei_limit]
    97     95.635     95.136      0.499  [idt_all, wdt_TotTime, wdt_UsrTime & wdt_SysTime (sec)]

## Synthesis Results - Best model ##

 4.73246E-03                             [chi2/Nl_eff]
     9.56063                             [adev (%)]

    99.99168                             [sum-of-x (%)]
 8.49231E-17                             [Flux_tot (units of input spectrum!)]
 1.27936E-12                             [Mini_tot (???)]
 6.69730E-13                             [Mcor_tot (???)]

-446.41                                  [v0_min  (km/s)]
 346.53                                  [vd_min  (km/s)]
 0.3709                                  [AV_min  (mag)]
 0.0000                                  [YAV_min (mag)]

# j     x_j(%)      Mini_j(%)     Mcor_j(%)     age_j(yr)     Z_j      (L/M)_j    YAV?  Mstars   component_j        a/Fe...       SSP_chi2r SSP_adev(%)   SSP_AV   SSP_x(%)
  1      3.5746     2.1691E-02    4.1435E-02    1.000000E+06  0.00400  1.094E-02    0   1.0000   age020_m42            0.0000     1.7336E-04    12.8878   2.7206    94.7159
  2      0.0000     0.0000E+00    0.0000E+00    3.160000E+06  0.00400  4.007E-02    0   0.9999   age045_m42            0.0000     1.2955E-04    11.3140   2.0134   101.5660
  3      0.4130     1.0798E-03    1.9572E-03    5.010000E+06  0.00400  2.539E-02    0   0.9488   age055_m42            0.0000     1.4781E-04    11.9843   2.3268    98.8173
  4      0.0000     0.0000E+00    0.0000E+00    6.610000E+06  0.00400  2.620E-02    0   0.9220   age061_m42            0.0000     1.2878E-04    11.1380   1.9454   101.6367
  5      0.0000     0.0000E+00    0.0000E+00    1.000000E+07  0.00400  1.322E-02    0   0.8862   age070_m42            0.0000     1.2589E-04    10.0883   1.7294   102.0756
  6      4.1367     3.4837E-02    5.7038E-02    1.445000E+07  0.00400  7.883E-03    0   0.8571   age078_m42            0.0000     1.3580E-04    10.6044   2.0450    99.6584
  7      0.0000     0.0000E+00    0.0000E+00    2.512000E+07  0.00400  5.251E-03    0   0.8174   age090_m42            0.0000     1.2322E-04     9.8293   1.6105   102.4123
  8      1.7693     3.2188E-02    4.8273E-02    4.000000E+07  0.00400  3.649E-03    0   0.7851   age104_m42            0.0000     1.1806E-04     9.7488   1.3748   103.4876
  9      1.4307     3.0657E-02    4.4677E-02    5.500000E+07  0.00400  3.098E-03    0   0.7629   age110_m42            0.0000     1.1721E-04    10.0487   1.4987   104.3334
 10      0.0000     0.0000E+00    0.0000E+00    1.015200E+08  0.00400  2.228E-03    0   0.7207   age116_m42            0.0000     1.1754E-04    10.2023   1.5027   105.0279
 11      1.2259     7.4456E-02    9.4555E-02    2.861200E+08  0.00400  1.093E-03    0   0.6648   age125_m42            0.0000     1.0343E-04     9.1919   0.9737   107.5479
 12      2.9054     2.9236E-01    3.5548E-01    5.088000E+08  0.00400  6.597E-04    0   0.6365   age130_m42            0.0000     1.0587E-04     9.6486   0.9276   109.3856
 13      7.7829     2.4234E+00    2.6841E+00    1.434000E+09  0.00400  2.132E-04    0   0.5798   age139_m42            0.0000     9.6988E-05     9.8113  -0.0877   112.1366
 14      4.4005     4.9555E+00    5.0901E+00    4.250000E+09  0.00400  5.895E-05    0   0.5377   age158_m42            0.0000     1.0956E-04    10.8383  -0.5920   109.1066
 15      2.8908     5.4674E+00    5.4435E+00    7.500000E+09  0.00400  3.510E-05    0   0.5212   age171_m42            0.0000     1.1570E-04    11.1066  -0.7988   108.9154
 16      2.3666     7.8357E+00    7.5350E+00    1.300000E+10  0.00400  2.005E-05    0   0.5034   age193_m42            0.0000     1.2303E-04    11.4101  -0.9775   108.7203
 17      0.5106     2.2225E+00    2.1088E+00    1.800000E+10  0.00400  1.525E-05    0   0.4967   age213_m42            0.0000     1.2287E-04    11.3964  -0.9993   108.0930
 18      0.7641     4.0974E-03    7.8271E-03    1.000000E+06  0.00800  1.238E-02    0   1.0000   age020_m52            0.0000     1.7422E-04    12.9100   2.7155    94.9180
 19      0.0000     0.0000E+00    0.0000E+00    3.160000E+06  0.00800  3.074E-02    0   0.9966   age045_m52            0.0000     1.7125E-04    12.8353   2.6365    95.8483
 20      0.0000     0.0000E+00    0.0000E+00    5.010000E+06  0.00800  2.668E-02    0   0.9443   age055_m52            0.0000     1.5425E-04    12.1493   2.4058    97.9050
 21      0.5646     1.7549E-03    3.0764E-03    6.610000E+06  0.00800  2.136E-02    0   0.9177   age061_m52            0.0000     1.2448E-04    10.2320   1.2136   103.4100
 22      1.2312     6.7268E-03    1.1343E-02    1.000000E+07  0.00800  1.215E-02    0   0.8827   age070_m52            0.0000     1.3013E-04     9.9905   1.9239   101.4397
 23      0.0000     0.0000E+00    0.0000E+00    1.445000E+07  0.00800  8.717E-03    0   0.8552   age078_m52            0.0000     1.3269E-04    10.4498   2.0111   101.0046
 24      0.3157     3.7478E-03    5.8434E-03    2.512000E+07  0.00800  5.592E-03    0   0.8162   age090_m52            0.0000     1.2138E-04     9.7314   1.6749   103.5851
 25      0.2086     3.5545E-03    5.3240E-03    4.000000E+07  0.00800  3.896E-03    0   0.7841   age104_m52            0.0000     1.1468E-04     9.6106   1.5767   104.8200
 26      0.5780     1.7862E-02    2.4656E-02    1.015200E+08  0.00800  2.148E-03    0   0.7226   age116_m52            0.0000     1.1237E-04     9.8319   1.4854   105.4918
 27      8.6313     5.7732E-01    7.3702E-01    2.861200E+08  0.00800  9.925E-04    0   0.6683   age125_m52            0.0000     1.0956E-04     9.7964   0.9815   110.4278
 28      2.0911     4.4195E-01    5.1820E-01    9.047900E+08  0.00800  3.141E-04    0   0.6138   age135_m52            0.0000     1.0456E-04    10.0886   0.1286   116.4880
 29      4.3131     1.6656E+00    1.8623E+00    1.434000E+09  0.00800  1.719E-04    0   0.5853   age139_m52            0.0000     9.9321E-05    10.2880  -0.4726   114.2744
 30      0.3758     3.1688E-01    3.3898E-01    2.500000E+09  0.00800  7.872E-05    0   0.5600   age150_m52            0.0000     1.1659E-04    11.2767  -0.7984   112.6480
 31      0.9909     1.5171E+00    1.5725E+00    4.250000E+09  0.00800  4.336E-05    0   0.5426   age158_m52            0.0000     1.1894E-04    11.2788  -0.8123   111.6383
 32      0.0000     0.0000E+00    0.0000E+00    6.250000E+09  0.00800  3.159E-05    0   0.5319   age166_m52            0.0000     1.3094E-04    11.6637  -1.0000   110.3908
 33      0.1652     8.0556E-01    7.8065E-01    1.300000E+10  0.00800  1.361E-05    0   0.5073   age193_m52            0.0000     2.8715E-04    13.7293  -1.0000    88.6020
 34      2.4502     1.6453E+01    1.5684E+01    1.800000E+10  0.00800  9.886E-06    0   0.4990   age213_m52            0.0000     3.6380E-04    14.7606  -1.0000    83.8723
 35      0.6033     2.5940E-03    4.9552E-03    1.000000E+06  0.02000  1.544E-02    0   1.0000   age020_m62            0.0000     1.7588E-04    12.9533   2.7110    95.1234
 36      3.4833     6.1467E-03    1.1575E-02    3.160000E+06  0.02000  3.762E-02    0   0.9858   age045_m62            0.0000     1.7580E-04    12.9881   2.6466    96.0104
 37      0.0000     0.0000E+00    0.0000E+00    5.010000E+06  0.02000  3.296E-02    0   0.9342   age055_m62            0.0000     1.4458E-04    11.9493   2.2734   100.3984
 38      1.2314     7.0836E-03    1.1990E-02    8.710000E+06  0.02000  1.154E-02    0   0.8861   age067_m62            0.0000     1.5261E-04     9.0132   1.4959   101.3380
 39      0.0000     0.0000E+00    0.0000E+00    1.445000E+07  0.02000  7.663E-03    0   0.8472   age078_m62            0.0000     1.2739E-04     9.3182   1.6097   102.8504
 40      1.1049     1.6185E-02    2.5040E-02    2.512000E+07  0.02000  4.532E-03    0   0.8099   age090_m62            0.0000     1.2554E-04     9.1104   1.6119   102.4174
 41      3.3117     8.0440E-02    1.1671E-01    5.500000E+07  0.02000  2.733E-03    0   0.7595   age110_m62            0.0000     1.1768E-04     9.7357   1.5571   104.0074
 42      1.2680     6.1488E-02    8.2045E-02    1.609000E+08  0.02000  1.369E-03    0   0.6985   age120_m62            0.0000     1.1515E-04     9.8770   1.3598   108.0667
 43      1.7718     1.3050E-01    1.6738E-01    2.861200E+08  0.02000  9.013E-04    0   0.6714   age125_m62            0.0000     1.1915E-04    10.0454   1.0866   111.8561
 44      0.0624     8.2365E-03    1.0147E-02    5.088000E+08  0.02000  5.028E-04    0   0.6449   age130_m62            0.0000     1.2105E-04    10.5577   0.6580   116.3247
 45      3.6009     9.8455E-01    1.1621E+00    9.047900E+08  0.02000  2.428E-04    0   0.6179   age135_m62            0.0000     1.1138E-04    10.7538   0.0306   116.6178
 46      1.4967     7.8668E-01    8.8783E-01    1.434000E+09  0.02000  1.263E-04    0   0.5908   age139_m62            0.0000     1.1822E-04    11.2686  -0.4470   115.4034
 47      1.3140     1.4575E+00    1.5794E+00    2.500000E+09  0.02000  5.985E-05    0   0.5673   age150_m62            0.0000     1.3320E-04    12.0248  -0.8548   115.0558
 48      3.8025     7.7172E+00    8.0609E+00    4.250000E+09  0.02000  3.271E-05    0   0.5468   age158_m62            0.0000     1.7306E-04    12.6864  -1.0000   105.5310
 49      0.5400     2.6356E+00    2.6015E+00    1.000000E+10  0.02000  1.360E-05    0   0.5167   age181_m62            0.0000     3.3414E-04    14.8565  -1.0000    89.8440
 50      0.0000     0.0000E+00    0.0000E+00    1.800000E+10  0.02000  7.124E-06    0   0.5013   age213_m62            0.0000     4.8465E-04    16.6685  -1.0000    80.8569
 51      1.8404     4.7134E-03    9.0021E-03    1.000000E+06  0.05000  2.592E-02    0   0.9998   age020_m72            0.0000     1.8049E-04    13.0123   2.7050    95.0430
 52      0.0000     0.0000E+00    0.0000E+00    3.160000E+06  0.05000  4.845E-02    0   0.9577   age045_m72            0.0000     1.6370E-04    12.6912   2.5255    97.5761
 53      3.0316     6.5512E-03    1.1447E-02    5.010000E+06  0.05000  3.072E-02    0   0.9147   age055_m72            0.0000     1.3821E-04    10.3628   2.1523    99.9115
 54      0.7787     3.5530E-03    6.0249E-03    6.610000E+06  0.05000  1.455E-02    0   0.8877   age061_m72            0.0000     1.6631E-04     9.5727   1.6275   101.5581
 55      0.0000     0.0000E+00    0.0000E+00    1.000000E+07  0.05000  9.074E-03    0   0.8524   age070_m72            0.0000     1.3468E-04    10.1419   2.3482    99.7164
 56      0.0000     0.0000E+00    0.0000E+00    2.512000E+07  0.05000  4.250E-03    0   0.7902   age090_m72            0.0000     1.2126E-04     9.6075   2.0481   101.6862
 57      2.8474     6.1233E-02    8.9108E-02    4.000000E+07  0.05000  3.087E-03    0   0.7618   age104_m72            0.0000     1.1712E-04     9.2646   1.8293   103.1684
 58      2.2328     8.7190E-02    1.1819E-01    1.015200E+08  0.05000  1.700E-03    0   0.7096   age116_m72            0.0000     1.1476E-04     9.6171   1.5238   107.0844
 59      0.0000     0.0000E+00    0.0000E+00    2.861200E+08  0.05000  7.384E-04    0   0.6633   age125_m72            0.0000     1.2023E-04    10.2725   0.9254   114.2835
 60      0.0000     0.0000E+00    0.0000E+00    5.088000E+08  0.05000  3.819E-04    0   0.6372   age130_m72            0.0000     1.1724E-04    10.8513   0.3721   117.7094
 61      0.8348     3.3067E-01    3.8594E-01    9.047900E+08  0.05000  1.676E-04    0   0.6110   age135_m72            0.0000     1.3069E-04    11.9634  -0.4016   117.5998
 62      2.4606     1.8485E+00    2.0741E+00    1.434000E+09  0.05000  8.837E-05    0   0.5874   age139_m72            0.0000     1.3867E-04    12.3145  -0.8754   117.2259
 63      2.4927     3.9092E+00    4.1803E+00    2.500000E+09  0.05000  4.233E-05    0   0.5598   age150_m72            0.0000     1.8731E-04    13.1215  -1.0000   106.0170
 64      1.6470     7.6192E+00    7.6397E+00    6.250000E+09  0.05000  1.435E-05    0   0.5249   age166_m72            0.0000     4.0312E-04    15.9901  -1.0000    85.1323
 65      1.0003     1.0195E+01    9.8080E+00    1.300000E+10  0.05000  6.513E-06    0   0.5036   age193_m72            0.0000     6.1334E-04    18.0861  -1.0000    75.6650
 66      1.1479     1.6832E+01    1.5900E+01    1.800000E+10  0.05000  4.527E-06    0   0.4945   age213_m72            0.0000     7.5050E-04    19.3468  -1.0000    70.0314


## Synthesis Results - Average & Chains ##

# j      x_j: min, <> & last-chain-values for 1 ...  7 chains
  1      3.5746      3.5614      3.6274      3.6763      3.5189      3.6415      3.8684      3.5908      3.5940
  2      0.0000      0.0526      0.0458      0.0000      0.0891      0.0500      0.0537      0.0000      0.0000
  3      0.4130      0.4033      0.3710      0.4032      0.5247      0.3516      0.3688      0.4523      0.5434
  4      0.0000      0.0738      0.0000      0.0000      0.0000      0.0000      0.0094      0.2172      0.0000
  5      0.0000      0.2481      0.2077      0.2166      0.0281      0.2421      0.2668      0.1746      0.3271
  6      4.1367      3.3838      3.7406      3.3455      3.4885      3.2477      3.1491      3.2885      3.5735
  7      0.0000      0.1836      0.2632      0.1847      0.0952      0.0796      0.0961      0.2182      0.0000
  8      1.7693      1.2035      1.2052      1.1717      1.2729      1.0288      1.6460      1.3409      1.2387
  9      1.4307      0.8662      0.8222      0.8626      0.6854      0.8518      1.2163      0.9130      0.8452
 10      0.0000      0.2381      0.1669      0.2428      0.4691      0.3187      0.3493      0.1401      0.1423
 11      1.2259      1.4148      1.4067      1.3122      1.5455      1.3576      1.2201      1.3427      2.0850
 12      2.9054      2.1646      2.0206      2.2786      2.4233      2.3423      2.1088      2.0980      2.1099
 13      7.7829      9.6111      9.6302      9.8888      9.4304      9.5547      9.8042      9.2743      9.2795
 14      4.4005      3.9385      3.9560      3.9321      3.9869      4.1957      4.6780      4.1202      3.9097
 15      2.8908      2.5799      2.6136      2.7313      2.5893      2.6192      2.4064      2.6816      2.5414
 16      2.3666      2.3896      2.2882      2.5350      2.4645      2.4015      2.3491      2.3879      2.5010
 17      0.5106      0.4961      0.5973      0.4383      0.5792      0.4734      0.5253      0.4739      0.3393
 18      0.7641      0.6157      0.7541      0.6374      0.6822      0.7587      0.5591      0.6132      0.5069
 19      0.0000      0.0325      0.0000      0.1159      0.0000      0.0169      0.0061      0.1136      0.0000
 20      0.0000      0.0682      0.0701      0.0000      0.1785      0.0000      0.0000      0.1270      0.0000
 21      0.5646      0.5278      0.4714      0.8102      0.3398      0.6015      0.4178      0.6113      0.4817
 22      1.2312      1.8380      2.1055      1.8327      1.7715      1.8294      1.9014      1.8087      1.8667
 23      0.0000      0.1273      0.1120      0.2618      0.1850      0.0571      0.0513      0.0312      0.3515
 24      0.3157      0.4894      0.4723      0.5305      0.5827      0.4264      0.4850      0.4951      0.4339
 25      0.2086      0.4554      0.5267      0.5553      0.4041      0.6683      0.3341      0.5427      0.5634
 26      0.5780      0.1882      0.2788      0.3261      0.2529      0.1076      0.1381      0.2827      0.1746
 27      8.6313      7.8300      7.9305      7.8740      8.0617      7.9427      7.5702      8.1047      7.9710
 28      2.0911      2.8514      2.8494      2.8233      2.7550      2.9972      3.4011      2.7679      2.7013
 29      4.3131      3.6527      3.9775      3.4805      3.3604      3.4783      3.7084      3.9006      3.7515
 30      0.3758      0.4293      0.4540      0.5142      0.4934      0.4421      0.3801      0.4075      0.4205
 31      0.9909      1.2224      1.2210      1.2145      1.0997      1.0245      1.2570      1.2770      1.1723
 32      0.0000      0.0262      0.0000      0.0000      0.0000      0.0267      0.0000      0.0000      0.0000
 33      0.1652      0.2230      0.2705      0.1691      0.1407      0.2593      0.2793      0.1987      0.2069
 34      2.4502      2.2910      2.2909      2.3244      2.3303      2.3263      2.1895      2.3723      2.4163
 35      0.6033      0.5364      0.5510      0.4599      0.5531      0.4829      0.6367      0.5330      0.4993
 36      3.4833      3.3144      3.3743      3.3417      3.4927      3.4634      3.2970      3.3411      3.3002
 37      0.0000      0.0772      0.0000      0.0113      0.2766      0.0000      0.0857      0.0000      0.1746
 38      1.2314      1.0779      1.2256      1.2502      1.3182      1.1382      0.8023      1.1867      1.2168
 39      0.0000      0.0812      0.1454      0.0433      0.1436      0.0000      0.0000      0.0000      0.0000
 40      1.1049      0.7517      0.8008      0.7380      1.0034      0.7144      0.8390      0.7163      0.7441
 41      3.3117      3.3541      3.3541      3.2998      3.3661      3.3958      3.3588      3.0706      3.4492
 42      1.2680      0.6258      0.5073      0.5373      0.6573      0.8594      0.6977      0.6160      0.6038
 43      1.7718      1.5384      1.2949      1.5497      1.6916      1.6105      1.4106      1.5921      1.5559
 44      0.0624      1.0384      1.0905      1.3717      0.4866      1.2149      1.1430      1.4029      0.9758
 45      3.6009      3.7318      2.5014      2.6106      2.1131      3.5353      2.8488      2.7111      3.3850
 46      1.4967      1.5854      1.6892      1.4905      1.7779      1.7479      1.5545      1.8909      1.4232
 47      1.3140      1.1388      1.3518      1.2807      1.2744      0.8652      0.8663      1.2650      1.2570
 48      3.8025      3.1202      3.0513      3.0835      3.4068      3.1484      3.0428      3.1541      3.2235
 49      0.5400      0.8890      0.9121      0.8229      0.8735      0.9177      0.9440      0.7938      0.9116
 50      0.0000      0.1844      0.1032      0.1397      0.1085      0.2013      0.2243      0.1771      0.2097
 51      1.8404      1.5867      1.6575      1.5423      1.7830      1.5926      1.5887      1.6201      1.6350
 52      0.0000      0.1353      0.1794      0.0000      0.2851      0.0900      0.3213      0.2093      0.1685
 53      3.0316      2.7143      2.9095      2.6163      2.6995      3.0267      2.9333      2.7020      2.7562
 54      0.7787      0.8699      1.0942      0.8827      0.9332      0.8080      0.8675      0.7403      0.8804
 55      0.0000      0.1197      0.1308      0.2721      0.1302      0.0999      0.0943      0.2422      0.0000
 56      0.0000      0.0960      0.0000      0.0814      0.2643      0.1518      0.0000      0.0000      0.1298
 57      2.8474      2.6222      2.4791      2.5631      2.9141      2.6709      2.5535      2.5923      2.5883
 58      2.2328      2.0695      2.1145      2.0584      2.2223      2.1190      2.3457      2.2183      2.0528
 59      0.0000      0.2961      0.2392      0.3492      0.3345      0.1288      0.2014      0.0000      0.2620
 60      0.0000      0.6815      0.0892      0.3588      0.0000      0.1735      0.3721      0.5045      0.0230
 61      0.8348      0.9350      0.8672      1.3460      1.1913      0.8036      1.1167      0.9748      0.8854
 62      2.4606      2.3255      2.3864      2.3417      2.4752      2.2733      2.3550      2.3335      2.4430
 63      2.4927      2.1759      2.2646      2.1707      2.2496      2.2095      2.2328      2.1932      2.3288
 64      1.6470      1.6064      1.6209      1.6021      1.5957      1.6989      1.5938      1.6261      1.6186
 65      1.0003      0.8459      0.8447      0.8236      0.9103      0.8789      0.8091      0.8549      0.8764
 66      1.1479      1.5073      1.6518      1.5388      1.5854      1.5461      1.5098      1.5071      1.5457

# j      m_j: min, <> & last-chain-values for 1 ...  7 chains
  1  4.1435E-02  3.9819E-02  3.9884E-02  4.1168E-02  3.8729E-02  4.0096E-02  4.3302E-02  3.9964E-02  3.9540E-02
  2  0.0000E+00  1.6059E-04  1.3761E-04  0.0000E+00  2.6773E-04  1.5041E-04  1.6422E-04  0.0000E+00  0.0000E+00
  3  1.9572E-03  1.8432E-03  1.6675E-03  1.8460E-03  2.3609E-03  1.5828E-03  1.6877E-03  2.0579E-03  2.4441E-03
  4  0.0000E+00  3.1756E-04  0.0000E+00  0.0000E+00  0.0000E+00  0.0000E+00  4.0620E-05  9.3077E-04  0.0000E+00
  5  0.0000E+00  2.0339E-03  1.6748E-03  1.7786E-03  2.2650E-04  1.9552E-03  2.1905E-03  1.4252E-03  2.6395E-03
  6  5.7038E-02  4.5001E-02  4.8921E-02  4.4562E-02  4.5670E-02  4.2535E-02  4.1929E-02  4.3534E-02  4.6764E-02
  7  0.0000E+00  3.4955E-03  4.9282E-03  3.5221E-03  1.7836E-03  1.4924E-03  1.8320E-03  4.1361E-03  0.0000E+00
  8  4.8273E-02  3.1674E-02  3.1190E-02  3.0884E-02  3.2976E-02  2.6663E-02  4.3369E-02  3.5126E-02  3.2078E-02
  9  4.4677E-02  2.6090E-02  2.4354E-02  2.6024E-02  2.0321E-02  2.5267E-02  3.6680E-02  2.7374E-02  2.5051E-02
 10  0.0000E+00  9.4218E-03  6.4921E-03  9.6209E-03  1.8271E-02  1.2416E-02  1.3837E-02  5.5195E-03  5.5407E-03
 11  9.4555E-02  1.0526E-01  1.0292E-01  9.7775E-02  1.1319E-01  9.9463E-02  9.0876E-02  9.9439E-02  1.5264E-01
 12  3.5548E-01  2.5546E-01  2.3451E-01  2.6933E-01  2.8151E-01  2.7223E-01  2.4915E-01  2.4646E-01  2.4502E-01
 13  2.6841E+00  3.1970E+00  3.1502E+00  3.2946E+00  3.0879E+00  3.1300E+00  3.2651E+00  3.0709E+00  3.0374E+00
 14  5.0901E+00  4.3942E+00  4.3404E+00  4.3939E+00  4.3787E+00  4.6100E+00  5.2252E+00  4.5758E+00  4.2922E+00
 15  5.4435E+00  4.6857E+00  4.6682E+00  4.9686E+00  4.6294E+00  4.6849E+00  4.3757E+00  4.8483E+00  4.5420E+00
 16  7.5350E+00  7.3386E+00  6.9104E+00  7.7971E+00  7.4505E+00  7.2629E+00  7.2224E+00  7.2998E+00  7.5577E+00
 17  2.1088E+00  1.9763E+00  2.3401E+00  1.7490E+00  2.2714E+00  1.8572E+00  2.0952E+00  1.8794E+00  1.3302E+00
 18  7.8271E-03  6.0836E-03  7.3270E-03  6.3073E-03  6.6354E-03  7.3819E-03  5.5305E-03  6.0312E-03  4.9281E-03
 19  0.0000E+00  1.2901E-04  0.0000E+00  4.6024E-04  0.0000E+00  6.6015E-05  2.4270E-05  4.4832E-04  0.0000E+00
 20  0.0000E+00  2.9513E-04  2.9823E-04  0.0000E+00  7.6076E-04  0.0000E+00  0.0000E+00  5.4723E-04  0.0000E+00
 21  3.0764E-03  2.7737E-03  2.4363E-03  4.2644E-03  1.7576E-03  3.1130E-03  2.1982E-03  3.1979E-03  2.4910E-03
 22  1.1343E-02  1.6333E-02  1.8399E-02  1.6311E-02  1.5496E-02  1.6010E-02  1.6916E-02  1.5999E-02  1.6323E-02
 23  0.0000E+00  1.5281E-03  1.3214E-03  3.1460E-03  2.1853E-03  6.7498E-04  6.1582E-04  3.7214E-04  4.1509E-03
 24  5.8434E-03  8.7374E-03  8.2929E-03  9.4856E-03  1.0241E-02  7.4973E-03  8.6680E-03  8.7981E-03  7.6227E-03
 25  5.3240E-03  1.1211E-02  1.2752E-02  1.3692E-02  9.7920E-03  1.6202E-02  8.2330E-03  1.3300E-02  1.3648E-02
 26  2.4656E-02  7.7444E-03  1.1280E-02  1.3439E-02  1.0245E-02  4.3591E-03  5.6888E-03  1.1580E-02  7.0695E-03
 27  7.3702E-01  6.4490E-01  6.4233E-01  6.4953E-01  6.5361E-01  6.4423E-01  6.2421E-01  6.6447E-01  6.4601E-01
 28  5.1820E-01  6.8156E-01  6.6977E-01  6.7589E-01  6.4822E-01  7.0551E-01  8.1390E-01  6.5856E-01  6.3534E-01
 29  1.8623E+00  1.5213E+00  1.6290E+00  1.4518E+00  1.3777E+00  1.4266E+00  1.5462E+00  1.6171E+00  1.5374E+00
 30  3.3898E-01  3.7359E-01  3.8846E-01  4.4811E-01  4.2266E-01  3.7884E-01  3.3111E-01  3.5295E-01  3.6000E-01
 31  1.5725E+00  1.8710E+00  1.8379E+00  1.8619E+00  1.6570E+00  1.5444E+00  1.9262E+00  1.9456E+00  1.7657E+00
 32  0.0000E+00  5.4045E-02  0.0000E+00  0.0000E+00  0.0000E+00  5.4201E-02  0.0000E+00  0.0000E+00  0.0000E+00
 33  7.8065E-01  1.0169E+00  1.2128E+00  7.7203E-01  6.3161E-01  1.1641E+00  1.2749E+00  9.0172E-01  9.2807E-01
 34  1.5684E+01  1.4145E+01  1.3909E+01  1.4373E+01  1.4163E+01  1.4144E+01  1.3533E+01  1.4580E+01  1.4679E+01
 35  4.9552E-03  4.2490E-03  4.2927E-03  3.6488E-03  4.3130E-03  3.7671E-03  5.0501E-03  4.2032E-03  3.8922E-03
 36  1.1575E-02  1.0623E-02  1.0636E-02  1.0728E-02  1.1020E-02  1.0932E-02  1.0580E-02  1.0660E-02  1.0409E-02
 37  0.0000E+00  2.6781E-04  0.0000E+00  3.9095E-05  9.4391E-04  0.0000E+00  2.9747E-04  0.0000E+00  5.9550E-04
 38  1.1990E-02  1.0124E-02  1.1320E-02  1.1760E-02  1.2187E-02  1.0528E-02  7.5441E-03  1.1095E-02  1.1245E-02
 39  0.0000E+00  1.0981E-03  1.9342E-03  5.8683E-04  1.9110E-03  0.0000E+00  0.0000E+00  0.0000E+00  0.0000E+00
 40  2.5040E-02  1.6432E-02  1.7214E-02  1.6158E-02  2.1591E-02  1.5378E-02  1.8361E-02  1.5585E-02  1.6004E-02
 41  1.1671E-01  1.1401E-01  1.1212E-01  1.1234E-01  1.1263E-01  1.1367E-01  1.1430E-01  1.0390E-01  1.1537E-01
 42  8.2045E-02  3.9059E-02  3.1132E-02  3.3584E-02  4.0382E-02  5.2820E-02  4.3593E-02  3.8269E-02  3.7079E-02
 43  1.6738E-01  1.4017E-01  1.1603E-01  1.4142E-01  1.5173E-01  1.4451E-01  1.2868E-01  1.4441E-01  1.3950E-01
 44  1.0147E-02  1.6292E-01  1.6825E-01  2.1554E-01  7.5146E-02  1.8771E-01  1.7953E-01  2.1908E-01  1.5064E-01
 45  1.1621E+00  1.1616E+00  7.6571E-01  8.1391E-01  6.4750E-01  1.0838E+00  8.8781E-01  8.4005E-01  1.0368E+00
 46  8.8783E-01  9.0712E-01  9.5045E-01  8.5417E-01  1.0014E+00  9.8491E-01  8.9045E-01  1.0770E+00  8.0131E-01
 47  1.5794E+00  1.3203E+00  1.5413E+00  1.4871E+00  1.4545E+00  9.8788E-01  1.0055E+00  1.4599E+00  1.4341E+00
 48  8.0609E+00  6.3799E+00  6.1355E+00  6.3148E+00  6.8572E+00  6.3396E+00  6.2288E+00  6.4198E+00  6.4856E+00
 49  2.6015E+00  4.1311E+00  4.1683E+00  3.8302E+00  3.9960E+00  4.1996E+00  4.3918E+00  3.6719E+00  4.1687E+00
 50  0.0000E+00  1.5872E+00  8.7349E-01  1.2041E+00  9.1963E-01  1.7061E+00  1.9325E+00  1.5171E+00  1.7756E+00
 51  9.0021E-03  7.4864E-03  7.6904E-03  7.2881E-03  8.2807E-03  7.3999E-03  7.5043E-03  7.6089E-03  7.5905E-03
 52  0.0000E+00  3.2707E-04  4.2663E-04  0.0000E+00  6.7857E-04  2.1421E-04  7.7769E-04  5.0368E-04  4.0093E-04
 53  1.1447E-02  9.8857E-03  1.0421E-02  9.5436E-03  9.6782E-03  1.0856E-02  1.0695E-02  9.7959E-03  9.8775E-03
 54  6.0249E-03  6.4918E-03  8.0302E-03  6.5975E-03  6.8551E-03  5.9382E-03  6.4810E-03  5.4996E-03  6.4647E-03
 55  0.0000E+00  1.3752E-03  1.4776E-03  3.1316E-03  1.4725E-03  1.1303E-03  1.0850E-03  2.7704E-03  0.0000E+00
 56  0.0000E+00  2.1829E-03  0.0000E+00  1.8548E-03  5.9173E-03  3.4002E-03  0.0000E+00  0.0000E+00  2.9056E-03
 57  8.9108E-02  7.9150E-02  7.3589E-02  7.7487E-02  8.6587E-02  7.9396E-02  7.7166E-02  7.7890E-02  7.6877E-02
 58  1.1819E-01  1.0566E-01  1.0617E-01  1.0526E-01  1.1169E-01  1.0654E-01  1.1990E-01  1.1274E-01  1.0313E-01
 59  0.0000E+00  3.2533E-02  2.5851E-02  3.8431E-02  3.6176E-02  1.3936E-02  2.2157E-02  0.0000E+00  2.8329E-02
 60  0.0000E+00  1.3909E-01  1.7910E-02  7.3338E-02  0.0000E+00  3.4866E-02  7.6028E-02  1.0250E-01  4.6137E-03
 61  3.8594E-01  4.1692E-01  3.8028E-01  6.0112E-01  5.2290E-01  3.5291E-01  4.9853E-01  4.3267E-01  3.8851E-01
 62  2.0741E+00  1.8908E+00  1.9081E+00  1.9069E+00  1.9810E+00  1.8202E+00  1.9169E+00  1.8886E+00  1.9545E+00
 63  4.1803E+00  3.5198E+00  3.6024E+00  3.5168E+00  3.5821E+00  3.5197E+00  3.6159E+00  3.5314E+00  3.7068E+00
 64  7.6397E+00  7.1874E+00  7.1319E+00  7.1793E+00  7.0278E+00  7.4858E+00  7.1392E+00  7.2419E+00  7.1262E+00
 65  9.8080E+00  8.0003E+00  7.8569E+00  7.8012E+00  8.4753E+00  8.1865E+00  7.6608E+00  8.0483E+00  8.1560E+00
 66  1.5900E+01  2.0139E+01  2.1703E+01  2.0592E+01  2.0852E+01  2.0344E+01  2.0196E+01  2.0044E+01  2.0321E+01

# AV, chi2 & Mass for <> & i_chain = 1 ...  7 solutions
AV       0.3709      0.3693      0.3695      0.3709      0.3668      0.3688      0.3677      0.3684      0.3676
chi2 4.7325E-03  1.2985E-04  1.2959E-04  1.3066E-04  1.4610E-04  1.3573E-04  1.2896E-04  1.3113E-04  1.3388E-04
Mass 6.6973E-13  6.9281E-13  7.0476E-13  6.9328E-13  7.0148E-13  7.0306E-13  6.9053E-13  6.9521E-13  7.0249E-13
-446.41                                  [v0_min (km/s) before EX0s...]
 346.53                                  [vd_min (km/s) before EX0s...]


## Synthetic spectrum (Best Model) ##l_obs f_obs f_syn wei
 3478    [Nl_obs]
 3741.00    0.63388   0.59657    0.000
 3742.00    0.63041   0.58995    0.000
 3743.00    0.59926   0.58724    0.000
 3744.00    0.56861   0.58794    0.000
 3745.00    0.53825   0.59374    0.140
 3746.00    0.56309   0.60337    0.142
 3747.00    0.61595   0.61632    0.144
 3748.00    0.63896   0.63109    0.145
 3749.00    0.64884   0.64614    0.144
 3750.00    0.66148   0.66086    0.142
 3751.00    0.67517   0.67330    0.140
 3752.00    0.70993   0.68303    0.138
 3753.00    0.75144   0.68955    0.136
 3754.00    0.77493   0.69277    0.133
 3755.00    0.79359   0.69298    0.131
 3756.00    0.82600   0.69066    0.131
 3757.00    0.86142   0.68556    0.132
 3758.00    0.81423   0.67821    0.131
 3759.00    0.75263   0.66906    0.130
 3760.00    0.70107   0.65902    0.128
 3761.00    0.65084   0.64942    0.125
 3762.00    0.62993   0.64128    0.122
 3763.00    0.61178   0.63642    0.119
 3764.00    0.55599   0.63519    0.117
 3765.00    0.49803   0.63817    0.116
 3766.00    0.47228   0.64568    0.114
 3767.00    0.44796   0.65786    0.113
 3768.00    0.50279   0.67418    0.116
 3769.00    0.55654   0.69311    0.118
 3770.00    0.58415   0.71372    0.119
 3771.00    0.60913   0.73445    0.120
 3772.00    0.59961   0.75391    0.119
 3773.00    0.59327   0.77151    0.118
 3774.00    0.61475   0.78598    0.119
 3775.00    0.63105   0.79710    0.119
 3776.00    0.61374   0.80425    0.120
 3777.00    0.59431   0.80682    0.121
 3778.00    0.56416   0.80563    0.122
 3779.00    0.55473   0.80036    0.123
 3780.00    0.63010   0.79182    0.128
 3781.00    0.71504   0.77989    0.132
 3782.00    0.83249   0.76495    0.134
 3783.00    0.89690   0.74789    0.135
 3784.00    0.80963   0.72865    0.136
 3785.00    0.74926   0.70834    0.136
 3786.00    0.75460   0.68716    0.133
 3787.00    0.77896   0.66649    0.131
 3788.00    0.84337   0.64716    0.132
 3789.00    0.88967   0.63063    0.134
 3790.00    0.90277   0.61823    0.137
 3791.00    0.87366   0.61088    0.138
 3792.00    0.77696   0.60974    0.135
 3793.00    0.73029   0.61430    0.131
 3794.00    0.75387   0.62501    0.126
 3795.00    0.74262   0.64086    0.123
 3796.00    0.68831   0.66073    0.122
 3797.00    0.64536   0.68314    0.122
 3798.00    0.61479   0.70606    0.124
 3799.00    0.61837   0.72862    0.125
 3800.00    0.65474   0.74891    0.125
 3801.00    0.67762   0.76657    0.125
 3802.00    0.68905   0.78081    0.125
 3803.00    0.70894   0.79185    0.125
 3804.00    0.73514   0.79976    0.124
 3805.00    0.77443   0.80450    0.123
 3806.00    0.82232   0.80657    0.122
 3807.00    0.81203   0.80571    0.121
 3808.00    0.76836   0.80221    0.120
 3809.00    0.75055   0.79665    0.122
 3810.00    0.74565   0.79056    0.126
 3811.00    0.72822   0.78383    0.126
 3812.00    0.70538   0.77664    0.125
 3813.00    0.66510   0.76900    0.123
 3814.00    0.61835   0.76087    0.121
 3815.00    0.62178   0.75191    0.123
 3816.00    0.64098   0.74215    0.126
 3817.00    0.59156   0.73198    0.124
 3818.00    0.52414   0.72054    0.121
 3819.00    0.55990   0.70767    0.122
 3820.00    0.61776   0.69242    0.125
 3821.00    0.65049   0.67514    0.127
 3822.00    0.67895   0.65648    0.128
 3823.00    0.57898   0.63664    0.124
 3824.00    0.46254   0.61655    0.120
 3825.00    0.37402   0.59727    0.117
 3826.00    0.28800   0.57980    0.115
 3827.00    0.38821   0.56519    0.119
 3828.00    0.49842   0.55452    0.124
 3829.00    0.54713   0.54923    0.125
 3830.00    0.59408   0.54987    0.127
 3831.00    0.59674   0.55683    0.128
 3832.00    0.59893   0.56995    0.130
 3833.00    0.59094   0.58824    0.127
 3834.00    0.58679   0.61018    0.125
 3835.00    0.63033   0.63491    0.125
 3836.00    0.67063   0.66078    0.126
 3837.00    0.68350   0.68641    0.125
 3838.00    0.68877   0.71117    0.125
 3839.00    0.64628   0.73344    0.123
 3840.00    0.61040   0.75336    0.122
 3841.00    0.60714   0.77022    0.125
 3842.00    0.61593   0.78401    0.129
 3843.00    0.67293   0.79520    0.132
 3844.00    0.73547   0.80381    0.135
 3845.00    0.81639   0.80989    0.134
 3846.00    0.86252   0.81414    0.132
 3847.00    0.81091   0.81717    0.000
 3848.00    0.77199   0.81897    0.000
 3849.00    0.76355   0.81983    0.000
 3850.00    0.75663   0.82031    0.000
 3851.00    0.75284   0.82090    0.000
 3852.00    0.73674   0.82127    0.000
 3853.00    0.69842   0.82274    0.000
 3854.00    0.67059   0.82428    0.000
 3855.00    0.65930   0.82604    0.000
 3856.00    0.65319   0.82813    0.000
 3857.00    0.65425   0.83031    0.000
 3858.00    0.67033   0.83198    0.000
 3859.00    0.70471   0.83232    0.000
 3860.00    0.72847   0.83179    0.000
 3861.00    0.74082   0.82976    0.000
 3862.00    0.72299   0.82694    0.000
 3863.00    0.67655   0.82314    0.000
 3864.00    0.60990   0.81845    0.000
 3865.00    0.52636   0.81321    0.000
 3866.00    0.49202   0.80705    0.000
 3867.00    0.49387   0.80048    0.000
 3868.00    0.45632   0.79300    0.000
 3869.00    0.39332   0.78522    0.000
 3870.00    0.40171   0.77651    0.000
 3871.00    0.45045   0.76652    0.000
 3872.00    0.48585   0.75434    0.000
 3873.00    0.51467   0.74037    0.000
 3874.00    0.57745   0.72431    0.000
 3875.00    0.65467   0.70705    0.000
 3876.00    0.68940   0.68895    0.000
 3877.00    0.70867   0.66978    0.000
 3878.00    0.68915   0.65094    0.000
 3879.00    0.65767   0.63373    0.000
 3880.00    0.65199   0.61931    0.000
 3881.00    0.65293   0.60809    0.120
 3882.00    0.67753   0.60124    0.118
 3883.00    0.70708   0.60028    0.116
 3884.00    0.75134   0.60504    0.120
 3885.00    0.79802   0.61469    0.124
 3886.00    0.81904   0.62983    0.126
 3887.00    0.83689   0.64820    0.127
 3888.00    0.78608   0.66877    0.121
 3889.00    0.72939   0.68960    0.116
 3890.00    0.70845   0.71014    0.117
 3891.00    0.68929   0.72974    0.118
 3892.00    0.69524   0.74766    0.119
 3893.00    0.70143   0.76448    0.120
 3894.00    0.69642   0.77884    0.119
 3895.00    0.69473   0.79186    0.119
 3896.00    0.76118   0.80354    0.120
 3897.00    0.81830   0.81443    0.120
 3898.00    0.76517   0.82450    0.117
 3899.00    0.71022   0.83335    0.115
 3900.00    0.64038   0.84249    0.111
 3901.00    0.58602   0.85071    0.108
 3902.00    0.62619   0.85842    0.109
 3903.00    0.64554   0.86582    0.109
 3904.00    0.56472   0.87201    0.106
 3905.00    0.50008   0.87665    0.103
 3906.00    0.49877   0.87941    0.102
 3907.00    0.51835   0.88050    0.103
 3908.00    0.60605   0.87974    0.108
 3909.00    0.66999   0.87744    0.113
 3910.00    0.66840   0.87330    0.113
 3911.00    0.66751   0.86860    0.114
 3912.00    0.66825   0.86226    0.116
 3913.00    0.67314   0.85530    0.118
 3914.00    0.68648   0.84749    0.118
 3915.00    0.71351   0.83861    0.120
 3916.00    0.76481   0.82904    0.123
 3917.00    0.76982   0.81807    0.126
 3918.00    0.70287   0.80622    0.124
 3919.00    0.67146   0.79248    0.123
 3920.00    0.68854   0.77747    0.120
 3921.00    0.72221   0.76132    0.121
 3922.00    0.77580   0.74441    0.126
 3923.00    0.83030   0.72808    0.131
 3924.00    0.88575   0.71304    0.134
 3925.00    0.90885   0.70038    0.133
 3926.00    0.90173   0.69117    0.128
 3927.00    0.89069   0.68595    0.129
 3928.00    0.87643   0.68541    0.133
 3929.00    0.85647   0.68936    0.134
 3930.00    0.83239   0.69792    0.132
 3931.00    0.80296   0.71026    0.131
 3932.00    0.77012   0.72496    0.130
 3933.00    0.77186   0.74085    0.128
 3934.00    0.79284   0.75707    0.125
 3935.00    0.84719   0.77265    0.125
 3936.00    0.91767   0.78728    0.127
 3937.00    0.91636   0.80021    0.127
 3938.00    0.88502   0.81162    0.126
 3939.00    0.86833   0.82160    0.125
 3940.00    0.85687   0.82999    0.125
 3941.00    0.88411   0.83695    0.124
 3942.00    0.92305   0.84246    0.123
 3943.00    0.85794   0.84611    0.124
 3944.00    0.76670   0.84798    0.125
 3945.00    0.77814   0.84817    0.125
 3946.00    0.81051   0.84623    0.124
 3947.00    0.83399   0.84205    0.126
 3948.00    0.85604   0.83537    0.128
 3949.00    0.90677   0.82588    0.129
 3950.00    0.96093   0.81361    0.129
 3951.00    1.05174   0.79803    0.131
 3952.00    1.14553   0.77904    0.133
 3953.00    1.11227   0.75684    0.132
 3954.00    1.07317   0.73167    0.131
 3955.00    0.99789   0.70352    0.132
 3956.00    0.92355   0.67338    0.133
 3957.00    0.92207   0.64215    0.132
 3958.00    0.92105   0.61122    0.131
 3959.00    0.92882   0.58232    0.133
 3960.00    0.93400   0.55660    0.000
 3961.00    0.91003   0.53581    0.000
 3962.00    0.89265   0.52145    0.000
 3963.00    0.92695   0.51467    0.000
 3964.00    0.94091   0.51612    0.000
 3965.00    0.83408   0.52600    0.000
 3966.00    0.74762   0.54346    0.000
 3967.00    0.75675   0.56737    0.000
 3968.00    0.76871   0.59597    0.000
 3969.00    0.79155   0.62757    0.000
 3970.00    0.82702   0.66032    0.000
 3971.00    0.90286   0.69288    0.000
 3972.00    0.98088   0.72401    0.000
 3973.00    1.06481   0.75277    0.000
 3974.00    1.11813   0.77887    0.000
 3975.00    1.10041   0.80187    0.000
 3976.00    1.05021   0.82191    0.000
 3977.00    0.93478   0.83937    0.000
 3978.00    0.86112   0.85449    0.000
 3979.00    0.86050   0.86775    0.000
 3980.00    0.89939   0.87935    0.000
 3981.00    0.99878   0.88930    0.132
 3982.00    1.04562   0.89824    0.133
 3983.00    1.02178   0.90559    0.133
 3984.00    1.00706   0.91184    0.132
 3985.00    1.00314   0.91721    0.130
 3986.00    0.98986   0.92133    0.128
 3987.00    0.96681   0.92503    0.126
 3988.00    0.94441   0.92757    0.126
 3989.00    0.92261   0.92996    0.126
 3990.00    0.95496   0.93169    0.126
 3991.00    1.03127   0.93340    0.126
 3992.00    1.05458   0.93480    0.125
 3993.00    1.04002   0.93642    0.125
 3994.00    1.01500   0.93771    0.124
 3995.00    0.98343   0.93858    0.124
 3996.00    1.01656   0.93928    0.125
 3997.00    1.08513   0.93969    0.127
 3998.00    1.11007   0.94002    0.127
 3999.00    1.11422   0.94017    0.127
 4000.00    1.06946   0.94109    0.126
 4001.00    1.00460   0.94288    0.126
 4002.00    1.01822   0.94522    0.128
 4003.00    1.05941   0.94827    0.131
 4004.00    1.09285   0.95160    0.132
 4005.00    1.12399   0.95561    0.132
 4006.00    1.04680   0.95921    0.131
 4007.00    0.94300   0.96303    0.129
 4008.00    0.98052   0.96613    0.129
 4009.00    1.04613   0.96883    0.130
 4010.00    1.03118   0.97074    0.129
 4011.00    1.00370   0.97150    0.129
 4012.00    0.99374   0.97148    0.129
 4013.00    0.98580   0.97082    0.129
 4014.00    1.01049   0.96903    0.128
 4015.00    1.03771   0.96646    0.126
 4016.00    1.00236   0.96324    0.128
 4017.00    0.96439   0.95986    0.130
 4018.00    1.02035   0.95596    0.129
 4019.00    1.07525   0.95226    0.127
 4020.00    1.04565   0.94893    0.130
 4021.00    1.01990   0.94632    0.132
 4022.00    1.06188   0.94417    0.133
 4023.00    1.09957   0.94261    0.133
 4024.00    1.09102   0.94158    0.131
 4025.00    1.07409   0.94158    0.130
 4026.00    0.99362   0.94325    0.129
 4027.00    0.92991   0.94562    0.129
 4028.00    0.96290   0.94922    0.132
 4029.00    0.98587   0.95316    0.135
 4030.00    0.96289   0.95731    0.136
 4031.00    0.94012   0.96091    0.136
 4032.00    0.91813   0.96333    0.132
 4033.00    0.90807   0.96433    0.129
 4034.00    0.93541   0.96392    0.130
 4035.00    0.94597   0.96226    0.131
 4036.00    0.91189   0.95995    0.132
 4037.00    0.88473   0.95714    0.132
 4038.00    0.87334   0.95409    0.127
 4039.00    0.87602   0.95183    0.125
 4040.00    0.90651   0.95054    0.125
 4041.00    0.94250   0.95092    0.125
 4042.00    0.98796   0.95178    0.124
 4043.00    1.01365   0.95292    0.124
 4044.00    1.00950   0.95410    0.125
 4045.00    0.98422   0.95498    0.126
 4046.00    0.93091   0.95511    0.126
 4047.00    0.93015   0.95448    0.126
 4048.00    0.99072   0.95321    0.125
 4049.00    1.05463   0.95111    0.125
 4050.00    1.12197   0.94870    0.128
 4051.00    1.12607   0.94582    0.128
 4052.00    1.07274   0.94277    0.127
 4053.00    1.02738   0.93986    0.128
 4054.00    0.98839   0.93694    0.130
 4055.00    1.00000   0.93416    0.129
 4056.00    1.04724   0.93152    0.127
 4057.00    1.08389   0.92962    0.127
 4058.00    1.11400   0.92804    0.128
 4059.00    1.14096   0.92736    0.129
 4060.00    1.16623   0.92672    0.130
 4061.00    1.13108   0.92633    0.131
 4062.00    1.06761   0.92579    0.132
 4063.00    1.03730   0.92503    0.131
 4064.00    1.02038   0.92380    0.129
 4065.00    1.02935   0.92241    0.129
 4066.00    1.04724   0.92070    0.129
 4067.00    1.05254   0.91901    0.129
 4068.00    1.05417   0.91723    0.128
 4069.00    1.02687   0.91563    0.128
 4070.00    0.99262   0.91476    0.128
 4071.00    0.96014   0.91474    0.128
 4072.00    0.92799   0.91557    0.128
 4073.00    0.99910   0.91720    0.128
 4074.00    1.08576   0.91901    0.128
 4075.00    1.09824   0.92097    0.128
 4076.00    1.10251   0.92262    0.128
 4077.00    1.07138   0.92390    0.129
 4078.00    1.03766   0.92437    0.129
 4079.00    1.06786   0.92393    0.130
 4080.00    1.10051   0.92197    0.131
 4081.00    1.10155   0.91826    0.131
 4082.00    1.10255   0.91230    0.130
 4083.00    1.10858   0.90404    0.130
 4084.00    1.11171   0.89298    0.130
 4085.00    1.06695   0.87925    0.131
 4086.00    1.02645   0.86293    0.133
 4087.00    1.02987   0.84370    0.131
 4088.00    1.03121   0.82256    0.130
 4089.00    1.01729   0.79999    0.130
 4090.00    1.01101   0.77728    0.129
 4091.00    1.04763   0.75512    0.130
 4092.00    1.07835   0.73509    0.000
 4093.00    1.08268   0.71798    0.000
 4094.00    1.07630   0.70586    0.000
 4095.00    1.03061   0.69941    0.000
 4096.00    0.99193   0.69865    0.000
 4097.00    0.97482   0.70341    0.000
 4098.00    0.96891   0.71333    0.000
 4099.00    0.99227   0.72721    0.000
 4100.00    1.00605   0.74425    0.000
 4101.00    0.99830   0.76309    0.000
 4102.00    1.00330   0.78276    0.000
 4103.00    1.03311   0.80229    0.000
 4104.00    1.05568   0.82092    0.000
 4105.00    1.06600   0.83814    0.000
 4106.00    1.06879   0.85355    0.000
 4107.00    1.06036   0.86697    0.000
 4108.00    1.04323   0.87837    0.000
 4109.00    1.01473   0.88785    0.000
 4110.00    1.02845   0.89557    0.000
 4111.00    1.09077   0.90171    0.000
 4112.00    1.12740   0.90679    0.000
 4113.00    1.13794   0.91072    0.126
 4114.00    1.15325   0.91392    0.125
 4115.00    1.17282   0.91644    0.124
 4116.00    1.16985   0.91828    0.123
 4117.00    1.14909   0.91966    0.122
 4118.00    1.12719   0.92013    0.122
 4119.00    1.10449   0.92043    0.122
 4120.00    1.06084   0.91983    0.121
 4121.00    1.00444   0.91941    0.120
 4122.00    1.00183   0.91834    0.120
 4123.00    1.02779   0.91798    0.120
 4124.00    1.11156   0.91765    0.122
 4125.00    1.22200   0.91836    0.125
 4126.00    1.24518   0.91970    0.126
 4127.00    1.23371   0.92156    0.126
 4128.00    1.19959   0.92409    0.126
 4129.00    1.15779   0.92649    0.126
 4130.00    1.12878   0.92887    0.126
 4131.00    1.10341   0.93041    0.125
 4132.00    1.08823   0.93113    0.125
 4133.00    1.07543   0.93065    0.125
 4134.00    1.08173   0.92963    0.125
 4135.00    1.09164   0.92835    0.124
 4136.00    1.08166   0.92667    0.125
 4137.00    1.06877   0.92524    0.126
 4138.00    1.07870   0.92401    0.126
 4139.00    1.09106   0.92354    0.126
 4140.00    1.07641   0.92340    0.126
 4141.00    1.05989   0.92415    0.126
 4142.00    1.11516   0.92488    0.128
 4143.00    1.17292   0.92619    0.132
 4144.00    1.14734   0.92722    0.128
 4145.00    1.12248   0.92867    0.125
 4146.00    1.12646   0.92996    0.133
 4147.00    1.13492   0.93157    0.141
 4148.00    1.21266   0.93342    0.143
 4149.00    1.28149   0.93553    0.144
 4150.00    1.26256   0.93808    0.142
 4151.00    1.23284   0.94071    0.139
 4152.00    1.12651   0.94361    0.132
 4153.00    1.03160   0.94624    0.127
 4154.00    0.99907   0.94863    0.128
 4155.00    0.96935   0.95027    0.128
 4156.00    0.95193   0.95118    0.126
 4157.00    0.95587   0.95115    0.125
 4158.00    1.03666   0.95003    0.126
 4159.00    1.09317   0.94790    0.126
 4160.00    1.07640   0.94463    0.122
 4161.00    1.07159   0.94074    0.120
 4162.00    1.09745   0.93624    0.122
 4163.00    1.12750   0.93160    0.124
 4164.00    1.16681   0.92689    0.126
 4165.00    1.19885   0.92259    0.127
 4166.00    1.21701   0.91885    0.126
 4167.00    1.19042   0.91604    0.125
 4168.00    1.08907   0.91418    0.124
 4169.00    1.06028   0.91335    0.124
 4170.00    1.13781   0.91342    0.125
 4171.00    1.16943   0.91442    0.126
 4172.00    1.14194   0.91597    0.124
 4173.00    1.09427   0.91800    0.123
 4174.00    1.02371   0.92019    0.121
 4175.00    1.02160   0.92245    0.121
 4176.00    1.08799   0.92462    0.122
 4177.00    1.11564   0.92659    0.122
 4178.00    1.10909   0.92844    0.119
 4179.00    1.08091   0.93002    0.118
 4180.00    1.03590   0.93147    0.118
 4181.00    1.07287   0.93257    0.119
 4182.00    1.16590   0.93347    0.121
 4183.00    1.18381   0.93396    0.122
 4184.00    1.15668   0.93393    0.121
 4185.00    1.12421   0.93333    0.119
 4186.00    1.08894   0.93200    0.116
 4187.00    1.12779   0.93003    0.117
 4188.00    1.20027   0.92737    0.121
 4189.00    1.20415   0.92442    0.121
 4190.00    1.18127   0.92129    0.119
 4191.00    1.11218   0.91847    0.117
 4192.00    1.02773   0.91625    0.116
 4193.00    1.02096   0.91494    0.117
 4194.00    1.03583   0.91480    0.120
 4195.00    1.06381   0.91583    0.117
 4196.00    1.09479   0.91811    0.114
 4197.00    1.07537   0.92126    0.115
 4198.00    1.04669   0.92521    0.117
 4199.00    1.10134   0.92938    0.118
 4200.00    1.16777   0.93366    0.118
 4201.00    1.15738   0.93751    0.119
 4202.00    1.13916   0.94088    0.119
 4203.00    1.10174   0.94346    0.116
 4204.00    1.06307   0.94532    0.114
 4205.00    1.01718   0.94644    0.113
 4206.00    0.97115   0.94690    0.112
 4207.00    0.98144   0.94690    0.110
 4208.00    0.99210   0.94634    0.108
 4209.00    1.01344   0.94546    0.111
 4210.00    1.03566   0.94390    0.113
 4211.00    1.07066   0.94185    0.113
 4212.00    1.10414   0.93881    0.114
 4213.00    1.12321   0.93498    0.113
 4214.00    1.13118   0.93011    0.112
 4215.00    1.06281   0.92455    0.110
 4216.00    1.00765   0.91852    0.108
 4217.00    1.02273   0.91253    0.108
 4218.00    1.03581   0.90718    0.108
 4219.00    1.04041   0.90288    0.110
 4220.00    1.03974   0.90013    0.111
 4221.00    1.02048   0.89898    0.110
 4222.00    0.99544   0.89953    0.110
 4223.00    0.95324   0.90143    0.109
 4224.00    0.92818   0.90437    0.109
 4225.00    0.94641   0.90796    0.110
 4226.00    0.96707   0.91172    0.110
 4227.00    0.99301   0.91557    0.111
 4228.00    1.00290   0.91912    0.110
 4229.00    0.98252   0.92264    0.110
 4230.00    0.97690   0.92586    0.109
 4231.00    0.99557   0.92910    0.108
 4232.00    0.98578   0.93213    0.108
 4233.00    0.93491   0.93508    0.108
 4234.00    0.90726   0.93766    0.107
 4235.00    0.90909   0.93978    0.106
 4236.00    0.90751   0.94120    0.106
 4237.00    0.90212   0.94177    0.107
 4238.00    0.90696   0.94141    0.107
 4239.00    0.92191   0.94015    0.107
 4240.00    0.93682   0.93812    0.106
 4241.00    0.95168   0.93556    0.107
 4242.00    0.95834   0.93271    0.108
 4243.00    0.95870   0.92992    0.109
 4244.00    0.98188   0.92735    0.109
 4245.00    1.02044   0.92531    0.110
 4246.00    1.05998   0.92377    0.114
 4247.00    1.10010   0.92294    0.120
 4248.00    1.05225   0.92263    0.121
 4249.00    0.95910   0.92297    0.118
 4250.00    0.96933   0.92373    0.118
 4251.00    1.02568   0.92499    0.120
 4252.00    0.99863   0.92654    0.119
 4253.00    0.93961   0.92831    0.117
 4254.00    0.96141   0.93011    0.114
 4255.00    1.00956   0.93167    0.112
 4256.00    1.03333   0.93278    0.111
 4257.00    1.05044   0.93303    0.112
 4258.00    1.04942   0.93234    0.113
 4259.00    1.04434   0.93038    0.114
 4260.00    1.04226   0.92734    0.113
 4261.00    1.04071   0.92326    0.112
 4262.00    1.04019   0.91860    0.113
 4263.00    1.03981   0.91381    0.115
 4264.00    1.01029   0.90939    0.114
 4265.00    0.97793   0.90588    0.112
 4266.00    0.94839   0.90355    0.111
 4267.00    0.91903   0.90270    0.110
 4268.00    0.93304   0.90313    0.110
 4269.00    0.94785   0.90477    0.110
 4270.00    0.89287   0.90706    0.110
 4271.00    0.84143   0.90967    0.110
 4272.00    0.88371   0.91199    0.110
 4273.00    0.92007   0.91372    0.110
 4274.00    0.87493   0.91448    0.110
 4275.00    0.84161   0.91415    0.110
 4276.00    0.91563   0.91268    0.112
 4277.00    0.98978   0.91018    0.113
 4278.00    1.06480   0.90688    0.113
 4279.00    1.12202   0.90296    0.113
 4280.00    1.08715   0.89874    0.112
 4281.00    1.06290   0.89441    0.111
 4282.00    1.08298   0.89016   -2.000
 4283.00    1.08503   0.88605   -2.000
 4284.00    1.02486   0.88201   -2.000
 4285.00    0.98135   0.87798   -2.000
 4286.00    0.98632   0.87369   -2.000
 4287.00    1.00161   0.86903   -2.000
 4288.00    1.04252   0.86375   -2.000
 4289.00    1.07003   0.85788   -2.000
 4290.00    1.06892   0.85139   -2.000
 4291.00    1.06165   0.84448   -2.000
 4292.00    1.04291   0.83741   -2.000
 4293.00    1.02009   0.83048   -2.000
 4294.00    0.99067   0.82407   -2.000
 4295.00    0.99452   0.81846   -2.000
 4296.00    1.04571   0.81401   -2.000
 4297.00    1.08816   0.81088   -2.000
 4298.00    1.11966   0.80934    0.112
 4299.00    1.12114   0.80950    0.111
 4300.00    1.08953   0.81153    0.110
 4301.00    1.09165   0.81552    0.110
 4302.00    1.12661   0.82146    0.111
 4303.00    1.08664   0.82933    0.111
 4304.00    0.98239   0.83887    0.110
 4305.00    0.93928   0.84981    0.110
 4306.00    0.94237   0.86154    0.111
 4307.00    0.98239   0.87349    0.111
 4308.00    1.04694   0.88491    0.112
 4309.00    1.05069   0.89503    0.111
 4310.00    1.01907   0.90326    0.108
 4311.00    1.01476   0.90898    0.107
 4312.00    1.02428   0.91211    0.106
 4313.00    1.02117   0.91242    0.105
 4314.00    1.01250   0.91043    0.104
 4315.00    1.04073   0.90638    0.104
 4316.00    1.08285   0.90116    0.105
 4317.00    1.10193   0.89516    0.106
 4318.00    1.11365   0.88913    0.107
 4319.00    1.13428   0.88326    0.107
 4320.00    1.15729   0.87776    0.107
 4321.00    1.15977   0.87236    0.107
 4322.00    1.15776   0.86666    0.107
 4323.00    1.15332   0.86012    0.108
 4324.00    1.14847   0.85208    0.111
 4325.00    1.13238   0.84215    0.110
 4326.00    1.11480   0.83006    0.110
 4327.00    1.12705   0.81594    0.109
 4328.00    1.14209   0.80026    0.108
 4329.00    1.16812   0.78384    0.106
 4330.00    1.19478   0.76783    0.000
 4331.00    1.19069   0.75340    0.000
 4332.00    1.18591   0.74182    0.000
 4333.00    1.18512   0.73407    0.000
 4334.00    1.18191   0.73083    0.000
 4335.00    1.12087   0.73235    0.000
 4336.00    1.06477   0.73838    0.000
 4337.00    1.07289   0.74836    0.000
 4338.00    1.08400   0.76132    0.000
 4339.00    1.12123   0.77628    0.000
 4340.00    1.15014   0.79213    0.000
 4341.00    1.12528   0.80807    0.000
 4342.00    1.09607   0.82336    0.000
 4343.00    1.04493   0.83770    0.000
 4344.00    1.01740   0.85086    0.000
 4345.00    1.08626   0.86300    0.000
 4346.00    1.13509   0.87422    0.000
 4347.00    1.11617   0.88479    0.000
 4348.00    1.10496   0.89483    0.000
 4349.00    1.11578   0.90450    0.000
 4350.00    1.12461   0.91380    0.000
 4351.00    1.12859   0.92267    0.106
 4352.00    1.12812   0.93099    0.105
 4353.00    1.11831   0.93856    0.105
 4354.00    1.12618   0.94525    0.105
 4355.00    1.16638   0.95082    0.106
 4356.00    1.15856   0.95524    0.106
 4357.00    1.07401   0.95828    0.105
 4358.00    1.03714   0.96008    0.105
 4359.00    1.06713   0.96054    0.105
 4360.00    1.08397   0.95991    0.105
 4361.00    1.08457   0.95828    0.104
 4362.00    1.09722   0.95592    0.104
 4363.00    1.12299   0.95305    0.105
 4364.00    1.13793   0.94989    0.105
 4365.00    1.14248   0.94663    0.105
 4366.00    1.16106   0.94332    0.106
 4367.00    1.19150   0.94005    0.107
 4368.00    1.17804   0.93667    0.107
 4369.00    1.13186   0.93317    0.106
 4370.00    1.13483   0.92930    0.107
 4371.00    1.16997   0.92508    0.108
 4372.00    1.14693   0.92034    0.108
 4373.00    1.09057   0.91533    0.109
 4374.00    1.08691   0.91011    0.109
 4375.00    1.10953   0.90517    0.109
 4376.00    1.16031   0.90079    0.109
 4377.00    1.22323   0.89745    0.110
 4378.00    1.19514   0.89547    0.110
 4379.00    1.13338   0.89506    0.108
 4380.00    1.11063   0.89631    0.109
 4381.00    1.10011   0.89907    0.109
 4382.00    1.06200   0.90314    0.107
 4383.00    1.01666   0.90813    0.105
 4384.00    0.97342   0.91371    0.105
 4385.00    0.93062   0.91941    0.105
 4386.00    0.94614   0.92493    0.104
 4387.00    0.97151   0.92987    0.104
 4388.00    1.04438   0.93407    0.105
 4389.00    1.12332   0.93727    0.106
 4390.00    1.09542   0.93946    0.105
 4391.00    1.05797   0.94057    0.104
 4392.00    1.07720   0.94073    0.105
 4393.00    1.09945   0.94012    0.105
 4394.00    1.13638   0.93895    0.106
 4395.00    1.17294   0.93762    0.106
 4396.00    1.15563   0.93631    0.106
 4397.00    1.13901   0.93549    0.106
 4398.00    1.13739   0.93524    0.106
 4399.00    1.13490   0.93583    0.106
 4400.00    1.12182   0.93719    0.107
 4401.00    1.10912   0.93931    0.107
 4402.00    1.09969   0.94194    0.107
 4403.00    1.09392   0.94489    0.106
 4404.00    1.11097   0.94790    0.107
 4405.00    1.12902   0.95080    0.108
 4406.00    1.15192   0.95345    0.107
 4407.00    1.16611   0.95579    0.106
 4408.00    1.14551   0.95788    0.106
 4409.00    1.13441   0.95970    0.106
 4410.00    1.15480   0.96141    0.105
 4411.00    1.15464   0.96295    0.104
 4412.00    1.09694   0.96443    0.104
 4413.00    1.05993   0.96573    0.104
 4414.00    1.07252   0.96685    0.104
 4415.00    1.07940   0.96771    0.104
 4416.00    1.07449   0.96825    0.105
 4417.00    1.07091   0.96843    0.106
 4418.00    1.06972   0.96827    0.107
 4419.00    1.08104   0.96773    0.107
 4420.00    1.11203   0.96694    0.106
 4421.00    1.12270   0.96589    0.105
 4422.00    1.10529   0.96476    0.104
 4423.00    1.11778   0.96360    0.104
 4424.00    1.16663   0.96257    0.106
 4425.00    1.18478   0.96177    0.106
 4426.00    1.17001   0.96130    0.107
 4427.00    1.19961   0.96122    0.108
 4428.00    1.27115   0.96159    0.111
 4429.00    1.28141   0.96233    0.110
 4430.00    1.24055   0.96346    0.107
 4431.00    1.20073   0.96482    0.106
 4432.00    1.16167   0.96640    0.105
 4433.00    1.12028   0.96806    0.105
 4434.00    1.07739   0.96974    0.106
 4435.00    1.11599   0.97139    0.107
 4436.00    1.20055   0.97292    0.110
 4437.00    1.20740   0.97430    0.110
 4438.00    1.17610   0.97536    0.110
 4439.00    1.16778   0.97601    0.109
 4440.00    1.16922   0.97605    0.109
 4441.00    1.17677   0.97541    0.109
 4442.00    1.18654   0.97387    0.109
 4443.00    1.16850   0.97155    0.107
 4444.00    1.14191   0.96827    0.105
 4445.00    1.17861   0.96443    0.105
 4446.00    1.23152   0.95995    0.106
 4447.00    1.22907   0.95542    0.106
 4448.00    1.21508   0.95086    0.107
 4449.00    1.15626   0.94679    0.107
 4450.00    1.09006   0.94336    0.107
 4451.00    1.09170   0.94074    0.105
 4452.00    1.10170   0.93916    0.102
 4453.00    1.09699   0.93843    0.102
 4454.00    1.09102   0.93872    0.101
 4455.00    1.09091   0.93973    0.102
 4456.00    1.09108   0.94143    0.103
 4457.00    1.08668   0.94368    0.103
 4458.00    1.08213   0.94623    0.103
 4459.00    1.07273   0.94926    0.102
 4460.00    1.06506   0.95243    0.101
 4461.00    1.09238   0.95605    0.000
 4462.00    1.11981   0.95983    0.000
 4463.00    1.14850   0.96390    0.000
 4464.00    1.17157   0.96810    0.000
 4465.00    1.14908   0.97224    0.000
 4466.00    1.13398   0.97635    0.000
 4467.00    1.16381   0.97994    0.000
 4468.00    1.18776   0.98324    0.000
 4469.00    1.18352   0.98565    0.000
 4470.00    1.17832   0.98760    0.000
 4471.00    1.16930   0.98867    0.000
 4472.00    1.16297   0.98942    0.000
 4473.00    1.16543   0.98959    0.000
 4474.00    1.16831   0.98974    0.000
 4475.00    1.17237   0.98974    0.000
 4476.00    1.15393   0.98998    0.000
 4477.00    1.08249   0.99022    0.000
 4478.00    1.05787   0.99061    0.000
 4479.00    1.12862   0.99083    0.000
 4480.00    1.16610   0.99111    0.000
 4481.00    1.14458   0.99116    0.000
 4482.00    1.11608   0.99126    0.099
 4483.00    1.07673   0.99122    0.099
 4484.00    1.08008   0.99136    0.099
 4485.00    1.14157   0.99168    0.100
 4486.00    1.18090   0.99234    0.100
 4487.00    1.19365   0.99363    0.099
 4488.00    1.19378   0.99544    0.099
 4489.00    1.18058   0.99809    0.100
 4490.00    1.16715   1.00130    0.100
 4491.00    1.15351   1.00524    0.100
 4492.00    1.14919   1.00948    0.099
 4493.00    1.15251   1.01407    0.098
 4494.00    1.15732   1.01867    0.098
 4495.00    1.16321   1.02312    0.099
 4496.00    1.17564   1.02721    0.100
 4497.00    1.19222   1.03068    0.101
 4498.00    1.18171   1.03343    0.100
 4499.00    1.15616   1.03521    0.100
 4500.00    1.14955   1.03613    0.099
 4501.00    1.15209   1.03608    0.099
 4502.00    1.18043   1.03521    0.099
 4503.00    1.21954   1.03364    0.099
 4504.00    1.20121   1.03147    0.099
 4505.00    1.16239   1.02873    0.100
 4506.00    1.16526   1.02590    0.099
 4507.00    1.18070   1.02271    0.098
 4508.00    1.17266   1.01968    0.097
 4509.00    1.15874   1.01619    0.095
 4510.00    1.18681   1.01281    0.097
 4511.00    1.22343   1.00918    0.100
 4512.00    1.22089   1.00527    0.099
 4513.00    1.21212   1.00103    0.098
 4514.00    1.16140   0.99624    0.097
 4515.00    1.10571   0.99122    0.096
 4516.00    1.12860   0.98556    0.096
 4517.00    1.15786   0.98013    0.095
 4518.00    1.18693   0.97424    0.096
 4519.00    1.21600   0.96922    0.097
 4520.00    1.12395   0.96411    0.096
 4521.00    1.03319   0.96029    0.094
 4522.00    1.08398   0.95702    0.095
 4523.00    1.13289   0.95520    0.096
 4524.00    1.14664   0.95466    0.096
 4525.00    1.16302   0.95531    0.096
 4526.00    1.20882   0.95744    0.096
 4527.00    1.24576   0.96010    0.097
 4528.00    1.21329   0.96378    0.096
 4529.00    1.18255   0.96752    0.096
 4530.00    1.16203   0.97172    0.095
 4531.00    1.14080   0.97554    0.095
 4532.00    1.11623   0.97912    0.095
 4533.00    1.09942   0.98191    0.095
 4534.00    1.11224   0.98381    0.095
 4535.00    1.12191   0.98516    0.096
 4536.00    1.12153   0.98541    0.096
 4537.00    1.12215   0.98521    0.096
 4538.00    1.12549   0.98403    0.095
 4539.00    1.12555   0.98277    0.095
 4540.00    1.11802   0.98159    0.096
 4541.00    1.11840   0.98010    0.096
 4542.00    1.13462   0.97917    0.095
 4543.00    1.14795   0.97833    0.095
 4544.00    1.15623   0.97852    0.096
 4545.00    1.14972   0.97914    0.096
 4546.00    1.12058   0.98106    0.094
 4547.00    1.11374   0.98322    0.094
 4548.00    1.13683   0.98617    0.095
 4549.00    1.15958   0.98940    0.096
 4550.00    1.18192   0.99285    0.000
 4551.00    1.18423   0.99642    0.000
 4552.00    1.16567   0.99941    0.000
 4553.00    1.14887   1.00223    0.000
 4554.00    1.13370   1.00450    0.000
 4555.00    1.12609   1.00651    0.000
 4556.00    1.12461   1.00819    0.000
 4557.00    1.12857   1.00945    0.000
 4558.00    1.13642   1.01042    0.000
 4559.00    1.14413   1.01117    0.000
 4560.00    1.15177   1.01148    0.000
 4561.00    1.16556   1.01179    0.000
 4562.00    1.18271   1.01214    0.000
 4563.00    1.13545   1.01216    0.000
 4564.00    1.05755   1.01212    0.000
 4565.00    1.07582   1.01173    0.000
 4566.00    1.13352   1.01090    0.000
 4567.00    1.14208   1.00977    0.000
 4568.00    1.13341   1.00804    0.000
 4569.00    1.12050   1.00607    0.000
 4570.00    1.10633   1.00359    0.000
 4571.00    1.13239   1.00119    0.000
 4572.00    1.16830   0.99861    0.000
 4573.00    1.15058   0.99635    0.000
 4574.00    1.12222   0.99438    0.000
 4575.00    1.12583   0.99262    0.000
 4576.00    1.13438   0.99175    0.000
 4577.00    1.12771   0.99102    0.000
 4578.00    1.11929   0.99117    0.000
 4579.00    1.17954   0.99140    0.000
 4580.00    1.24506   0.99200    0.000
 4581.00    1.20324   0.99251    0.000
 4582.00    1.15694   0.99297    0.000
 4583.00    1.15398   0.99334    0.000
 4584.00    1.15122   0.99353    0.000
 4585.00    1.14094   0.99373    0.000
 4586.00    1.13171   0.99362    0.000
 4587.00    1.14075   0.99355    0.000
 4588.00    1.14823   0.99364    0.000
 4589.00    1.13900   0.99362    0.000
 4590.00    1.13193   0.99415    0.000
 4591.00    1.14112   0.99458    0.000
 4592.00    1.13915   0.99546    0.000
 4593.00    1.07304   0.99702    0.000
 4594.00    1.02874   0.99862    0.000
 4595.00    1.08416   1.00107    0.000
 4596.00    1.12409   1.00331    0.000
 4597.00    1.10606   1.00642    0.000
 4598.00    1.10406   1.00937    0.000
 4599.00    1.15219   1.01285    0.000
 4600.00    1.17387   1.01601    0.000
 4601.00    1.12533   1.01896    0.000
 4602.00    1.09697   1.02139    0.000
 4603.00    1.11456   1.02357    0.000
 4604.00    1.13289   1.02536    0.000
 4605.00    1.15269   1.02659    0.000
 4606.00    1.16513   1.02800    0.000
 4607.00    1.16491   1.02826    0.000
 4608.00    1.17767   1.02899    0.000
 4609.00    1.20993   1.02907    0.000
 4610.00    1.20628   1.02909    0.000
 4611.00    1.15509   1.02906    0.000
 4612.00    1.12446   1.02932    0.000
 4613.00    1.11777   1.02919    0.000
 4614.00    1.12349   1.02910    0.000
 4615.00    1.14197   1.02896    0.000
 4616.00    1.17260   1.02846    0.000
 4617.00    1.21425   1.02786    0.000
 4618.00    1.21132   1.02709    0.000
 4619.00    1.17276   1.02610    0.000
 4620.00    1.14693   1.02463    0.000
 4621.00    1.13003   1.02311    0.000
 4622.00    1.14054   1.02146    0.000
 4623.00    1.16796   1.01950    0.000
 4624.00    1.18803   1.01712    0.000
 4625.00    1.20416   1.01477    0.000
 4626.00    1.18866   1.01209    0.000
 4627.00    1.15836   1.00957    0.000
 4628.00    1.14568   1.00682    0.000
 4629.00    1.14010   1.00408    0.000
 4630.00    1.16256   1.00152    0.000
 4631.00    1.19466   0.99874    0.000
 4632.00    1.16789   0.99654    0.000
 4633.00    1.12407   0.99411    0.000
 4634.00    1.12834   0.99201    0.000
 4635.00    1.14411   0.98981    0.000
 4636.00    1.13400   0.98790    0.000
 4637.00    1.11887   0.98588    0.000
 4638.00    1.08142   0.98445    0.000
 4639.00    1.04062   0.98334    0.000
 4640.00    1.10675   0.98295    0.000
 4641.00    1.18465   0.98324    0.000
 4642.00    1.18718   0.98420    0.000
 4643.00    1.18424   0.98557    0.000
 4644.00    1.17489   0.98763    0.000
 4645.00    1.16530   0.98959    0.000
 4646.00    1.15130   0.99209    0.000
 4647.00    1.13834   0.99437    0.000
 4648.00    1.16505   0.99655    0.000
 4649.00    1.18723   0.99884    0.000
 4650.00    1.13553   1.00030    0.000
 4651.00    1.09230   1.00156    0.000
 4652.00    1.13578   1.00145    0.000
 4653.00    1.17213   1.00064    0.000
 4654.00    1.15641   0.99855    0.000
 4655.00    1.14439   0.99591    0.000
 4656.00    1.15312   0.99275    0.000
 4657.00    1.15949   0.98928    0.000
 4658.00    1.15527   0.98596    0.000
 4659.00    1.15243   0.98280    0.000
 4660.00    1.15465   0.98037    0.000
 4661.00    1.15836   0.97892    0.000
 4662.00    1.16664   0.97887    0.000
 4663.00    1.16555   0.97939    0.000
 4664.00    1.14006   0.98066    0.000
 4665.00    1.13196   0.98229    0.000
 4666.00    1.16284   0.98395    0.000
 4667.00    1.17150   0.98596    0.000
 4668.00    1.13697   0.98765    0.000
 4669.00    1.12410   0.98931    0.000
 4670.00    1.14792   0.99042    0.000
 4671.00    1.15585   0.99095    0.000
 4672.00    1.14020   0.99127    0.000
 4673.00    1.13383   0.99139    0.000
 4674.00    1.13957   0.99157    0.000
 4675.00    1.13899   0.99170    0.000
 4676.00    1.13116   0.99210    0.000
 4677.00    1.14695   0.99255    0.000
 4678.00    1.18669   0.99280    0.000
 4679.00    1.19791   0.99341    0.000
 4680.00    1.18363   0.99394    0.000
 4681.00    1.15702   0.99463    0.000
 4682.00    1.12069   0.99524    0.000
 4683.00    1.10928   0.99582    0.000
 4684.00    1.11512   0.99592    0.000
 4685.00    1.10657   0.99600    0.000
 4686.00    1.08926   0.99589    0.000
 4687.00    1.10310   0.99513    0.000
 4688.00    1.13345   0.99422    0.000
 4689.00    1.12814   0.99263    0.000
 4690.00    1.10643   0.99066    0.000
 4691.00    1.08342   0.98805    0.000
 4692.00    1.05989   0.98538    0.000
 4693.00    1.06737   0.98339    0.000
 4694.00    1.08532   0.98104    0.000
 4695.00    1.09673   0.97919    0.000
 4696.00    1.10627   0.97724    0.000
 4697.00    1.10568   0.97659    0.000
 4698.00    1.10271   0.97630    0.000
 4699.00    1.06817   0.97644    0.000
 4700.00    1.02769   0.97691    0.000
 4701.00    1.06561   0.97795    0.000
 4702.00    1.11493   0.97990    0.000
 4703.00    1.10582   0.98203    0.000
 4704.00    1.09052   0.98543    0.000
 4705.00    1.09577   0.98837    0.000
 4706.00    1.10242   0.99186    0.000
 4707.00    1.11456   0.99519    0.000
 4708.00    1.12689   0.99894    0.000
 4709.00    1.13758   1.00279    0.000
 4710.00    1.14678   1.00639    0.000
 4711.00    1.10774   1.00927    0.000
 4712.00    1.07111   1.01175    0.000
 4713.00    1.07140   1.01333    0.000
 4714.00    1.07091   1.01406    0.000
 4715.00    1.06268   1.01383    0.000
 4716.00    1.05743   1.01274    0.000
 4717.00    1.07322   1.01134    0.000
 4718.00    1.08282   1.00900    0.000
 4719.00    1.05874   1.00648    0.000
 4720.00    1.04192   1.00329    0.000
 4721.00    1.05673   1.00047    0.000
 4722.00    1.07790   0.99812    0.000
 4723.00    1.12187   0.99637    0.000
 4724.00    1.14933   0.99531    0.000
 4725.00    1.12712   0.99496    0.000
 4726.00    1.10726   0.99542    0.000
 4727.00    1.09343   0.99605    0.000
 4728.00    1.09638   0.99767    0.000
 4729.00    1.13633   0.99908    0.000
 4730.00    1.15807   1.00082    0.000
 4731.00    1.14499   1.00322    0.000
 4732.00    1.14108   1.00538    0.000
 4733.00    1.15249   1.00758    0.000
 4734.00    1.14775   1.00958    0.000
 4735.00    1.11940   1.01151    0.000
 4736.00    1.10968   1.01321    0.000
 4737.00    1.12390   1.01471    0.000
 4738.00    1.12868   1.01555    0.000
 4739.00    1.12275   1.01637    0.000
 4740.00    1.12123   1.01655    0.000
 4741.00    1.12412   1.01626    0.000
 4742.00    1.14476   1.01567    0.000
 4743.00    1.18107   1.01445    0.000
 4744.00    1.17187   1.01301    0.000
 4745.00    1.12735   1.01079    0.000
 4746.00    1.12152   1.00862    0.000
 4747.00    1.14208   1.00578    0.000
 4748.00    1.14399   1.00316    0.000
 4749.00    1.13474   1.00018    0.000
 4750.00    1.11900   0.99725    0.000
 4751.00    1.09987   0.99447    0.000
 4752.00    1.11784   0.99159    0.000
 4753.00    1.15262   0.98912    0.000
 4754.00    1.13804   0.98662    0.000
 4755.00    1.10424   0.98432    0.000
 4756.00    1.09612   0.98266    0.000
 4757.00    1.09651   0.98147    0.000
 4758.00    1.08318   0.98122    0.000
 4759.00    1.06602   0.98158    0.000
 4760.00    1.09403   0.98276    0.000
 4761.00    1.13238   0.98458    0.084
 4762.00    1.14502   0.98691    0.084
 4763.00    1.15295   0.98969    0.084
 4764.00    1.13643   0.99211    0.085
 4765.00    1.11646   0.99480    0.085
 4766.00    1.06903   0.99701    0.084
 4767.00    1.01883   0.99904    0.083
 4768.00    1.05300   1.00080    0.082
 4769.00    1.09263   1.00188    0.082
 4770.00    1.12097   1.00241    0.082
 4771.00    1.14892   1.00217    0.082
 4772.00    1.15796   1.00155    0.082
 4773.00    1.16657   1.00046    0.082
 4774.00    1.16267   0.99912    0.083
 4775.00    1.15638   0.99767    0.084
 4776.00    1.11564   0.99630    0.083
 4777.00    1.07653   0.99525    0.082
 4778.00    1.05278   0.99481    0.081
 4779.00    1.02618   0.99446    0.079
 4780.00    0.98009   0.99505    0.079
 4781.00    0.93999   0.99590    0.079
 4782.00    0.93164   0.99698    0.078
 4783.00    0.92355   0.99891    0.078
 4784.00    0.91657   1.00067    0.078
 4785.00    0.91089   1.00272    0.078
 4786.00    0.90975   1.00492    0.078
 4787.00    0.91770   1.00671    0.078
 4788.00    0.95249   1.00830    0.078
 4789.00    0.98977   1.00921    0.079
 4790.00    1.03332   1.00979    0.080
 4791.00    1.07121   1.00946    0.082
 4792.00    1.09684   1.00900    0.081
 4793.00    1.10336   1.00820    0.081
 4794.00    1.07393   1.00730    0.080
 4795.00    1.06485   1.00658    0.079
 4796.00    1.08921   1.00569    0.080
 4797.00    1.10849   1.00508    0.080
 4798.00    1.12044   1.00404    0.082
 4799.00    1.12095   1.00350    0.082
 4800.00    1.10697   1.00281    0.081
 4801.00    1.09629   1.00285    0.080
 4802.00    1.08929   1.00320    0.081
 4803.00    1.09629   1.00373    0.081
 4804.00    1.11708   1.00463    0.081
 4805.00    1.10322   1.00570    0.081
 4806.00    1.05925   1.00665    0.080
 4807.00    1.03700   1.00732    0.080
 4808.00    1.03138   1.00794    0.081
 4809.00    1.03927   1.00806    0.080
 4810.00    1.05626   1.00811    0.080
 4811.00    1.06204   1.00764    0.079
 4812.00    1.06123   1.00692    0.079
 4813.00    1.08118   1.00552    0.080
 4814.00    1.11180   1.00384    0.081
 4815.00    1.11500   1.00185    0.082
 4816.00    1.10600   0.99943    0.083
 4817.00    1.11115   0.99726    0.082
 4818.00    1.12173   0.99471    0.081
 4819.00    1.11142   0.99265    0.081
 4820.00    1.09432   0.99125    0.081
 4821.00    1.11202   0.98984    0.082
 4822.00    1.13919   0.98808    0.082
 4823.00    1.12962   0.98658    0.082
 4824.00    1.11183   0.98492    0.082
 4825.00    1.10320   0.98348    0.083
 4826.00    1.09620   0.98200    0.083
 4827.00    1.08267   0.98009    0.083
 4828.00    1.06826   0.97873    0.084
 4829.00    1.07200   0.97697    0.084
 4830.00    1.07751   0.97516    0.085
 4831.00    1.04826   0.97285    0.083
 4832.00    1.01690   0.97046    0.081
 4833.00    1.04757   0.96778    0.082
 4834.00    1.07970   0.96444    0.083
 4835.00    1.07699   0.96107    0.083
 4836.00    1.07546   0.95755    0.082
 4837.00    1.10457   0.95357    0.083
 4838.00    1.12791   0.94844    0.084
 4839.00    1.07267   0.94266    0.083
 4840.00    1.02482   0.93612    0.083
 4841.00    1.04385   0.92778    0.083
 4842.00    1.06460   0.91834    0.083
 4843.00    1.09681   0.90772    0.083
 4844.00    1.12868   0.89570    0.083
 4845.00    1.15878   0.88302    0.083
 4846.00    1.17721   0.86879    0.084
 4847.00    1.14711   0.85334    0.084
 4848.00    1.12076   0.83883    0.000
 4849.00    1.10734   0.82518    0.000
 4850.00    1.10287   0.81184    0.000
 4851.00    1.12433   0.80090    0.000
 4852.00    1.12943   0.79260    0.000
 4853.00    1.09404   0.78659    0.000
 4854.00    1.07137   0.78271    0.000
 4855.00    1.07583   0.78207    0.000
 4856.00    1.06939   0.78397    0.000
 4857.00    1.04272   0.78941    0.000
 4858.00    1.03050   0.79892    0.000
 4859.00    1.04167   0.80877    0.000
 4860.00    1.04354   0.82005    0.000
 4861.00    1.03220   0.83179    0.000
 4862.00    1.02251   0.84369    0.000
 4863.00    1.01489   0.85537    0.000
 4864.00    1.02529   0.86653    0.000
 4865.00    1.05551   0.87776    0.000
 4866.00    1.05563   0.88729    0.000
 4867.00    1.02650   0.89682    0.000
 4868.00    1.01765   0.90627    0.000
 4869.00    1.02618   0.91433    0.000
 4870.00    1.03196   0.92114    0.000
 4871.00    1.03567   0.92670    0.000
 4872.00    1.03099   0.93180    0.000
 4873.00    1.02076   0.93549    0.000
 4874.00    1.03228   0.93889    0.000
 4875.00    1.05643   0.94153    0.083
 4876.00    1.03075   0.94268    0.082
 4877.00    0.97987   0.94361    0.081
 4878.00    1.00277   0.94559    0.081
 4879.00    1.05798   0.94704    0.081
 4880.00    1.05563   0.94909    0.081
 4881.00    1.03165   0.95190    0.081
 4882.00    1.03756   0.95537    0.081
 4883.00    1.05300   0.95986    0.081
 4884.00    1.05591   0.96418    0.082
 4885.00    1.05548   0.96913    0.083
 4886.00    1.07512   0.97326    0.083
 4887.00    1.09915   0.97904    0.084
 4888.00    1.07397   0.98464    0.083
 4889.00    1.04027   0.98898    0.082
 4890.00    1.07097   0.99299    0.082
 4891.00    1.11015   0.99567    0.081
 4892.00    1.12454   0.99779    0.081
 4893.00    1.13664   0.99903    0.081
 4894.00    1.11248   0.99955    0.081
 4895.00    1.08626   0.99891    0.080
 4896.00    1.08714   0.99841    0.082
 4897.00    1.08841   0.99750    0.084
 4898.00    1.06410   0.99561    0.082
 4899.00    1.04037   0.99392    0.081
 4900.00    1.03053   0.99236    0.081
 4901.00    1.02429   0.99075    0.081
 4902.00    1.06467   0.98826    0.080
 4903.00    1.10006   0.98550    0.079
 4904.00    1.09204   0.98215    0.079
 4905.00    1.08360   0.97838    0.079
 4906.00    1.07243   0.97450    0.079
 4907.00    1.06067   0.97068    0.079
 4908.00    1.04597   0.96715    0.080
 4909.00    1.03795   0.96337    0.080
 4910.00    1.05709   0.96084    0.080
 4911.00    1.07179   0.95799    0.080
 4912.00    1.07149   0.95595    0.079
 4913.00    1.06798   0.95432    0.079
 4914.00    1.05532   0.95424    0.079
 4915.00    1.04705   0.95569    0.080
 4916.00    1.04945   0.95793    0.080
 4917.00    1.03893   0.96232    0.079
 4918.00    1.00130   0.96611    0.079
 4919.00    0.99383   0.97005    0.079
 4920.00    1.04140   0.97372    0.078
 4921.00    1.07181   0.97729    0.078
 4922.00    1.07484   0.98011    0.078
 4923.00    1.06906   0.98244    0.078
 4924.00    1.05093   0.98430    0.079
 4925.00    1.03693   0.98468    0.079
 4926.00    1.02801   0.98454    0.078
 4927.00    1.02934   0.98430    0.077
 4928.00    1.04181   0.98386    0.077
 4929.00    1.06103   0.98412    0.077
 4930.00    1.08670   0.98521    0.078
 4931.00    1.08856   0.98662    0.078
 4932.00    1.07031   0.98822    0.077
 4933.00    1.05447   0.98996    0.077
 4934.00    1.04042   0.99219    0.077
 4935.00    1.02682   0.99557    0.077
 4936.00    1.01352   0.99927    0.076
 4937.00    1.01652   1.00218    0.077
 4938.00    1.02885   1.00460    0.077
 4939.00    1.03131   1.00679    0.077
 4940.00    1.02887   1.00759    0.000
 4941.00    1.03497   1.00738    0.000
 4942.00    1.04475   1.00701    0.000
 4943.00    1.06163   1.00535    0.000
 4944.00    1.08113   1.00328    0.000
 4945.00    1.10091   0.99915    0.000
 4946.00    1.12079   0.99568    0.000
 4947.00    1.10697   0.99302    0.000
 4948.00    1.08436   0.98969    0.000
 4949.00    1.07385   0.98700    0.000
 4950.00    1.06592   0.98378    0.000
 4951.00    1.06202   0.98192    0.000
 4952.00    1.05879   0.97941    0.000
 4953.00    1.04495   0.97767    0.000
 4954.00    1.02975   0.97790    0.000
 4955.00    1.04558   0.97813    0.000
 4956.00    1.06415   0.97858    0.000
 4957.00    1.05577   0.97896    0.000
 4958.00    1.04596   0.97939    0.000
 4959.00    1.05982   0.97987    0.000
 4960.00    1.07366   0.98032    0.000
 4961.00    1.05068   0.98059    0.000
 4962.00    1.02906   0.98137    0.000
 4963.00    1.03716   0.98126    0.000
 4964.00    1.04543   0.98105    0.000
 4965.00    1.05587   0.98032    0.000
 4966.00    1.06478   0.97851    0.000
 4967.00    1.06095   0.97683    0.000
 4968.00    1.05419   0.97424    0.000
 4969.00    1.02911   0.97130    0.000
 4970.00    1.00964   0.96725    0.000
 4971.00    1.01761   0.96302    0.000
 4972.00    1.02731   0.95952    0.000
 4973.00    1.04388   0.95588    0.000
 4974.00    1.05325   0.95305    0.000
 4975.00    1.03880   0.95133    0.000
 4976.00    1.03144   0.94988    0.000
 4977.00    1.04386   0.94886    0.000
 4978.00    1.04354   0.94873    0.000
 4979.00    1.01275   0.94923    0.000
 4980.00    0.99586   0.95099    0.000
 4981.00    1.00766   0.95266    0.000
 4982.00    1.01863   0.95455    0.000
 4983.00    1.02813   0.95652    0.000
 4984.00    1.02580   0.95744    0.000
 4985.00    1.00492   0.95832    0.000
 4986.00    0.99671   0.95804    0.000
 4987.00    1.00598   0.95729    0.000
 4988.00    1.01203   0.95604    0.000
 4989.00    1.01417   0.95388    0.000
 4990.00    1.02558   0.95188    0.000
 4991.00    1.04693   0.94920    0.000
 4992.00    1.06081   0.94620    0.000
 4993.00    1.06764   0.94283    0.000
 4994.00    1.05371   0.93874    0.000
 4995.00    1.02249   0.93521    0.000
 4996.00    1.01065   0.93236    0.000
 4997.00    1.01300   0.92969    0.000
 4998.00    1.02168   0.92750    0.000
 4999.00    1.03445   0.92531    0.000
 5000.00    1.04350   0.92252    0.000
 5001.00    1.05046   0.92010    0.000
 5002.00    1.03211   0.91777    0.000
 5003.00    1.00137   0.91638    0.000
 5004.00    0.99993   0.91553    0.000
 5005.00    1.01091   0.91438    0.000
 5006.00    1.01309   0.91383    0.000
 5007.00    1.01210   0.91293    0.000
 5008.00    1.02286   0.91286    0.000
 5009.00    1.03724   0.91346    0.000
 5010.00    1.02536   0.91445    0.000
 5011.00    1.00679   0.91679    0.000
 5012.00    0.97651   0.91912    0.000
 5013.00    0.94380   0.92183    0.000
 5014.00    0.95938   0.92539    0.000
 5015.00    0.98286   0.92829    0.000
 5016.00    0.99176   0.93187    0.000
 5017.00    0.99888   0.93516    0.000
 5018.00    0.99586   0.93825    0.000
 5019.00    0.99200   0.94172    0.000
 5020.00    0.98985   0.94418    0.000
 5021.00    0.98778   0.94669    0.000
 5022.00    1.02071   0.94778    0.000
 5023.00    1.05312   0.94800    0.000
 5024.00    1.02135   0.94767    0.000
 5025.00    0.99153   0.94670    0.000
 5026.00    1.00070   0.94536    0.000
 5027.00    1.01044   0.94381    0.000
 5028.00    1.02698   0.94166    0.000
 5029.00    1.04059   0.93867    0.076
 5030.00    1.03056   0.93626    0.075
 5031.00    1.02191   0.93381    0.075
 5032.00    1.02159   0.93299    0.075
 5033.00    1.01742   0.93325    0.075
 5034.00    0.99490   0.93358    0.075
 5035.00    0.98261   0.93472    0.075
 5036.00    1.01017   0.93545    0.076
 5037.00    1.02575   0.93730    0.076
 5038.00    1.00250   0.93967    0.076
 5039.00    0.99440   0.94213    0.076
 5040.00    1.02788   0.94564    0.076
 5041.00    1.04091   0.94858    0.076
 5042.00    1.00585   0.95118    0.075
 5043.00    0.98181   0.95383    0.075
 5044.00    0.98018   0.95637    0.074
 5045.00    0.98184   0.95893    0.074
 5046.00    0.98932   0.96148    0.074
 5047.00    0.99225   0.96357    0.075
 5048.00    0.98816   0.96604    0.075
 5049.00    0.97844   0.96783    0.076
 5050.00    0.96107   0.96910    0.076
 5051.00    0.96825   0.97011    0.076
 5052.00    1.00480   0.96973    0.077
 5053.00    1.01603   0.96938    0.077
 5054.00    1.00053   0.96777    0.076
 5055.00    1.00970   0.96560    0.076
 5056.00    1.04183   0.96422    0.076
 5057.00    1.05919   0.96190    0.077
 5058.00    1.06444   0.95947    0.077
 5059.00    1.04274   0.95647    0.076
 5060.00    1.00159   0.95377    0.075
 5061.00    1.00487   0.95157    0.075
 5062.00    1.03633   0.94803    0.076
 5063.00    1.03069   0.94600    0.076
 5064.00    1.00448   0.94419    0.075
 5065.00    1.00068   0.94196    0.076
 5066.00    1.00769   0.93976    0.077
 5067.00    0.99798   0.93737    0.077
 5068.00    0.98131   0.93595    0.077
 5069.00    0.97848   0.93327    0.076
 5070.00    0.98058   0.93147    0.076
 5071.00    0.98682   0.93111    0.076
 5072.00    0.99429   0.93103    0.077
 5073.00    0.99164   0.93113    0.076
 5074.00    0.98646   0.93138    0.076
 5075.00    0.97708   0.93304    0.076
 5076.00    0.96685   0.93488    0.076
 5077.00    0.96715   0.93706    0.076
 5078.00    0.96913   0.93980    0.076
 5079.00    0.95991   0.94287    0.076
 5080.00    0.94937   0.94547    0.075
 5081.00    0.95859   0.94743    0.074
 5082.00    0.96940   0.94928    0.073
 5083.00    0.95099   0.95094    0.073
 5084.00    0.93126   0.95177    0.073
 5085.00    0.90319   0.95161    0.072
 5086.00    0.87614   0.95091    0.071
 5087.00    0.90538   0.94958    0.070
 5088.00    0.93229   0.94790    0.070
 5089.00    0.91602   0.94566    0.070
 5090.00    0.90475   0.94402    0.071
 5091.00    0.94922   0.94267    0.072
 5092.00    0.98817   0.94076    0.072
 5093.00    0.98412   0.93874    0.073
 5094.00    0.98518   0.93704    0.073
 5095.00    1.01634   0.93608    0.073
 5096.00    1.03565   0.93560    0.074
 5097.00    0.99961   0.93523    0.073
 5098.00    0.97034   0.93541    0.073
 5099.00    0.96688   0.93628    0.073
 5100.00    0.95826   0.93646    0.073
 5101.00    0.93321   0.93776    0.071
 5102.00    0.91659   0.93966    0.070
 5103.00    0.92269   0.94103    0.071
 5104.00    0.93218   0.94290    0.071
 5105.00    0.94949   0.94410    0.071
 5106.00    0.95912   0.94543    0.072
 5107.00    0.95337   0.94664    0.073
 5108.00    0.95122   0.94695    0.073
 5109.00    0.95534   0.94698    0.072
 5110.00    0.95823   0.94581    0.072
 5111.00    0.95924   0.94397    0.072
 5112.00    0.96239   0.94201    0.072
 5113.00    0.96843   0.93884    0.073
 5114.00    0.97754   0.93580    0.074
 5115.00    0.99028   0.93317    0.075
 5116.00    0.99604   0.93032    0.075
 5117.00    0.99453   0.92759    0.074
 5118.00    0.97929   0.92519    0.074
 5119.00    0.95144   0.92320    0.074
 5120.00    0.95153   0.92198    0.074
 5121.00    0.97424   0.92150    0.074
 5122.00    0.97401   0.92115    0.073
 5123.00    0.95744   0.92140    0.072
 5124.00    0.93858   0.92107    0.073
 5125.00    0.91827   0.92183    0.074
 5126.00    0.94425   0.92211    0.074
 5127.00    0.99550   0.92119    0.075
 5128.00    1.01345   0.92139    0.075
 5129.00    1.01562   0.91995    0.076
 5130.00    0.99660   0.91963    0.075
 5131.00    0.96891   0.91933    0.075
 5132.00    0.98135   0.91713    0.075
 5133.00    1.00783   0.91600    0.076
 5134.00    1.00635   0.91493    0.075
 5135.00    0.99664   0.91389    0.075
 5136.00    1.00598   0.91277    0.075
 5137.00    1.01998   0.91177    0.076
 5138.00    1.00938   0.91181    0.076
 5139.00    0.99392   0.91182    0.075
 5140.00    0.98818   0.91181    0.074
 5141.00    0.98393   0.91266    0.075
 5142.00    0.94483   0.91354    0.074
 5143.00    0.90175   0.91452    0.073
 5144.00    0.90525   0.91547    0.073
 5145.00    0.91229   0.91675    0.073
 5146.00    0.92911   0.91838    0.074
 5147.00    0.94633   0.91908    0.075
 5148.00    0.95334   0.91918    0.075
 5149.00    0.95994   0.91797    0.074
 5150.00    0.95304   0.91595    0.074
 5151.00    0.94681   0.91260    0.074
 5152.00    0.95236   0.90726    0.074
 5153.00    0.95759   0.90190    0.074
 5154.00    0.95929   0.89532    0.073
 5155.00    0.96299   0.88745    0.073
 5156.00    0.98173   0.87804    0.073
 5157.00    0.99515   0.86710    0.073
 5158.00    0.97808   0.85825    0.073
 5159.00    0.96582   0.85109    0.072
 5160.00    0.97550   0.84563    0.073
 5161.00    0.97923   0.84030    0.073
 5162.00    0.96077   0.83426    0.073
 5163.00    0.94760   0.83096    0.073
 5164.00    0.95093   0.83049    0.073
 5165.00    0.95011   0.83242    0.073
 5166.00    0.93825   0.83526    0.073
 5167.00    0.93503   0.83808    0.073
 5168.00    0.95148   0.83980    0.074
 5169.00    0.95874   0.84140    0.074
 5170.00    0.94789   0.84525    0.074
 5171.00    0.93720   0.84967    0.074
 5172.00    0.92677   0.85324    0.072
 5173.00    0.92263   0.85356    0.072
 5174.00    0.92793   0.85444    0.072
 5175.00    0.93076   0.85798    0.072
 5176.00    0.93035   0.86074    0.071
 5177.00    0.94817   0.86417    0.071
 5178.00    0.98720   0.86676    0.071
 5179.00    0.98778   0.86991    0.071
 5180.00    0.94890   0.87341    0.072
 5181.00    0.91376   0.87642    0.071
 5182.00    0.88198   0.88152    0.070
 5183.00    0.86082   0.88607    0.070
 5184.00    0.84812   0.88995    0.070
 5185.00    0.85890   0.89287    0.070
 5186.00    0.88617   0.89587    0.071
 5187.00    0.90126   0.89925    0.072
 5188.00    0.90885   0.90122    0.072
 5189.00    0.92278   0.90236    0.072
 5190.00    0.94011   0.90288    0.000
 5191.00    0.95314   0.90387    0.000
 5192.00    0.96416   0.90374    0.000
 5193.00    0.96681   0.90237    0.000
 5194.00    0.96610   0.90122    0.000
 5195.00    0.95025   0.89945    0.000
 5196.00    0.92921   0.89843    0.000
 5197.00    0.94387   0.89788    0.000
 5198.00    0.96885   0.89687    0.000
 5199.00    0.95011   0.89741    0.000
 5200.00    0.92094   0.89768    0.000
 5201.00    0.94660   0.89889    0.000
 5202.00    0.98281   0.90161    0.000
 5203.00    0.97882   0.90469    0.000
 5204.00    0.96883   0.90932    0.000
 5205.00    0.95474   0.91227    0.000
 5206.00    0.94021   0.91559    0.000
 5207.00    0.91683   0.91926    0.000
 5208.00    0.89280   0.92249    0.000
 5209.00    0.91038   0.92582    0.000
 5210.00    0.92951   0.92741    0.000
 5211.00    0.95567   0.92825    0.074
 5212.00    0.98126   0.92747    0.073
 5213.00    0.98477   0.92736    0.073
 5214.00    0.98771   0.92711    0.073
 5215.00    0.98140   0.92592    0.073
 5216.00    0.97398   0.92500    0.073
 5217.00    0.95521   0.92243    0.072
 5218.00    0.93761   0.92161    0.072
 5219.00    0.92859   0.92138    0.072
 5220.00    0.92607   0.92174    0.072
 5221.00    0.95978   0.92396    0.072
 5222.00    0.98699   0.92459    0.072
 5223.00    0.98527   0.92661    0.073
 5224.00    0.97984   0.92912    0.073
 5225.00    0.96080   0.93234    0.073
 5226.00    0.94534   0.93754    0.073
 5227.00    0.94086   0.94051    0.072
 5228.00    0.94170   0.94423    0.072
 5229.00    0.95636   0.94768    0.072
 5230.00    0.97132   0.94976    0.073
 5231.00    0.98694   0.95274    0.072
 5232.00    0.99461   0.95402    0.071
 5233.00    0.98688   0.95561    0.070
 5234.00    0.98673   0.95644    0.070
 5235.00    0.99940   0.95544    0.070
 5236.00    1.00294   0.95500    0.070
 5237.00    0.99293   0.95351    0.071
 5238.00    0.98943   0.95231    0.071
 5239.00    0.99441   0.95051    0.071
 5240.00    0.98808   0.94805    0.070
 5241.00    0.96879   0.94732    0.069
 5242.00    0.96444   0.94554    0.069
 5243.00    0.97521   0.94405    0.069
 5244.00    0.96509   0.94259    0.069
 5245.00    0.93633   0.94079    0.070
 5246.00    0.94942   0.94000    0.070
 5247.00    0.99541   0.93722    0.071
 5248.00    1.00709   0.93482    0.071
 5249.00    0.99504   0.93226    0.072
 5250.00    0.96673   0.92797    0.071
 5251.00    0.92857   0.92338    0.070
 5252.00    0.93196   0.91766    0.070
 5253.00    0.95734   0.91213    0.070
 5254.00    0.97660   0.90635    0.070
 5255.00    0.99307   0.89983    0.070
 5256.00    1.00789   0.89381    0.071
 5257.00    1.02206   0.88903    0.071
 5258.00    0.99261   0.88555    0.071
 5259.00    0.94846   0.88334    0.071
 5260.00    0.93441   0.88169    0.071
 5261.00    0.92888   0.88088    0.071
 5262.00    0.93116   0.88222    0.072
 5263.00    0.93527   0.88619    0.073
 5264.00    0.90992   0.89238    0.074
 5265.00    0.87906   0.89749    0.074
 5266.00    0.88262   0.90188    0.074
 5267.00    0.89117   0.90730    0.074
 5268.00    0.90483   0.91463    0.075
 5269.00    0.91902   0.92329    0.076
 5270.00    0.91442   0.92960    0.075
 5271.00    0.90853   0.93487    0.074
 5272.00    0.92938   0.94023    0.075
 5273.00    0.95113   0.94524    0.076
 5274.00    0.94199   0.95127    0.075
 5275.00    0.93353   0.95612    0.074
 5276.00    0.94776   0.95960    0.074
 5277.00    0.96203   0.96357    0.073
 5278.00    0.97694   0.96661    0.073
 5279.00    0.98835   0.96919    0.072
 5280.00    0.96562   0.97079    0.072
 5281.00    0.94784   0.97156    0.072
 5282.00    0.96489   0.97280    0.072
 5283.00    0.97767   0.97276    0.072
 5284.00    0.96735   0.97161    0.071
 5285.00    0.95716   0.96966    0.070
 5286.00    0.94750   0.96836    0.070
 5287.00    0.94852   0.96740    0.070
 5288.00    0.98774   0.96535    0.070
 5289.00    1.01901   0.96351    0.071
 5290.00    1.02638   0.96228    0.071
 5291.00    1.02464   0.96325    0.071
 5292.00    0.99957   0.96471    0.070
 5293.00    0.98176   0.96493    0.070
 5294.00    0.97993   0.96580    0.070
 5295.00    0.97144   0.96787    0.070
 5296.00    0.95026   0.97179    0.071
 5297.00    0.95586   0.97529    0.071
 5298.00    1.00608   0.97676    0.070
 5299.00    1.03137   0.97818    0.070
 5300.00    1.02031   0.98016    0.069
 5301.00    1.00090   0.98241    0.069
 5302.00    0.97077   0.98361    0.069
 5303.00    0.95372   0.98277    0.069
 5304.00    0.95146   0.98142    0.068
 5305.00    0.95764   0.98028    0.068
 5306.00    0.97225   0.97871    0.068
 5307.00    0.98665   0.97656    0.068
 5308.00    1.00087   0.97282    0.068
 5309.00    0.98760   0.96859    0.068
 5310.00    0.95303   0.96477    0.068
 5311.00    0.94701   0.96041    0.068
 5312.00    0.96043   0.95636    0.067
 5313.00    0.96375   0.95164    0.068
 5314.00    0.96105   0.94633    0.069
 5315.00    0.96722   0.94126    0.069
 5316.00    0.97803   0.93719    0.069
 5317.00    0.95843   0.93495    0.069
 5318.00    0.92511   0.93309    0.069
 5319.00    0.92212   0.93048    0.069
 5320.00    0.93092   0.92719    0.068
 5321.00    0.92719   0.92728    0.069
 5322.00    0.91930   0.93003    0.069
 5323.00    0.90877   0.93248    0.069
 5324.00    0.89750   0.93371    0.069
 5325.00    0.91803   0.93355    0.069
 5326.00    0.94580   0.93667    0.069
 5327.00    0.94840   0.94048    0.070
 5328.00    0.94641   0.94298    0.070
 5329.00    0.96001   0.94526    0.070
 5330.00    0.97579   0.94614    0.070
 5331.00    0.96328   0.94827    0.070
 5332.00    0.94792   0.94941    0.071
 5333.00    0.95535   0.95018    0.070
 5334.00    0.96425   0.95310    0.069
 5335.00    0.95950   0.95443    0.069
 5336.00    0.95437   0.95602    0.069
 5337.00    0.95561   0.95741    0.068
 5338.00    0.95711   0.95912    0.068
 5339.00    0.96598   0.96360    0.068
 5340.00    0.97338   0.96623    0.067
 5341.00    0.95987   0.96874    0.068
 5342.00    0.94876   0.97226    0.068
 5343.00    0.96018   0.97549    0.068
 5344.00    0.97005   0.97961    0.067
 5345.00    0.96931   0.98205    0.067
 5346.00    0.96909   0.98398    0.067
 5347.00    0.97165   0.98643    0.067
 5348.00    0.97059   0.98761    0.067
 5349.00    0.95415   0.98791    0.067
 5350.00    0.94296   0.98735    0.067
 5351.00    0.95018   0.98599    0.067
 5352.00    0.96098   0.98388    0.067
 5353.00    0.98238   0.98092    0.067
 5354.00    0.99503   0.97721    0.067
 5355.00    0.98575   0.97423    0.067
 5356.00    0.97894   0.97079    0.067
 5357.00    0.97747   0.96624    0.066
 5358.00    0.97430   0.96242    0.066
 5359.00    0.96791   0.95941    0.066
 5360.00    0.95227   0.95854    0.066
 5361.00    0.92142   0.95742    0.066
 5362.00    0.91529   0.95553    0.066
 5363.00    0.94470   0.95465    0.067
 5364.00    0.96319   0.95537    0.067
 5365.00    0.96785   0.95847    0.067
 5366.00    0.95788   0.96056    0.067
 5367.00    0.93159   0.96184    0.067
 5368.00    0.93100   0.96308   -2.000
 5369.00    0.95569   0.96484   -2.000
 5370.00    0.96215   0.96760   -2.000
 5371.00    0.95281   0.96928   -2.000
 5372.00    0.95196   0.97007   -2.000
 5373.00    0.95759   0.96989   -2.000
 5374.00    0.95717   0.96955   -2.000
 5375.00    0.95269   0.96903   -2.000
 5376.00    0.98563   0.96792   -2.000
 5377.00    1.04059   0.96660   -2.000
 5378.00    1.03718   0.96407   -2.000
 5379.00    1.00384   0.96117   -2.000
 5380.00    0.98157   0.95858   -2.000
 5381.00    0.96421   0.95552   -2.000
 5382.00    0.96789   0.95272   -2.000
 5383.00    0.97959   0.94915    0.068
 5384.00    0.97402   0.94492    0.067
 5385.00    0.96286   0.94242    0.067
 5386.00    0.95943   0.93962    0.067
 5387.00    0.95810   0.93650    0.067
 5388.00    0.95266   0.93344    0.066
 5389.00    0.94629   0.93012    0.066
 5390.00    0.95910   0.92879    0.066
 5391.00    0.97531   0.92712    0.066
 5392.00    0.97675   0.92426    0.066
 5393.00    0.97617   0.92238    0.065
 5394.00    0.98079   0.92172    0.066
 5395.00    0.98590   0.92195    0.067
 5396.00    0.96057   0.92129    0.066
 5397.00    0.93340   0.91979    0.066
 5398.00    0.95117   0.92054    0.066
 5399.00    0.97004   0.92352    0.065
 5400.00    0.97947   0.92644    0.065
 5401.00    0.98812   0.92794    0.065
 5402.00    0.97641   0.92899    0.064
 5403.00    0.96435   0.93291    0.064
 5404.00    0.94746   0.93842    0.064
 5405.00    0.93013   0.94260    0.064
 5406.00    0.90883   0.94507    0.064
 5407.00    0.89113   0.94684    0.064
 5408.00    0.89722   0.95042    0.064
 5409.00    0.90554   0.95489    0.064
 5410.00    0.92527   0.95688    0.064
 5411.00    0.94634   0.95662    0.064
 5412.00    0.97293   0.95662    0.064
 5413.00    0.98750   0.95729    0.064
 5414.00    0.96079   0.95862    0.064
 5415.00    0.93932   0.95800    0.064
 5416.00    0.93303   0.95410    0.064
 5417.00    0.93032   0.95241    0.064
 5418.00    0.93645   0.95214    0.064
 5419.00    0.94010   0.95145    0.064
 5420.00    0.93849   0.95049    0.064
 5421.00    0.94511   0.94638    0.064
 5422.00    0.96696   0.94509    0.065
 5423.00    0.97870   0.94689    0.065
 5424.00    0.97409   0.94713    0.065
 5425.00    0.97418   0.94798    0.065
 5426.00    0.98092   0.94722    0.066
 5427.00    0.98109   0.94808    0.066
 5428.00    0.97309   0.95135    0.066
 5429.00    0.97806   0.95290    0.066
 5430.00    0.99730   0.95482    0.065
 5431.00    0.99563   0.95561    0.065
 5432.00    0.97368   0.95652    0.065
 5433.00    0.96936   0.95741    0.066
 5434.00    0.98011   0.95696    0.066
 5435.00    0.98714   0.95751    0.066
 5436.00    0.99137   0.95668    0.066
 5437.00    0.97851   0.95535    0.065
 5438.00    0.95435   0.95337    0.064
 5439.00    0.94959   0.95072    0.064
 5440.00    0.95607   0.95042    0.064
 5441.00    0.95672   0.94931    0.064
 5442.00    0.95443   0.94689    0.063
 5443.00    0.95140   0.94505    0.063
 5444.00    0.94806   0.94336    0.063
 5445.00    0.95522   0.94345    0.063
 5446.00    0.96632   0.94370    0.063
 5447.00    0.96652   0.94179    0.063
 5448.00    0.96325   0.94121    0.063
 5449.00    0.97105   0.94173    0.063
 5450.00    0.98179   0.94190    0.063
 5451.00    0.96466   0.94284    0.062
 5452.00    0.94147   0.94201    0.062
 5453.00    0.93382   0.94180    0.062
 5454.00    0.92885   0.94293    0.062
 5455.00    0.93718   0.94239    0.062
 5456.00    0.94725   0.94276    0.063
 5457.00    0.95200   0.94235    0.063
 5458.00    0.95626   0.94119    0.063
 5459.00    0.96107   0.94108    0.062
 5460.00    0.96591   0.93926    0.062
 5461.00    0.96335   0.93830    0.063
 5462.00    0.96070   0.93753    0.063
 5463.00    0.96545   0.93515    0.063
 5464.00    0.96968   0.93395    0.063
 5465.00    0.96176   0.93190    0.063
 5466.00    0.95564   0.93078    0.063
 5467.00    0.97267   0.93086    0.063
 5468.00    0.98875   0.92901    0.063
 5469.00    0.99659   0.92852    0.063
 5470.00    1.00255   0.92883    0.063
 5471.00    0.99645   0.92964    0.064
 5472.00    0.98689   0.93147    0.064
 5473.00    0.95997   0.93167    0.064
 5474.00    0.93656   0.93253    0.064
 5475.00    0.92734   0.93486    0.064
 5476.00    0.92609   0.93717    0.065
 5477.00    0.95168   0.93918    0.065
 5478.00    0.97210   0.94041   -2.000
 5479.00    0.97785   0.94132   -2.000
 5480.00    0.97888   0.94279   -2.000
 5481.00    0.96844   0.94455   -2.000
 5482.00    0.97317   0.94540   -2.000
 5483.00    1.00969   0.94612   -2.000
 5484.00    1.01783   0.94613   -2.000
 5485.00    0.97432   0.94547   -2.000
 5486.00    0.89793   0.94582   -2.000
 5487.00    0.76919   0.94585   -2.000
 5488.00    0.71659   0.94540   -2.000
 5489.00    0.77037   0.94427   -2.000
 5490.00    0.84177   0.94232   -2.000
 5491.00    0.93484   0.94182   -2.000
 5492.00    1.00501   0.94162   -2.000
 5493.00    1.05037   0.93985   -2.000
 5494.00    1.05776   0.93821   -2.000
 5495.00    1.02884   0.93673   -2.000
 5496.00    1.00749   0.93595   -2.000
 5497.00    0.99254   0.93617   -2.000
 5498.00    0.97894   0.93431   -2.000
 5499.00    0.96635   0.93310   -2.000
 5500.00    0.95024   0.93366   -2.000
 5501.00    0.93184   0.93345   -2.000
 5502.00    0.91961   0.93449    0.060
 5503.00    0.91089   0.93462    0.060
 5504.00    0.92198   0.93457    0.060
 5505.00    0.94290   0.93690    0.061
 5506.00    0.96003   0.93804    0.061
 5507.00    0.97552   0.93958    0.061
 5508.00    0.97000   0.94141    0.061
 5509.00    0.95673   0.94200    0.061
 5510.00    0.94552   0.94402    0.061
 5511.00    0.93496   0.94523    0.062
 5512.00    0.92254   0.94549    0.061
 5513.00    0.90964   0.94652    0.061
 5514.00    0.91120   0.94639    0.061
 5515.00    0.91582   0.94642    0.061
 5516.00    0.93868   0.94640    0.062
 5517.00    0.96460   0.94529    0.062
 5518.00    0.96108   0.94514    0.063
 5519.00    0.95382   0.94471    0.063
 5520.00    0.94537   0.94414    0.062
 5521.00    0.93681   0.94431    0.062
 5522.00    0.92129   0.94404    0.062
 5523.00    0.90541   0.94465    0.062
 5524.00    0.90886   0.94519    0.062
 5525.00    0.91248   0.94569    0.061
 5526.00    0.90277   0.94712    0.061
 5527.00    0.89371   0.94797    0.061
 5528.00    0.89867   0.94971    0.061
 5529.00    0.90526   0.95127    0.061
 5530.00    0.93179   0.95206    0.062
 5531.00    0.95412   0.95385    0.062
 5532.00    0.94157   0.95506    0.062
 5533.00    0.93040   0.95657    0.061
 5534.00    0.92791   0.95823    0.061
 5535.00    0.92903   0.95863    0.061
 5536.00    0.94786   0.95968    0.061
 5537.00    0.96364   0.96079    0.061
 5538.00    0.96734   0.96118    0.060
 5539.00    0.96825   0.96190    0.068
 5540.00    0.95999   0.96211    0.160
 5541.00    0.95575   0.96190   -1.000
 5542.00    0.96276   0.96201   -1.000
 5543.00    0.96639   0.96147   -1.000
 5544.00    0.96196   0.96071   -1.000
 5545.00    0.95879   0.96026   -1.000
 5546.00    0.95825   0.95880 5985.747
 5547.00    0.95598   0.95731   -1.000
 5548.00    0.95063   0.95636   -1.000
 5549.00    0.94983   0.95458    0.306
 5550.00    0.95619   0.95293    0.086
 5551.00    0.95648   0.95114    0.060
 5552.00    0.94844   0.94910    0.060
 5553.00    0.94014   0.94781    0.060
 5554.00    0.93152   0.94593    0.060
 5555.00    0.93116   0.94435    0.060
 5556.00    0.93963   0.94291    0.060
 5557.00    0.94269   0.94125    0.060
 5558.00    0.94065   0.94070    0.060
 5559.00    0.93774   0.93970    0.060
 5560.00    0.93411   0.93917    0.060
 5561.00    0.93022   0.93891    0.060
 5562.00    0.92616   0.93792    0.060
 5563.00    0.92396   0.93869    0.060
 5564.00    0.92296   0.93896    0.060
 5565.00    0.92598   0.93822    0.060
 5566.00    0.93125   0.93870    0.061
 5567.00    0.92926   0.93833    0.061
 5568.00    0.92372   0.93815    0.060
 5569.00    0.92203   0.93824    0.060
 5570.00    0.92195   0.93612    0.060
 5571.00    0.92715   0.93471    0.060
 5572.00    0.93425   0.93395    0.061
 5573.00    0.92276   0.93138    0.061
 5574.00    0.90557   0.92948    0.060
 5575.00    0.91680   0.92696    0.060
 5576.00    0.93525   0.92372    0.061
 5577.00    0.94034   0.92227    0.060
 5578.00    0.94266   0.91933    0.060
 5579.00    0.93345   0.91701    0.060
 5580.00    0.92234   0.91668    0.059
 5581.00    0.92962   0.91474    0.060
 5582.00    0.93915   0.91385    0.060
 5583.00    0.93836   0.91333    0.060
 5584.00    0.93671   0.91284    0.059
 5585.00    0.92591   0.91479    0.059
 5586.00    0.91466   0.91515    0.058
 5587.00    0.92103   0.91505    0.059
 5588.00    0.92752   0.91742    0.059
 5589.00    0.92477   0.91916    0.059
 5590.00    0.92140   0.92094    0.059
 5591.00    0.90547   0.92259    0.059
 5592.00    0.89212   0.92400    0.059
 5593.00    0.90884   0.92776    0.060
 5594.00    0.92592   0.93056    0.061
 5595.00    0.94596   0.93190    0.061
 5596.00    0.96178   0.93413    0.062
 5597.00    0.95219   0.93648    0.062
 5598.00    0.94389   0.93887    0.062
 5599.00    0.94173   0.93972    0.062
 5600.00    0.93831   0.94009    0.062
 5601.00    0.93003   0.94137    0.062
 5602.00    0.92202   0.94209    0.062
 5603.00    0.91489   0.94160    0.061
 5604.00    0.91189   0.93903    0.061
 5605.00    0.92018   0.93786    0.060
 5606.00    0.92729   0.93841    0.060
 5607.00    0.93163   0.93691    0.061
 5608.00    0.93560   0.93484    0.061
 5609.00    0.93883   0.93306    0.060
 5610.00    0.94268   0.93255    0.061
 5611.00    0.94763   0.93296    0.064
 5612.00    0.94239   0.93173    0.066
 5613.00    0.92139   0.93041    0.067
 5614.00    0.90564   0.93097    0.067
 5615.00    0.89704   0.93256    0.066
 5616.00    0.89409   0.93312    0.063
 5617.00    0.89790   0.93290    0.060
 5618.00    0.90580   0.93379    0.059
 5619.00    0.91799   0.93520    0.058
 5620.00    0.92473   0.93644    0.058
 5621.00    0.92639   0.93666    0.058
 5622.00    0.93110   0.93645    0.058
 5623.00    0.93831   0.93748    0.058
 5624.00    0.93222   0.93798    0.058
 5625.00    0.91654   0.93739    0.057
 5626.00    0.90533   0.93690    0.056
 5627.00    0.89694   0.93626    0.056
 5628.00    0.90702   0.93645    0.056
 5629.00    0.92734   0.93627    0.057
 5630.00    0.94420   0.93462    0.057
 5631.00    0.95941   0.93449    0.058
 5632.00    0.95129   0.93473    0.057
 5633.00    0.93346   0.93425    0.057
 5634.00    0.92418   0.93436    0.057
 5635.00    0.91793   0.93382    0.057
 5636.00    0.93046   0.93411    0.057
 5637.00    0.94861   0.93504    0.057
 5638.00    0.94344   0.93421    0.057
 5639.00    0.93245   0.93356    0.057
 5640.00    0.92483   0.93385    0.058
 5641.00    0.91789   0.93379    0.058
 5642.00    0.91900   0.93325    0.058
 5643.00    0.92138   0.93153    0.057
 5644.00    0.92852   0.92973    0.057
 5645.00    0.93622   0.92985    0.058
 5646.00    0.94567   0.92899    0.058
 5647.00    0.95526   0.92579    0.058
 5648.00    0.95306   0.92433    0.058
 5649.00    0.95033   0.92465    0.058
 5650.00    0.93968   0.92422    0.059
 5651.00    0.92917   0.92294    0.059
 5652.00    0.92964   0.92167    0.059
 5653.00    0.92957   0.92262    0.059
 5654.00    0.91959   0.92473    0.059
 5655.00    0.90926   0.92501    0.059
 5656.00    0.89516   0.92516    0.058
 5657.00    0.88430   0.92729    0.058
 5658.00    0.89859   0.92997    0.058
 5659.00    0.91244   0.93178    0.058
 5660.00    0.92367   0.93305    0.057
 5661.00    0.93132   0.93500    0.057
 5662.00    0.92229   0.93780    0.057
 5663.00    0.91453   0.93953    0.057
 5664.00    0.91159   0.94001    0.057
 5665.00    0.90907   0.94120    0.057
 5666.00    0.90784   0.94284    0.057
 5667.00    0.90939   0.94340    0.056
 5668.00    0.91836   0.94295    0.056
 5669.00    0.92269   0.94261    0.056
 5670.00    0.91632   0.94279    0.056
 5671.00    0.91273   0.94213    0.056
 5672.00    0.91472   0.94079    0.056
 5673.00    0.92309   0.94005    0.056
 5674.00    0.94256   0.93975    0.057
 5675.00    0.94858   0.93913    0.057
 5676.00    0.93409   0.93787    0.058
 5677.00    0.92411   0.93713    0.058
 5678.00    0.92014   0.93750    0.059
 5679.00    0.91664   0.93750    0.059
 5680.00    0.91371   0.93713    0.059
 5681.00    0.90770   0.93723    0.058
 5682.00    0.89850   0.93736    0.058
 5683.00    0.90355   0.93742    0.058
 5684.00    0.92166   0.93694    0.058
 5685.00    0.93237   0.93660    0.058
 5686.00    0.93711   0.93651    0.058
 5687.00    0.93636   0.93498    0.058
 5688.00    0.93171   0.93377    0.058
 5689.00    0.92605   0.93248    0.058
 5690.00    0.91975   0.93021    0.058
 5691.00    0.92308   0.92872    0.058
 5692.00    0.93165   0.92611    0.057
 5693.00    0.94449   0.92411    0.058
 5694.00    0.95935   0.92301    0.058
 5695.00    0.96093   0.91978    0.058
 5696.00    0.95708   0.91850    0.058
 5697.00    0.94924   0.91785    0.059
 5698.00    0.94001   0.91604    0.059
 5699.00    0.93307   0.91685    0.058
 5700.00    0.92679   0.91679    0.058
 5701.00    0.92234   0.91694    0.058
 5702.00    0.91833   0.91974    0.057
 5703.00    0.92693   0.92079    0.057
 5704.00    0.93801   0.92306    0.056
 5705.00    0.93238   0.92676    0.056
 5706.00    0.92417   0.92877    0.056
 5707.00    0.92526   0.93254    0.057
 5708.00    0.92741   0.93623    0.057
 5709.00    0.93061   0.93844    0.056
 5710.00    0.93389   0.94203    0.056
 5711.00    0.93659   0.94491    0.056
 5712.00    0.93926   0.94664    0.056
 5713.00    0.94483   0.94884    0.056
 5714.00    0.95005   0.95052    0.056
 5715.00    0.93978   0.95182    0.056
 5716.00    0.93030   0.95289    0.056
 5717.00    0.93423   0.95311    0.056
 5718.00    0.93756   0.95362    0.057
 5719.00    0.93447   0.95445    0.056
 5720.00    0.93258   0.95404    0.056
 5721.00    0.93974   0.95364    0.057
 5722.00    0.94580   0.95408    0.057
 5723.00    0.94557   0.95428    0.058
 5724.00    0.94644   0.95436    0.058
 5725.00    0.95235   0.95385    0.058
 5726.00    0.95844   0.95371    0.058
 5727.00    0.96525   0.95452    0.058
 5728.00    0.96990   0.95422    0.058
 5729.00    0.96783   0.95373    0.058
 5730.00    0.96555   0.95400    0.057
 5731.00    0.96268   0.95388    0.058
 5732.00    0.95684   0.95379    0.057
 5733.00    0.94429   0.95327    0.056
 5734.00    0.93737   0.95233    0.056
 5735.00    0.94153   0.95240    0.056
 5736.00    0.94647   0.95206    0.057
 5737.00    0.95274   0.95080    0.057
 5738.00    0.95955   0.95024    0.057
 5739.00    0.96719   0.94962    0.057
 5740.00    0.97423   0.94866    0.000
 5741.00    0.98049   0.94801    0.000
 5742.00    0.98162   0.94695    0.000
 5743.00    0.97680   0.94622    0.000
 5744.00    0.97321   0.94632    0.000
 5745.00    0.97089   0.94571    0.000
 5746.00    0.96593   0.94497    0.000
 5747.00    0.95860   0.94494    0.000
 5748.00    0.95433   0.94437    0.000
 5749.00    0.95249   0.94427    0.000
 5750.00    0.95817   0.94516    0.000
 5751.00    0.96911   0.94518    0.000
 5752.00    0.96878   0.94544    0.000
 5753.00    0.96153   0.94636    0.000
 5754.00    0.95327   0.94660    0.000
 5755.00    0.94448   0.94697    0.000
 5756.00    0.94590   0.94743    0.000
 5757.00    0.95208   0.94749    0.000
 5758.00    0.95151   0.94815    0.000
 5759.00    0.94823   0.94862    0.000
 5760.00    0.95098   0.94800    0.000
 5761.00    0.95581   0.94753    0.000
 5762.00    0.96500   0.94730    0.000
 5763.00    0.97546   0.94584    0.000
 5764.00    0.96609   0.94442    0.000
 5765.00    0.95198   0.94326    0.000
 5766.00    0.96219   0.94084    0.000
 5767.00    0.97706   0.93871    0.000
 5768.00    0.98107   0.93666    0.000
 5769.00    0.98347   0.93422    0.000
 5770.00    0.97767   0.93249    0.000
 5771.00    0.97097   0.92992    0.000
 5772.00    0.97689   0.92814    0.000
 5773.00    0.98371   0.92769    0.000
 5774.00    0.99343   0.92593    0.000
 5775.00    1.00326   0.92523    0.000
 5776.00    1.00381   0.92533    0.000
 5777.00    1.00374   0.92545    0.000
 5778.00    0.98245   0.92711    0.000
 5779.00    0.96165   0.92770    0.000
 5780.00    0.94876   0.92919    0.000
 5781.00    0.93680   0.93235    0.000
 5782.00    0.93426   0.93385    0.000
 5783.00    0.93314   0.93589    0.000
 5784.00    0.94225   0.93814    0.000
 5785.00    0.94928   0.94020    0.000
 5786.00    0.94474   0.94317    0.000
 5787.00    0.94346   0.94483    0.000
 5788.00    0.95669   0.94663    0.000
 5789.00    0.96974   0.94893    0.000
 5790.00    0.98213   0.95002    0.000
 5791.00    0.98561   0.95105   -2.000
 5792.00    0.96193   0.95175   -2.000
 5793.00    0.93934   0.95295   -2.000
 5794.00    0.91957   0.95408   -2.000
 5795.00    0.90709   0.95385   -2.000
 5796.00    0.91087   0.95455   -2.000
 5797.00    0.91978   0.95513   -2.000
 5798.00    0.93862   0.95451   -2.000
 5799.00    0.95219   0.95463   -2.000
 5800.00    0.95688   0.95476   -2.000
 5801.00    0.95700   0.95476   -2.000
 5802.00    0.95036   0.95478   -2.000
 5803.00    0.95202   0.95467   -2.000
 5804.00    0.96448   0.95532   -2.000
 5805.00    0.97247   0.95570   -2.000
 5806.00    0.97535   0.95564   -2.000
 5807.00    0.96949   0.95623   -2.000
 5808.00    0.95482   0.95693   -2.000
 5809.00    0.94581   0.95735   -2.000
 5810.00    0.94183   0.95770   -2.000
 5811.00    0.93642   0.95857    0.000
 5812.00    0.92989   0.95975    0.000
 5813.00    0.93118   0.96032    0.000
 5814.00    0.93788   0.96075    0.000
 5815.00    0.94543   0.96160    0.000
 5816.00    0.95350   0.96225    0.000
 5817.00    0.95539   0.96231    0.000
 5818.00    0.95402   0.96253    0.000
 5819.00    0.95407   0.96322    0.000
 5820.00    0.95478   0.96325    0.000
 5821.00    0.95600   0.96295    0.000
 5822.00    0.95743   0.96313    0.000
 5823.00    0.95238   0.96319    0.000
 5824.00    0.94516   0.96287    0.000
 5825.00    0.95911   0.96241    0.000
 5826.00    0.97905   0.96217    0.000
 5827.00    0.98607   0.96210    0.000
 5828.00    0.99009   0.96143    0.000
 5829.00    0.97720   0.96048    0.000
 5830.00    0.96114   0.96010    0.000
 5831.00    0.95952   0.95952    0.000
 5832.00    0.95999   0.95802    0.000
 5833.00    0.95738   0.95655    0.000
 5834.00    0.95446   0.95555    0.000
 5835.00    0.94397   0.95394    0.000
 5836.00    0.93298   0.95169    0.000
 5837.00    0.93549   0.94971    0.000
 5838.00    0.93845   0.94749    0.000
 5839.00    0.94609   0.94479    0.000
 5840.00    0.95358   0.94207    0.000
 5841.00    0.95661   0.93946    0.000
 5842.00    0.95939   0.93710    0.000
 5843.00    0.95844   0.93449    0.000
 5844.00    0.95716   0.93206    0.000
 5845.00    0.95277   0.93024    0.000
 5846.00    0.94912   0.92844    0.000
 5847.00    0.95073   0.92680    0.000
 5848.00    0.95266   0.92545    0.000
 5849.00    0.95629   0.92497    0.000
 5850.00    0.95734   0.92502    0.000
 5851.00    0.94714   0.92434    0.000
 5852.00    0.93871   0.92437    0.000
 5853.00    0.93658   0.92541    0.000
 5854.00    0.93375   0.92614    0.000
 5855.00    0.92880   0.92709    0.000
 5856.00    0.92310   0.92786    0.000
 5857.00    0.91547   0.92843    0.000
 5858.00    0.91637   0.92946    0.000
 5859.00    0.93602   0.93024    0.000
 5860.00    0.95017   0.93016    0.000
 5861.00    0.95382   0.93019    0.000
 5862.00    0.96042   0.93030    0.000
 5863.00    0.97190   0.92957    0.000
 5864.00    0.97379   0.92845    0.000
 5865.00    0.96172   0.92711    0.000
 5866.00    0.95280   0.92491    0.000
 5867.00    0.94790   0.92209    0.000
 5868.00    0.94416   0.91920    0.000
 5869.00    0.94173   0.91551    0.000
 5870.00    0.94318   0.91073    0.000
 5871.00    0.94848   0.90610    0.000
 5872.00    0.94924   0.90010    0.000
 5873.00    0.94602   0.89291    0.000
 5874.00    0.94946   0.88739    0.000
 5875.00    0.95805   0.87999    0.000
 5876.00    0.96008   0.87195    0.000
 5877.00    0.95766   0.86658    0.000
 5878.00    0.95704   0.85828    0.000
 5879.00    0.95749   0.85074    0.000
 5880.00    0.95691   0.84694    0.000
 5881.00    0.95578   0.84049    0.000
 5882.00    0.95620   0.83688    0.000
 5883.00    0.95731   0.83529    0.000
 5884.00    0.95125   0.83115    0.000
 5885.00    0.94240   0.83356    0.000
 5886.00    0.92806   0.83672    0.000
 5887.00    0.91191   0.83666    0.000
 5888.00    0.90297   0.84305    0.000
 5889.00    0.89602   0.84819    0.000
 5890.00    0.88685   0.85060    0.000
 5891.00    0.87718   0.85911    0.000
 5892.00    0.87328   0.86649    0.000
 5893.00    0.87044   0.87125    0.000
 5894.00    0.87704   0.87854    0.000
 5895.00    0.88495   0.88476    0.000
 5896.00    0.88112   0.88956    0.000
 5897.00    0.87611   0.89448    0.000
 5898.00    0.87829   0.89853    0.000
 5899.00    0.88092   0.90211    0.000
 5900.00    0.89725   0.90535    0.000
 5901.00    0.91392   0.90750    0.055
 5902.00    0.91452   0.90932    0.055
 5903.00    0.91514   0.91148    0.055
 5904.00    0.91656   0.91225    0.054
 5905.00    0.91800   0.91262    0.054
 5906.00    0.91977   0.91428    0.054
 5907.00    0.92207   0.91454    0.054
 5908.00    0.92937   0.91451    0.054
 5909.00    0.93493   0.91582    0.054
 5910.00    0.92872   0.91582    0.054
 5911.00    0.92524   0.91652    0.053
 5912.00    0.93611   0.91746    0.053
 5913.00    0.94500   0.91691    0.053
 5914.00    0.94548   0.91799    0.053
 5915.00    0.94697   0.91872    0.052
 5916.00    0.95198   0.91819    0.052
 5917.00    0.95559   0.91895    0.052
 5918.00    0.95509   0.91909    0.052
 5919.00    0.95271   0.91922    0.052
 5920.00    0.94561   0.91982    0.052
 5921.00    0.93798   0.91923    0.052
 5922.00    0.92921   0.91976    0.052
 5923.00    0.92142   0.92029    0.052
 5924.00    0.91548   0.91957    0.052
 5925.00    0.91543   0.91997    0.052
 5926.00    0.92503   0.92036    0.052
 5927.00    0.92969   0.92046    0.053
 5928.00    0.92725   0.92054    0.053
 5929.00    0.92550   0.92004    0.053
 5930.00    0.92459   0.92074    0.054
 5931.00    0.92588   0.92096    0.054
 5932.00    0.92961   0.91974    0.054
 5933.00    0.93039   0.92017    0.054
 5934.00    0.92829   0.92058    0.055
 5935.00    0.92875   0.91943    0.054
 5936.00    0.93143   0.91916    0.054
 5937.00    0.93280   0.91929    0.054
 5938.00    0.93317   0.91889    0.054
 5939.00    0.92467   0.91847    0.054
 5940.00    0.91024   0.91792    0.053
 5941.00    0.90489   0.91795    0.053
 5942.00    0.90489   0.91824    0.053
 5943.00    0.91934   0.91763    0.053
 5944.00    0.94120   0.91756    0.054
 5945.00    0.94861   0.91870    0.054
 5946.00    0.94962   0.91902    0.053
 5947.00    0.93807   0.91898    0.053
 5948.00    0.92174   0.92004    0.052
 5949.00    0.91786   0.92120    0.052
 5950.00    0.91801   0.92194    0.052
 5951.00    0.92543   0.92278    0.052
 5952.00    0.93483   0.92397    0.051
 5953.00    0.93704   0.92518    0.052
 5954.00    0.93765   0.92589    0.052
 5955.00    0.93883   0.92680    0.052
 5956.00    0.94011   0.92762    0.051
 5957.00    0.94075   0.92781    0.051
 5958.00    0.94130   0.92840    0.051
 5959.00    0.95011   0.92862    0.052
 5960.00    0.95971   0.92822    0.053
 5961.00    0.96680   0.92823    0.053
 5962.00    0.97374   0.92796    0.053
 5963.00    0.97464   0.92703    0.053
 5964.00    0.97540   0.92613    0.054
 5965.00    0.97798   0.92548    0.054
 5966.00    0.98019   0.92439    0.053
 5967.00    0.97331   0.92295    0.054
 5968.00    0.96622   0.92212    0.054
 5969.00    0.95631   0.92111    0.054
 5970.00    0.94752   0.91998    0.053
 5971.00    0.94871   0.91942    0.054
 5972.00    0.95074   0.91850    0.054
 5973.00    0.95832   0.91816    0.053
 5974.00    0.96359   0.91815    0.053
 5975.00    0.95698   0.91723    0.053
 5976.00    0.95209   0.91745    0.052
 5977.00    0.95425   0.91814    0.052
 5978.00    0.95480   0.91778    0.051
 5979.00    0.94979   0.91809    0.051
 5980.00    0.94357   0.91892    0.051
 5981.00    0.93384   0.91946    0.051
 5982.00    0.92643   0.91946    0.051
 5983.00    0.92476   0.91952    0.051
 5984.00    0.92446   0.92045    0.051
 5985.00    0.92708   0.92029    0.052
 5986.00    0.93231   0.91975    0.052
 5987.00    0.94235   0.92013    0.052
 5988.00    0.94925   0.91930    0.051
 5989.00    0.95105   0.91870    0.051
 5990.00    0.95349   0.91849    0.052
 5991.00    0.95684   0.91718    0.052
 5992.00    0.95722   0.91697    0.052
 5993.00    0.95391   0.91599    0.052
 5994.00    0.95160   0.91424    0.052
 5995.00    0.95038   0.91460    0.053
 5996.00    0.95093   0.91339    0.053
 5997.00    0.95319   0.91186    0.053
 5998.00    0.95213   0.91228    0.053
 5999.00    0.94825   0.91078    0.053
 6000.00    0.93933   0.91000    0.053
 6001.00    0.92663   0.91053    0.053
 6002.00    0.92225   0.90948    0.052
 6003.00    0.92336   0.90939    0.052
 6004.00    0.92460   0.90908    0.052
 6005.00    0.92593   0.90859    0.052
 6006.00    0.92497   0.90969    0.052
 6007.00    0.92286   0.90912    0.052
 6008.00    0.92471   0.90882    0.052
 6009.00    0.92829   0.91050    0.051
 6010.00    0.93154   0.91071    0.051
 6011.00    0.93467   0.91097    0.052
 6012.00    0.93967   0.91235    0.052
 6013.00    0.94526   0.91365    0.052
 6014.00    0.95147   0.91512    0.052
 6015.00    0.95784   0.91605    0.052
 6016.00    0.96014   0.91801    0.052
 6017.00    0.96155   0.92041    0.052
 6018.00    0.96001   0.92121    0.052
 6019.00    0.95796   0.92308    0.052
 6020.00    0.95038   0.92569    0.052
 6021.00    0.94208   0.92686    0.052
 6022.00    0.93629   0.92817    0.058
 6023.00    0.93073   0.93015    0.066
 6024.00    0.93881   0.93150    0.067
 6025.00    0.94766   0.93248    0.068
 6026.00    0.95712   0.93369    0.067
 6027.00    0.96650   0.93462    0.067
 6028.00    0.96713   0.93539    0.059
 6029.00    0.96724   0.93626    0.053
 6030.00    0.95560   0.93655    0.053
 6031.00    0.94426   0.93704    0.053
 6032.00    0.93682   0.93781    0.053
 6033.00    0.93127   0.93762    0.052
 6034.00    0.94197   0.93792    0.052
 6035.00    0.95034   0.93858    0.052
 6036.00    0.94377   0.93820    0.051
 6037.00    0.93606   0.93803    0.051
 6038.00    0.92268   0.93826    0.051
 6039.00    0.91235   0.93780    0.051
 6040.00    0.91442   0.93722    0.050
 6041.00    0.91832   0.93687    0.050
 6042.00    0.92840   0.93628    0.050
 6043.00    0.93741   0.93560    0.050
 6044.00    0.94340   0.93468    0.050
 6045.00    0.94731   0.93388    0.050
 6046.00    0.94618   0.93338    0.050
 6047.00    0.94778   0.93233    0.051
 6048.00    0.95509   0.93151    0.051
 6049.00    0.96161   0.93141    0.051
 6050.00    0.96672   0.93062    0.051
 6051.00    0.96776   0.93013    0.051
 6052.00    0.96235   0.93059    0.052
 6053.00    0.95618   0.92980    0.052
 6054.00    0.94897   0.92982    0.052
 6055.00    0.94746   0.93101    0.052
 6056.00    0.95295   0.93026    0.053
 6057.00    0.95361   0.93069    0.053
 6058.00    0.94905   0.93228    0.053
 6059.00    0.94356   0.93201    0.053
 6060.00    0.93719   0.93249    0.053
 6061.00    0.93341   0.93317    0.053
 6062.00    0.93182   0.93289    0.052
 6063.00    0.93525   0.93313    0.052
 6064.00    0.94242   0.93268    0.052
 6065.00    0.94913   0.93223    0.052
 6066.00    0.95555   0.93177    0.052
 6067.00    0.96089   0.93016    0.051
 6068.00    0.96561   0.92969    0.051
 6069.00    0.96338   0.92863    0.051
 6070.00    0.95770   0.92624    0.050
 6071.00    0.94983   0.92593    0.050
 6072.00    0.94101   0.92498    0.050
 6073.00    0.94466   0.92262    0.050
 6074.00    0.95290   0.92230    0.050
 6075.00    0.96591   0.92156    0.050
 6076.00    0.98042   0.92004    0.050
 6077.00    0.98293   0.91990    0.051
 6078.00    0.98233   0.91909    0.051
 6079.00    0.98257   0.91850    0.051
 6080.00    0.98298   0.91890    0.051
 6081.00    0.97543   0.91782    0.051
 6082.00    0.96655   0.91743    0.052
 6083.00    0.95231   0.91845    0.052
 6084.00    0.93740   0.91736    0.052
 6085.00    0.93244   0.91666    0.052
 6086.00    0.92836   0.91795    0.052
 6087.00    0.93981   0.91679    0.052
 6088.00    0.95206   0.91579    0.052
 6089.00    0.95913   0.91729    0.052
 6090.00    0.96598   0.91578    0.052
 6091.00    0.96424   0.91464    0.052
 6092.00    0.96268   0.91673    0.053
 6093.00    0.96502   0.91531    0.052
 6094.00    0.96691   0.91446    0.052
 6095.00    0.96346   0.91667    0.052
 6096.00    0.95958   0.91558    0.052
 6097.00    0.95208   0.91581    0.052
 6098.00    0.94465   0.91764    0.051
 6099.00    0.93767   0.91632    0.051
 6100.00    0.93062   0.91723    0.050
 6101.00    0.92321   0.91838    0.051
 6102.00    0.91796   0.91706    0.051
 6103.00    0.92128   0.91811    0.051
 6104.00    0.92660   0.91775    0.051
 6105.00    0.93852   0.91639    0.051
 6106.00    0.94761   0.91759    0.051
 6107.00    0.94884   0.91567    0.051
 6108.00    0.94848   0.91415    0.051
 6109.00    0.94437   0.91533    0.051
 6110.00    0.94190   0.91241    0.051
 6111.00    0.94280   0.91120    0.052
 6112.00    0.94346   0.91261    0.052
 6113.00    0.94370   0.90956    0.052
 6114.00    0.94083   0.90854    0.052
 6115.00    0.93308   0.90980    0.052
 6116.00    0.92984   0.90731    0.052
 6117.00    0.93280   0.90647    0.051
 6118.00    0.93237   0.90721    0.051
 6119.00    0.92782   0.90525    0.052
 6120.00    0.92316   0.90459    0.052
 6121.00    0.91836   0.90473    0.052
 6122.00    0.92298   0.90285    0.052
 6123.00    0.93646   0.90241    0.052
 6124.00    0.94584   0.90220    0.052
 6125.00    0.95182   0.90013    0.051
 6126.00    0.95307   0.90004    0.051
 6127.00    0.95086   0.90067    0.050
 6128.00    0.95207   0.89984    0.050
 6129.00    0.95549   0.89980    0.050
 6130.00    0.95671   0.90018    0.050
 6131.00    0.95672   0.90070    0.051
 6132.00    0.95012   0.90159    0.051
 6133.00    0.94030   0.90183    0.051
 6134.00    0.93577   0.90256    0.052
 6135.00    0.93345   0.90365    0.052
 6136.00    0.93348   0.90351    0.052
 6137.00    0.93435   0.90360    0.053
 6138.00    0.93646   0.90415    0.053
 6139.00    0.93897   0.90327    0.053
 6140.00    0.93751   0.90215    0.052
 6141.00    0.93504   0.90185    0.052
 6142.00    0.94181   0.89979    0.052
 6143.00    0.95048   0.89686    0.052
 6144.00    0.96121   0.89547    0.053
 6145.00    0.97227   0.89271    0.054
 6146.00    0.97321   0.88853    0.053
 6147.00    0.97292   0.88604    0.053
 6148.00    0.96768   0.88288    0.052
 6149.00    0.96202   0.87849    0.052
 6150.00    0.95939   0.87561    0.051
 6151.00    0.95691   0.87245    0.050
 6152.00    0.94383   0.86946    0.050
 6153.00    0.93064   0.86805    0.050
 6154.00    0.91908   0.86524    0.050
 6155.00    0.90818   0.86351    0.050
 6156.00    0.91022   0.86420    0.050
 6157.00    0.91210   0.86272    0.050
 6158.00    0.91227   0.86202    0.050
 6159.00    0.91358   0.86435    0.051
 6160.00    0.92413   0.86506    0.051
 6161.00    0.93397   0.86549    0.051
 6162.00    0.93957   0.86795    0.051
 6163.00    0.94317   0.87006    0.051
 6164.00    0.93726   0.87153    0.051
 6165.00    0.93197   0.87330    0.051
 6166.00    0.92909   0.87577    0.051
 6167.00    0.92672   0.87768    0.052
 6168.00    0.92599   0.87839    0.051
 6169.00    0.92996   0.88030    0.051
 6170.00    0.94681   0.88178    0.051
 6171.00    0.95861   0.88153    0.051
 6172.00    0.95858   0.88253    0.052
 6173.00    0.95870   0.88277    0.052
 6174.00    0.95913   0.88191    0.052
 6175.00    0.95932   0.88246    0.052
 6176.00    0.95911   0.88119    0.052
 6177.00    0.95446   0.88010    0.051
 6178.00    0.94299   0.88103    0.051
 6179.00    0.93066   0.87911    0.051
 6180.00    0.91716   0.87815    0.050
 6181.00    0.91032   0.87948    0.050
 6182.00    0.91143   0.87802    0.049
 6183.00    0.91821   0.87788    0.049
 6184.00    0.93095   0.87918    0.050
 6185.00    0.93530   0.87840    0.050
 6186.00    0.93188   0.87928    0.051
 6187.00    0.93071   0.88060    0.051
 6188.00    0.93137   0.88051    0.051
 6189.00    0.93838   0.88175    0.051
 6190.00    0.94994   0.88271    0.051
 6191.00    0.95539   0.88303    0.051
 6192.00    0.95698   0.88389    0.051
 6193.00    0.94925   0.88411    0.051
 6194.00    0.93637   0.88438    0.052
 6195.00    0.91100   0.88416    0.053
 6196.00    0.87965   0.88346   -2.000
 6197.00    0.85640   0.88336   -2.000
 6198.00    0.83651   0.88170   -2.000
 6199.00    0.83800   0.88018   -2.000
 6200.00    0.84706   0.87954   -2.000
 6201.00    0.89208   0.87681   -2.000
 6202.00    0.94787   0.87511   -2.000
 6203.00    0.97886   0.87411   -2.000
 6204.00    1.00370   0.87091   -2.000
 6205.00    0.99571   0.86931   -2.000
 6206.00    0.98111   0.86807   -2.000
 6207.00    0.96456   0.86548   -2.000
 6208.00    0.94771   0.86460    0.052
 6209.00    0.95190   0.86308    0.051
 6210.00    0.95854   0.86136    0.051
 6211.00    0.95763   0.86134    0.050
 6212.00    0.95611   0.85961    0.050
 6213.00    0.94653   0.85871    0.050
 6214.00    0.93660   0.85936    0.050
 6215.00    0.93357   0.85737    0.050
 6216.00    0.93083   0.85694    0.050
 6217.00    0.93822   0.85803    0.050
 6218.00    0.94532   0.85614    0.050
 6219.00    0.94702   0.85588    0.051
 6220.00    0.94889   0.85704    0.051
 6221.00    0.95256   0.85545    0.052
 6222.00    0.95636   0.85495    0.052
 6223.00    0.96117   0.85602    0.052
 6224.00    0.96367   0.85497    0.051
 6225.00    0.95266   0.85393    0.051
 6226.00    0.94163   0.85486    0.051
 6227.00    0.93051   0.85440    0.051
 6228.00    0.92132   0.85271    0.052
 6229.00    0.91942   0.85339    0.052
 6230.00    0.92118   0.85337    0.052
 6231.00    0.93455   0.85125    0.052
 6232.00    0.94642   0.85174    0.052
 6233.00    0.95423   0.85186    0.051
 6234.00    0.95833   0.84948    0.050
 6235.00    0.95388   0.84981    0.049
 6236.00    0.94934   0.84995    0.049
 6237.00    0.94459   0.84764    0.049
 6238.00    0.94307   0.84787    0.049
 6239.00    0.94713   0.84799    0.050
 6240.00    0.94846   0.84586    0.050
 6241.00    0.94564   0.84608    0.049
 6242.00    0.94542   0.84659    0.049
 6243.00    0.94868   0.84490    0.050
 6244.00    0.95384   0.84518    0.050
 6245.00    0.96120   0.84635    0.050
 6246.00    0.96443   0.84548    0.050
 6247.00    0.96336   0.84599    0.050
 6248.00    0.96529   0.84792    0.050
 6249.00    0.96996   0.84814    0.051
 6250.00    0.96812   0.84915    0.051
 6251.00    0.96102   0.85165    0.051
 6252.00    0.95279   0.85274    0.051
 6253.00    0.94375   0.85411    0.051
 6254.00    0.94394   0.85684    0.052
 6255.00    0.94989   0.85841    0.052
 6256.00    0.94853   0.85978    0.052
 6257.00    0.94320   0.86227    0.051
 6258.00    0.93406   0.86383    0.052
 6259.00    0.92313   0.86483    0.053
 6260.00    0.91880   0.86683    0.055
 6261.00    0.91716   0.86807    0.058
 6262.00    0.92897   0.86855    0.060
 6263.00    0.94546   0.87009    0.061
 6264.00    0.95206   0.87091    0.060
 6265.00    0.95576   0.87100    0.059
 6266.00    0.95782   0.87227    0.056
 6267.00    0.95948   0.87275    0.053
 6268.00    0.96838   0.87276    0.051
 6269.00    0.97871   0.87388    0.049
 6270.00    0.98193   0.87415    0.050
 6271.00    0.98407   0.87434    0.051
 6272.00    0.98150   0.87532    0.051
 6273.00    0.97841   0.87549    0.051
 6274.00    0.97398   0.87592    0.051
 6275.00    0.96946   0.87656    0.052
 6276.00    0.96186   0.87652    0.052
 6277.00    0.95414   0.87697    0.052
 6278.00    0.94462   0.87705    0.051
 6279.00    0.93512   0.87674    0.051
 6280.00    0.92664   0.87693    0.000
 6281.00    0.91921   0.87631    0.000
 6282.00    0.92972   0.87574    0.000
 6283.00    0.94041   0.87562    0.000
 6284.00    0.95290   0.87451    0.000
 6285.00    0.96452   0.87386    0.000
 6286.00    0.96968   0.87363    0.000
 6287.00    0.97361   0.87245    0.000
 6288.00    0.97059   0.87199    0.000
 6289.00    0.96604   0.87202    0.000
 6290.00    0.95452   0.87115    0.000
 6291.00    0.94512   0.87095    0.000
 6292.00    0.94358   0.87149    0.000
 6293.00    0.94205   0.87107    0.000
 6294.00    0.94052   0.87098    0.000
 6295.00    0.93896   0.87194    0.000
 6296.00    0.93731   0.87181    0.000
 6297.00    0.93800   0.87153    0.000
 6298.00    0.94398   0.87264    0.000
 6299.00    0.95163   0.87254    0.000
 6300.00    0.96255   0.87185    0.000
 6301.00    0.96943   0.87290    0.000
 6302.00    0.96940   0.87276    0.000
 6303.00    0.96580   0.87176    0.000
 6304.00    0.95685   0.87278    0.000
 6305.00    0.95455   0.87277    0.000
 6306.00    0.96100   0.87183    0.000
 6307.00    0.96664   0.87303    0.000
 6308.00    0.97133   0.87339    0.000
 6309.00    0.97173   0.87283    0.000
 6310.00    0.96773   0.87434    0.000
 6311.00    0.96061   0.87513    0.000
 6312.00    0.95066   0.87499    0.000
 6313.00    0.94193   0.87671    0.000
 6314.00    0.93417   0.87766    0.000
 6315.00    0.93511   0.87765    0.000
 6316.00    0.94214   0.87929    0.000
 6317.00    0.94639   0.87998    0.000
 6318.00    0.94893   0.87975    0.000
 6319.00    0.94755   0.88102    0.000
 6320.00    0.94407   0.88114    0.000
 6321.00    0.94460   0.88056    0.049
 6322.00    0.94700   0.88137    0.050
 6323.00    0.95250   0.88088    0.050
 6324.00    0.95925   0.88013    0.051
 6325.00    0.96412   0.88060    0.051
 6326.00    0.96834   0.87975    0.052
 6327.00    0.96791   0.87914    0.051
 6328.00    0.96614   0.87948    0.050
 6329.00    0.95821   0.87857    0.050
 6330.00    0.94882   0.87833    0.050
 6331.00    0.95174   0.87862    0.050
 6332.00    0.95701   0.87786    0.050
 6333.00    0.96223   0.87796    0.051
 6334.00    0.96746   0.87811    0.051
 6335.00    0.96895   0.87747    0.050
 6336.00    0.97004   0.87766    0.050
 6337.00    0.96967   0.87742    0.050
 6338.00    0.96920   0.87674    0.050
 6339.00    0.97157   0.87669    0.049
 6340.00    0.97404   0.87586    0.049
 6341.00    0.97612   0.87500    0.049
 6342.00    0.97830   0.87453    0.049
 6343.00    0.98384   0.87313    0.049
 6344.00    0.98930   0.87214    0.049
 6345.00    0.99353   0.87139    0.049
 6346.00    0.99719   0.86979    0.049
 6347.00    0.99505   0.86901    0.049
 6348.00    0.99298   0.86841    0.049
 6349.00    0.99135   0.86720    0.050
 6350.00    0.99010   0.86705    0.051
 6351.00    0.99091   0.86707    0.051
 6352.00    0.99101   0.86675    0.052
 6353.00    0.98797   0.86751    0.052
 6354.00    0.98292   0.86835    0.052
 6355.00    0.97054   0.86907    0.051
 6356.00    0.95761   0.87062    0.051
 6357.00    0.94304   0.87208    0.051
 6358.00    0.93118   0.87356    0.051
 6359.00    0.92632   0.87546    0.050
 6360.00    0.92747   0.87703    0.050
 6361.00    0.94200   0.87875    0.051
 6362.00    0.95560   0.88046    0.052
 6363.00    0.96742   0.88164    0.051
 6364.00    0.97381   0.88314    0.051
 6365.00    0.97107   0.88431    0.051
 6366.00    0.97079   0.88479    0.050
 6367.00    0.97414   0.88587    0.050
 6368.00    0.97945   0.88641    0.049
 6369.00    0.98728   0.88619    0.050
 6370.00    0.99136   0.88686    0.050
 6371.00    0.99114   0.88690    0.050
 6372.00    0.98805   0.88612    0.050
 6373.00    0.98208   0.88648    0.050
 6374.00    0.97538   0.88623    0.049
 6375.00    0.96805   0.88504    0.049
 6376.00    0.96221   0.88521    0.049
 6377.00    0.95752   0.88488    0.050
 6378.00    0.95498   0.88338    0.050
 6379.00    0.95392   0.88347    0.050
 6380.00    0.95663   0.88327    0.051
 6381.00    0.96161   0.88160    0.051
 6382.00    0.96412   0.88171    0.051
 6383.00    0.96533   0.88186    0.051
 6384.00    0.96222   0.88017    0.050
 6385.00    0.95714   0.88044    0.050
 6386.00    0.95526   0.88104    0.049
 6387.00    0.95465   0.87950    0.049
 6388.00    0.95381   0.87999    0.049
 6389.00    0.95291   0.88098    0.049
 6390.00    0.95042   0.87962    0.048
 6391.00    0.94750   0.88035    0.048
 6392.00    0.94525   0.88145    0.049
 6393.00    0.94317   0.88022    0.049
 6394.00    0.94926   0.88112    0.050
 6395.00    0.95689   0.88202    0.050
 6396.00    0.96220   0.88079    0.051
 6397.00    0.96717   0.88179    0.051
 6398.00    0.98029   0.88232    0.051
 6399.00    0.99425   0.88103    0.051
 6400.00    1.00027   0.88207    0.051
 6401.00    1.00577   0.88234    0.052
 6402.00    0.99455   0.88105    0.052
 6403.00    0.98279   0.88207    0.052
 6404.00    0.97523   0.88232    0.051
 6405.00    0.96795   0.88120    0.051
 6406.00    0.96932   0.88212    0.051
 6407.00    0.97060   0.88261    0.052
 6408.00    0.97034   0.88182    0.051
 6409.00    0.96957   0.88252    0.050
 6410.00    0.96390   0.88332    0.050
 6411.00    0.95869   0.88291    0.050
 6412.00    0.95679   0.88331    0.050
 6413.00    0.95553   0.88431    0.050
 6414.00    0.95769   0.88420    0.049
 6415.00    0.95866   0.88424    0.049
 6416.00    0.95450   0.88527    0.049
 6417.00    0.95200   0.88529    0.049
 6418.00    0.95540   0.88505    0.049
 6419.00    0.95883   0.88601    0.050
 6420.00    0.96237   0.88603    0.049
 6421.00    0.96439   0.88570    0.049
 6422.00    0.96255   0.88662    0.049
 6423.00    0.96301   0.88658    0.050
 6424.00    0.96852   0.88635    0.051
 6425.00    0.97607   0.88728    0.051
 6426.00    0.98748   0.88718    0.052
 6427.00    0.99263   0.88710    0.052
 6428.00    0.98737   0.88794    0.053
 6429.00    0.98119   0.88778    0.053
 6430.00    0.97367   0.88775    0.053
 6431.00    0.96706   0.88819    0.052
 6432.00    0.96163   0.88797    0.052
 6433.00    0.96178   0.88785    0.051
 6434.00    0.96822   0.88758    0.050
 6435.00    0.97420   0.88731    0.050
 6436.00    0.97971   0.88715    0.049
 6437.00    0.98413   0.88608    0.049
 6438.00    0.98759   0.88585    0.050
 6439.00    0.98737   0.88590    0.050
 6440.00    0.98431   0.88427    0.049
 6441.00    0.98123   0.88413    0.049
 6442.00    0.97814   0.88473    0.049
 6443.00    0.97635   0.88297    0.049
 6444.00    0.97531   0.88286    0.049
 6445.00    0.96710   0.88414    0.050
 6446.00    0.95516   0.88268    0.050
 6447.00    0.94314   0.88240    0.051
 6448.00    0.93108   0.88427    0.051
 6449.00    0.92473   0.88335    0.051
 6450.00    0.92059   0.88270    0.051
 6451.00    0.91042   0.88484    0.051
 6452.00    0.89828   0.88455    0.051
 6453.00    0.87532   0.88347    0.050
 6454.00    0.84937   0.88551    0.050
 6455.00    0.83456   0.88580    0.050
 6456.00    0.82227   0.88436    0.050
 6457.00    0.82907   0.88594    0.050
 6458.00    0.83934   0.88663    0.050
 6459.00    0.85624   0.88496    0.054
 6460.00    0.87406   0.88580    0.059
 6461.00    0.88903   0.88662    0.058
 6462.00    0.90370   0.88487    0.058
 6463.00    0.92132   0.88481    0.056
 6464.00    0.93913   0.88547    0.054
 6465.00    0.94621   0.88373    0.051
 6466.00    0.95297   0.88274    0.049
 6467.00    0.95894   0.88297    0.049
 6468.00    0.96486   0.88126    0.050
 6469.00    0.96951   0.87941    0.049
 6470.00    0.97430   0.87897    0.049
 6471.00    0.98109   0.87721    0.050
 6472.00    0.98758   0.87458    0.051
 6473.00    0.99131   0.87335    0.052
 6474.00    0.99367   0.87138    0.053
 6475.00    0.98679   0.86809    0.052
 6476.00    0.97929   0.86615    0.052
 6477.00    0.96851   0.86395    0.051
 6478.00    0.95887   0.86028    0.051
 6479.00    0.95401   0.85804    0.050
 6480.00    0.95138   0.85591    0.050
 6481.00    0.95649   0.85243    0.050
 6482.00    0.96343   0.85061    0.049
 6483.00    0.97575   0.84917    0.049
 6484.00    0.98562   0.84666    0.049
 6485.00    0.98936   0.84606    0.049
 6486.00    0.99080   0.84591    0.049
 6487.00    0.98728   0.84499    0.049
 6488.00    0.98246   0.84599    0.049
 6489.00    0.97521   0.84731    0.049
 6490.00    0.97065   0.84797    0.050
 6491.00    0.97049   0.85033    0.050
 6492.00    0.97191   0.85270    0.050
 6493.00    0.97559   0.85432    0.051
 6494.00    0.97576   0.85722    0.051
 6495.00    0.97151   0.85989    0.051
 6496.00    0.96655   0.86159    0.051
 6497.00    0.96082   0.86413    0.052
 6498.00    0.95775   0.86645    0.052
 6499.00    0.95728   0.86761    0.052
 6500.00    0.96247   0.86921    0.052
 6501.00    0.97257   0.87091    0.052
 6502.00    0.98372   0.87139    0.051
 6503.00    0.99567   0.87202    0.051
 6504.00    1.00561   0.87316    0.051
 6505.00    1.01422   0.87320    0.050
 6506.00    1.01775   0.87321    0.050
 6507.00    1.01831   0.87399    0.050
 6508.00    1.01667   0.87390    0.050
 6509.00    1.01393   0.87371    0.049
 6510.00    1.01219   0.87431    0.048
 6511.00    1.01091   0.87425    0.048
 6512.00    1.00298   0.87412    0.048
 6513.00    0.99253   0.87461    0.049
 6514.00    0.98529   0.87455    0.049
 6515.00    0.97909   0.87452    0.049
 6516.00    0.97789   0.87489    0.049
 6517.00    0.97804   0.87476    0.050
 6518.00    0.98155   0.87468    0.051
 6519.00    0.98579   0.87489    0.051
 6520.00    0.99344   0.87461    0.051
 6521.00    1.00170   0.87427    0.051
 6522.00    1.00154   0.87420    0.051
 6523.00    1.00024   0.87370    0.051
 6524.00    0.99845   0.87285    0.051
 6525.00    0.99661   0.87232    0.050
 6526.00    0.98782   0.87147    0.050
 6527.00    0.97861   0.86990    0.051
 6528.00    0.97744   0.86866    0.000
 6529.00    0.97654   0.86726    0.000
 6530.00    0.98512   0.86478    0.000
 6531.00    0.99359   0.86257    0.000
 6532.00    0.99911   0.86040    0.000
 6533.00    1.00417   0.85695    0.000
 6534.00    1.00304   0.85351    0.000
 6535.00    1.00233   0.85034    0.000
 6536.00    1.00535   0.84600    0.000
 6537.00    1.00844   0.84109    0.000
 6538.00    1.01199   0.83666    0.000
 6539.00    1.01496   0.83170    0.000
 6540.00    1.01495   0.82524    0.000
 6541.00    1.01405   0.81932    0.000
 6542.00    1.00942   0.81431    0.000
 6543.00    1.00333   0.80674    0.000
 6544.00    0.99224   0.79943    0.000
 6545.00    0.98457   0.79528    0.000
 6546.00    0.98680   0.78786    0.000
 6547.00    0.98951   0.77988    0.000
 6548.00    0.99341   0.77766    0.000
 6549.00    0.99426   0.77229    0.000
 6550.00    0.98864   0.76500    0.000
 6551.00    0.98656   0.76555    0.000
 6552.00    0.99100   0.76401    0.000
 6553.00    0.99460   0.75894    0.000
 6554.00    0.99684   0.76230    0.000
 6555.00    0.99719   0.76518    0.000
 6556.00    0.99485   0.76330    0.000
 6557.00    0.99329   0.76875    0.000
 6558.00    0.99267   0.77512    0.000
 6559.00    0.99941   0.77628    0.000
 6560.00    1.01421   0.78262    0.000
 6561.00    1.02339   0.79056    0.000
 6562.00    1.02714   0.79372    0.000
 6563.00    1.02895   0.79989    0.000
 6564.00    1.02910   0.80747    0.000
 6565.00    1.02076   0.81129    0.000
 6566.00    1.00606   0.81665    0.000
 6567.00    0.99117   0.82271    0.000
 6568.00    0.97614   0.82609    0.000
 6569.00    0.97013   0.83043    0.000
 6570.00    0.96931   0.83463    0.000
 6571.00    0.96961   0.83688    0.000
 6572.00    0.97047   0.84023    0.000
 6573.00    0.97518   0.84284    0.000
 6574.00    0.98156   0.84379    0.000
 6575.00    0.98088   0.84626    0.000
 6576.00    0.97758   0.84776    0.000
 6577.00    0.98064   0.84758    0.000
 6578.00    0.98571   0.84935    0.000
 6579.00    1.00317   0.85030    0.000
 6580.00    1.02390   0.84936    0.000
 6581.00    1.03308   0.85065    0.000
 6582.00    1.03976   0.85156    0.000
 6583.00    1.03990   0.85039    0.000
 6584.00    1.03891   0.85134    0.000
 6585.00    1.03714   0.85245    0.000
 6586.00    1.03527   0.85148    0.000
 6587.00    1.02766   0.85218    0.000
 6588.00    1.01953   0.85350    0.000
 6589.00    1.00897   0.85298    0.000
 6590.00    0.99827   0.85341    0.000
 6591.00    0.99974   0.85472    0.000
 6592.00    1.00149   0.85474    0.000
 6593.00    1.00466   0.85501    0.000
 6594.00    1.00722   0.85609    0.000
 6595.00    0.99557   0.85649    0.000
 6596.00    0.98463   0.85677    0.000
 6597.00    0.98262   0.85761    0.000
 6598.00    0.98129   0.85822    0.000
 6599.00    0.98583   0.85864    0.000
 6600.00    0.98937   0.85931    0.000
 6601.00    0.98656   0.85999    0.000
 6602.00    0.98508   0.86048    0.000
 6603.00    0.99020   0.86098    0.000
 6604.00    0.99396   0.86158    0.000
 6605.00    0.99222   0.86192    0.000
 6606.00    0.99080   0.86213    0.000
 6607.00    0.99044   0.86252    0.000
 6608.00    0.99126   0.86242    0.000
 6609.00    0.99540   0.86214    0.050
 6610.00    1.00041   0.86235    0.050
 6611.00    1.00754   0.86175    0.051
 6612.00    1.01381   0.86090    0.051
 6613.00    1.01830   0.86097    0.052
 6614.00    1.01800   0.85993    0.052
 6615.00    1.00901   0.85859    0.053
 6616.00    1.00025   0.85869    0.052
 6617.00    0.99186   0.85751    0.051
 6618.00    0.98726   0.85581    0.050
 6619.00    0.98793   0.85613    0.050
 6620.00    0.98911   0.85527    0.050
 6621.00    0.99090   0.85343    0.050
 6622.00    0.99307   0.85398    0.050
 6623.00    0.99564   0.85369    0.050
 6624.00    0.99870   0.85183    0.050
 6625.00    1.00225   0.85252    0.050
 6626.00    1.00250   0.85298    0.050
 6627.00    0.99999   0.85118    0.050
 6628.00    0.99116   0.85167    0.050
 6629.00    0.97766   0.85285    0.051
 6630.00    0.97285   0.85136    0.051
 6631.00    0.97368   0.85136    0.051
 6632.00    0.97830   0.85281    0.052
 6633.00    0.98507   0.85193    0.052
 6634.00    0.99058   0.85145    0.052
 6635.00    0.99546   0.85259    0.051
 6636.00    0.99885   0.85228    0.051
 6637.00    1.00160   0.85154    0.051
 6638.00    1.00095   0.85202    0.051
 6639.00    0.99905   0.85210    0.051
 6640.00    0.99728   0.85129    0.051
 6641.00    0.99555   0.85097    0.051
 6642.00    0.99994   0.85123    0.051
 6643.00    1.00591   0.85055    0.051
 6644.00    1.00636   0.84944    0.051
 6645.00    1.00564   0.84964    0.050
 6646.00    1.00371   0.84929    0.050
 6647.00    1.00158   0.84762    0.050
 6648.00    1.00656   0.84762    0.050
 6649.00    1.01244   0.84771    0.050
 6650.00    1.01512   0.84584    0.050
 6651.00    1.01752   0.84561    0.051
 6652.00    1.01182   0.84614    0.051
 6653.00    1.00571   0.84462    0.052
 6654.00    1.00650   0.84430    0.051
 6655.00    1.00740   0.84484    0.051
 6656.00    1.00868   0.84379    0.052
 6657.00    1.00978   0.84370    0.052
 6658.00    1.00711   0.84400    0.052
 6659.00    1.00447   0.84313    0.052
 6660.00    1.00217   0.84339    0.051
 6661.00    1.00072   0.84340    0.051
 6662.00    1.00633   0.84235    0.051
 6663.00    1.00960   0.84301    0.051
 6664.00    0.99843   0.84293    0.051
 6665.00    0.98741   0.84137    0.051
 6666.00    0.97707   0.84223    0.051
 6667.00    0.96982   0.84266    0.051
 6668.00    0.97473   0.84094    0.051
 6669.00    0.97999   0.84159    0.051
 6670.00    0.98639   0.84258    0.051
 6671.00    0.99084   0.84128    0.051
 6672.00    0.98989   0.84154    0.051
 6673.00    0.98744   0.84271    0.051
 6674.00    0.98144   0.84203    0.051
 6675.00    0.97761   0.84202    0.051
 6676.00    0.97825   0.84300    0.052
 6677.00    0.98122   0.84276    0.052
 6678.00    0.98836   0.84263    0.052
 6679.00    0.99421   0.84318    0.053
 6680.00    0.99802   0.84303    0.053
 6681.00    1.00199   0.84295    0.053
 6682.00    1.00618   0.84305    0.053
 6683.00    1.00513   0.84268    0.052
 6684.00    0.99776   0.84268    0.052
 6685.00    0.99367   0.84252    0.052
 6686.00    0.99307   0.84190    0.051
 6687.00    0.98905   0.84193    0.051
 6688.00    0.98183   0.84160    0.050
 6689.00    0.97937   0.84093    0.050
 6690.00    0.98086   0.84096    0.051
 6691.00    0.98788   0.84034    0.051
 6692.00    0.99895   0.83963    0.051
 6693.00    1.00508   0.83960    0.052
 6694.00    1.00805   0.83860    0.052
 6695.00    1.00939   0.83773    0.052
 6696.00    1.00981   0.83775    0.000
 6697.00    1.00589   0.83650    0.000
 6698.00    0.99985   0.83531    0.000
 6699.00    0.98986   0.83526    0.000
 6700.00    0.97821   0.83399    0.000
 6701.00    0.97471   0.83254    0.000
 6702.00    0.97414   0.83241    0.000
 6703.00    0.98537   0.83156    0.000
 6704.00    1.00020   0.83011    0.000
 6705.00    0.99672   0.82983    0.000
 6706.00    0.98860   0.82969    0.000
 6707.00    0.98049   0.82863    0.000
 6708.00    0.97238   0.82831    0.000
 6709.00    0.97092   0.82888    0.000
 6710.00    0.97054   0.82865    0.000
 6711.00    0.98248   0.82855    0.000
 6712.00    0.99591   0.82921    0.000
 6713.00    1.00245   0.82947    0.000
 6714.00    1.00842   0.82983    0.000
 6715.00    1.01470   0.83050    0.000
 6716.00    1.02100   0.83073    0.000
 6717.00    1.01584   0.83122    0.000
 6718.00    1.01048   0.83189    0.000
 6719.00    1.00326   0.83197    0.000
 6720.00    0.99620   0.83222    0.000
 6721.00    0.99227   0.83264    0.000
 6722.00    0.98926   0.83254    0.000
 6723.00    0.99682   0.83236    0.000
 6724.00    1.00302   0.83236    0.000
 6725.00    0.99840   0.83220    0.000
 6726.00    0.99463   0.83170    0.000
 6727.00    0.99606   0.83122    0.000
 6728.00    0.99741   0.83109    0.000
 6729.00    0.99839   0.83046    0.000
 6730.00    0.99898   0.82953    0.000
 6731.00    0.99811   0.82960    0.000
 6732.00    0.99601   0.82929    0.000
 6733.00    0.98996   0.82801    0.000
 6734.00    0.98261   0.82808    0.000
 6735.00    0.97172   0.82853    0.000
 6736.00    0.96485   0.82740    0.000
 6737.00    0.96736   0.82718    0.000
 6738.00    0.97111   0.82837    0.000
 6739.00    0.97735   0.82788    0.000
 6740.00    0.98199   0.82732    0.000
 6741.00    0.98382   0.82900    0.000
 6742.00    0.98622   0.82932    0.000
 6743.00    0.98953   0.82861    0.000
 6744.00    0.99021   0.83034    0.000
 6745.00    0.98733   0.83124    0.000
 6746.00    0.98574   0.83064    0.000
 6747.00    0.98568   0.83203    0.000
 6748.00    0.98236   0.83303    0.000
 6749.00    0.97561   0.83265    0.000
 6750.00    0.97319   0.83363    0.000
 6751.00    0.97478   0.83431    0.000
 6752.00    0.98497   0.83403    0.000
 6753.00    1.00219   0.83476    0.056
 6754.00    1.00336   0.83505    0.057
 6755.00    0.99299   0.83472    0.058
 6756.00    0.97326   0.83543    0.058
 6757.00    0.94762   0.83546    0.058
 6758.00    0.94200   0.83498    0.058
 6759.00    0.94742   0.83582    0.058
 6760.00    0.99813   0.83588    0.059
 6761.00    1.07054   0.83514    0.061
 6762.00    1.12780   0.83591    0.063
 6763.00    1.17881   0.83626    0.065
 6764.00    1.19164   0.83535    0.065
 6765.00    1.19097   0.83567    0.065
 6766.00    1.18364   0.83614    0.064
 6767.00    1.17431   0.83515    0.063
 6768.00    1.16669   0.83496    0.062
 6769.00    1.15948   0.83536    0.061
 6770.00    1.14960   0.83426    0.060
 6771.00    1.13918   0.83362    0.059
 6772.00    1.11336   0.83399    0.058
 6773.00    1.08512   0.83294    0.056
 6774.00    1.06143   0.83198    0.055
 6775.00    1.03827   0.83241    0.054
 6776.00    1.02086   0.83166    0.055
 6777.00    1.00390   0.83057    0.055
 6778.00    1.02495   0.83117    0.056
 6779.00    1.04766   0.83104    0.057
 6780.00    1.04695   0.83000    0.058
 6781.00    1.04581   0.83058    0.058
 6782.00    1.03566   0.83108    0.058
 6783.00    1.02699   0.83021    0.058
 6784.00    1.04518   0.83052    0.059
 6785.00    1.06208   0.83146    0.059
 6786.00    1.06494   0.83102    0.059
 6787.00    1.06550   0.83097    0.059
 6788.00    1.04841   0.83188    0.058
 6789.00    1.03549   0.83200    0.058
 6790.00    1.04678   0.83177    0.058
 6791.00    1.05728   0.83222    0.058
 6792.00    1.06416   0.83280    0.058
 6793.00    1.06997   0.83255    0.058
 6794.00    1.07175   0.83236    0.057
 6795.00    1.06926   0.83326    0.057
 6796.00    1.05327   0.83316    0.056
 6797.00    1.04342   0.83243    0.055
 6798.00    1.04998   0.83335    0.056
 6799.00    1.05433   0.83355    0.056
 6800.00    1.05360   0.83271    0.056
 6801.00    1.05200   0.83342    0.056
 6802.00    1.04867   0.83379    0.057
 6803.00    1.04151   0.83324    0.058
 6804.00    1.02772   0.83367    0.058
 6805.00    1.01815   0.83403    0.057
 6806.00    1.01498   0.83399    0.057
 6807.00    1.01328   0.83424    0.057
 6808.00    1.01354   0.83433    0.057
 6809.00    1.01461   0.83457    0.057
 6810.00    1.01663   0.83489    0.057
 6811.00    1.01911   0.83494    0.057
 6812.00    1.02207   0.83505    0.058
 6813.00    1.02977   0.83513    0.058
 6814.00    1.04180   0.83512    0.058
 6815.00    1.03712   0.83510    0.058
 6816.00    1.01900   0.83508    0.057
 6817.00    1.01296   0.83493    0.057
 6818.00    1.01546   0.83456    0.056
 6819.00    1.02816   0.83433    0.055
 6820.00    1.04719   0.83402    0.056
 6821.00    1.05141   0.83340    0.056
 6822.00    1.04759   0.83288    0.056
 6823.00    1.03884   0.83244    0.056
 6824.00    1.02776   0.83198    0.056
 6825.00    1.02722   0.83134    0.056
 6826.00    1.03096   0.83054    0.056
 6827.00    1.03135   0.83017    0.057
 6828.00    1.03058   0.82971    0.058
 6829.00    1.03849   0.82887    0.058
 6830.00    1.04894   0.82858    0.058
 6831.00    1.05665   0.82827    0.059
 6832.00    1.06370   0.82750    0.059
 6833.00    1.04719   0.82739    0.057
 6834.00    1.02608   0.82728    0.055
 6835.00    1.02681   0.82661    0.056
 6836.00    1.03087   0.82654    0.057
 6837.00    1.03631   0.82678    0.058
 6838.00    1.04191   0.82621    0.058
 6839.00    1.05314   0.82582    0.059
 6840.00    1.06479   0.82622    0.059
 6841.00    1.05624   0.82570    0.059
 6842.00    1.04689   0.82482    0.058
 6843.00    1.03077   0.82540    0.057
 6844.00    1.01510   0.82510    0.056
 6845.00    1.01940   0.82365    0.055
 6846.00    1.02311   0.82431    0.055
 6847.00    1.01667   0.82462    0.056
 6848.00    1.01157   0.82280    0.057
 6849.00    1.02036   0.82309    0.057
 6850.00    1.03000   0.82418    0.057
 6851.00    1.04598   0.82280    0.057
 6852.00    1.05782   0.82248    0.057
 6853.00    1.04623   0.82388    0.056
 6854.00    1.03616   0.82339    0.056
 6855.00    1.03300   0.82254    0.056
 6856.00    1.03076   0.82375    0.056
 6857.00    1.03196   0.82442    0.055
 6858.00    1.02848   0.82356    0.055
 6859.00    1.01055   0.82398    0.055
 6860.00    0.99730   0.82519    0.056
 6861.00    0.99635   0.82492    0.056
 6862.00    0.99374   0.82480    0.056
 6863.00    0.98736   0.82599    0.055
 6864.00    0.98609   0.82656    0.055
 6865.00    0.99483   0.82630    0.056
 6866.00    1.00029   0.82691    0.057
 6867.00    1.00018   0.82807    0.058
 6868.00    0.99730   0.82837    0.058
 6869.00    0.99028   0.82838    0.058
 6870.00    0.99430   0.82944    0.058
 6871.00    1.01282   0.83056    0.057
 6872.00    1.02621   0.83050    0.057
 6873.00    1.03365   0.83097    0.056
 6874.00    1.03348   0.83252    0.056
 6875.00    1.02556   0.83291    0.056
 6876.00    1.01078   0.83282    0.056
 6877.00    0.98984   0.83428    0.055
 6878.00    0.98205   0.83540    0.055
 6879.00    0.98468   0.83511    0.054
 6880.00    0.98734   0.83595    0.055
 6881.00    0.99002   0.83748    0.055
 6882.00    0.99149   0.83745    0.055
 6883.00    0.99220   0.83763    0.055
 6884.00    0.99177   0.83900    0.055
 6885.00    0.99072   0.83932    0.056
 6886.00    0.99442   0.83921    0.057
 6887.00    1.00032   0.84007    0.057
 6888.00    1.00482   0.84052    0.057
 6889.00    1.00876   0.84052    0.056
 6890.00    0.99890   0.84085    0.056
 6891.00    0.98433   0.84109    0.056
 6892.00    0.97772   0.84137    0.056
 6893.00    0.97338   0.84141    0.056
 6894.00    0.97978   0.84115    0.056
 6895.00    0.98872   0.84148    0.056
 6896.00    0.99689   0.84163    0.056
 6897.00    1.00492   0.84098    0.056
 6898.00    1.01098   0.84089    0.056
 6899.00    1.01674   0.84120    0.056
 6900.00    1.01432   0.84061    0.057
 6901.00    1.01102   0.83994    0.057
 6902.00    1.00711   0.84026    0.057
 6903.00    1.00316   0.83992    0.056
 6904.00    1.00830   0.83881    0.057
 6905.00    1.01376   0.83911    0.057
 6906.00    1.00928   0.83907    0.057
 6907.00    1.00449   0.83785    0.056
 6908.00    0.98994   0.83813    0.057
 6909.00    0.97641   0.83842    0.058
 6910.00    0.97907   0.83735    0.057
 6911.00    0.98246   0.83754    0.057
 6912.00    0.99320   0.83803    0.057
 6913.00    1.00217   0.83730    0.056
 6914.00    0.99838   0.83739    0.056
 6915.00    0.99545   0.83800    0.056
 6916.00    0.99732   0.83763    0.056
 6917.00    0.99963   0.83760    0.055
 6918.00    1.00387   0.83818    0.055
 6919.00    1.00737   0.83805    0.055
 6920.00    1.00822   0.83809    0.055
 6921.00    1.00591   0.83872    0.056
 6922.00    0.99398   0.83865    0.056
 6923.00    0.98859   0.83864    0.056
 6924.00    1.00005   0.83926    0.056
 6925.00    1.00590   0.83913    0.056
 6926.00    0.99924   0.83896    0.057
 6927.00    0.99261   0.83960    0.057
 6928.00    0.98602   0.83951    0.057
 6929.00    0.98182   0.83927    0.058
 6930.00    0.98166   0.83984    0.057
 6931.00    0.98465   0.83957    0.058
 6932.00    0.99225   0.83926    0.058
 6933.00    0.99849   0.84001    0.058
 6934.00    1.00297   0.83973    0.058
 6935.00    1.00673   0.83917    0.058
 6936.00    1.00967   0.84014    0.057
 6937.00    1.00897   0.84030    0.057
 6938.00    1.00461   0.83944    0.057
 6939.00    0.99223   0.84036    0.057
 6940.00    0.97274   0.84115    0.056
 6941.00    0.96871   0.84042    0.056
 6942.00    0.97677   0.84113    0.057
 6943.00    0.99132   0.84235    0.057
 6944.00    1.01034   0.84208    0.058
 6945.00    1.01020   0.84244    0.058
 6946.00    0.99852   0.84358    0.058
 6947.00    0.99915   0.84379    0.058
 6948.00    1.00627   0.84401    0.058
 6949.00    1.00001   0.84486    0.058
 6950.00    0.98765   0.84540    0.058
 6951.00    0.99358   0.84543    0.058
 6952.00    1.00670   0.84570    0.059
 6953.00    1.00877   0.84630    0.058
 6954.00    1.00715   0.84629    0.058
 6955.00    1.00594   0.84577    0.058
 6956.00    1.00484   0.84596    0.057
 6957.00    0.99699   0.84616    0.057
 6958.00    0.98757   0.84496    0.057
 6959.00    0.99004   0.84436    0.057
 6960.00    0.99472   0.84493    0.057
 6961.00    0.98978   0.84375    0.057
 6962.00    0.98348   0.84245    0.056
 6963.00    0.99053   0.84322    0.057
 6964.00    0.99898   0.84263    0.057
 6965.00    0.98460   0.84108    0.058
 6966.00    0.96870   0.84179    0.059
 6967.00    0.93517   0.84207    0.059
 6968.00    0.90111   0.84064    0.059
 6969.00    0.96621   0.84104    0.060
 6970.00    1.02930   0.84236    0.061
 6971.00    1.03062   0.84157    0.061
 6972.00    1.03185   0.84140    0.061
 6973.00    1.03166   0.84321    0.060
 6974.00    1.03105   0.84337    0.060
 6975.00    1.02638   0.84298    0.060
 6976.00    1.02311   0.84446    0.060
 6977.00    1.02949   0.84526    0.059
 6978.00    1.03456   0.84504    0.059
 6979.00    1.03261   0.84558    0.059
 6980.00    1.03060   0.84612    0.059
 6981.00    1.02836   0.84608    0.059
 6982.00    1.02636   0.84603    0.058
 6983.00    1.02522   0.84604    0.059
 6984.00    1.02651   0.84589    0.059
 6985.00    1.03504   0.84577    0.060
 6986.00    1.03976   0.84545    0.060
 6987.00    1.03477   0.84488    0.060
 6988.00    1.02914   0.84474    0.060
 6989.00    1.02208   0.84444    0.061
 6990.00    1.01788   0.84364    0.061
 6991.00    1.01912   0.84337    0.061
 6992.00    1.02499   0.84317    0.061
 6993.00    1.03853   0.84241    0.061
 6994.00    1.05136   0.84206    0.061
 6995.00    1.06316   0.84194    0.061
 6996.00    1.06596   0.84118    0.061
 6997.00    1.05727   0.84086    0.061
 6998.00    1.05061   0.84115    0.061
 6999.00    1.04624   0.84036    0.061
 7000.00    1.04732   0.83977    0.061
 7001.00    1.05381   0.84050    0.060
 7002.00    1.06238   0.84027    0.060
 7003.00    1.07278   0.83961    0.061
 7004.00    1.05450   0.84025    0.061
 7005.00    1.01410   0.84054    0.060
 7006.00    0.99883   0.83987    0.061
 7007.00    1.00059   0.84017    0.061
 7008.00    1.00658   0.84098    0.062
 7009.00    1.01507   0.84073    0.062
 7010.00    1.00703   0.84098    0.062
 7011.00    0.99042   0.84213    0.062
 7012.00    1.00308   0.84217    0.062
 7013.00    1.02889   0.84234    0.062
 7014.00    1.03011   0.84364    0.062
 7015.00    1.02183   0.84433    0.062
 7016.00    1.02431   0.84487    0.062
 7017.00    1.03033   0.84565    0.061
 7018.00    1.02674   0.84616    0.060
 7019.00    1.02050   0.84742    0.060
 7020.00    1.01791   0.84850    0.061
 7021.00    1.01614   0.84832    0.062
 7022.00    1.00762   0.84955    0.061
 7023.00    0.99787   0.85176    0.060
 7024.00    0.99666   0.85188    0.061
 7025.00    0.99664   0.85219    0.062
 7026.00    1.00948   0.85453    0.063
 7027.00    1.02359   0.85523    0.063
 7028.00    1.02728   0.85452    0.064
 7029.00    1.03030   0.85621    0.064
 7030.00    1.02401   0.85761    0.064
 7031.00    1.01754   0.85652    0.064
 7032.00    1.03575   0.85681    0.064
 7033.00    1.05308   0.85806    0.064
 7034.00    1.04623   0.85692    0.065
 7035.00    1.04016   0.85542    0.065
 7036.00    1.04513   0.85552    0.064
 7037.00    1.04916   0.85472    0.063
 7038.00    1.04457   0.85235    0.062
 7039.00    1.04065   0.85075    0.062
 7040.00    1.04124   0.84955    0.062
 7041.00    1.04377   0.84715    0.062
 7042.00    1.05646   0.84437    0.062
 7043.00    1.06583   0.84234    0.062
 7044.00    1.06119   0.84058    0.063
 7045.00    1.06010   0.83775    0.064
 7046.00    1.07129   0.83497    0.065
 7047.00    1.07814   0.83369    0.066
 7048.00    1.07231   0.83154    0.066
 7049.00    1.06386   0.82870    0.065
 7050.00    1.04888   0.82769   -2.000
 7051.00    1.04469   0.82648   -2.000
 7052.00    1.06368   0.82442   -2.000
 7053.00    1.07797   0.82386   -2.000
 7054.00    1.08347   0.82375   -2.000
 7055.00    1.08871   0.82240   -2.000
 7056.00    1.09352   0.82171   -2.000
 7057.00    1.09940   0.82223   -2.000
 7058.00    1.10682   0.82178   -2.000
 7059.00    1.12194   0.82113   -2.000
 7060.00    1.14677   0.82169   -2.000
 7061.00    1.16817   0.82156   -2.000
 7062.00    1.18577   0.82074   -2.000
 7063.00    1.19486   0.82082   -2.000
 7064.00    1.19563   0.82046   -2.000
 7065.00    1.17697   0.81942   -2.000
 7066.00    1.14156   0.81894   -2.000
 7067.00    1.12244   0.81796   -2.000
 7068.00    1.11572   0.81637   -2.000
 7069.00    1.12543   0.81528   -2.000
 7070.00    1.14613   0.81343   -2.000
 7071.00    1.14764   0.81122   -2.000
 7072.00    1.13794   0.80994   -2.000
 7073.00    1.14770   0.80771   -2.000
 7074.00    1.16740   0.80514   -2.000
 7075.00    1.18719   0.80380   -2.000
 7076.00    1.20704   0.80178   -2.000
 7077.00    1.19868   0.79927   -2.000
 7078.00    1.17963   0.79802   -2.000
 7079.00    1.15861   0.79690   -2.000
 7080.00    1.13696   0.79462   -2.000
 7081.00    1.13979   0.79332   -2.000
 7082.00    1.14921   0.79370   -2.000
 7083.00    1.13232   0.79247   -2.000
 7084.00    1.10961   0.79138   -2.000
 7085.00    1.10987   0.79230   -2.000
 7086.00    1.11417   0.79192   -2.000
 7087.00    1.11028   0.79144   -2.000
 7088.00    1.10530   0.79260   -2.000
 7089.00    1.13615   0.79300   -2.000
 7090.00    1.17042   0.79278   -2.000
 7091.00    1.13723   0.79365   -2.000
 7092.00    1.10008   0.79486   -2.000
 7093.00    1.10310   0.79473   -2.000
 7094.00    1.10705   0.79490   -2.000
 7095.00    1.10338   0.79638   -2.000
 7096.00    1.09879   0.79672   -2.000
 7097.00    1.07124   0.79654   -2.000
 7098.00    1.04642   0.79713   -2.000
 7099.00    1.05772   0.79775   -2.000
 7100.00    1.06431   0.79778   -2.000
 7101.00    1.02912   0.79781   -2.000
 7102.00    1.00058   0.79821   -2.000
 7103.00    1.01545   0.79820   -2.000
 7104.00    1.02692   0.79776   -2.000
 7105.00    1.02106   0.79756   -2.000
 7106.00    1.01915   0.79766   -2.000
 7107.00    1.03350   0.79729   -2.000
 7108.00    1.04337   0.79614   -2.000
 7109.00    1.03797   0.79585   -2.000
 7110.00    1.03139   0.79606   -2.000
 7111.00    1.02141   0.79488   -2.000
 7112.00    1.01615   0.79364   -2.000
 7113.00    1.02247   0.79348   -2.000
 7114.00    1.02662   0.79299   -2.000
 7115.00    1.02619   0.79171   -2.000
 7116.00    1.02729   0.79100   -2.000
 7117.00    1.03120   0.79099   -2.000
 7118.00    1.04559   0.79009   -2.000
 7119.00    1.07682   0.78932   -2.000
 7120.00    1.10393   0.78995   -2.000
 7121.00    1.12525   0.78967   -2.000
 7122.00    1.11954   0.78872   -2.000
 7123.00    1.08031   0.78926   -2.000
 7124.00    1.07151   0.78973   -2.000
 7125.00    1.09598   0.78932   -2.000
 7126.00    1.11279   0.78963   -2.000
 7127.00    1.12223   0.79036   -2.000
 7128.00    1.10966   0.79038   -2.000
 7129.00    1.07837   0.79096   -2.000
 7130.00    1.08183   0.79201   -2.000
 7131.00    1.11130   0.79167   -2.000
 7132.00    1.12426   0.79224   -2.000
 7133.00    1.12636   0.79377   -2.000
 7134.00    1.09401   0.79309   -2.000
 7135.00    1.04180   0.79325   -2.000
 7136.00    1.05069   0.79527   -2.000
 7137.00    1.09023   0.79529   -2.000
 7138.00    1.10498   0.79492   -2.000
 7139.00    1.10896   0.79684   -2.000
 7140.00    1.11543   0.79762   -2.000
 7141.00    1.12283   0.79633   -2.000
 7142.00    1.09450   0.79760   -2.000
 7143.00    1.05489   0.79947   -2.000
 7144.00    1.04694   0.79820   -2.000
 7145.00    1.04734   0.79832   -2.000
 7146.00    1.03511   0.80003   -2.000
 7147.00    1.02014   0.79959   -2.000
 7148.00    1.01306   0.79932   -2.000
 7149.00    1.00732   0.80042   -2.000
 7150.00    1.01536   0.80037   -2.000
 7151.00    1.02519   0.79926   -2.000
 7152.00    1.03581   0.79975   -2.000
 7153.00    1.04650   0.80072   -2.000
 7154.00    1.03969   0.80033   -2.000
 7155.00    1.03192   0.80013   -2.000
 7156.00    1.03965   0.80031   -2.000
 7157.00    1.04739   0.80024   -2.000
 7158.00    1.02705   0.80047   -2.000
 7159.00    1.00958   0.80061   -2.000
 7160.00    1.05701   0.80046   -2.000
 7161.00    1.10497   0.80032   -2.000
 7162.00    1.15958   0.80014   -2.000
 7163.00    1.20598   0.79999   -2.000
 7164.00    1.18234   0.80036   -2.000
 7165.00    1.15516   0.80021   -2.000
 7166.00    1.10553   0.79922   -2.000
 7167.00    1.06923   0.79886   -2.000
 7168.00    1.09912   0.79901   -2.000
 7169.00    1.12349   0.79860   -2.000
 7170.00    1.12565   0.79787   -2.000
 7171.00    1.11879   0.79789   -2.000
 7172.00    1.08178   0.79750   -2.000
 7173.00    1.04815   0.79609   -2.000
 7174.00    1.02401   0.79619   -2.000
 7175.00    1.01547   0.79645   -2.000
 7176.00    1.04456   0.79530   -2.000
 7177.00    1.07143   0.79515   -2.000
 7178.00    1.09369   0.79561   -2.000
 7179.00    1.10462   0.79516   -2.000
 7180.00    1.09503   0.79481   -2.000
 7181.00    1.07165   0.79571   -2.000
 7182.00    1.02646   0.79572   -2.000
 7183.00    0.99954   0.79442   -2.000
 7184.00    0.99803   0.79526   -2.000
 7185.00    0.99861   0.79607   -2.000
 7186.00    1.00176   0.79521   -2.000
 7187.00    1.01574   0.79578   -2.000
 7188.00    1.04141   0.79648   -2.000
 7189.00    1.06176   0.79593   -2.000
 7190.00    1.07706   0.79614   -2.000
 7191.00    1.05616   0.79738   -2.000
 7192.00    1.00490   0.79715   -2.000
 7193.00    0.98880   0.79616   -2.000
 7194.00    0.99864   0.79746   -2.000
 7195.00    1.00097   0.79811   -2.000
 7196.00    0.99843   0.79751   -2.000
 7197.00    1.00959   0.79889   -2.000
 7198.00    1.02852   0.79974   -2.000
 7199.00    1.02294   0.79927   -2.000
 7200.00    1.00525   0.80036   -2.000
 7201.00    1.02638   0.80210   -2.000
 7202.00    1.06409   0.80203   -2.000
 7203.00    1.06208   0.80231   -2.000
 7204.00    1.04553   0.80458   -2.000
 7205.00    1.01082   0.80532   -2.000
 7206.00    0.97048   0.80557   -2.000
 7207.00    0.96792   0.80783   -2.000
 7208.00    0.97510   0.80910   -2.000
 7209.00    0.93254   0.80911   -2.000
 7210.00    0.87951   0.81079   -2.000
 7211.00    0.92568   0.81277   -2.000
 7212.00    0.98833   0.81299   -2.000
 7213.00    1.01640   0.81418   -2.000
 7214.00    1.04016   0.81625   -2.000
 7215.00    1.04276   0.81656   -2.000
 7216.00    1.04352   0.81723   -2.000
 7217.00    1.05029   0.81914   -2.000
 7218.00    1.05737   0.81988   -2.000
