###################################################################
## OUTPUT of StarlightChains_v04.for    [Cid@UFSC - 01/Apr/2007] ##
###################################################################

## Some input info
KUG0210-078._41_48.txt                   [arq_obs]
Base.CB07.vall.4m                        [arq_base]
Masks.EmLines.NEW.gm                     [arq_masks]
StCv04.C11.config                        [arq_config]
   66                                    [N_base]
    0                                    [N_YAV_components = # of components with extra extinction!]
    0                                    [i_FitPowerLaw (1/0 = Yes/No)]
-9.99                                    [alpha_PowerLaw]
CCM                                      [red_law_option]
 1.458241                                [q_norm = A(l_norm)/A(V)]

## (Re)Sampling Parameters
 3741.00                                 [l_ini (A)]
 7218.00                                 [l_fin (A)]
    1.00                                 [dl    (A)]     (OBS: dl_cushion =    50.00 A)

## Normalization info
 4020.00                                 [l_norm (A) - for base]
 4010.00                                 [llow_norm (A) - window for f_obs]
 4060.00                                 [lupp_norm (A) - window for f_obs]
4.891268E-18                             [fobs_norm (in input units)]

## S/N
 3691.00                                 [llow_SN (A) - window for S/N]
 7268.00                                 [lupp_SN (A) - window for S/N]
   3.562                                 [S/N in S/N window]
   2.390                                 [S/N in norm. window]
   0.009                                 [S/N_err in S/N window]
   0.006                                 [S/N_err in norm. window]
  1.0000                                 [fscale_chi2]

## etc...
    -2007760                             [idum_orig]
  2405                                   [NOl_eff]
  2119                                   [Nl_eff]
   286    NSIGMA                         [Ntot_cliped & clip_method]
 10085670                                [Nglobal_steps]
   7                                     [N_chains]
   7                                     [NEX0s_base = N_base in EX0s-fits]
 0   0   1      286   2.0   3.690E+03    [Clip-Bug, RC-Crash & Burn-In warning-flags, n_censored_weights, wei_nsig_threshold & wei_limit]
    92     90.494     89.037      1.457  [idt_all, wdt_TotTime, wdt_UsrTime & wdt_SysTime (sec)]

## Synthesis Results - Best model ##

 7.94927E-06                             [chi2/Nl_eff]
    16.05782                             [adev (%)]

   130.00000                             [sum-of-x (%)]
 4.15318E-16                             [Flux_tot (units of input spectrum!)]
 3.79632E-14                             [Mini_tot (???)]
 3.79632E-14                             [Mcor_tot (???)]

-466.49                                  [v0_min  (km/s)]
 169.21                                  [vd_min  (km/s)]
 3.1117                                  [AV_min  (mag)]
 0.0000                                  [YAV_min (mag)]

# j     x_j(%)      Mini_j(%)     Mcor_j(%)     age_j(yr)     Z_j      (L/M)_j    YAV?  Mstars   component_j        a/Fe...       SSP_chi2r SSP_adev(%)   SSP_AV   SSP_x(%)
  1    130.0000     1.0000E+02    1.0000E+02    1.000000E+06  0.00400  1.094E-02    0   1.0000   age020_m42            0.0000     6.3883E-06    14.3220   2.5995   165.2536
  2      0.0000     0.0000E+00    0.0000E+00    3.160000E+06  0.00400  4.007E-02    0   0.9999   age045_m42            0.0000     6.4909E-06    14.5942   1.9408   170.8128
  3      0.0000     0.0000E+00    0.0000E+00    5.010000E+06  0.00400  2.539E-02    0   0.9488   age055_m42            0.0000     6.4197E-06    14.4595   2.2299   169.3259
  4      0.0000     0.0000E+00    0.0000E+00    6.610000E+06  0.00400  2.620E-02    0   0.9220   age061_m42            0.0000     6.4953E-06    14.7012   1.8750   170.9565
  5      0.0000     0.0000E+00    0.0000E+00    1.000000E+07  0.00400  1.322E-02    0   0.8862   age070_m42            0.0000     6.6700E-06    15.3905   1.5859   175.8957
  6      0.0000     0.0000E+00    0.0000E+00    1.445000E+07  0.00400  7.883E-03    0   0.8571   age078_m42            0.0000     6.6005E-06    15.1816   1.8951   172.8513
  7      0.0000     0.0000E+00    0.0000E+00    2.512000E+07  0.00400  5.251E-03    0   0.8174   age090_m42            0.0000     6.7296E-06    15.5573   1.4584   176.6432
  8      0.0000     0.0000E+00    0.0000E+00    4.000000E+07  0.00400  3.649E-03    0   0.7851   age104_m42            0.0000     6.7335E-06    15.5414   1.2419   177.0237
  9      0.0000     0.0000E+00    0.0000E+00    5.500000E+07  0.00400  3.098E-03    0   0.7629   age110_m42            0.0000     6.6459E-06    15.3028   1.4132   175.5126
 10      0.0000     0.0000E+00    0.0000E+00    1.015200E+08  0.00400  2.228E-03    0   0.7207   age116_m42            0.0000     6.6057E-06    15.1917   1.4465   174.7647
 11      0.0000     0.0000E+00    0.0000E+00    2.861200E+08  0.00400  1.093E-03    0   0.6648   age125_m42            0.0000     6.7239E-06    16.0670   0.9130   177.9835
 12      0.0000     0.0000E+00    0.0000E+00    5.088000E+08  0.00400  6.597E-04    0   0.6365   age130_m42            0.0000     6.6353E-06    15.7333   0.9203   177.7731
 13      0.0000     0.0000E+00    0.0000E+00    1.434000E+09  0.00400  2.132E-04    0   0.5798   age139_m42            0.0000     6.5951E-06    15.7173  -0.0139   178.1839
 14      0.0000     0.0000E+00    0.0000E+00    4.250000E+09  0.00400  5.895E-05    0   0.5377   age158_m42            0.0000     6.4191E-06    15.0030  -0.4655   171.5477
 15      0.0000     0.0000E+00    0.0000E+00    7.500000E+09  0.00400  3.510E-05    0   0.5212   age171_m42            0.0000     6.3945E-06    14.9794  -0.6374   169.4098
 16      0.0000     0.0000E+00    0.0000E+00    1.300000E+10  0.00400  2.005E-05    0   0.5034   age193_m42            0.0000     6.3944E-06    14.9902  -0.7910   167.8543
 17      0.0000     0.0000E+00    0.0000E+00    1.800000E+10  0.00400  1.525E-05    0   0.4967   age213_m42            0.0000     6.3862E-06    15.0213  -0.8166   167.3064
 18      0.0000     0.0000E+00    0.0000E+00    1.000000E+06  0.00800  1.238E-02    0   1.0000   age020_m52            0.0000     6.3798E-06    14.3145   2.5949   165.6470
 19      0.0000     0.0000E+00    0.0000E+00    3.160000E+06  0.00800  3.074E-02    0   0.9966   age045_m52            0.0000     6.3717E-06    14.2879   2.5204   166.8175
 20      0.0000     0.0000E+00    0.0000E+00    5.010000E+06  0.00800  2.668E-02    0   0.9443   age055_m52            0.0000     6.4068E-06    14.4434   2.3030   168.6417
 21      0.0000     0.0000E+00    0.0000E+00    6.610000E+06  0.00800  2.136E-02    0   0.9177   age061_m52            0.0000     6.5832E-06    15.1828   1.0860   177.7817
 22      0.0000     0.0000E+00    0.0000E+00    1.000000E+07  0.00800  1.215E-02    0   0.8827   age070_m52            0.0000     6.7038E-06    15.6901   1.7562   176.6421
 23      0.0000     0.0000E+00    0.0000E+00    1.445000E+07  0.00800  8.717E-03    0   0.8552   age078_m52            0.0000     6.6088E-06    15.2680   1.8654   174.8836
 24      0.0000     0.0000E+00    0.0000E+00    2.512000E+07  0.00800  5.592E-03    0   0.8162   age090_m52            0.0000     6.7335E-06    15.8253   1.5329   178.2828
 25      0.0000     0.0000E+00    0.0000E+00    4.000000E+07  0.00800  3.896E-03    0   0.7841   age104_m52            0.0000     6.6971E-06    15.7930   1.4620   178.2065
 26      0.0000     0.0000E+00    0.0000E+00    1.015200E+08  0.00800  2.148E-03    0   0.7226   age116_m52            0.0000     6.6327E-06    15.4421   1.4155   176.2867
 27      0.0000     0.0000E+00    0.0000E+00    2.861200E+08  0.00800  9.925E-04    0   0.6683   age125_m52            0.0000     6.6225E-06    15.7827   0.9875   179.5568
 28      0.0000     0.0000E+00    0.0000E+00    9.047900E+08  0.00800  3.141E-04    0   0.6138   age135_m52            0.0000     6.4572E-06    15.7491   0.2449   182.1006
 29      0.0000     0.0000E+00    0.0000E+00    1.434000E+09  0.00800  1.719E-04    0   0.5853   age139_m52            0.0000     6.4381E-06    15.8791  -0.3360   178.8751
 30      0.0000     0.0000E+00    0.0000E+00    2.500000E+09  0.00800  7.872E-05    0   0.5600   age150_m52            0.0000     6.3162E-06    15.0972  -0.6068   173.5452
 31      0.0000     0.0000E+00    0.0000E+00    4.250000E+09  0.00800  4.336E-05    0   0.5426   age158_m52            0.0000     6.3044E-06    15.0048  -0.6250   172.0169
 32      0.0000     0.0000E+00    0.0000E+00    6.250000E+09  0.00800  3.159E-05    0   0.5319   age166_m52            0.0000     6.3110E-06    14.9580  -0.8081   170.6828
 33      0.0000     0.0000E+00    0.0000E+00    1.300000E+10  0.00800  1.361E-05    0   0.5073   age193_m52            0.0000     6.7030E-06    16.3763  -1.0000   153.1767
 34      0.0000     0.0000E+00    0.0000E+00    1.800000E+10  0.00800  9.886E-06    0   0.4990   age213_m52            0.0000     7.0021E-06    16.9537  -1.0000   146.2337
 35      0.0000     0.0000E+00    0.0000E+00    1.000000E+06  0.02000  1.544E-02    0   1.0000   age020_m62            0.0000     6.3761E-06    14.3142   2.5890   166.2019
 36      0.0000     0.0000E+00    0.0000E+00    3.160000E+06  0.02000  3.762E-02    0   0.9858   age045_m62            0.0000     6.3648E-06    14.3111   2.5278   167.7017
 37      0.0000     0.0000E+00    0.0000E+00    5.010000E+06  0.02000  3.296E-02    0   0.9342   age055_m62            0.0000     6.4074E-06    14.5036   2.2071   170.4132
 38      0.0000     0.0000E+00    0.0000E+00    8.710000E+06  0.02000  1.154E-02    0   0.8861   age067_m62            0.0000     7.2419E-06    17.8682   1.1834   185.8346
 39      0.0000     0.0000E+00    0.0000E+00    1.445000E+07  0.02000  7.663E-03    0   0.8472   age078_m62            0.0000     6.8358E-06    16.6126   1.4141   180.8398
 40      0.0000     0.0000E+00    0.0000E+00    2.512000E+07  0.02000  4.532E-03    0   0.8099   age090_m62            0.0000     6.8820E-06    16.8866   1.4137   180.0460
 41      0.0000     0.0000E+00    0.0000E+00    5.500000E+07  0.02000  2.733E-03    0   0.7595   age110_m62            0.0000     6.6489E-06    15.8027   1.4443   177.4366
 42      0.0000     0.0000E+00    0.0000E+00    1.609000E+08  0.02000  1.369E-03    0   0.6985   age120_m62            0.0000     6.6167E-06    15.5839   1.3164   179.1455
 43      0.0000     0.0000E+00    0.0000E+00    2.861200E+08  0.02000  9.013E-04    0   0.6714   age125_m62            0.0000     6.6160E-06    15.5606   1.0925   181.8881
 44      0.0000     0.0000E+00    0.0000E+00    5.088000E+08  0.02000  5.028E-04    0   0.6449   age130_m62            0.0000     6.4839E-06    15.2967   0.7528   183.1397
 45      0.0000     0.0000E+00    0.0000E+00    9.047900E+08  0.02000  2.428E-04    0   0.6179   age135_m62            0.0000     6.3295E-06    15.2470   0.1909   180.4326
 46      0.0000     0.0000E+00    0.0000E+00    1.434000E+09  0.02000  1.263E-04    0   0.5908   age139_m62            0.0000     6.2852E-06    15.1091  -0.2550   177.8047
 47      0.0000     0.0000E+00    0.0000E+00    2.500000E+09  0.02000  5.985E-05    0   0.5673   age150_m62            0.0000     6.2298E-06    14.8219  -0.6207   175.0500
 48      0.0000     0.0000E+00    0.0000E+00    4.250000E+09  0.02000  3.271E-05    0   0.5468   age158_m62            0.0000     6.2932E-06    14.7345  -0.9041   171.8745
 49      0.0000     0.0000E+00    0.0000E+00    1.000000E+10  0.02000  1.360E-05    0   0.5167   age181_m62            0.0000     6.6482E-06    15.8551  -1.0000   155.9894
 50      0.0000     0.0000E+00    0.0000E+00    1.800000E+10  0.02000  7.124E-06    0   0.5013   age213_m62            0.0000     7.3268E-06    17.1848  -1.0000   142.8963
 51      0.0000     0.0000E+00    0.0000E+00    1.000000E+06  0.05000  2.592E-02    0   0.9998   age020_m72            0.0000     6.3728E-06    14.3168   2.5743   166.6847
 52      0.0000     0.0000E+00    0.0000E+00    3.160000E+06  0.05000  4.845E-02    0   0.9577   age045_m72            0.0000     6.3512E-06    14.3414   2.4323   168.3700
 53      0.0000     0.0000E+00    0.0000E+00    5.010000E+06  0.05000  3.072E-02    0   0.9147   age055_m72            0.0000     6.5860E-06    16.0672   1.9911   174.8386
 54      0.0000     0.0000E+00    0.0000E+00    6.610000E+06  0.05000  1.455E-02    0   0.8877   age061_m72            0.0000     7.7190E-06    20.6579   1.2652   188.1627
 55      0.0000     0.0000E+00    0.0000E+00    1.000000E+07  0.05000  9.074E-03    0   0.8524   age070_m72            0.0000     6.6876E-06    16.9124   2.1952   173.8454
 56      0.0000     0.0000E+00    0.0000E+00    2.512000E+07  0.05000  4.250E-03    0   0.7902   age090_m72            0.0000     6.6926E-06    16.7158   1.9129   175.0838
 57      0.0000     0.0000E+00    0.0000E+00    4.000000E+07  0.05000  3.087E-03    0   0.7618   age104_m72            0.0000     6.7665E-06    17.1103   1.7014   176.9638
 58      0.0000     0.0000E+00    0.0000E+00    1.015200E+08  0.05000  1.700E-03    0   0.7096   age116_m72            0.0000     6.6941E-06    16.0029   1.4561   179.0552
 59      0.0000     0.0000E+00    0.0000E+00    2.861200E+08  0.05000  7.384E-04    0   0.6633   age125_m72            0.0000     6.5064E-06    15.4725   0.9847   182.3675
 60      0.0000     0.0000E+00    0.0000E+00    5.088000E+08  0.05000  3.819E-04    0   0.6372   age130_m72            0.0000     6.3214E-06    15.1014   0.5162   183.0842
 61      0.0000     0.0000E+00    0.0000E+00    9.047900E+08  0.05000  1.676E-04    0   0.6110   age135_m72            0.0000     6.1851E-06    14.6896  -0.1703   178.7882
 62      0.0000     0.0000E+00    0.0000E+00    1.434000E+09  0.05000  8.837E-05    0   0.5874   age139_m72            0.0000     6.2628E-06    15.0142  -0.6030   176.6261
 63      0.0000     0.0000E+00    0.0000E+00    2.500000E+09  0.05000  4.233E-05    0   0.5598   age150_m72            0.0000     6.2718E-06    14.7861  -0.8998   173.1773
 64      0.0000     0.0000E+00    0.0000E+00    6.250000E+09  0.05000  1.435E-05    0   0.5249   age166_m72            0.0000     6.9048E-06    16.5874  -1.0000   150.0612
 65      0.0000     0.0000E+00    0.0000E+00    1.300000E+10  0.05000  6.513E-06    0   0.5036   age193_m72            0.0000     8.1707E-06    18.5465  -1.0000   135.6218
 66      0.0000     0.0000E+00    0.0000E+00    1.800000E+10  0.05000  4.527E-06    0   0.4945   age213_m72            0.0000     9.1457E-06    19.8119  -1.0000   126.7365


## Synthesis Results - Average & Chains ##

# j      x_j: min, <> & last-chain-values for 1 ...  7 chains
  1    130.0000     97.1387    103.4347    112.4637    105.4375    107.2698     98.0403    101.3952    105.1633
  2      0.0000      0.1761      0.0097      0.0650      0.0360      0.0413      0.3046      0.1208      0.0000
  3      0.0000      0.1976      0.0355      0.0000      0.0438      0.0689      0.5268      0.0920      0.0038
  4      0.0000      0.1939      0.0043      0.0239      0.0365      0.0518      0.1814      0.0000      0.0000
  5      0.0000      0.1468      0.0170      0.0036      0.0000      0.0393      0.1400      0.1236      0.0754
  6      0.0000      0.2060      0.0000      0.0000      0.0631      0.0052      0.0000      0.2695      0.0000
  7      0.0000      0.1982      0.0143      0.0936      0.0186      0.0032      0.2106      0.1176      0.0440
  8      0.0000      0.2045      0.0091      0.0000      0.0595      0.0000      0.0000      0.1177      0.0142
  9      0.0000      0.1733      0.0283      0.0120      0.0058      0.0586      0.1560      0.1130      0.0462
 10      0.0000      0.2463      0.0111      0.0137      0.0209      0.0225      0.3446      0.2974      0.0282
 11      0.0000      0.2091      0.0000      0.0064      0.0055      0.0785      0.0550      0.3010      0.0156
 12      0.0000      0.1598      0.0000      0.0000      0.0242      0.0204      0.0789      0.1147      0.0109
 13      0.0000      0.2104      0.0000      0.0137      0.0000      0.0000      0.0000      0.0103      0.0000
 14      0.0000      0.1479      0.0000      0.0003      0.0379      0.0363      0.2559      0.1016      0.1202
 15      0.0000      0.1873      0.0002      0.0140      0.0215      0.0108      0.0000      0.0000      0.0000
 16      0.0000      0.1948      0.0000      0.0056      0.0031      0.0505      0.1860      0.0566      0.0000
 17      0.0000      0.7189      0.0000      0.6201      0.6041      0.5037      0.5027      0.6570      0.6273
 18      0.0000     14.6103     19.2123      8.9449     16.0625     14.9714     14.7689     15.0032     17.0209
 19      0.0000      0.1567      0.0211      0.0157      0.0785      0.0277      0.0899      0.2440      0.0227
 20      0.0000      0.1924      0.0253      0.0612      0.0230      0.1105      0.3282      0.0000      0.0000
 21      0.0000      0.1835      0.0000      0.0379      0.0707      0.0100      0.1194      0.1982      0.0207
 22      0.0000      0.1859      0.0059      0.0000      0.0000      0.0000      0.6059      0.2011      0.1267
 23      0.0000      0.1929      0.0000      0.0233      0.0151      0.0135      0.8098      0.0638      0.0000
 24      0.0000      0.1843      0.0233      0.0864      0.0325      0.0444      0.2884      0.0000      0.1186
 25      0.0000      0.1711      0.0000      0.0000      0.0273      0.0174      0.0411      0.0682      0.0000
 26      0.0000      0.1363      0.0042      0.0000      0.0605      0.0417      0.8102      0.1224      0.0042
 27      0.0000      0.1857      0.0000      0.0431      0.0265      0.0052      0.1615      0.1832      0.0086
 28      0.0000      0.1528      0.0079      0.0265      0.0181      0.0515      0.2839      0.0000      0.0528
 29      0.0000      0.2196      0.0193      0.0069      0.0073      0.0133      0.0000      0.3074      0.0182
 30      0.0000      0.2170      0.0019      0.0000      0.0286      0.0011      0.3988      0.4599      0.0075
 31      0.0000      0.2399      0.0194      0.0104      0.0000      0.0372      0.5686      0.8143      0.0066
 32      0.0000      0.1811      0.0310      0.0069      0.0074      0.0200      0.2636      0.1184      0.0000
 33      0.0000      1.1151      0.6398      1.6157      1.4405      1.5154      1.0162      0.7118      1.3649
 34      0.0000      2.0272      2.6576      2.3381      2.3758      2.3451      0.1874      0.9711      2.3430
 35      0.0000      0.1548      0.0699      0.0585      0.0232      0.0095      0.5300      0.0000      0.0271
 36      0.0000      0.2047      0.0619      0.0721      0.0195      0.0039      0.0000      0.0726      0.0555
 37      0.0000      0.2257      0.0086      0.1495      0.1629      0.0338      0.0000      0.0697      0.0596
 38      0.0000      0.1917      0.0102      0.0000      0.0137      0.0133      0.3667      0.1428      0.0385
 39      0.0000      0.2676      0.0000      0.0175      0.0377      0.0176      0.0887      0.0484      0.0102
 40      0.0000      0.1747      0.0000      0.0000      0.0000      0.0232      0.0000      0.0000      0.0572
 41      0.0000      0.1573      0.0232      0.0374      0.0103      0.0087      0.4371      0.0000      0.0235
 42      0.0000      0.1976      0.0304      0.0503      0.0715      0.0000      0.2150      0.1481      0.0175
 43      0.0000      0.1670      0.0105      0.0000      0.0033      0.0687      0.6600      0.0000      0.0356
 44      0.0000      0.1616      0.0000      0.0596      0.0155      0.0102      0.3887      0.0439      0.0000
 45      0.0000      0.1132      0.0328      0.0577      0.0077      0.0000      0.0000      0.4024      0.0077
 46      0.0000      0.1884      0.0000      0.0360      0.0554      0.0000      0.2288      0.1115      0.0000
 47      0.0000      0.2029      0.0000      0.0902      0.0003      0.0687      0.0521      0.2751      0.0038
 48      0.0000      0.2057      0.0000      0.0679      0.0000      0.0122      0.3247      0.2738      0.0000
 49      0.0000      0.1956      0.0066      0.0399      0.0313      0.0082      0.0465      0.3008      0.0095
 50      0.0000      0.2185      0.0112      0.0025      0.0000      0.0204      0.3861      0.0696      0.0089
 51      0.0000      0.2822      0.0366      0.1483      0.0112      0.0423      0.0000      0.4120      0.1855
 52      0.0000      0.1887      0.0166      0.0000      0.0058      0.0000      0.4536      0.0000      0.0749
 53      0.0000      0.1881      0.0000      0.0250      0.0130      0.0603      0.0000      0.0000      0.0721
 54      0.0000      0.1829      0.0000      0.0448      0.0000      0.0088      0.1741      0.1522      0.0000
 55      0.0000      0.2294      0.0299      0.0095      0.0264      0.0000      0.4916      0.1096      0.0133
 56      0.0000      0.1680      0.0472      0.0130      0.0759      0.0223      0.0000      0.0682      0.0046
 57      0.0000      0.2170      0.0115      0.0000      0.0000      0.0622      0.3643      0.7396      0.0208
 58      0.0000      0.1776      0.0032      0.0000      0.0000      0.0108      0.0845      0.0000      0.0219
 59      0.0000      0.2004      0.0000      0.0182      0.0000      0.0233      0.0019      0.2235      0.0192
 60      0.0000      0.1763      0.0363      0.0111      0.0092      0.0040      0.0000      0.0828      0.0315
 61      0.0000      0.2186      0.0105      0.0190      0.0000      0.0233      0.0000      0.2534      0.0577
 62      0.0000      0.2103      0.0000      0.0428      0.0275      0.0092      0.1145      0.0000      0.0000
 63      0.0000      0.2405      0.0000      0.0287      0.0680      0.0356      0.3480      0.0000      0.0000
 64      0.0000      0.2261      0.0000      0.0114      0.0000      0.0005      0.2170      0.1465      0.0231
 65      0.0000      0.2197      0.0000      0.0181      0.0246      0.0079      0.0000      0.4279      0.1155
 66      0.0000      2.6850      3.3085      2.2830      2.5827      1.9023      2.1298      2.0267      1.7407

# j      m_j: min, <> & last-chain-values for 1 ...  7 chains
  1  1.0000E+02  1.6117E+00  1.7754E+00  2.2045E+00  1.9583E+00  2.3520E+00  2.3578E+00  2.2411E+00  2.3831E+00
  2  0.0000E+00  7.9744E-04  4.5454E-05  3.4804E-04  1.8241E-04  2.4724E-04  1.9998E-03  7.2917E-04  0.0000E+00
  3  0.0000E+00  1.3402E-03  2.4915E-04  0.0000E+00  3.3281E-04  6.1795E-04  5.1797E-03  8.3155E-04  3.5332E-05
  4  0.0000E+00  1.2383E-03  2.8430E-05  1.8063E-04  2.6126E-04  4.3719E-04  1.6794E-03  0.0000E+00  0.0000E+00
  5  0.0000E+00  1.7858E-03  2.1432E-04  5.1921E-05  0.0000E+00  6.3138E-04  2.4699E-03  2.0030E-03  1.2523E-03
  6  0.0000E+00  4.0654E-03  0.0000E+00  0.0000E+00  1.3932E-03  1.3452E-04  0.0000E+00  7.0855E-03  0.0000E+00
  7  0.0000E+00  5.5988E-03  4.1797E-04  3.1252E-03  5.8960E-04  1.2036E-04  8.6254E-03  4.4270E-03  1.6997E-03
  8  0.0000E+00  7.9874E-03  3.6847E-04  0.0000E+00  2.6011E-03  0.0000E+00  0.0000E+00  6.1222E-03  7.5524E-04
  9  0.0000E+00  7.7457E-03  1.3100E-03  6.3549E-04  2.8951E-04  3.4623E-03  1.0104E-02  6.7287E-03  2.8231E-03
 10  0.0000E+00  1.4461E-02  6.7434E-04  9.5160E-04  1.3755E-03  1.7429E-03  2.9327E-02  2.3265E-02  2.2648E-03
 11  0.0000E+00  2.3088E-02  0.0000E+00  8.3817E-04  6.7848E-04  1.1454E-02  8.7978E-03  4.4269E-02  2.3541E-03
 12  0.0000E+00  2.7981E-02  0.0000E+00  0.0000E+00  4.7468E-03  4.7233E-03  2.0040E-02  2.6762E-02  2.6115E-03
 13  0.0000E+00  1.0386E-01  0.0000E+00  7.9910E-03  0.0000E+00  0.0000E+00  0.0000E+00  6.8040E-03  0.0000E+00
 14  0.0000E+00  2.4481E-01  0.0000E+00  6.5844E-04  7.0219E-02  7.9518E-02  6.1407E-01  2.2418E-01  2.7176E-01
 15  0.0000E+00  5.0490E-01  4.9527E-04  4.4516E-02  6.4862E-02  3.8585E-02  0.0000E+00  0.0000E+00  0.0000E+00
 16  0.0000E+00  8.8766E-01  0.0000E+00  3.0035E-02  1.6018E-02  3.0388E-01  1.2284E+00  3.4380E-01  0.0000E+00
 17  0.0000E+00  4.2501E+00  0.0000E+00  4.3313E+00  3.9977E+00  3.9356E+00  4.3073E+00  5.1744E+00  5.0653E+00
 18  0.0000E+00  2.1421E-01  2.9140E-01  1.5494E-01  2.6363E-01  2.9008E-01  3.1386E-01  2.9304E-01  3.4084E-01
 19  0.0000E+00  9.2233E-04  1.2829E-04  1.0935E-04  5.1689E-04  2.1548E-04  7.6706E-04  1.9129E-03  1.8279E-04
 20  0.0000E+00  1.2359E-03  1.6785E-04  4.6454E-04  1.6526E-04  9.3808E-04  3.0559E-03  0.0000E+00  0.0000E+00
 21  0.0000E+00  1.4306E-03  0.0000E+00  3.4879E-04  6.1730E-04  1.0263E-04  1.3492E-03  2.0595E-03  2.2008E-04
 22  0.0000E+00  2.4518E-03  8.0825E-05  0.0000E+00  0.0000E+00  0.0000E+00  1.1582E-02  3.5334E-03  2.2827E-03
 23  0.0000E+00  3.4353E-03  0.0000E+00  4.9036E-04  3.0111E-04  3.1715E-04  2.0902E-02  1.5140E-03  0.0000E+00
 24  0.0000E+00  4.8832E-03  6.3892E-04  2.7057E-03  9.6237E-04  1.5561E-03  1.1077E-02  0.0000E+00  4.2899E-03
 25  0.0000E+00  6.2496E-03  0.0000E+00  0.0000E+00  1.1158E-03  8.4087E-04  2.1757E-03  3.3208E-03  0.0000E+00
 26  0.0000E+00  8.3231E-03  2.6622E-04  0.0000E+00  4.1372E-03  3.3689E-03  7.1712E-02  9.9549E-03  3.5103E-04
 27  0.0000E+00  2.2695E-02  0.0000E+00  6.2274E-03  3.6213E-03  8.4435E-04  2.8603E-02  2.9826E-02  1.4395E-03
 28  0.0000E+00  5.4194E-02  2.9064E-03  1.1088E-02  7.1920E-03  2.4141E-02  1.4595E-01  0.0000E+00  2.5558E-02
 29  0.0000E+00  1.3569E-01  1.2318E-02  5.0477E-03  5.0375E-03  1.0822E-02  0.0000E+00  2.5312E-01  1.5329E-02
 30  0.0000E+00  2.8016E-01  2.5134E-03  0.0000E+00  4.1376E-02  1.8640E-03  7.4648E-01  7.9105E-01  1.3280E-02
 31  0.0000E+00  5.4491E-01  4.5661E-02  2.7921E-02  0.0000E+00  1.1173E-01  1.8721E+00  2.4638E+00  2.0440E-02
 32  0.0000E+00  5.5362E-01  9.8043E-02  2.5030E-02  2.5315E-02  8.0741E-02  1.1675E+00  4.8219E-01  0.0000E+00
 33  0.0000E+00  7.5442E+00  4.4780E+00  1.2914E+01  1.0910E+01  1.3549E+01  9.9657E+00  6.4150E+00  1.2612E+01
 34  0.0000E+00  1.8573E+01  2.5189E+01  2.5308E+01  2.4367E+01  2.8393E+01  2.4889E+00  1.1853E+01  2.9318E+01
 35  0.0000E+00  1.8196E-03  8.4978E-04  8.1227E-04  3.0572E-04  1.4775E-04  9.0319E-03  0.0000E+00  4.3551E-04
 36  0.0000E+00  9.7364E-04  3.0456E-04  4.0522E-04  1.0399E-04  2.4461E-05  0.0000E+00  4.5993E-04  3.6031E-04
 37  0.0000E+00  1.1612E-03  4.5922E-05  9.0878E-04  9.3836E-04  2.2969E-04  0.0000E+00  4.7781E-04  4.1846E-04
 38  0.0000E+00  2.6723E-03  1.4690E-04  0.0000E+00  2.1351E-04  2.4569E-04  7.4073E-03  2.6522E-03  7.3375E-04
 39  0.0000E+00  5.3690E-03  0.0000E+00  4.1559E-04  8.4783E-04  4.6637E-04  2.5809E-03  1.2948E-03  2.8018E-04
 40  0.0000E+00  5.6652E-03  0.0000E+00  0.0000E+00  0.0000E+00  9.9560E-04  0.0000E+00  0.0000E+00  2.5337E-03
 41  0.0000E+00  7.9347E-03  1.2098E-03  2.2275E-03  5.8179E-04  5.8230E-04  3.1960E-02  0.0000E+00  1.6195E-03
 42  0.0000E+00  1.8303E-02  2.9128E-03  5.4998E-03  7.4098E-03  0.0000E+00  2.8868E-02  1.8273E-02  2.2147E-03
 43  0.0000E+00  2.2582E-02  1.4693E-03  0.0000E+00  4.9398E-04  1.2277E-02  1.2934E-01  0.0000E+00  6.5734E-03
 44  0.0000E+00  3.7612E-02  0.0000E+00  1.6394E-02  4.0353E-03  3.1461E-03  1.3117E-01  1.3609E-02  0.0000E+00
 45  0.0000E+00  5.2282E-02  1.5654E-02  3.1499E-02  3.9764E-03  0.0000E+00  0.0000E+00  2.4763E-01  4.8761E-03
 46  0.0000E+00  1.6000E-01  0.0000E+00  3.6063E-02  5.2648E-02  0.0000E+00  2.8157E-01  1.2616E-01  0.0000E+00
 47  0.0000E+00  3.4908E-01  0.0000E+00  1.8327E-01  6.3951E-04  1.5624E-01  1.2993E-01  6.3056E-01  8.9974E-03
 48  0.0000E+00  6.2421E-01  0.0000E+00  2.4355E-01  0.0000E+00  4.8757E-02  1.4282E+00  1.1067E+00  0.0000E+00
 49  0.0000E+00  1.3490E+00  4.7024E-02  3.2498E-01  2.4135E-01  7.4669E-02  4.6507E-01  2.7636E+00  8.9027E-02
 50  0.0000E+00  2.7910E+00  1.4738E-01  3.7941E-02  0.0000E+00  3.4389E-01  7.1489E+00  1.1842E+00  1.5519E-01
 51  0.0000E+00  1.9761E-03  2.6492E-04  1.2266E-03  8.7753E-05  3.9137E-04  0.0000E+00  3.8431E-03  1.7740E-03
 52  0.0000E+00  6.7704E-04  6.1704E-05  0.0000E+00  2.3307E-05  0.0000E+00  2.3588E-03  0.0000E+00  3.6722E-04
 53  0.0000E+00  1.0168E-03  0.0000E+00  1.5938E-04  7.8368E-05  4.3063E-04  0.0000E+00  0.0000E+00  5.3252E-04
 54  0.0000E+00  2.0251E-03  0.0000E+00  5.8612E-04  0.0000E+00  1.2860E-04  2.7946E-03  2.2454E-03  0.0000E+00
 55  0.0000E+00  3.9117E-03  5.2772E-04  1.9222E-04  5.0330E-04  0.0000E+00  1.2150E-02  2.4901E-03  3.0968E-04
 56  0.0000E+00  5.6706E-03  1.6488E-03  5.1785E-04  2.8661E-03  9.9236E-04  0.0000E+00  3.0657E-03  2.1199E-04
 57  0.0000E+00  9.7198E-03  5.3517E-04  0.0000E+00  0.0000E+00  3.6794E-03  2.3654E-02  4.4135E-02  1.2723E-03
 58  0.0000E+00  1.3456E-02  2.5408E-04  0.0000E+00  0.0000E+00  1.0853E-03  9.2768E-03  0.0000E+00  2.2650E-03
 59  0.0000E+00  3.2673E-02  0.0000E+00  3.5092E-03  0.0000E+00  5.0285E-03  4.4897E-04  4.8551E-02  4.2720E-03
 60  0.0000E+00  5.3387E-02  1.1364E-02  3.9811E-03  3.1233E-03  1.6078E-03  0.0000E+00  3.3415E-02  1.3026E-02
 61  0.0000E+00  1.4462E-01  7.2044E-03  1.4889E-02  0.0000E+00  2.0370E-02  0.0000E+00  2.2336E-01  5.2115E-02
 62  0.0000E+00  2.5376E-01  0.0000E+00  6.1066E-02  3.7138E-02  1.4686E-02  2.0020E-01  0.0000E+00  0.0000E+00
 63  0.0000E+00  5.7733E-01  0.0000E+00  8.1462E-02  1.8285E-01  1.1305E-01  1.2109E+00  0.0000E+00  0.0000E+00
 64  0.0000E+00  1.5009E+00  0.0000E+00  8.9615E-02  2.2191E-04  4.6321E-03  2.0884E+00  1.2960E+00  2.0984E-01
 65  0.0000E+00  3.0841E+00  0.0000E+00  3.0034E-01  3.8725E-01  1.4574E-01  0.0000E+00  8.0003E+00  2.2149E+00
 66  0.0000E+00  5.3235E+01  6.7861E+01  5.3477E+01  5.7322E+01  4.9844E+01  6.1208E+01  5.3531E+01  4.7137E+01

# AV, chi2 & Mass for <> & i_chain = 1 ...  7 solutions
AV       3.1117      2.5052      2.4908      2.4879      2.4753      2.5364      2.4961      2.4654      2.5509
chi2 7.9493E-06  1.0639E-05  9.1927E-06  9.1767E-06  9.1979E-06  9.0815E-06  9.1243E-06  9.1659E-06  9.0538E-06
Mass 3.7963E-14  7.7949E-13  7.3901E-13  6.4461E-13  6.6893E-13  6.1502E-13  5.3123E-13  5.5464E-13  6.0680E-13
-466.49                                  [v0_min (km/s) before EX0s...]
 169.21                                  [vd_min (km/s) before EX0s...]


## Synthetic spectrum (Best Model) ##l_obs f_obs f_syn wei
 3478    [Nl_obs]
 3741.00    1.35964   1.15767    0.000
 3742.00    1.15871   1.13800    0.000
 3743.00    0.92872   1.12220    0.000
 3744.00    0.50001   1.11392    0.000
 3745.00   -0.04448   1.11566    0.000
 3746.00    0.28133   1.12709   -1.000
 3747.00    1.04909   1.14503   -1.000
 3748.00    1.29324   1.16531   -1.000
 3749.00    1.30715   1.18472   -1.000
 3750.00    1.97868   1.20168   -1.000
 3751.00    2.89848   1.21543   -1.000
 3752.00    3.18381   1.22571   -1.000
 3753.00    3.26581   1.23285   -1.000
 3754.00    2.86196   1.23712   -1.000
 3755.00    2.32791   1.23887   -1.000
 3756.00    1.85081   1.23771   -1.000
 3757.00    1.38620   1.23215   -1.000
 3758.00    1.08618   1.22097   -1.000
 3759.00    0.81490   1.20376   -1.000
 3760.00    0.64276   1.18077   -1.000
 3761.00    0.48379   1.15340   -1.000
 3762.00    0.97368   1.12460   -1.000
 3763.00    1.52454   1.09895   -1.000
 3764.00    1.16025   1.08187   -1.000
 3765.00    0.74317   1.07783   -1.000
 3766.00    0.58105   1.08832   -1.000
 3767.00    0.43284   1.11065   -1.000
 3768.00    1.23832   1.13929   -1.000
 3769.00    2.00895   1.16895   -1.000
 3770.00    1.93288   1.19607   -1.000
 3771.00    1.84567   1.21888   -1.000
 3772.00    1.61249   1.23701   -1.000
 3773.00    1.40214   1.25091   -1.000
 3774.00    1.39220   1.26123   -1.000
 3775.00    1.35161   1.26860   -1.000
 3776.00    1.11232   1.27348   -1.000
 3777.00    0.90014   1.27629   -1.000
 3778.00    0.82512   1.27733   -1.000
 3779.00    0.74129   1.27676   -1.000
 3780.00    0.62137   1.27455   -1.000
 3781.00    0.58116   1.27044   -1.000
 3782.00    0.81128   1.26381   -1.000
 3783.00    1.14087   1.25405   -1.000
 3784.00    1.75496   1.24055   -1.000
 3785.00    1.97243   1.22259   -1.000
 3786.00    1.22084   1.19955   -1.000
 3787.00    0.47132   1.17112   -1.000
 3788.00   -0.27381   1.13787    0.000
 3789.00   -0.39472   1.10223    0.000
 3790.00    0.62775   1.06908   -1.000
 3791.00    1.37562   1.04494   -1.000
 3792.00    1.68389   1.03599   -1.000
 3793.00    1.86717   1.04520   -1.000
 3794.00    1.87488   1.07011   -1.000
 3795.00    1.79667   1.10412   -1.000
 3796.00    1.61226   1.14026   -1.000
 3797.00    1.33336   1.17364   -1.000
 3798.00    0.95150   1.20187   -1.000
 3799.00    0.79225   1.22453   -1.000
 3800.00    0.84691   1.24232   -1.000
 3801.00    0.75323   1.25628   -1.000
 3802.00    0.53387   1.26719   -1.000
 3803.00    0.24885   1.27549   -1.000
 3804.00   -0.08516   1.28156    0.000
 3805.00    0.18599   1.28574   -1.000
 3806.00    0.85384   1.28815   -1.000
 3807.00    1.23106   1.28863   -1.000
 3808.00    1.44152   1.28675   -1.000
 3809.00    1.52085   1.28177   -1.000
 3810.00    1.53465   1.27317   -1.000
 3811.00    1.35292   1.26148   -1.000
 3812.00    1.08664   1.24884   -1.000
 3813.00    1.41557   1.23889   -1.000
 3814.00    1.96523   1.23571   -1.000
 3815.00    2.62614   1.24045   -1.000
 3816.00    3.32202   1.24961   -1.000
 3817.00    3.02807   1.25817   -1.000
 3818.00    2.47446   1.26276   -1.000
 3819.00    1.81238   1.26194   -1.000
 3820.00    1.12705   1.25557   -1.000
 3821.00    0.87523   1.24378   -1.000
 3822.00    0.69698   1.22643   -1.000
 3823.00    0.44134   1.20297   -1.000
 3824.00    0.17577   1.17287   -1.000
 3825.00    0.45079   1.13623   -1.000
 3826.00    0.77432   1.09495   -1.000
 3827.00    1.27567   1.05359   -1.000
 3828.00    1.78658   1.01938   -1.000
 3829.00    1.40724   1.00044   -1.000
 3830.00    1.01945   1.00248   -1.000
 3831.00    1.42389   1.02501   -1.000
 3832.00    1.78803   1.06148   -1.000
 3833.00    1.25706   1.10349   -1.000
 3834.00    0.76425   1.14430   -1.000
 3835.00    0.74588   1.17997   -1.000
 3836.00    0.75253   1.20916   -1.000
 3837.00    0.97059   1.23218   -1.000
 3838.00    1.25224   1.25003   -1.000
 3839.00    1.93402   1.26378   -1.000
 3840.00    2.40537   1.27441   -1.000
 3841.00    1.83838   1.28269   -1.000
 3842.00    1.33145   1.28911   -1.000
 3843.00    1.06496   1.29408   -1.000
 3844.00    0.79545   1.29787   -1.000
 3845.00    0.51591   1.30061   -1.000
 3846.00    0.38036   1.30240   -1.000
 3847.00    0.64914   1.30331    0.000
 3848.00    0.99039   1.30347    0.000
 3849.00    1.50568   1.30308    0.000
 3850.00    1.86003   1.30261    0.000
 3851.00    1.88058   1.30249    0.000
 3852.00    1.75014   1.30297    0.000
 3853.00    1.34738   1.30394    0.000
 3854.00    1.31637   1.30516    0.000
 3855.00    1.87166   1.30630    0.000
 3856.00    1.81652   1.30696    0.000
 3857.00    0.91633   1.30678    0.000
 3858.00    0.17325   1.30549    0.000
 3859.00   -0.37838   1.30307    0.000
 3860.00   -0.34876   1.29987    0.000
 3861.00    0.30522   1.29667    0.000
 3862.00    0.88256   1.29454    0.000
 3863.00    1.38727   1.29331    0.000
 3864.00    1.95336   1.29206    0.000
 3865.00    2.57074   1.29058    0.000
 3866.00    2.37265   1.28937    0.000
 3867.00    1.57477   1.28860    0.000
 3868.00    1.27997   1.28758    0.000
 3869.00    1.31012   1.28550    0.000
 3870.00    1.32900   1.28183    0.000
 3871.00    1.34150   1.27631    0.000
 3872.00    1.58006   1.26868    0.000
 3873.00    1.92982   1.25863    0.000
 3874.00    1.94563   1.24556    0.000
 3875.00    1.81944   1.22853    0.000
 3876.00    1.66899   1.20640    0.000
 3877.00    1.50971   1.17788    0.000
 3878.00    1.95720   1.14214    0.000
 3879.00    2.59176   1.09961    0.000
 3880.00    2.01373   1.05339    0.000
 3881.00    1.12442   1.00990   -1.000
 3882.00    0.82959   0.97823   -1.000
 3883.00    0.65906   0.96719   -1.000
 3884.00    0.05855   0.98008   -1.000
 3885.00   -0.61286   1.01265    0.000
 3886.00   -0.49151   1.05630    0.000
 3887.00   -0.27199   1.10240    0.000
 3888.00    0.25767   1.14470   -1.000
 3889.00    0.81388   1.18012   -1.000
 3890.00    0.74009   1.20820   -1.000
 3891.00    0.63490   1.22991   -1.000
 3892.00    0.20447   1.24661   -1.000
 3893.00   -0.22871   1.25959    0.000
 3894.00   -0.49546   1.26986    0.000
 3895.00   -0.72891   1.27807    0.000
 3896.00   -0.28093   1.28469    0.000
 3897.00    0.16868   1.29004   -1.000
 3898.00    0.63777   1.29437   -1.000
 3899.00    1.05875   1.29787   -1.000
 3900.00    1.08781   1.30071   -1.000
 3901.00    1.15579   1.30301   -1.000
 3902.00    1.46137   1.30484   -1.000
 3903.00    1.68966   1.30621   -1.000
 3904.00    1.54598   1.30719   -1.000
 3905.00    1.50085   1.30789   -1.000
 3906.00    1.84169   1.30841   -1.000
 3907.00    2.06886   1.30871   -1.000
 3908.00    1.92558   1.30867   -1.000
 3909.00    1.68397   1.30805   -1.000
 3910.00    1.17122   1.30658   -1.000
 3911.00    0.92073   1.30404   -1.000
 3912.00    1.28958   1.30036   -1.000
 3913.00    1.72081   1.29569   -1.000
 3914.00    2.27936   1.29038   -1.000
 3915.00    2.32269   1.28488   -1.000
 3916.00    1.45089   1.27973   -1.000
 3917.00    0.86234   1.27566   -1.000
 3918.00    0.71388   1.27327   -1.000
 3919.00    0.69091   1.27305   -1.000
 3920.00    0.83918   1.27566   -1.000
 3921.00    0.38343   1.28099   -1.000
 3922.00   -0.79787   1.28769    0.000
 3923.00   -0.77697   1.29430    0.000
 3924.00    0.51715   1.29959   -1.000
 3925.00    0.83280   1.30299   -1.000
 3926.00    0.23437   1.30467   -1.000
 3927.00   -0.36367   1.30535    0.000
 3928.00   -0.96138   1.30585    0.000
 3929.00   -0.84417   1.30667    0.000
 3930.00   -0.20869   1.30791    0.000
 3931.00    0.28069   1.30937   -1.000
 3932.00    0.67709   1.31074   -1.000
 3933.00    0.95582   1.31177   -1.000
 3934.00    1.16906   1.31234   -1.000
 3935.00    1.44153   1.31243   -1.000
 3936.00    1.74266   1.31210   -1.000
 3937.00    2.17005   1.31146   -1.000
 3938.00    2.65023   1.31068   -1.000
 3939.00    2.45623   1.30984   -1.000
 3940.00    2.02108   1.30890   -1.000
 3941.00    1.87827   1.30783   -1.000
 3942.00    1.82382   1.30660   -1.000
 3943.00    1.99765   1.30515   -1.000
 3944.00    2.22883   1.30341   -1.000
 3945.00    2.12083   1.30131   -1.000
 3946.00    1.94367   1.29880   -1.000
 3947.00    2.10780   1.29586   -1.000
 3948.00    2.32658   1.29247   -1.000
 3949.00    1.81189   1.28851   -1.000
 3950.00    1.20962   1.28371   -1.000
 3951.00    0.40496   1.27771   -1.000
 3952.00   -0.41617   1.26997    0.000
 3953.00   -0.48049   1.25993    0.000
 3954.00   -0.51002   1.24699    0.000
 3955.00    0.11612   1.23049   -1.000
 3956.00    0.75859   1.20957   -1.000
 3957.00    1.81728   1.18352   -1.000
 3958.00    2.82605   1.15183   -1.000
 3959.00    2.88900   1.11404   -1.000
 3960.00    2.82015   1.07062    0.000
 3961.00    1.26586   1.02465    0.000
 3962.00   -0.14504   0.98307    0.000
 3963.00   -0.42887   0.95541    0.000
 3964.00   -0.34310   0.94918    0.000
 3965.00    1.93570   0.96599    0.000
 3966.00    3.50518   1.00149    0.000
 3967.00    1.74420   1.04747    0.000
 3968.00    0.41877   1.09531    0.000
 3969.00    0.76251   1.13875    0.000
 3970.00    1.25017   1.17489    0.000
 3971.00    2.19786   1.20343    0.000
 3972.00    2.60705   1.22547    0.000
 3973.00    1.55781   1.24238    0.000
 3974.00    0.90069   1.25544    0.000
 3975.00    1.15406   1.26566    0.000
 3976.00    1.42232   1.27377    0.000
 3977.00    1.72049   1.28036    0.000
 3978.00    1.87521   1.28579    0.000
 3979.00    1.77902   1.29029    0.000
 3980.00    1.97142   1.29404    0.000
 3981.00    2.60565   1.29718   -1.000
 3982.00    2.81135   1.29981   -1.000
 3983.00    2.44075   1.30200   -1.000
 3984.00    2.19827   1.30382   -1.000
 3985.00    2.10752   1.30530   -1.000
 3986.00    2.08065   1.30647   -1.000
 3987.00    2.12049   1.30740   -1.000
 3988.00    2.45715   1.30816   -1.000
 3989.00    3.06721   1.30881   -1.000
 3990.00    2.86635   1.30938   -1.000
 3991.00    2.00711   1.30985   -1.000
 3992.00    1.65888   1.31019   -1.000
 3993.00    1.67575   1.31032   -1.000
 3994.00    1.51135   1.31019   -1.000
 3995.00    1.23330   1.30974   -1.000
 3996.00    1.39971   1.30893   -1.000
 3997.00    1.80969   1.30764   -1.000
 3998.00    2.10400   1.30569   -1.000
 3999.00    2.34321   1.30295   -1.000
 4000.00    1.93649   1.29956   -1.000
 4001.00    1.26428   1.29613   -1.000
 4002.00    1.44580   1.29362   -1.000
 4003.00    1.92716   1.29284   -1.000
 4004.00    1.89138   1.29403   -1.000
 4005.00    1.70236   1.29678   -1.000
 4006.00    1.95562   1.30022   -1.000
 4007.00    2.31752   1.30341   -1.000
 4008.00    2.78286   1.30569   -1.000
 4009.00    3.26877   1.30677   -1.000
 4010.00    2.91307   1.30653   -1.000
 4011.00    2.42659   1.30485   -1.000
 4012.00    1.52536   1.30132   -1.000
 4013.00    0.57644   1.29511   -1.000
 4014.00    0.65088   1.28503   -1.000
 4015.00    0.80444   1.26988   -1.000
 4016.00    0.32764   1.24936   -1.000
 4017.00   -0.17570   1.22560    0.000
 4018.00    0.68132   1.20373   -1.000
 4019.00    1.54579   1.18978   -1.000
 4020.00    2.19188   1.18795   -1.000
 4021.00    2.74289   1.19886   -1.000
 4022.00    1.61734   1.21911   -1.000
 4023.00    0.63975   1.24302   -1.000
 4024.00    1.25410   1.26529   -1.000
 4025.00    1.80458   1.28293   -1.000
 4026.00    1.87026   1.29536   -1.000
 4027.00    1.99365   1.30352   -1.000
 4028.00    2.44990   1.30872   -1.000
 4029.00    2.74052   1.31206   -1.000
 4030.00    2.27213   1.31426   -1.000
 4031.00    2.01432   1.31572   -1.000
 4032.00    2.54639   1.31670   -1.000
 4033.00    2.81372   1.31734   -1.000
 4034.00    2.25108   1.31776   -1.000
 4035.00    1.75363   1.31805   -1.000
 4036.00    1.42961   1.31824   -1.000
 4037.00    1.07338   1.31840   -1.000
 4038.00    0.64358   1.31856   -1.000
 4039.00    0.21238   1.31873   -1.000
 4040.00   -0.22159   1.31895    0.000
 4041.00   -0.12778   1.31923    0.000
 4042.00    0.87526   1.31953   -1.000
 4043.00    1.46783   1.31983   -1.000
 4044.00    1.44121   1.32007   -1.000
 4045.00    1.00000   1.32024   -1.000
 4046.00    0.00923   1.32037   -1.000
 4047.00   -0.39765   1.32054    0.000
 4048.00   -0.12284   1.32084    0.000
 4049.00    0.26183   1.32123   -1.000
 4050.00    0.75961   1.32156   -1.000
 4051.00    0.97389   1.32165   -1.000
 4052.00    0.93073   1.32136   -1.000
 4053.00    0.73454   1.32072   -1.000
 4054.00    0.41587   1.31989   -1.000
 4055.00    0.71273   1.31910   -1.000
 4056.00    1.44301   1.31841   -1.000
 4057.00    1.36702   1.31772   -1.000
 4058.00    0.79299   1.31673   -1.000
 4059.00    0.63670   1.31517   -1.000
 4060.00    0.70581   1.31294   -1.000
 4061.00    1.40050   1.31030   -1.000
 4062.00    2.38839   1.30777   -1.000
 4063.00    2.20466   1.30597   -1.000
 4064.00    1.54759   1.30526   -1.000
 4065.00    1.48750   1.30555   -1.000
 4066.00    1.63325   1.30639   -1.000
 4067.00    2.14702   1.30725   -1.000
 4068.00    2.76764   1.30782   -1.000
 4069.00    1.84114   1.30812   -1.000
 4070.00    0.54302   1.30833   -1.000
 4071.00    0.06324   1.30858   -1.000
 4072.00   -0.25798   1.30879    0.000
 4073.00    0.78089   1.30872   -1.000
 4074.00    2.02470   1.30813   -1.000
 4075.00    1.48376   1.30687   -1.000
 4076.00    0.74540   1.30491   -1.000
 4077.00    0.41470   1.30223   -1.000
 4078.00    0.11385   1.29880   -1.000
 4079.00    0.57487   1.29460   -1.000
 4080.00    1.06506   1.28965   -1.000
 4081.00    1.57457   1.28405   -1.000
 4082.00    2.05517   1.27796   -1.000
 4083.00    1.44245   1.27134   -1.000
 4084.00    0.87035   1.26381   -1.000
 4085.00    0.96762   1.25454   -1.000
 4086.00    1.13255   1.24246   -1.000
 4087.00    1.99360   1.22631   -1.000
 4088.00    2.63854   1.20477   -1.000
 4089.00    1.69754   1.17650   -1.000
 4090.00    0.90821   1.14055   -1.000
 4091.00    0.96980   1.09735   -1.000
 4092.00    1.17497   1.04982    0.000
 4093.00    2.02271   1.00400    0.000
 4094.00    2.62927   0.96832    0.000
 4095.00    2.35004   0.95099    0.000
 4096.00    2.14068   0.95660    0.000
 4097.00    2.14618   0.98387    0.000
 4098.00    2.07667   1.02619    0.000
 4099.00    1.81110   1.07470    0.000
 4100.00    1.65007   1.12158    0.000
 4101.00    1.72381   1.16212    0.000
 4102.00    1.63127   1.19477    0.000
 4103.00    1.21515   1.22008    0.000
 4104.00    0.90958   1.23941    0.000
 4105.00    0.79160   1.25415    0.000
 4106.00    0.80009   1.26538    0.000
 4107.00    0.99655   1.27389    0.000
 4108.00    1.27189   1.28021    0.000
 4109.00    1.65028   1.28468    0.000
 4110.00    1.64662   1.28752    0.000
 4111.00    1.20320   1.28895    0.000
 4112.00    1.08797   1.28944    0.000
 4113.00    1.30589   1.28987    0.041
 4114.00    1.30485   1.29133   -1.000
 4115.00    1.10779   1.29451   -1.000
 4116.00    0.80602   1.29926   -1.000
 4117.00    0.42165   1.30469   -1.000
 4118.00    0.06473   1.30969   -1.000
 4119.00   -0.27315   1.31352    0.000
 4120.00    0.23722   1.31605    0.030
 4121.00    1.26375   1.31755    0.012
 4122.00    1.37853   1.31847    0.010
 4123.00    1.00894   1.31916    0.010
 4124.00    1.18755   1.31988    0.010
 4125.00    1.61892   1.32072    0.011
 4126.00    2.08383   1.32168    0.010
 4127.00    2.56206   1.32267    0.010
 4128.00    2.04157   1.32353    0.010
 4129.00    1.18308   1.32403    0.010
 4130.00    0.98438   1.32390    0.010
 4131.00    0.97342   1.32280    0.010
 4132.00    1.39876   1.32028    0.010
 4133.00    1.92653   1.31599    0.010
 4134.00    1.41074   1.31006    0.010
 4135.00    0.69797   1.30338    0.010
 4136.00    1.04146   1.29765    0.010
 4137.00    1.53920   1.29477    0.010
 4138.00    1.55934   1.29585    0.010
 4139.00    1.52874   1.30061    0.010
 4140.00    1.01817   1.30752    0.010
 4141.00    0.47439   1.31466    0.010
 4142.00    1.44777   1.32061    0.010
 4143.00    2.47347   1.32483    0.010
 4144.00    2.46662   1.32747    0.010
 4145.00    2.44443   1.32902    0.010
 4146.00    1.98328   1.32998    0.010
 4147.00    1.56165   1.33070    0.010
 4148.00    1.75110   1.33137    0.010
 4149.00    1.89570   1.33204    0.010
 4150.00    1.59822   1.33270    0.010
 4151.00    1.31197   1.33328    0.010
 4152.00    1.10536   1.33377    0.010
 4153.00    1.04905   1.33413    0.010
 4154.00    1.81321   1.33438    0.010
 4155.00    2.31238   1.33454    0.010
 4156.00    1.65333   1.33459    0.010
 4157.00    1.10979   1.33451    0.010
 4158.00    0.98174   1.33420    0.010
 4159.00    0.89038   1.33362    0.010
 4160.00    0.90971   1.33283    0.010
 4161.00    0.96002   1.33205    0.010
 4162.00    1.08987   1.33159    0.010
 4163.00    1.27982   1.33169    0.010
 4164.00    1.60254   1.33236    0.010
 4165.00    1.75437   1.33340    0.010
 4166.00    1.57884   1.33453    0.010
 4167.00    1.56107   1.33551    0.010
 4168.00    1.80697   1.33625    0.010
 4169.00    2.06516   1.33678    0.010
 4170.00    2.34134   1.33717    0.010
 4171.00    2.27701   1.33747    0.010
 4172.00    1.77409   1.33773    0.010
 4173.00    1.42814   1.33795    0.010
 4174.00    1.26031   1.33810    0.010
 4175.00    1.05887   1.33817    0.010
 4176.00    0.82378   1.33812    0.010
 4177.00    1.01601   1.33795    0.010
 4178.00    1.58544   1.33768    0.010
 4179.00    1.66513   1.33734    0.010
 4180.00    1.36393   1.33694    0.010
 4181.00    1.58859   1.33649    0.010
 4182.00    2.17288   1.33594    0.010
 4183.00    1.77880   1.33519    0.010
 4184.00    0.79828   1.33406    0.010
 4185.00    0.68689   1.33219    0.010
 4186.00    1.03006   1.32906    0.010
 4187.00    1.36284   1.32403    0.010
 4188.00    1.69089   1.31655    0.010
 4189.00    1.81212   1.30645    0.010
 4190.00    1.85264   1.29444    0.010
 4191.00    1.79184   1.28230    0.010
 4192.00    1.69739   1.27263    0.010
 4193.00    1.16464   1.26801    0.010
 4194.00    0.50973   1.26981    0.010
 4195.00    1.10128   1.27756    0.010
 4196.00    1.97880   1.28920    0.010
 4197.00    1.76075   1.30204    0.010
 4198.00    1.34136   1.31382    0.010
 4199.00    0.93056   1.32330    0.010
 4200.00    0.52098   1.33025    0.010
 4201.00    1.61723   1.33499    0.010
 4202.00    2.86702   1.33808    0.009
 4203.00    1.81419   1.34005    0.009
 4204.00    0.61135   1.34133    0.009
 4205.00    0.76499   1.34224    0.009
 4206.00    0.96128   1.34301    0.009
 4207.00    1.78134   1.34377    0.009
 4208.00    2.56786   1.34454    0.010
 4209.00    2.36895   1.34528    0.009
 4210.00    2.17051   1.34595    0.009
 4211.00    1.97892   1.34652    0.009
 4212.00    1.82007   1.34700    0.009
 4213.00    1.97093   1.34737    0.009
 4214.00    2.05229   1.34766    0.009
 4215.00    1.65593   1.34788    0.009
 4216.00    1.38597   1.34804    0.009
 4217.00    1.78783   1.34818    0.009
 4218.00    2.05254   1.34831    0.009
 4219.00    1.73150   1.34848    0.009
 4220.00    1.52947   1.34869    0.009
 4221.00    1.74678   1.34897    0.009
 4222.00    1.93122   1.34928    0.009
 4223.00    2.01831   1.34958    0.009
 4224.00    2.17021   1.34984    0.009
 4225.00    2.48569   1.35004    0.009
 4226.00    2.62873   1.35020    0.009
 4227.00    2.39705   1.35037    0.009
 4228.00    2.13915   1.35056    0.009
 4229.00    1.83182   1.35079    0.009
 4230.00    1.61398   1.35105    0.009
 4231.00    1.54346   1.35133    0.009
 4232.00    1.35386   1.35161    0.009
 4233.00    0.99238   1.35186    0.009
 4234.00    0.77443   1.35211    0.009
 4235.00    0.73871   1.35235    0.008
 4236.00    0.95834   1.35260    0.008
 4237.00    1.46367   1.35284    0.008
 4238.00    1.74200   1.35309    0.008
 4239.00    1.79630   1.35333    0.008
 4240.00    1.75289   1.35357    0.008
 4241.00    1.62444   1.35380    0.008
 4242.00    1.55721   1.35400    0.008
 4243.00    1.53692   1.35414    0.008
 4244.00    1.54652   1.35421    0.009
 4245.00    1.57626   1.35424    0.009
 4246.00    1.56047   1.35431    0.009
 4247.00    1.51779   1.35449    0.009
 4248.00    1.38203   1.35481    0.009
 4249.00    1.19833   1.35523    0.009
 4250.00    1.07842   1.35567    0.009
 4251.00    0.98696   1.35608    0.009
 4252.00    1.11689   1.35641    0.009
 4253.00    1.33171   1.35665    0.009
 4254.00    1.59416   1.35676    0.009
 4255.00    1.87213   1.35668    0.009
 4256.00    1.77077   1.35629    0.009
 4257.00    1.56587   1.35556    0.009
 4258.00    1.48918   1.35457    0.009
 4259.00    1.44122   1.35361    0.009
 4260.00    1.50680   1.35306    0.009
 4261.00    1.59269   1.35320    0.010
 4262.00    1.72930   1.35404    0.010
 4263.00    1.87285   1.35531    0.010
 4264.00    1.65553   1.35659    0.010
 4265.00    1.40296   1.35758    0.010
 4266.00    1.43851   1.35815    0.010
 4267.00    1.49168   1.35838    0.009
 4268.00    1.65256   1.35844    0.009
 4269.00    1.81366   1.35852    0.009
 4270.00    1.44930   1.35875    0.009
 4271.00    1.10148   1.35916    0.009
 4272.00    1.19113   1.35965    0.009
 4273.00    1.27292   1.36009    0.009
 4274.00    1.24676   1.36038    0.009
 4275.00    1.20172   1.36053    0.009
 4276.00    0.98521   1.36059    0.009
 4277.00    0.83371   1.36067    0.010
 4278.00    1.11522   1.36085    0.009
 4279.00    1.29487   1.36113    0.009
 4280.00    0.94720   1.36148    0.009
 4281.00    0.84474   1.36182    0.009
 4282.00    1.76596   1.36212   -2.000
 4283.00    2.39131   1.36237   -2.000
 4284.00    1.99528   1.36259   -2.000
 4285.00    1.66719   1.36277   -2.000
 4286.00    1.53658   1.36294   -2.000
 4287.00    1.67588   1.36308   -2.000
 4288.00    2.48462   1.36321   -2.000
 4289.00    2.76113   1.36335   -2.000
 4290.00    1.89982   1.36346   -2.000
 4291.00    1.32533   1.36351   -2.000
 4292.00    1.28339   1.36348   -2.000
 4293.00    1.39137   1.36333   -2.000
 4294.00    1.74249   1.36309   -2.000
 4295.00    1.97083   1.36282   -2.000
 4296.00    2.02449   1.36257   -2.000
 4297.00    1.90246   1.36240   -2.000
 4298.00    1.56051   1.36232    0.009
 4299.00    1.71016   1.36231    0.009
 4300.00    2.40208   1.36230    0.009
 4301.00    2.50534   1.36225    0.009
 4302.00    2.03589   1.36213    0.009
 4303.00    1.33580   1.36190    0.009
 4304.00    0.43784   1.36156    0.009
 4305.00    0.50930   1.36107    0.009
 4306.00    1.31335   1.36042    0.009
 4307.00    1.60421   1.35963    0.009
 4308.00    1.55428   1.35870    0.009
 4309.00    1.61852   1.35766    0.009
 4310.00    1.74914   1.35655    0.009
 4311.00    2.06971   1.35540    0.009
 4312.00    2.48655   1.35421    0.009
 4313.00    2.42385   1.35293    0.009
 4314.00    2.15073   1.35147    0.009
 4315.00    1.89177   1.34969    0.009
 4316.00    1.63816   1.34745    0.009
 4317.00    1.62538   1.34465    0.009
 4318.00    1.68961   1.34121    0.009
 4319.00    1.70302   1.33704    0.009
 4320.00    1.70285   1.33197    0.009
 4321.00    1.06904   1.32575    0.009
 4322.00    0.29657   1.31797    0.009
 4323.00    0.40769   1.30809    0.009
 4324.00    0.67252   1.29541    0.009
 4325.00    0.94981   1.27899    0.009
 4326.00    1.22874   1.25763    0.009
 4327.00    1.46265   1.23003    0.009
 4328.00    1.69237   1.19514    0.009
 4329.00    1.73954   1.15299    0.009
 4330.00    1.77628   1.10577    0.000
 4331.00    1.81990   1.05855    0.000
 4332.00    1.86416   1.01899    0.000
 4333.00    1.96310   0.99533    0.000
 4334.00    2.04924   0.99327    0.000
 4335.00    1.82797   1.01358    0.000
 4336.00    1.61701   1.05156    0.000
 4337.00    1.54029   1.09908    0.000
 4338.00    1.49274   1.14782    0.000
 4339.00    1.70014   1.19183    0.000
 4340.00    1.89920   1.22829    0.000
 4341.00    2.04445   1.25701    0.000
 4342.00    2.22251   1.27919    0.000
 4343.00    2.56606   1.29641    0.000
 4344.00    2.70215   1.31006    0.000
 4345.00    1.99142   1.32117    0.000
 4346.00    1.45054   1.33040    0.000
 4347.00    1.48427   1.33814    0.000
 4348.00    1.63160   1.34463    0.000
 4349.00    2.10307   1.35005    0.000
 4350.00    2.37014   1.35458    0.000
 4351.00    2.13890   1.35838    0.008
 4352.00    2.08091   1.36160    0.008
 4353.00    2.38732   1.36437    0.008
 4354.00    2.52310   1.36677    0.008
 4355.00    2.34691   1.36885    0.008
 4356.00    2.17722   1.37064    0.008
 4357.00    2.01791   1.37217    0.009
 4358.00    2.01646   1.37349    0.009
 4359.00    2.23635   1.37468    0.009
 4360.00    2.40747   1.37584    0.009
 4361.00    2.51841   1.37701    0.009
 4362.00    2.33905   1.37820    0.009
 4363.00    1.84397   1.37937    0.009
 4364.00    1.56254   1.38046    0.009
 4365.00    1.48607   1.38144    0.009
 4366.00    1.54728   1.38229    0.009
 4367.00    1.72496   1.38304    0.009
 4368.00    1.82166   1.38370    0.009
 4369.00    1.85805   1.38426    0.009
 4370.00    1.89277   1.38469    0.009
 4371.00    1.92639   1.38497    0.009
 4372.00    2.25439   1.38498    0.009
 4373.00    2.75100   1.38457    0.009
 4374.00    2.41966   1.38342    0.009
 4375.00    1.67532   1.38106    0.009
 4376.00    1.34324   1.37698    0.009
 4377.00    1.18906   1.37088    0.009
 4378.00    1.19396   1.36311    0.009
 4379.00    1.25774   1.35500    0.009
 4380.00    1.18341   1.34865    0.009
 4381.00    1.06577   1.34614    0.009
 4382.00    1.53366   1.34852    0.009
 4383.00    2.15472   1.35520    0.009
 4384.00    1.67667   1.36424    0.009
 4385.00    0.96384   1.37338    0.009
 4386.00    1.17298   1.38100    0.009
 4387.00    1.53803   1.38649    0.009
 4388.00    2.09734   1.39008    0.009
 4389.00    2.68147   1.39235    0.009
 4390.00    2.68051   1.39385    0.009
 4391.00    2.62734   1.39493    0.009
 4392.00    2.44722   1.39578    0.009
 4393.00    2.26034   1.39648    0.009
 4394.00    2.45264   1.39707    0.009
 4395.00    2.64635   1.39758    0.009
 4396.00    2.35198   1.39803    0.009
 4397.00    2.07716   1.39846    0.009
 4398.00    2.23187   1.39888    0.009
 4399.00    2.36451   1.39930    0.009
 4400.00    2.22443   1.39969    0.009
 4401.00    2.09500   1.40003    0.009
 4402.00    2.05521   1.40027    0.009
 4403.00    2.02278   1.40038    0.009
 4404.00    2.03649   1.40033    0.009
 4405.00    2.03180   1.40013    0.009
 4406.00    1.93656   1.39981    0.009
 4407.00    1.98108   1.39950    0.009
 4408.00    2.58352   1.39937    0.009
 4409.00    2.86439   1.39956    0.009
 4410.00    2.07879   1.40012    0.009
 4411.00    1.45804   1.40100    0.009
 4412.00    1.29912   1.40206    0.009
 4413.00    1.36760   1.40312    0.009
 4414.00    1.98112   1.40405    0.009
 4415.00    2.32053   1.40482    0.009
 4416.00    2.09264   1.40541    0.009
 4417.00    1.95279   1.40585    0.009
 4418.00    1.97143   1.40620    0.009
 4419.00    2.14850   1.40649    0.009
 4420.00    2.57499   1.40674    0.009
 4421.00    2.92317   1.40696    0.009
 4422.00    3.16317   1.40715    0.009
 4423.00    2.96847   1.40727    0.009
 4424.00    2.24507   1.40725    0.009
 4425.00    1.90417   1.40699    0.009
 4426.00    1.97341   1.40638    0.009
 4427.00    2.20025   1.40537    0.009
 4428.00    2.57614   1.40406    0.009
 4429.00    2.41155   1.40277    0.009
 4430.00    1.79626   1.40190    0.009
 4431.00    1.75968   1.40179    0.009
 4432.00    2.14797   1.40251    0.009
 4433.00    1.92414   1.40387    0.009
 4434.00    1.30565   1.40556    0.009
 4435.00    1.57584   1.40725    0.009
 4436.00    2.34729   1.40878    0.009
 4437.00    2.20444   1.41005    0.009
 4438.00    1.61273   1.41107    0.010
 4439.00    1.37617   1.41185    0.009
 4440.00    1.29031   1.41244    0.009
 4441.00    1.45283   1.41291    0.009
 4442.00    1.70561   1.41330    0.009
 4443.00    1.87233   1.41365    0.009
 4444.00    2.01258   1.41397    0.009
 4445.00    1.76993   1.41430    0.009
 4446.00    1.42926   1.41465    0.009
 4447.00    1.31215   1.41502    0.009
 4448.00    1.24164   1.41539    0.009
 4449.00    1.82506   1.41575    0.009
 4450.00    2.51592   1.41605    0.009
 4451.00    2.19386   1.41625    0.009
 4452.00    1.74692   1.41631    0.009
 4453.00    1.63460   1.41617    0.009
 4454.00    1.55075   1.41573    0.009
 4455.00    1.64568   1.41484    0.009
 4456.00    1.74942   1.41320    0.009
 4457.00    1.86819   1.41024    0.009
 4458.00    1.99086   1.40514    0.009
 4459.00    2.34339   1.39688    0.009
 4460.00    2.61047   1.38477    0.009
 4461.00    1.14665   1.36918    0.000
 4462.00   -0.08678   1.35220    0.000
 4463.00    1.38774   1.33760    0.000
 4464.00    2.66331   1.32956    0.000
 4465.00    2.32540   1.33083    0.000
 4466.00    2.03784   1.34111    0.000
 4467.00    2.05673   1.35730    0.000
 4468.00    2.09681   1.37497    0.000
 4469.00    2.23863   1.39037    0.000
 4470.00    2.33347   1.40160    0.000
 4471.00    2.24488   1.40858    0.000
 4472.00    2.12528   1.41239    0.000
 4473.00    1.90486   1.41446    0.000
 4474.00    1.67233   1.41599    0.000
 4475.00    1.40651   1.41764    0.000
 4476.00    1.40729   1.41959    0.000
 4477.00    2.03631   1.42164    0.000
 4478.00    2.30463   1.42348    0.000
 4479.00    1.83830   1.42493    0.000
 4480.00    1.50699   1.42595    0.000
 4481.00    1.41506   1.42663    0.000
 4482.00    1.54671   1.42712    0.009
 4483.00    2.02513   1.42752    0.009
 4484.00    2.20475   1.42790    0.009
 4485.00    1.97744   1.42828    0.009
 4486.00    1.78839   1.42867    0.009
 4487.00    1.64524   1.42906    0.009
 4488.00    1.54972   1.42943    0.009
 4489.00    1.50457   1.42978    0.009
 4490.00    1.85462   1.43012    0.009
 4491.00    2.57321   1.43043    0.009
 4492.00    2.82275   1.43073    0.009
 4493.00    2.68669   1.43102    0.009
 4494.00    2.18480   1.43134    0.009
 4495.00    1.41818   1.43170    0.009
 4496.00    1.43681   1.43211    0.009
 4497.00    1.95424   1.43253    0.009
 4498.00    2.16715   1.43293    0.009
 4499.00    2.21092   1.43329    0.009
 4500.00    2.12387   1.43359    0.009
 4501.00    1.97360   1.43384    0.009
 4502.00    1.99583   1.43404    0.009
 4503.00    2.09001   1.43422    0.009
 4504.00    1.83473   1.43440    0.009
 4505.00    1.45473   1.43461    0.009
 4506.00    1.50583   1.43486    0.009
 4507.00    1.68690   1.43517    0.009
 4508.00    1.38686   1.43553    0.009
 4509.00    0.96632   1.43591    0.009
 4510.00    1.49722   1.43628    0.009
 4511.00    2.22152   1.43661    0.009
 4512.00    1.73182   1.43688    0.009
 4513.00    1.04845   1.43709    0.009
 4514.00    1.01751   1.43726    0.009
 4515.00    1.06411   1.43740    0.009
 4516.00    1.09343   1.43753    0.009
 4517.00    1.12134   1.43764    0.009
 4518.00    1.28688   1.43771    0.009
 4519.00    1.45868   1.43772    0.009
 4520.00    1.48889   1.43762    0.009
 4521.00    1.52252   1.43741    0.009
 4522.00    1.81944   1.43708    0.009
 4523.00    2.08803   1.43658    0.009
 4524.00    1.82483   1.43578    0.009
 4525.00    1.57394   1.43441    0.009
 4526.00    1.46091   1.43203    0.009
 4527.00    1.40132   1.42806    0.009
 4528.00    1.76000   1.42173    0.009
 4529.00    2.00818   1.41234    0.009
 4530.00    1.60300   1.39960    0.009
 4531.00    1.31190   1.38418    0.009
 4532.00    1.55476   1.36807    0.009
 4533.00    1.69911   1.35445    0.009
 4534.00    1.46694   1.34670    0.009
 4535.00    1.34073   1.34709    0.009
 4536.00    1.55237   1.35564    0.009
 4537.00    1.74085   1.37017    0.009
 4538.00    1.86674   1.38719    0.009
 4539.00    1.94050   1.40333    0.009
 4540.00    1.89349   1.41648    0.009
 4541.00    1.89270   1.42603    0.009
 4542.00    1.98457   1.43239    0.009
 4543.00    1.99997   1.43640    0.009
 4544.00    1.88188   1.43895    0.009
 4545.00    1.84881   1.44075    0.009
 4546.00    1.94565   1.44227    0.009
 4547.00    2.19574   1.44373    0.009
 4548.00    2.65155   1.44518    0.009
 4549.00    2.71667   1.44655    0.009
 4550.00    2.31993   1.44775    0.000
 4551.00    2.13328   1.44874    0.000
 4552.00    2.16564   1.44953    0.000
 4553.00    2.25249   1.45015    0.000
 4554.00    2.38943   1.45064    0.000
 4555.00    2.22766   1.45098    0.000
 4556.00    1.82378   1.45117    0.000
 4557.00    1.87206   1.45121    0.000
 4558.00    2.24279   1.45114    0.000
 4559.00    2.04310   1.45103    0.000
 4560.00    1.48644   1.45100    0.000
 4561.00    1.22903   1.45116    0.000
 4562.00    1.13528   1.45157    0.000
 4563.00    1.24949   1.45218    0.000
 4564.00    1.46256   1.45289    0.000
 4565.00    1.66031   1.45358    0.000
 4566.00    1.85179   1.45419    0.000
 4567.00    1.91515   1.45474    0.000
 4568.00    1.93360   1.45526    0.000
 4569.00    2.05421   1.45579    0.000
 4570.00    2.20501   1.45633    0.000
 4571.00    1.97981   1.45683    0.000
 4572.00    1.66250   1.45726    0.000
 4573.00    1.59790   1.45762    0.000
 4574.00    1.58337   1.45790    0.000
 4575.00    1.98287   1.45815    0.000
 4576.00    2.44645   1.45839    0.000
 4577.00    1.98217   1.45864    0.000
 4578.00    1.41170   1.45886    0.000
 4579.00    1.24631   1.45902    0.000
 4580.00    1.11203   1.45907    0.000
 4581.00    1.04914   1.45903    0.000
 4582.00    0.98922   1.45894    0.000
 4583.00    1.08557   1.45892    0.000
 4584.00    1.18312   1.45906    0.000
 4585.00    1.27430   1.45938    0.000
 4586.00    1.35703   1.45983    0.000
 4587.00    1.29198   1.46034    0.000
 4588.00    1.24273   1.46086    0.000
 4589.00    1.36236   1.46140    0.000
 4590.00    1.47141   1.46197    0.000
 4591.00    1.50045   1.46254    0.000
 4592.00    1.55449   1.46307    0.000
 4593.00    1.75212   1.46351    0.000
 4594.00    1.89674   1.46384    0.000
 4595.00    1.79911   1.46410    0.000
 4596.00    1.67942   1.46438    0.000
 4597.00    1.47719   1.46473    0.000
 4598.00    1.44053   1.46515    0.000
 4599.00    1.92170   1.46560    0.000
 4600.00    2.18958   1.46602    0.000
 4601.00    1.89133   1.46639    0.000
 4602.00    1.61016   1.46674    0.000
 4603.00    1.36792   1.46708    0.000
 4604.00    1.34875   1.46747    0.000
 4605.00    1.76966   1.46788    0.000
 4606.00    2.05864   1.46828    0.000
 4607.00    2.12077   1.46862    0.000
 4608.00    2.08147   1.46885    0.000
 4609.00    1.88944   1.46898    0.000
 4610.00    1.72857   1.46904    0.000
 4611.00    1.60893   1.46912    0.000
 4612.00    1.59138   1.46933    0.000
 4613.00    1.69279   1.46971    0.000
 4614.00    1.80373   1.47026    0.000
 4615.00    1.92446   1.47091    0.000
 4616.00    1.94410   1.47156    0.000
 4617.00    1.87210   1.47213    0.000
 4618.00    2.05270   1.47254    0.000
 4619.00    2.43512   1.47276    0.000
 4620.00    2.27129   1.47281    0.000
 4621.00    1.72352   1.47273    0.000
 4622.00    1.54364   1.47261    0.000
 4623.00    1.59060   1.47255    0.000
 4624.00    1.50899   1.47268    0.000
 4625.00    1.35814   1.47304    0.000
 4626.00    1.68795   1.47360    0.000
 4627.00    2.24258   1.47423    0.000
 4628.00    2.07755   1.47478    0.000
 4629.00    1.62238   1.47516    0.000
 4630.00    1.55866   1.47533    0.000
 4631.00    1.62959   1.47535    0.000
 4632.00    1.83410   1.47530    0.000
 4633.00    2.07730   1.47524    0.000
 4634.00    1.98195   1.47520    0.000
 4635.00    1.80552   1.47513    0.000
 4636.00    1.64476   1.47493    0.000
 4637.00    1.48702   1.47450    0.000
 4638.00    1.32532   1.47381    0.000
 4639.00    1.16303   1.47296    0.000
 4640.00    1.21005   1.47220    0.000
 4641.00    1.28011   1.47187    0.000
 4642.00    1.43971   1.47224    0.000
 4643.00    1.60583   1.47342    0.000
 4644.00    1.68948   1.47529    0.000
 4645.00    1.77000   1.47752    0.000
 4646.00    1.46362   1.47971    0.000
 4647.00    1.16423   1.48148    0.000
 4648.00    1.19691   1.48265    0.000
 4649.00    1.22842   1.48322    0.000
 4650.00    1.24098   1.48335    0.000
 4651.00    1.27141   1.48321    0.000
 4652.00    1.48466   1.48298    0.000
 4653.00    1.67616   1.48277    0.000
 4654.00    1.70866   1.48265    0.000
 4655.00    1.86379   1.48268    0.000
 4656.00    2.70444   1.48286    0.000
 4657.00    3.26396   1.48317    0.000
 4658.00    2.56921   1.48360    0.000
 4659.00    1.96180   1.48409    0.000
 4660.00    1.67434   1.48459    0.000
 4661.00    1.48018   1.48504    0.000
 4662.00    1.57225   1.48540    0.000
 4663.00    1.50019   1.48560    0.000
 4664.00    1.00008   1.48560    0.000
 4665.00    0.68053   1.48540    0.000
 4666.00    0.76565   1.48501    0.000
 4667.00    0.86484   1.48441    0.000
 4668.00    0.99137   1.48352    0.000
 4669.00    1.12724   1.48210    0.000
 4670.00    1.27894   1.47961    0.000
 4671.00    1.43551   1.47516    0.000
 4672.00    1.59933   1.46754    0.000
 4673.00    1.83483   1.45555    0.000
 4674.00    2.16382   1.43860    0.000
 4675.00    2.10518   1.41760    0.000
 4676.00    1.60114   1.39544    0.000
 4677.00    1.51824   1.37668    0.000
 4678.00    1.86210   1.36618    0.000
 4679.00    1.99193   1.36708    0.000
 4680.00    1.93048   1.37934    0.000
 4681.00    1.68505   1.39965    0.000
 4682.00    1.29472   1.42297    0.000
 4683.00    1.56520   1.44470    0.000
 4684.00    2.29342   1.46206    0.000
 4685.00    2.40586   1.47433    0.000
 4686.00    2.14431   1.48216    0.000
 4687.00    1.78760   1.48686    0.000
 4688.00    1.38042   1.48965    0.000
 4689.00    1.29209   1.49134    0.000
 4690.00    1.35049   1.49240    0.000
 4691.00    1.41353   1.49313    0.000
 4692.00    1.47842   1.49369    0.000
 4693.00    1.76112   1.49418    0.000
 4694.00    2.11737   1.49465    0.000
 4695.00    2.01952   1.49511    0.000
 4696.00    1.79279   1.49553    0.000
 4697.00    1.77304   1.49586    0.000
 4698.00    1.80175   1.49596    0.000
 4699.00    1.87706   1.49555    0.000
 4700.00    1.96113   1.49428    0.000
 4701.00    1.72943   1.49181    0.000
 4702.00    1.45180   1.48804    0.000
 4703.00    1.30651   1.48336    0.000
 4704.00    1.17522   1.47873    0.000
 4705.00    1.44123   1.47546    0.000
 4706.00    1.73453   1.47467    0.000
 4707.00    1.31148   1.47678    0.000
 4708.00    0.86406   1.48126    0.000
 4709.00    1.06912   1.48686    0.000
 4710.00    1.28316   1.49225    0.000
 4711.00    1.75667   1.49657    0.000
 4712.00    2.19488   1.49953    0.000
 4713.00    2.09142   1.50133    0.000
 4714.00    1.97592   1.50232    0.000
 4715.00    1.74246   1.50290    0.000
 4716.00    1.54141   1.50329    0.000
 4717.00    1.56963   1.50360    0.000
 4718.00    1.58210   1.50388    0.000
 4719.00    1.50892   1.50413    0.000
 4720.00    1.53727   1.50439    0.000
 4721.00    2.00809   1.50466    0.000
 4722.00    2.33308   1.50494    0.000
 4723.00    2.13489   1.50524    0.000
 4724.00    2.01647   1.50556    0.000
 4725.00    2.13820   1.50587    0.000
 4726.00    2.04565   1.50618    0.000
 4727.00    1.40401   1.50649    0.000
 4728.00    1.07112   1.50678    0.000
 4729.00    1.41883   1.50706    0.000
 4730.00    1.56121   1.50734    0.000
 4731.00    1.31103   1.50762    0.000
 4732.00    1.26200   1.50791    0.000
 4733.00    1.54854   1.50822    0.000
 4734.00    1.88719   1.50853    0.000
 4735.00    2.30204   1.50883    0.000
 4736.00    2.48100   1.50914    0.000
 4737.00    2.35668   1.50944    0.000
 4738.00    2.19598   1.50972    0.000
 4739.00    1.99409   1.51000    0.000
 4740.00    1.90890   1.51026    0.000
 4741.00    1.94032   1.51052    0.000
 4742.00    1.88493   1.51076    0.000
 4743.00    1.75305   1.51100    0.000
 4744.00    1.77683   1.51123    0.000
 4745.00    1.92144   1.51146    0.000
 4746.00    1.90853   1.51171    0.000
 4747.00    1.78808   1.51197    0.000
 4748.00    1.74914   1.51223    0.000
 4749.00    1.75894   1.51251    0.000
 4750.00    1.78974   1.51278    0.000
 4751.00    1.83150   1.51304    0.000
 4752.00    1.80890   1.51329    0.000
 4753.00    1.75718   1.51352    0.000
 4754.00    1.73969   1.51375    0.000
 4755.00    1.73554   1.51399    0.000
 4756.00    1.49137   1.51423    0.000
 4757.00    1.16766   1.51449    0.000
 4758.00    1.36937   1.51476    0.000
 4759.00    1.71715   1.51504    0.000
 4760.00    1.83429   1.51531    0.000
 4761.00    1.89867   1.51558    0.008
 4762.00    1.97345   1.51585    0.008
 4763.00    2.05013   1.51611    0.008
 4764.00    1.96322   1.51637    0.008
 4765.00    1.85328   1.51663    0.008
 4766.00    1.80101   1.51689    0.008
 4767.00    1.75460   1.51715    0.008
 4768.00    1.95985   1.51742    0.008
 4769.00    2.18137   1.51768    0.008
 4770.00    1.83281   1.51795    0.008
 4771.00    1.46799   1.51821    0.008
 4772.00    1.59825   1.51848    0.008
 4773.00    1.73306   1.51874    0.008
 4774.00    1.99965   1.51901    0.008
 4775.00    2.22775   1.51927    0.008
 4776.00    1.89966   1.51952    0.008
 4777.00    1.59359   1.51975    0.008
 4778.00    1.49482   1.51996    0.008
 4779.00    1.44855   1.52017    0.008
 4780.00    1.76185   1.52039    0.008
 4781.00    2.04420   1.52061    0.008
 4782.00    2.16257   1.52085    0.008
 4783.00    2.17418   1.52110    0.008
 4784.00    1.73117   1.52137    0.007
 4785.00    1.38143   1.52165    0.007
 4786.00    1.35951   1.52193    0.007
 4787.00    1.32726   1.52222    0.007
 4788.00    1.26455   1.52250    0.007
 4789.00    1.30923   1.52276    0.007
 4790.00    1.62435   1.52298    0.008
 4791.00    1.82029   1.52317    0.008
 4792.00    1.75783   1.52331    0.008
 4793.00    1.71428   1.52342    0.008
 4794.00    1.70632   1.52351    0.008
 4795.00    1.86795   1.52361    0.008
 4796.00    2.30824   1.52371    0.008
 4797.00    2.40815   1.52383    0.008
 4798.00    2.01761   1.52397    0.008
 4799.00    1.75929   1.52411    0.008
 4800.00    1.66853   1.52424    0.008
 4801.00    1.63230   1.52435    0.008
 4802.00    1.65696   1.52442    0.008
 4803.00    1.71433   1.52446    0.008
 4804.00    1.80392   1.52447    0.008
 4805.00    1.73064   1.52446    0.008
 4806.00    1.51589   1.52445    0.008
 4807.00    1.73493   1.52443    0.008
 4808.00    2.28594   1.52440    0.008
 4809.00    2.37591   1.52435    0.008
 4810.00    2.15574   1.52428    0.008
 4811.00    1.92845   1.52420    0.008
 4812.00    1.69698   1.52411    0.008
 4813.00    1.63784   1.52402    0.008
 4814.00    1.66726   1.52393    0.008
 4815.00    1.56433   1.52382    0.008
 4816.00    1.40246   1.52367    0.008
 4817.00    1.56721   1.52344    0.008
 4818.00    1.85691   1.52313    0.008
 4819.00    1.90715   1.52276    0.008
 4820.00    1.87954   1.52234    0.008
 4821.00    1.66205   1.52190    0.008
 4822.00    1.39287   1.52146    0.008
 4823.00    1.72044   1.52101    0.008
 4824.00    2.18134   1.52052    0.008
 4825.00    1.62231   1.51997    0.008
 4826.00    0.88148   1.51930    0.008
 4827.00    1.41075   1.51848    0.008
 4828.00    2.11305   1.51751    0.008
 4829.00    2.09074   1.51638    0.008
 4830.00    1.99803   1.51506    0.008
 4831.00    1.80814   1.51354    0.008
 4832.00    1.61235   1.51180    0.008
 4833.00    1.57108   1.50979    0.008
 4834.00    1.53748   1.50747    0.008
 4835.00    2.14602   1.50476    0.008
 4836.00    2.72911   1.50158    0.008
 4837.00    2.64758   1.49782    0.008
 4838.00    2.54462   1.49337    0.008
 4839.00    2.14905   1.48804    0.008
 4840.00    1.82184   1.48162    0.008
 4841.00    2.11254   1.47380    0.008
 4842.00    2.31923   1.46414    0.008
 4843.00    1.96851   1.45204    0.008
 4844.00    1.62542   1.43667    0.008
 4845.00    1.32171   1.41693    0.008
 4846.00    1.12433   1.39157    0.008
 4847.00    1.36961   1.35945    0.008
 4848.00    1.58485   1.32006    0.000
 4849.00    1.69664   1.27443    0.000
 4850.00    1.73328   1.22587    0.000
 4851.00    1.55200   1.17993    0.000
 4852.00    1.53664   1.14330    0.000
 4853.00    1.93187   1.12231    0.000
 4854.00    2.14738   1.12098    0.000
 4855.00    1.97946   1.13964    0.000
 4856.00    1.76913   1.17484    0.000
 4857.00    1.48021   1.22043    0.000
 4858.00    1.44653   1.26954    0.000
 4859.00    1.82600   1.31636    0.000
 4860.00    1.93529   1.35731    0.000
 4861.00    1.66091   1.39096    0.000
 4862.00    1.63912   1.41761    0.000
 4863.00    1.93289   1.43839    0.000
 4864.00    1.96112   1.45465    0.000
 4865.00    1.69696   1.46758    0.000
 4866.00    1.57843   1.47803    0.000
 4867.00    1.60135   1.48661    0.000
 4868.00    1.45006   1.49378    0.000
 4869.00    1.14959   1.49982    0.000
 4870.00    1.33544   1.50497    0.000
 4871.00    1.88814   1.50939    0.000
 4872.00    2.27127   1.51321    0.000
 4873.00    2.54201   1.51653    0.000
 4874.00    2.35466   1.51944    0.000
 4875.00    1.90143   1.52200    0.008
 4876.00    1.69275   1.52428    0.008
 4877.00    1.60776   1.52632    0.008
 4878.00    1.65575   1.52815    0.008
 4879.00    1.76196   1.52979    0.008
 4880.00    1.88877   1.53128    0.008
 4881.00    2.02331   1.53264    0.008
 4882.00    2.12479   1.53390    0.008
 4883.00    2.21572   1.53508    0.008
 4884.00    2.21134   1.53620    0.008
 4885.00    2.18154   1.53726    0.008
 4886.00    1.74817   1.53826    0.008
 4887.00    1.22676   1.53918    0.008
 4888.00    1.23005   1.54003    0.007
 4889.00    1.32430   1.54079    0.007
 4890.00    1.62146   1.54147    0.007
 4891.00    1.94535   1.54209    0.008
 4892.00    2.04241   1.54266    0.008
 4893.00    2.11839   1.54319    0.008
 4894.00    2.10642   1.54369    0.008
 4895.00    2.08946   1.54417    0.008
 4896.00    1.98078   1.54464    0.008
 4897.00    1.87331   1.54508    0.008
 4898.00    2.12642   1.54549    0.008
 4899.00    2.36031   1.54587    0.008
 4900.00    2.13784   1.54619    0.008
 4901.00    1.91519   1.54646    0.007
 4902.00    1.69023   1.54664    0.007
 4903.00    1.51681   1.54671    0.007
 4904.00    1.79143   1.54658    0.007
 4905.00    2.02298   1.54612    0.007
 4906.00    1.97735   1.54509    0.008
 4907.00    1.90272   1.54314    0.008
 4908.00    1.68222   1.53979    0.007
 4909.00    1.53436   1.53458    0.007
 4910.00    1.68214   1.52720    0.007
 4911.00    1.81518   1.51851    0.007
 4912.00    1.89845   1.51026    0.007
 4913.00    1.85716   1.50436    0.007
 4914.00    1.46126   1.50199    0.007
 4915.00    1.25073   1.50381    0.007
 4916.00    1.49119   1.50942    0.007
 4917.00    1.63842   1.51753    0.008
 4918.00    1.58995   1.52647    0.008
 4919.00    1.62605   1.53475    0.008
 4920.00    1.81645   1.54143    0.008
 4921.00    1.91280   1.54623    0.007
 4922.00    1.85913   1.54935    0.007
 4923.00    1.80799   1.55125    0.007
 4924.00    1.76038   1.55238    0.008
 4925.00    1.79815   1.55310    0.008
 4926.00    1.94105   1.55361    0.008
 4927.00    1.94020   1.55401    0.008
 4928.00    1.78328   1.55433    0.008
 4929.00    1.80050   1.55459    0.008
 4930.00    1.98446   1.55481    0.007
 4931.00    1.90247   1.55500    0.007
 4932.00    1.59592   1.55517    0.007
 4933.00    1.46857   1.55536    0.008
 4934.00    1.47445   1.55560    0.008
 4935.00    1.73276   1.55588    0.008
 4936.00    2.15595   1.55620    0.008
 4937.00    2.12141   1.55655    0.008
 4938.00    1.82521   1.55690    0.008
 4939.00    1.75129   1.55725    0.008
 4940.00    1.78803   1.55757    0.000
 4941.00    1.67087   1.55785    0.000
 4942.00    1.48744   1.55809    0.000
 4943.00    1.44683   1.55828    0.000
 4944.00    1.45895   1.55842    0.000
 4945.00    1.57826   1.55852    0.000
 4946.00    1.73109   1.55858    0.000
 4947.00    1.74297   1.55863    0.000
 4948.00    1.71807   1.55870    0.000
 4949.00    1.88319   1.55882    0.000
 4950.00    2.08876   1.55899    0.000
 4951.00    1.77804   1.55922    0.000
 4952.00    1.38033   1.55949    0.000
 4953.00    1.37096   1.55977    0.000
 4954.00    1.41099   1.56005    0.000
 4955.00    1.61980   1.56030    0.000
 4956.00    1.84358   1.56051    0.000
 4957.00    1.97045   1.56070    0.000
 4958.00    2.09221   1.56088    0.000
 4959.00    1.81774   1.56103    0.000
 4960.00    1.54151   1.56119    0.000
 4961.00    1.72077   1.56136    0.000
 4962.00    1.88221   1.56154    0.000
 4963.00    1.65606   1.56173    0.000
 4964.00    1.47829   1.56192    0.000
 4965.00    1.89449   1.56211    0.000
 4966.00    2.29396   1.56230    0.000
 4967.00    2.55339   1.56248    0.000
 4968.00    2.69318   1.56262    0.000
 4969.00    2.08595   1.56275    0.000
 4970.00    1.59015   1.56284    0.000
 4971.00    1.64070   1.56290    0.000
 4972.00    1.73827   1.56291    0.000
 4973.00    2.02302   1.56292    0.000
 4974.00    2.21160   1.56297    0.000
 4975.00    2.08203   1.56310    0.000
 4976.00    1.94867   1.56331    0.000
 4977.00    1.80472   1.56358    0.000
 4978.00    1.69592   1.56387    0.000
 4979.00    1.67119   1.56416    0.000
 4980.00    1.70945   1.56440    0.000
 4981.00    1.87782   1.56458    0.000
 4982.00    1.95472   1.56473    0.000
 4983.00    1.86730   1.56486    0.000
 4984.00    1.84708   1.56500    0.000
 4985.00    1.93244   1.56516    0.000
 4986.00    1.92764   1.56534    0.000
 4987.00    1.79846   1.56551    0.000
 4988.00    1.68369   1.56566    0.000
 4989.00    1.58640   1.56575    0.000
 4990.00    1.65180   1.56575    0.000
 4991.00    1.89132   1.56566    0.000
 4992.00    1.91625   1.56554    0.000
 4993.00    1.73855   1.56547    0.000
 4994.00    1.63362   1.56546    0.000
 4995.00    1.58925   1.56549    0.000
 4996.00    1.64405   1.56558    0.000
 4997.00    1.77153   1.56571    0.000
 4998.00    1.85430   1.56580    0.000
 4999.00    1.90830   1.56575    0.000
 5000.00    1.78828   1.56540    0.000
 5001.00    1.57029   1.56450    0.000
 5002.00    1.47798   1.56278    0.000
 5003.00    1.44725   1.56000    0.000
 5004.00    1.55936   1.55591    0.000
 5005.00    1.73195   1.55049    0.000
 5006.00    1.76322   1.54499    0.000
 5007.00    1.74326   1.54159    0.000
 5008.00    1.55556   1.54129    0.000
 5009.00    1.31641   1.54351    0.000
 5010.00    1.39472   1.54746    0.000
 5011.00    1.55409   1.55243    0.000
 5012.00    1.40052   1.55744    0.000
 5013.00    1.18193   1.56175    0.000
 5014.00    1.26220   1.56496    0.000
 5015.00    1.39139   1.56710    0.000
 5016.00    1.52163   1.56836    0.000
 5017.00    1.65200   1.56902    0.000
 5018.00    1.72527   1.56935    0.000
 5019.00    1.79372   1.56956    0.000
 5020.00    1.75585   1.56972    0.000
 5021.00    1.71279   1.56985    0.000
 5022.00    1.56051   1.56995    0.000
 5023.00    1.40892   1.57005    0.000
 5024.00    1.40169   1.57017    0.000
 5025.00    1.39528   1.57030    0.000
 5026.00    1.40514   1.57043    0.000
 5027.00    1.38021   1.57053    0.000
 5028.00    0.94906   1.57059    0.000
 5029.00    0.65486   1.57058    0.007
 5030.00    1.46633   1.57049    0.007
 5031.00    2.15011   1.57027    0.007
 5032.00    2.05965   1.56997    0.007
 5033.00    1.95465   1.56961    0.007
 5034.00    1.78010   1.56907    0.007
 5035.00    1.58320   1.56820    0.007
 5036.00    1.29927   1.56699    0.007
 5037.00    1.15214   1.56535    0.007
 5038.00    1.44866   1.56346    0.008
 5039.00    1.66929   1.56229    0.008
 5040.00    1.68155   1.56241    0.007
 5041.00    1.62889   1.56363    0.007
 5042.00    1.42359   1.56528    0.007
 5043.00    1.44575   1.56719    0.007
 5044.00    1.93029   1.56900    0.007
 5045.00    2.21943   1.57037    0.007
 5046.00    2.16286   1.57117    0.007
 5047.00    2.06631   1.57161    0.008
 5048.00    1.90788   1.57196    0.008
 5049.00    1.69063   1.57233    0.008
 5050.00    1.39342   1.57271    0.008
 5051.00    1.24821   1.57314    0.008
 5052.00    1.28493   1.57359    0.008
 5053.00    1.28088   1.57400    0.007
 5054.00    1.23380   1.57431    0.007
 5055.00    1.49704   1.57456    0.007
 5056.00    2.04915   1.57473    0.007
 5057.00    2.19675   1.57488    0.007
 5058.00    2.01240   1.57500    0.007
 5059.00    1.83783   1.57511    0.007
 5060.00    1.67032   1.57521    0.007
 5061.00    1.76549   1.57532    0.007
 5062.00    2.02721   1.57543    0.007
 5063.00    2.16843   1.57553    0.007
 5064.00    2.24285   1.57563    0.007
 5065.00    1.91663   1.57574    0.007
 5066.00    1.39725   1.57586    0.007
 5067.00    1.43890   1.57598    0.007
 5068.00    1.71412   1.57610    0.007
 5069.00    1.66203   1.57621    0.007
 5070.00    1.49340   1.57631    0.007
 5071.00    1.52602   1.57640    0.007
 5072.00    1.61916   1.57649    0.007
 5073.00    1.53845   1.57660    0.007
 5074.00    1.41432   1.57671    0.007
 5075.00    1.64561   1.57683    0.007
 5076.00    1.94893   1.57697    0.007
 5077.00    2.10675   1.57711    0.007
 5078.00    2.24144   1.57725    0.007
 5079.00    2.03721   1.57740    0.007
 5080.00    1.79289   1.57755    0.007
 5081.00    1.62438   1.57770    0.007
 5082.00    1.46196   1.57785    0.007
 5083.00    1.71112   1.57797    0.007
 5084.00    1.97880   1.57806    0.007
 5085.00    1.65547   1.57814    0.007
 5086.00    1.33308   1.57819    0.007
 5087.00    1.40638   1.57822    0.007
 5088.00    1.48730   1.57824    0.007
 5089.00    1.70997   1.57825    0.007
 5090.00    1.90502   1.57827    0.007
 5091.00    1.79260   1.57830    0.007
 5092.00    1.68078   1.57836    0.007
 5093.00    1.57355   1.57847    0.007
 5094.00    1.51297   1.57859    0.007
 5095.00    1.72716   1.57873    0.007
 5096.00    1.92283   1.57886    0.007
 5097.00    2.03202   1.57899    0.007
 5098.00    2.06037   1.57912    0.007
 5099.00    1.78057   1.57922    0.007
 5100.00    1.59754   1.57931    0.007
 5101.00    1.72231   1.57938    0.007
 5102.00    1.80981   1.57944    0.007
 5103.00    1.79685   1.57949    0.007
 5104.00    1.68785   1.57955    0.007
 5105.00    1.35681   1.57960    0.007
 5106.00    1.19452   1.57967    0.007
 5107.00    1.36982   1.57978    0.007
 5108.00    1.50479   1.57992    0.007
 5109.00    1.56951   1.58007    0.007
 5110.00    1.63544   1.58019    0.007
 5111.00    1.70320   1.58028    0.007
 5112.00    1.78635   1.58036    0.007
 5113.00    1.89012   1.58039    0.007
 5114.00    1.96034   1.58042    0.007
 5115.00    1.99097   1.58044    0.007
 5116.00    1.90360   1.58047    0.007
 5117.00    1.69343   1.58050    0.007
 5118.00    1.67287   1.58052    0.007
 5119.00    1.82635   1.58057    0.008
 5120.00    2.02402   1.58065    0.008
 5121.00    2.25744   1.58076    0.007
 5122.00    2.23672   1.58088    0.007
 5123.00    2.03508   1.58099    0.007
 5124.00    1.88710   1.58109    0.007
 5125.00    1.77263   1.58120    0.007
 5126.00    1.70535   1.58129    0.008
 5127.00    1.66382   1.58136    0.008
 5128.00    1.60187   1.58141    0.007
 5129.00    1.53023   1.58144    0.007
 5130.00    1.73280   1.58145    0.007
 5131.00    2.04759   1.58145    0.007
 5132.00    2.11447   1.58144    0.007
 5133.00    2.09468   1.58145    0.007
 5134.00    2.12006   1.58147    0.007
 5135.00    2.15874   1.58150    0.007
 5136.00    1.88291   1.58155    0.007
 5137.00    1.53024   1.58164    0.007
 5138.00    1.46413   1.58172    0.007
 5139.00    1.45463   1.58184    0.007
 5140.00    1.58968   1.58193    0.007
 5141.00    1.74701   1.58201    0.007
 5142.00    1.62710   1.58209    0.007
 5143.00    1.47562   1.58217    0.007
 5144.00    1.32579   1.58225    0.007
 5145.00    1.17608   1.58234    0.007
 5146.00    1.43975   1.58243    0.007
 5147.00    1.72043   1.58252    0.007
 5148.00    1.59528   1.58264    0.007
 5149.00    1.47074   1.58277    0.007
 5150.00    1.51258   1.58290    0.007
 5151.00    1.57007   1.58298    0.007
 5152.00    1.89875   1.58303    0.007
 5153.00    2.16896   1.58300    0.007
 5154.00    1.81705   1.58292    0.007
 5155.00    1.51229   1.58276    0.007
 5156.00    1.56237   1.58253    0.007
 5157.00    1.60265   1.58226    0.007
 5158.00    1.58679   1.58196    0.007
 5159.00    1.58689   1.58166    0.007
 5160.00    1.65963   1.58145    0.007
 5161.00    1.72805   1.58140    0.007
 5162.00    1.78035   1.58150    0.007
 5163.00    1.80926   1.58170    0.007
 5164.00    1.76521   1.58194    0.007
 5165.00    1.62884   1.58222    0.007
 5166.00    1.24795   1.58256    0.007
 5167.00    1.03226   1.58288    0.007
 5168.00    1.19223   1.58312    0.007
 5169.00    1.45203   1.58329    0.007
 5170.00    1.90841   1.58340    0.007
 5171.00    2.02429   1.58344    0.007
 5172.00    1.55582   1.58340    0.007
 5173.00    1.39336   1.58334    0.007
 5174.00    1.69081   1.58325    0.007
 5175.00    1.78092   1.58319    0.007
 5176.00    1.59717   1.58319    0.007
 5177.00    1.40010   1.58328    0.007
 5178.00    1.18752   1.58346    0.007
 5179.00    1.04736   1.58366    0.007
 5180.00    0.98148   1.58383    0.007
 5181.00    1.07816   1.58396    0.007
 5182.00    1.32195   1.58406    0.007
 5183.00    1.49834   1.58413    0.007
 5184.00    1.62097   1.58419    0.007
 5185.00    1.63956   1.58424    0.007
 5186.00    1.58516   1.58426    0.007
 5187.00    1.57454   1.58429    0.007
 5188.00    1.59085   1.58430    0.007
 5189.00    1.49670   1.58429    0.007
 5190.00    1.34316   1.58423    0.000
 5191.00    1.25870   1.58413    0.000
 5192.00    1.20648   1.58402    0.000
 5193.00    1.35412   1.58391    0.000
 5194.00    1.58216   1.58384    0.000
 5195.00    1.73172   1.58380    0.000
 5196.00    1.85436   1.58377    0.000
 5197.00    1.71355   1.58381    0.000
 5198.00    1.49662   1.58394    0.000
 5199.00    1.66889   1.58410    0.000
 5200.00    1.93413   1.58424    0.000
 5201.00    1.71497   1.58435    0.000
 5202.00    1.40257   1.58443    0.000
 5203.00    1.43507   1.58448    0.000
 5204.00    1.51914   1.58449    0.000
 5205.00    1.55493   1.58453    0.000
 5206.00    1.58543   1.58462    0.000
 5207.00    1.88033   1.58475    0.000
 5208.00    2.19432   1.58487    0.000
 5209.00    1.88070   1.58500    0.000
 5210.00    1.54366   1.58515    0.000
 5211.00    1.51406   1.58530    0.007
 5212.00    1.49034   1.58540    0.007
 5213.00    1.62865   1.58544    0.007
 5214.00    1.76042   1.58540    0.007
 5215.00    1.78615   1.58530    0.007
 5216.00    1.77799   1.58517    0.007
 5217.00    1.42487   1.58504    0.007
 5218.00    1.13026   1.58490    0.007
 5219.00    1.26145   1.58480    0.007
 5220.00    1.40837   1.58481    0.007
 5221.00    1.64300   1.58487    0.007
 5222.00    1.77905   1.58497    0.007
 5223.00    1.47659   1.58505    0.007
 5224.00    1.26530   1.58510    0.007
 5225.00    1.38715   1.58513    0.007
 5226.00    1.48552   1.58517    0.007
 5227.00    1.51206   1.58523    0.007
 5228.00    1.54141   1.58533    0.007
 5229.00    1.57808   1.58546    0.007
 5230.00    1.61271   1.58558    0.007
 5231.00    1.64275   1.58570    0.007
 5232.00    1.67712   1.58578    0.007
 5233.00    1.71986   1.58586    0.007
 5234.00    1.72580   1.58593    0.007
 5235.00    1.66950   1.58597    0.007
 5236.00    1.68599   1.58601    0.007
 5237.00    1.81027   1.58604    0.007
 5238.00    1.93380   1.58608    0.007
 5239.00    2.05635   1.58606    0.007
 5240.00    2.02811   1.58601    0.007
 5241.00    1.82695   1.58592    0.007
 5242.00    1.69588   1.58585    0.007
 5243.00    1.63573   1.58578    0.007
 5244.00    1.59299   1.58574    0.007
 5245.00    1.56578   1.58570    0.007
 5246.00    1.62865   1.58568    0.007
 5247.00    1.76233   1.58567    0.007
 5248.00    1.67219   1.58568    0.007
 5249.00    1.42730   1.58567    0.007
 5250.00    1.55224   1.58562    0.007
 5251.00    1.90137   1.58557    0.007
 5252.00    2.03741   1.58548    0.007
 5253.00    2.06070   1.58537    0.007
 5254.00    1.91657   1.58526    0.007
 5255.00    1.69555   1.58516    0.007
 5256.00    1.57553   1.58506    0.007
 5257.00    1.49542   1.58497    0.007
 5258.00    1.31330   1.58491    0.007
 5259.00    1.09682   1.58487    0.007
 5260.00    1.10972   1.58483    0.007
 5261.00    1.18756   1.58483    0.007
 5262.00    1.23913   1.58480    0.007
 5263.00    1.28457   1.58479    0.007
 5264.00    1.36682   1.58482    0.007
 5265.00    1.45598   1.58490    0.007
 5266.00    1.39905   1.58496    0.007
 5267.00    1.32094   1.58504    0.007
 5268.00    1.39870   1.58511    0.007
 5269.00    1.49284   1.58518    0.007
 5270.00    1.77851   1.58527    0.007
 5271.00    2.07723   1.58536    0.007
 5272.00    1.66255   1.58540    0.007
 5273.00    1.22395   1.58541    0.007
 5274.00    1.32809   1.58542    0.007
 5275.00    1.42940   1.58543    0.007
 5276.00    1.42078   1.58546    0.007
 5277.00    1.41205   1.58552    0.007
 5278.00    1.40166   1.58558    0.007
 5279.00    1.41638   1.58567    0.007
 5280.00    1.67605   1.58573    0.007
 5281.00    1.89854   1.58576    0.007
 5282.00    1.85920   1.58576    0.007
 5283.00    1.81041   1.58574    0.007
 5284.00    1.71045   1.58570    0.007
 5285.00    1.56164   1.58565    0.007
 5286.00    1.20058   1.58557    0.006
 5287.00    0.95673   1.58549    0.006
 5288.00    1.13231   1.58544    0.006
 5289.00    1.33451   1.58537    0.007
 5290.00    1.61671   1.58532    0.007
 5291.00    1.87566   1.58530    0.007
 5292.00    2.07519   1.58531    0.007
 5293.00    2.13154   1.58534    0.007
 5294.00    1.87294   1.58537    0.007
 5295.00    1.60159   1.58539    0.007
 5296.00    1.30591   1.58541    0.007
 5297.00    1.16270   1.58542    0.007
 5298.00    1.27337   1.58539    0.007
 5299.00    1.33684   1.58531    0.007
 5300.00    1.33143   1.58523    0.007
 5301.00    1.40960   1.58513    0.007
 5302.00    1.59504   1.58502    0.007
 5303.00    1.80928   1.58489    0.007
 5304.00    2.05610   1.58473    0.007
 5305.00    1.97024   1.58457    0.007
 5306.00    1.55262   1.58443    0.007
 5307.00    1.21719   1.58426    0.007
 5308.00    0.95407   1.58408    0.007
 5309.00    0.99109   1.58394    0.007
 5310.00    1.26070   1.58385    0.007
 5311.00    1.47247   1.58382    0.007
 5312.00    1.64483   1.58382    0.007
 5313.00    1.75420   1.58379    0.007
 5314.00    1.82597   1.58377    0.007
 5315.00    1.95231   1.58376    0.007
 5316.00    2.10709   1.58374    0.007
 5317.00    1.88283   1.58368    0.007
 5318.00    1.48735   1.58361    0.007
 5319.00    1.56672   1.58354    0.007
 5320.00    1.83058   1.58351    0.007
 5321.00    1.81352   1.58350    0.007
 5322.00    1.70360   1.58355    0.007
 5323.00    1.69001   1.58363    0.007
 5324.00    1.70314   1.58369    0.007
 5325.00    1.77000   1.58375    0.007
 5326.00    1.84910   1.58376    0.007
 5327.00    1.71153   1.58375    0.007
 5328.00    1.53440   1.58373    0.007
 5329.00    1.50413   1.58368    0.007
 5330.00    1.49446   1.58362    0.007
 5331.00    1.36279   1.58354    0.007
 5332.00    1.21881   1.58347    0.006
 5333.00    1.35060   1.58339    0.006
 5334.00    1.50008   1.58332    0.006
 5335.00    1.62445   1.58327    0.006
 5336.00    1.74803   1.58325    0.006
 5337.00    1.85387   1.58323    0.006
 5338.00    1.95338   1.58323    0.006
 5339.00    1.87164   1.58324    0.006
 5340.00    1.79122   1.58329    0.006
 5341.00    1.72977   1.58335    0.006
 5342.00    1.65511   1.58340    0.006
 5343.00    1.45672   1.58345    0.006
 5344.00    1.32905   1.58348    0.006
 5345.00    1.68372   1.58350    0.006
 5346.00    1.97558   1.58351    0.006
 5347.00    1.93583   1.58351    0.006
 5348.00    1.86356   1.58351    0.006
 5349.00    1.65313   1.58349    0.006
 5350.00    1.49428   1.58345    0.006
 5351.00    1.51626   1.58340    0.006
 5352.00    1.52360   1.58332    0.006
 5353.00    1.48784   1.58322    0.006
 5354.00    1.56026   1.58311    0.006
 5355.00    1.90450   1.58297    0.007
 5356.00    2.17656   1.58282    0.007
 5357.00    2.29240   1.58266    0.007
 5358.00    2.23508   1.58249    0.007
 5359.00    1.85249   1.58234    0.006
 5360.00    1.61888   1.58220    0.006
 5361.00    1.62963   1.58209    0.006
 5362.00    1.60488   1.58201    0.007
 5363.00    1.52907   1.58193    0.007
 5364.00    1.57049   1.58188    0.007
 5365.00    1.76020   1.58185    0.007
 5366.00    1.76011   1.58184    0.007
 5367.00    1.54844   1.58183    0.007
 5368.00    1.44006   1.58178   -2.000
 5369.00    1.43324   1.58173   -2.000
 5370.00    1.70891   1.58166   -2.000
 5371.00    2.22955   1.58158   -2.000
 5372.00    2.46795   1.58148   -2.000
 5373.00    2.49074   1.58137   -2.000
 5374.00    2.38902   1.58127   -2.000
 5375.00    2.20369   1.58117   -2.000
 5376.00    2.01571   1.58107   -2.000
 5377.00    1.82616   1.58096   -2.000
 5378.00    1.74423   1.58082   -2.000
 5379.00    1.71748   1.58068   -2.000
 5380.00    1.72417   1.58052   -2.000
 5381.00    1.74571   1.58032   -2.000
 5382.00    1.82910   1.58009   -2.000
 5383.00    1.93610   1.57983    0.006
 5384.00    1.72045   1.57954    0.006
 5385.00    1.40017   1.57920    0.006
 5386.00    1.54619   1.57879    0.006
 5387.00    1.81883   1.57834    0.006
 5388.00    2.03272   1.57779    0.006
 5389.00    2.23352   1.57708    0.006
 5390.00    2.11995   1.57617    0.006
 5391.00    1.95053   1.57494    0.006
 5392.00    1.80089   1.57319    0.006
 5393.00    1.65394   1.57057    0.006
 5394.00    1.53917   1.56666    0.006
 5395.00    1.42751   1.56096    0.006
 5396.00    1.53437   1.55295    0.006
 5397.00    1.65437   1.54206    0.006
 5398.00    1.67399   1.52779    0.006
 5399.00    1.68991   1.51076    0.006
 5400.00    1.52611   1.49341    0.006
 5401.00    1.37216   1.47892    0.006
 5402.00    1.47221   1.46939    0.006
 5403.00    1.55916   1.46561    0.006
 5404.00    1.46849   1.46800    0.006
 5405.00    1.40403   1.47724    0.006
 5406.00    1.57535   1.49247    0.006
 5407.00    1.70752   1.51034    0.006
 5408.00    1.58092   1.52711    0.006
 5409.00    1.45161   1.54096    0.006
 5410.00    1.30833   1.55183    0.006
 5411.00    1.25025   1.55994    0.006
 5412.00    1.54578   1.56562    0.006
 5413.00    1.80584   1.56937    0.006
 5414.00    1.94409   1.57176    0.007
 5415.00    2.00252   1.57330    0.007
 5416.00    1.83000   1.57430    0.006
 5417.00    1.62905   1.57491    0.006
 5418.00    1.35786   1.57532    0.006
 5419.00    1.27875   1.57559    0.006
 5420.00    1.60857   1.57580    0.006
 5421.00    1.78644   1.57596    0.006
 5422.00    1.68329   1.57604    0.006
 5423.00    1.59331   1.57613    0.006
 5424.00    1.52462   1.57625    0.006
 5425.00    1.61135   1.57635    0.006
 5426.00    1.91837   1.57647    0.006
 5427.00    2.00643   1.57658    0.006
 5428.00    1.82144   1.57670    0.006
 5429.00    1.69766   1.57681    0.006
 5430.00    1.64114   1.57689    0.006
 5431.00    1.47650   1.57694    0.006
 5432.00    1.20703   1.57691    0.006
 5433.00    1.21754   1.57686    0.006
 5434.00    1.46742   1.57676    0.006
 5435.00    1.60036   1.57664    0.006
 5436.00    1.64526   1.57653    0.006
 5437.00    1.76256   1.57639    0.006
 5438.00    1.92776   1.57628    0.006
 5439.00    1.99425   1.57615    0.006
 5440.00    2.00354   1.57599    0.006
 5441.00    1.85892   1.57581    0.006
 5442.00    1.63660   1.57558    0.006
 5443.00    1.62166   1.57535    0.006
 5444.00    1.69735   1.57516    0.006
 5445.00    1.67608   1.57503    0.006
 5446.00    1.61846   1.57494    0.006
 5447.00    1.49110   1.57492    0.006
 5448.00    1.34156   1.57498    0.006
 5449.00    1.49365   1.57505    0.006
 5450.00    1.72593   1.57511    0.006
 5451.00    1.70153   1.57510    0.006
 5452.00    1.62131   1.57505    0.006
 5453.00    1.59803   1.57494    0.006
 5454.00    1.58458   1.57479    0.006
 5455.00    1.56848   1.57463    0.006
 5456.00    1.55202   1.57447    0.006
 5457.00    1.58626   1.57434    0.006
 5458.00    1.62518   1.57422    0.006
 5459.00    1.60362   1.57412    0.006
 5460.00    1.57866   1.57402    0.006
 5461.00    1.57353   1.57394    0.006
 5462.00    1.57020   1.57382    0.006
 5463.00    1.70753   1.57372    0.006
 5464.00    1.83687   1.57361    0.006
 5465.00    1.77892   1.57348    0.006
 5466.00    1.74202   1.57337    0.006
 5467.00    1.97563   1.57325    0.006
 5468.00    2.16250   1.57319    0.006
 5469.00    1.94491   1.57314    0.006
 5470.00    1.74455   1.57309    0.006
 5471.00    1.65465   1.57303    0.006
 5472.00    1.59392   1.57297    0.006
 5473.00    1.67944   1.57293    0.006
 5474.00    1.74674   1.57287    0.006
 5475.00    1.74008   1.57281    0.006
 5476.00    1.79213   1.57271    0.006
 5477.00    2.04182   1.57262    0.006
 5478.00    2.23347   1.57253   -2.000
 5479.00    2.26031   1.57245   -2.000
 5480.00    2.22031   1.57236   -2.000
 5481.00    2.01808   1.57225   -2.000
 5482.00    1.98449   1.57215   -2.000
 5483.00    2.30418   1.57204   -2.000
 5484.00    2.36483   1.57195   -2.000
 5485.00    1.95371   1.57184   -2.000
 5486.00    1.93462   1.57172   -2.000
 5487.00    2.53957   1.57163   -2.000
 5488.00    2.64685   1.57154   -2.000
 5489.00    2.05892   1.57145   -2.000
 5490.00    1.52211   1.57135   -2.000
 5491.00    1.04818   1.57124   -2.000
 5492.00    0.81503   1.57113   -2.000
 5493.00    0.84285   1.57102   -2.000
 5494.00    1.04351   1.57089   -2.000
 5495.00    1.40940   1.57073   -2.000
 5496.00    1.67074   1.57058   -2.000
 5497.00    1.84397   1.57048   -2.000
 5498.00    2.00798   1.57039   -2.000
 5499.00    2.16516   1.57028   -2.000
 5500.00    2.23464   1.57015   -2.000
 5501.00    2.24694   1.57003   -2.000
 5502.00    2.14477   1.56994    0.006
 5503.00    1.97730   1.56981    0.006
 5504.00    1.91880   1.56968    0.006
 5505.00    1.91445   1.56957    0.006
 5506.00    1.77734   1.56947    0.006
 5507.00    1.58318   1.56935    0.006
 5508.00    1.56140   1.56923    0.006
 5509.00    1.60313   1.56913    0.006
 5510.00    1.47834   1.56903    0.006
 5511.00    1.30159   1.56890    0.006
 5512.00    1.39645   1.56874    0.006
 5513.00    1.56198   1.56857    0.006
 5514.00    1.52512   1.56841    0.006
 5515.00    1.44530   1.56823    0.006
 5516.00    1.31149   1.56803    0.006
 5517.00    1.16863   1.56783    0.006
 5518.00    1.12634   1.56765    0.006
 5519.00    1.09679   1.56753    0.006
 5520.00    1.09534   1.56745    0.006
 5521.00    1.09636   1.56736    0.006
 5522.00    1.37220   1.56729    0.006
 5523.00    1.66240   1.56723    0.006
 5524.00    1.74281   1.56717    0.006
 5525.00    1.81671   1.56710    0.006
 5526.00    1.69333   1.56699    0.006
 5527.00    1.57507   1.56688    0.006
 5528.00    1.56680   1.56678    0.006
 5529.00    1.56245   1.56669    0.006
 5530.00    1.60603   1.56657    0.006
 5531.00    1.66591   1.56645    0.006
 5532.00    1.86174   1.56635    0.006
 5533.00    2.01404   1.56626    0.006
 5534.00    1.89559   1.56616    0.006
 5535.00    1.78513   1.56604    0.006
 5536.00    1.71370   1.56593    0.006
 5537.00    1.65082   1.56583    0.005
 5538.00    1.62192   1.56573    0.005
 5539.00    1.57742   1.56561    0.006
 5540.00    1.48142   1.56547    0.015
 5541.00    1.41492   1.56535   -1.000
 5542.00    1.43072   1.56523   -1.000
 5543.00    1.46836   1.56509   -1.000
 5544.00    1.55817   1.56493   -1.000
 5545.00    1.62452   1.56481   -1.000
 5546.00    1.64251   1.56471   -1.000
 5547.00    1.64323   1.56459    0.031
 5548.00    1.61297   1.56446    0.008
 5549.00    1.55702   1.56431    0.006
 5550.00    1.46079   1.56418    0.006
 5551.00    1.40478   1.56401    0.006
 5552.00    1.40415   1.56383    0.006
 5553.00    1.45512   1.56362    0.006
 5554.00    1.56866   1.56341    0.006
 5555.00    1.60773   1.56323    0.006
 5556.00    1.56725   1.56307    0.006
 5557.00    1.47554   1.56293    0.006
 5558.00    1.33554   1.56278    0.006
 5559.00    1.25604   1.56262    0.006
 5560.00    1.22682   1.56249    0.006
 5561.00    1.20289   1.56238    0.006
 5562.00    1.18282   1.56225    0.006
 5563.00    1.25071   1.56211    0.006
 5564.00    1.37511   1.56200    0.005
 5565.00    1.57665   1.56191    0.006
 5566.00    1.82154   1.56180    0.006
 5567.00    1.80240   1.56168    0.005
 5568.00    1.65416   1.56156    0.005
 5569.00    1.59444   1.56144    0.005
 5570.00    1.57213   1.56133    0.005
 5571.00    1.64362   1.56118    0.006
 5572.00    1.74905   1.56103    0.005
 5573.00    1.67485   1.56088    0.005
 5574.00    1.54568   1.56072    0.005
 5575.00    1.63229   1.56051    0.005
 5576.00    1.77384   1.56019    0.006
 5577.00    1.76158   1.55976    0.005
 5578.00    1.71746   1.55927    0.005
 5579.00    1.65419   1.55876    0.005
 5580.00    1.58779   1.55818    0.005
 5581.00    1.76262   1.55741    0.006
 5582.00    1.96692   1.55671    0.006
 5583.00    2.04169   1.55636    0.005
 5584.00    2.10556   1.55643    0.005
 5585.00    1.73682   1.55655    0.006
 5586.00    1.34715   1.55669    0.006
 5587.00    1.31655   1.55703    0.006
 5588.00    1.29636   1.55749    0.006
 5589.00    1.57396   1.55785    0.006
 5590.00    1.84469   1.55799    0.006
 5591.00    1.97899   1.55801    0.006
 5592.00    2.09980   1.55798    0.006
 5593.00    2.06401   1.55789    0.006
 5594.00    2.00801   1.55776    0.006
 5595.00    1.78971   1.55759    0.006
 5596.00    1.63145   1.55741    0.006
 5597.00    1.83590   1.55727    0.006
 5598.00    1.96588   1.55715    0.006
 5599.00    1.74080   1.55702    0.006
 5600.00    1.57909   1.55690    0.006
 5601.00    1.66354   1.55678    0.006
 5602.00    1.74484   1.55666    0.006
 5603.00    1.81597   1.55651    0.006
 5604.00    1.81849   1.55637    0.006
 5605.00    1.63310   1.55620    0.006
 5606.00    1.48440   1.55606    0.006
 5607.00    1.42180   1.55592    0.006
 5608.00    1.38966   1.55581    0.006
 5609.00    1.41931   1.55570    0.006
 5610.00    1.50910   1.55560    0.005
 5611.00    1.70511   1.55550    0.005
 5612.00    1.84436   1.55537    0.005
 5613.00    1.89588   1.55524    0.005
 5614.00    1.85472   1.55509    0.005
 5615.00    1.68779   1.55493    0.005
 5616.00    1.67324   1.55477    0.005
 5617.00    1.84074   1.55458    0.005
 5618.00    1.88898   1.55442    0.005
 5619.00    1.81158   1.55426    0.005
 5620.00    1.74221   1.55411    0.005
 5621.00    1.68029   1.55396    0.005
 5622.00    1.66580   1.55381    0.005
 5623.00    1.69015   1.55366    0.005
 5624.00    1.63383   1.55350    0.005
 5625.00    1.51933   1.55330    0.005
 5626.00    1.41961   1.55306    0.005
 5627.00    1.32925   1.55281    0.005
 5628.00    1.35206   1.55257    0.005
 5629.00    1.43749   1.55226    0.005
 5630.00    1.46357   1.55198    0.005
 5631.00    1.46108   1.55175    0.005
 5632.00    1.51062   1.55161    0.005
 5633.00    1.58178   1.55147    0.005
 5634.00    1.77056   1.55131    0.005
 5635.00    2.00112   1.55118    0.006
 5636.00    1.94283   1.55106    0.006
 5637.00    1.79788   1.55097    0.006
 5638.00    1.75296   1.55087    0.006
 5639.00    1.73295   1.55076    0.005
 5640.00    1.66035   1.55067    0.006
 5641.00    1.57712   1.55061    0.006
 5642.00    1.53971   1.55055    0.005
 5643.00    1.50955   1.55045    0.005
 5644.00    1.46931   1.55035    0.005
 5645.00    1.42788   1.55019    0.005
 5646.00    1.37947   1.54998    0.005
 5647.00    1.33051   1.54975    0.005
 5648.00    1.31333   1.54949    0.005
 5649.00    1.29756   1.54921    0.005
 5650.00    1.41159   1.54893    0.005
 5651.00    1.52545   1.54869    0.005
 5652.00    1.55852   1.54847    0.005
 5653.00    1.59089   1.54823    0.005
 5654.00    1.61006   1.54801    0.005
 5655.00    1.63347   1.54783    0.005
 5656.00    1.70373   1.54768    0.005
 5657.00    1.75620   1.54750    0.005
 5658.00    1.67068   1.54735    0.005
 5659.00    1.59862   1.54725    0.005
 5660.00    1.60560   1.54716    0.005
 5661.00    1.58843   1.54706    0.005
 5662.00    1.45893   1.54693    0.005
 5663.00    1.35525   1.54681    0.005
 5664.00    1.34977   1.54664    0.005
 5665.00    1.36835   1.54643    0.005
 5666.00    1.46329   1.54618    0.005
 5667.00    1.58416   1.54596    0.005
 5668.00    1.77477   1.54575    0.005
 5669.00    1.88089   1.54552    0.005
 5670.00    1.79206   1.54531    0.005
 5671.00    1.72802   1.54516    0.005
 5672.00    1.71349   1.54509    0.005
 5673.00    1.71889   1.54498    0.005
 5674.00    1.75897   1.54486    0.006
 5675.00    1.67796   1.54472    0.006
 5676.00    1.41258   1.54462    0.006
 5677.00    1.27799   1.54449    0.006
 5678.00    1.31831   1.54434    0.006
 5679.00    1.33623   1.54420    0.006
 5680.00    1.32777   1.54403    0.006
 5681.00    1.27740   1.54382    0.006
 5682.00    1.18351   1.54356    0.006
 5683.00    1.17236   1.54329    0.006
 5684.00    1.23702   1.54301    0.005
 5685.00    1.25998   1.54266    0.005
 5686.00    1.24926   1.54227    0.005
 5687.00    1.27925   1.54199    0.005
 5688.00    1.33816   1.54189    0.005
 5689.00    1.39687   1.54183    0.005
 5690.00    1.45546   1.54172    0.005
 5691.00    1.58263   1.54166    0.005
 5692.00    1.74714   1.54168    0.005
 5693.00    1.77635   1.54166    0.005
 5694.00    1.74148   1.54154    0.005
 5695.00    1.74538   1.54139    0.005
 5696.00    1.76510   1.54126    0.005
 5697.00    1.77232   1.54111    0.005
 5698.00    1.77519   1.54089    0.005
 5699.00    1.84519   1.54069    0.005
 5700.00    1.93494   1.54051    0.005
 5701.00    1.89428   1.54035    0.005
 5702.00    1.82184   1.54018    0.005
 5703.00    1.68337   1.54001    0.005
 5704.00    1.53190   1.53991    0.005
 5705.00    1.65240   1.53982    0.005
 5706.00    1.81467   1.53971    0.005
 5707.00    1.69715   1.53958    0.005
 5708.00    1.54791   1.53941    0.005
 5709.00    1.48003   1.53925    0.005
 5710.00    1.41833   1.53905    0.005
 5711.00    1.51378   1.53882    0.005
 5712.00    1.61563   1.53856    0.005
 5713.00    1.74970   1.53831    0.005
 5714.00    1.87808   1.53812    0.005
 5715.00    1.76146   1.53792    0.005
 5716.00    1.65005   1.53776    0.005
 5717.00    1.62801   1.53757    0.005
 5718.00    1.60468   1.53746    0.005
 5719.00    1.56755   1.53731    0.005
 5720.00    1.52667   1.53717    0.005
 5721.00    1.45766   1.53701    0.005
 5722.00    1.41072   1.53682    0.005
 5723.00    1.48966   1.53662    0.005
 5724.00    1.56573   1.53640    0.005
 5725.00    1.62873   1.53613    0.005
 5726.00    1.68153   1.53580    0.005
 5727.00    1.69639   1.53549    0.005
 5728.00    1.68701   1.53518    0.005
 5729.00    1.60221   1.53483    0.005
 5730.00    1.56068   1.53448    0.005
 5731.00    1.63351   1.53424    0.005
 5732.00    1.61076   1.53416    0.005
 5733.00    1.37107   1.53410    0.005
 5734.00    1.21136   1.53402    0.005
 5735.00    1.20880   1.53395    0.005
 5736.00    1.27225   1.53396    0.005
 5737.00    1.44876   1.53390    0.005
 5738.00    1.56205   1.53377    0.005
 5739.00    1.58048   1.53357    0.005
 5740.00    1.59710   1.53342    0.000
 5741.00    1.61135   1.53321    0.000
 5742.00    1.66505   1.53300    0.000
 5743.00    1.76458   1.53274    0.000
 5744.00    1.75703   1.53255    0.000
 5745.00    1.63983   1.53237    0.000
 5746.00    1.55612   1.53221    0.000
 5747.00    1.50267   1.53208    0.000
 5748.00    1.49390   1.53197    0.000
 5749.00    1.52071   1.53187    0.000
 5750.00    1.53241   1.53175    0.000
 5751.00    1.53353   1.53164    0.000
 5752.00    1.58396   1.53148    0.000
 5753.00    1.66469   1.53129    0.000
 5754.00    1.65013   1.53109    0.000
 5755.00    1.58444   1.53090    0.000
 5756.00    1.58125   1.53070    0.000
 5757.00    1.60717   1.53051    0.000
 5758.00    1.68395   1.53027    0.000
 5759.00    1.78114   1.53008    0.000
 5760.00    1.84935   1.52989    0.000
 5761.00    1.90762   1.52967    0.000
 5762.00    1.84149   1.52940    0.000
 5763.00    1.73949   1.52918    0.000
 5764.00    1.65491   1.52900    0.000
 5765.00    1.57446   1.52874    0.000
 5766.00    1.55039   1.52847    0.000
 5767.00    1.53712   1.52825    0.000
 5768.00    1.61893   1.52807    0.000
 5769.00    1.71490   1.52784    0.000
 5770.00    1.64328   1.52763    0.000
 5771.00    1.55340   1.52742    0.000
 5772.00    1.53628   1.52722    0.000
 5773.00    1.52436   1.52701    0.000
 5774.00    1.63964   1.52684    0.000
 5775.00    1.75959   1.52662    0.000
 5776.00    1.84715   1.52644    0.000
 5777.00    1.92893   1.52627    0.000
 5778.00    1.80894   1.52613    0.000
 5779.00    1.68904   1.52596    0.000
 5780.00    1.57044   1.52583    0.000
 5781.00    1.46608   1.52566    0.000
 5782.00    1.50590   1.52546    0.000
 5783.00    1.54014   1.52531    0.000
 5784.00    1.53391   1.52512    0.000
 5785.00    1.55349   1.52490    0.000
 5786.00    1.71632   1.52466    0.000
 5787.00    1.84725   1.52444    0.000
 5788.00    1.83667   1.52417    0.000
 5789.00    1.82810   1.52388    0.000
 5790.00    1.82684   1.52364    0.000
 5791.00    1.83928   1.52341   -2.000
 5792.00    1.89359   1.52320   -2.000
 5793.00    1.88696   1.52301   -2.000
 5794.00    1.72207   1.52290   -2.000
 5795.00    1.58959   1.52276   -2.000
 5796.00    1.52942   1.52260   -2.000
 5797.00    1.50198   1.52242   -2.000
 5798.00    1.53785   1.52220   -2.000
 5799.00    1.58015   1.52193   -2.000
 5800.00    1.63328   1.52168   -2.000
 5801.00    1.65575   1.52148   -2.000
 5802.00    1.63290   1.52120   -2.000
 5803.00    1.54911   1.52098   -2.000
 5804.00    1.38613   1.52088   -2.000
 5805.00    1.32063   1.52083   -2.000
 5806.00    1.36673   1.52070   -2.000
 5807.00    1.44254   1.52064   -2.000
 5808.00    1.54835   1.52057   -2.000
 5809.00    1.62348   1.52051   -2.000
 5810.00    1.67130   1.52045   -2.000
 5811.00    1.75493   1.52041    0.000
 5812.00    1.86666   1.52041    0.000
 5813.00    1.94058   1.52049    0.000
 5814.00    1.98839   1.52057    0.000
 5815.00    1.93162   1.52054    0.000
 5816.00    1.81157   1.52053    0.000
 5817.00    1.79063   1.52049    0.000
 5818.00    1.82204   1.52030    0.000
 5819.00    1.79932   1.51992    0.000
 5820.00    1.75180   1.51951    0.000
 5821.00    1.72810   1.51915    0.000
 5822.00    1.71378   1.51878    0.000
 5823.00    1.63632   1.51841    0.000
 5824.00    1.53764   1.51811    0.000
 5825.00    1.51622   1.51788    0.000
 5826.00    1.51661   1.51769    0.000
 5827.00    1.46632   1.51754    0.000
 5828.00    1.40423   1.51738    0.000
 5829.00    1.39036   1.51721    0.000
 5830.00    1.38551   1.51701    0.000
 5831.00    1.43784   1.51684    0.000
 5832.00    1.49841   1.51663    0.000
 5833.00    1.58350   1.51639    0.000
 5834.00    1.67114   1.51612    0.000
 5835.00    1.72241   1.51591    0.000
 5836.00    1.77121   1.51568    0.000
 5837.00    1.79107   1.51542    0.000
 5838.00    1.80998   1.51516    0.000
 5839.00    1.86954   1.51492    0.000
 5840.00    1.92943   1.51466    0.000
 5841.00    1.99923   1.51438    0.000
 5842.00    2.05801   1.51411    0.000
 5843.00    1.95045   1.51385    0.000
 5844.00    1.83406   1.51360    0.000
 5845.00    1.63200   1.51336    0.000
 5846.00    1.44788   1.51318    0.000
 5847.00    1.38948   1.51300    0.000
 5848.00    1.33565   1.51280    0.000
 5849.00    1.30657   1.51260    0.000
 5850.00    1.32635   1.51241    0.000
 5851.00    1.55786   1.51219    0.000
 5852.00    1.75391   1.51189    0.000
 5853.00    1.82339   1.51157    0.000
 5854.00    1.84360   1.51116    0.000
 5855.00    1.71615   1.51055    0.000
 5856.00    1.61890   1.50967    0.000
 5857.00    1.59867   1.50819    0.000
 5858.00    1.58103   1.50541    0.000
 5859.00    1.56905   1.50095    0.000
 5860.00    1.55810   1.49507    0.000
 5861.00    1.54911   1.48642    0.000
 5862.00    1.62061   1.47368    0.000
 5863.00    1.82588   1.45938    0.000
 5864.00    1.92592   1.44776    0.000
 5865.00    1.87266   1.43847    0.000
 5866.00    1.81214   1.43036    0.000
 5867.00    1.74232   1.42780    0.000
 5868.00    1.72596   1.43440    0.000
 5869.00    1.76992   1.44673    0.000
 5870.00    1.81553   1.45856    0.000
 5871.00    1.86276   1.46986    0.000
 5872.00    1.86923   1.48157    0.000
 5873.00    1.83990   1.49143    0.000
 5874.00    1.79598   1.49746    0.000
 5875.00    1.74077   1.50095    0.000
 5876.00    1.60276   1.50309    0.000
 5877.00    1.40845   1.50411    0.000
 5878.00    1.32214   1.50433    0.000
 5879.00    1.30020   1.50424    0.000
 5880.00    1.35216   1.50400    0.000
 5881.00    1.44255   1.50369    0.000
 5882.00    1.45098   1.50347    0.000
 5883.00    1.42246   1.50335    0.000
 5884.00    1.46962   1.50326    0.000
 5885.00    1.54611   1.50322    0.000
 5886.00    1.62106   1.50321    0.000
 5887.00    1.69550   1.50319    0.000
 5888.00    1.65495   1.50322    0.000
 5889.00    1.58261   1.50332    0.000
 5890.00    1.55454   1.50340    0.000
 5891.00    1.53654   1.50344    0.000
 5892.00    1.55666   1.50348    0.000
 5893.00    1.58372   1.50351    0.000
 5894.00    1.54259   1.50348    0.000
 5895.00    1.49192   1.50341    0.000
 5896.00    1.47520   1.50331    0.000
 5897.00    1.46189   1.50317    0.000
 5898.00    1.50525   1.50300    0.000
 5899.00    1.55222   1.50282    0.000
 5900.00    1.47629   1.50263    0.000
 5901.00    1.39693   1.50241    0.005
 5902.00    1.37334   1.50220    0.005
 5903.00    1.35260   1.50201    0.005
 5904.00    1.41223   1.50182    0.005
 5905.00    1.46321   1.50160    0.005
 5906.00    1.39115   1.50137    0.005
 5907.00    1.33497   1.50118    0.005
 5908.00    1.42676   1.50098    0.005
 5909.00    1.51126   1.50075    0.005
 5910.00    1.54622   1.50054    0.005
 5911.00    1.56062   1.50038    0.005
 5912.00    1.46674   1.50020    0.005
 5913.00    1.36523   1.50003    0.005
 5914.00    1.23145   1.49987    0.005
 5915.00    1.12531   1.49969    0.005
 5916.00    1.11581   1.49947    0.005
 5917.00    1.14530   1.49928    0.005
 5918.00    1.28950   1.49905    0.005
 5919.00    1.42752   1.49880    0.005
 5920.00    1.55003   1.49856    0.005
 5921.00    1.62417   1.49837    0.005
 5922.00    1.59387   1.49816    0.005
 5923.00    1.56683   1.49796    0.005
 5924.00    1.54592   1.49779    0.005
 5925.00    1.56169   1.49761    0.005
 5926.00    1.63754   1.49743    0.005
 5927.00    1.67256   1.49724    0.005
 5928.00    1.64898   1.49705    0.005
 5929.00    1.57829   1.49684    0.005
 5930.00    1.44812   1.49664    0.005
 5931.00    1.35341   1.49640    0.005
 5932.00    1.29816   1.49616    0.005
 5933.00    1.26254   1.49595    0.005
 5934.00    1.24618   1.49570    0.005
 5935.00    1.29390   1.49545    0.005
 5936.00    1.39710   1.49523    0.005
 5937.00    1.47682   1.49498    0.005
 5938.00    1.53865   1.49471    0.005
 5939.00    1.51242   1.49447    0.005
 5940.00    1.42719   1.49422    0.005
 5941.00    1.38271   1.49393    0.005
 5942.00    1.36215   1.49366    0.005
 5943.00    1.43311   1.49340    0.005
 5944.00    1.55091   1.49314    0.005
 5945.00    1.54866   1.49290    0.005
 5946.00    1.49317   1.49272    0.005
 5947.00    1.45325   1.49255    0.005
 5948.00    1.41924   1.49244    0.005
 5949.00    1.42697   1.49233    0.005
 5950.00    1.44820   1.49224    0.005
 5951.00    1.46690   1.49219    0.005
 5952.00    1.48492   1.49212    0.005
 5953.00    1.46868   1.49202    0.005
 5954.00    1.44484   1.49190    0.005
 5955.00    1.44871   1.49180    0.005
 5956.00    1.45750   1.49163    0.005
 5957.00    1.48813   1.49144    0.005
 5958.00    1.52171   1.49125    0.005
 5959.00    1.42145   1.49103    0.005
 5960.00    1.30832   1.49076    0.005
 5961.00    1.38318   1.49048    0.005
 5962.00    1.46926   1.49018    0.005
 5963.00    1.57143   1.48982    0.005
 5964.00    1.67243   1.48948    0.005
 5965.00    1.52732   1.48911    0.005
 5966.00    1.38781   1.48873    0.005
 5967.00    1.39083   1.48835    0.005
 5968.00    1.38770   1.48809    0.005
 5969.00    1.30184   1.48787    0.005
 5970.00    1.22169   1.48768    0.005
 5971.00    1.19268   1.48753    0.005
 5972.00    1.17439   1.48753    0.005
 5973.00    1.22663   1.48751    0.005
 5974.00    1.28740   1.48747    0.005
 5975.00    1.39194   1.48742    0.005
 5976.00    1.49996   1.48738    0.005
 5977.00    1.62243   1.48726    0.005
 5978.00    1.69884   1.48713    0.005
 5979.00    1.61745   1.48700    0.005
 5980.00    1.55699   1.48683    0.005
 5981.00    1.55694   1.48663    0.005
 5982.00    1.55981   1.48645    0.005
 5983.00    1.56989   1.48627    0.005
 5984.00    1.55587   1.48605    0.005
 5985.00    1.49065   1.48580    0.005
 5986.00    1.45354   1.48558    0.005
 5987.00    1.46835   1.48532    0.005
 5988.00    1.45584   1.48503    0.005
 5989.00    1.39929   1.48474    0.005
 5990.00    1.36391   1.48447    0.005
 5991.00    1.35850   1.48418    0.005
 5992.00    1.37314   1.48391    0.005
 5993.00    1.41276   1.48364    0.005
 5994.00    1.42810   1.48338    0.005
 5995.00    1.41678   1.48315    0.005
 5996.00    1.41492   1.48296    0.005
 5997.00    1.42223   1.48274    0.005
 5998.00    1.43981   1.48256    0.005
 5999.00    1.46615   1.48241    0.005
 6000.00    1.46041   1.48231    0.005
 6001.00    1.43054   1.48219    0.005
 6002.00    1.43324   1.48210    0.005
 6003.00    1.45746   1.48203    0.005
 6004.00    1.51033   1.48194    0.005
 6005.00    1.57977   1.48185    0.005
 6006.00    1.60219   1.48171    0.005
 6007.00    1.60092   1.48160    0.005
 6008.00    1.57935   1.48143    0.005
 6009.00    1.54892   1.48128    0.005
 6010.00    1.55568   1.48108    0.005
 6011.00    1.57634   1.48091    0.005
 6012.00    1.56218   1.48069    0.005
 6013.00    1.53696   1.48047    0.005
 6014.00    1.52511   1.48022    0.005
 6015.00    1.51681   1.47999    0.005
 6016.00    1.56298   1.47969    0.005
 6017.00    1.62097   1.47937    0.005
 6018.00    1.63741   1.47909    0.005
 6019.00    1.64670   1.47876    0.005
 6020.00    1.64875   1.47838    0.005
 6021.00    1.64985   1.47803    0.005
 6022.00    1.61515   1.47771    0.005
 6023.00    1.57715   1.47735    0.005
 6024.00    1.53999   1.47700    0.005
 6025.00    1.50286   1.47675    0.005
 6026.00    1.52891   1.47648    0.005
 6027.00    1.55482   1.47625    0.005
 6028.00    1.42948   1.47612    0.005
 6029.00    1.31090   1.47601    0.005
 6030.00    1.34900   1.47590    0.005
 6031.00    1.38705   1.47582    0.005
 6032.00    1.42435   1.47577    0.005
 6033.00    1.45538   1.47569    0.005
 6034.00    1.43236   1.47560    0.005
 6035.00    1.40688   1.47547    0.005
 6036.00    1.36571   1.47535    0.005
 6037.00    1.31622   1.47525    0.005
 6038.00    1.22519   1.47510    0.005
 6039.00    1.16448   1.47496    0.005
 6040.00    1.22652   1.47482    0.005
 6041.00    1.29538   1.47469    0.005
 6042.00    1.38718   1.47454    0.005
 6043.00    1.44358   1.47436    0.005
 6044.00    1.39967   1.47419    0.005
 6045.00    1.34275   1.47404    0.005
 6046.00    1.25434   1.47387    0.005
 6047.00    1.18896   1.47363    0.005
 6048.00    1.17176   1.47342    0.005
 6049.00    1.18055   1.47319    0.005
 6050.00    1.23656   1.47295    0.005
 6051.00    1.27451   1.47266    0.005
 6052.00    1.28375   1.47237    0.005
 6053.00    1.27604   1.47205    0.005
 6054.00    1.24469   1.47175    0.005
 6055.00    1.27694   1.47140    0.005
 6056.00    1.38725   1.47103    0.005
 6057.00    1.42990   1.47066    0.005
 6058.00    1.39934   1.47025    0.005
 6059.00    1.36631   1.46987    0.005
 6060.00    1.33092   1.46946    0.005
 6061.00    1.37619   1.46909    0.005
 6062.00    1.48931   1.46873    0.005
 6063.00    1.57058   1.46845    0.004
 6064.00    1.62826   1.46822    0.004
 6065.00    1.58083   1.46800    0.004
 6066.00    1.46500   1.46787    0.005
 6067.00    1.39070   1.46778    0.005
 6068.00    1.34005   1.46768    0.004
 6069.00    1.40125   1.46763    0.005
 6070.00    1.51791   1.46761    0.005
 6071.00    1.49535   1.46754    0.005
 6072.00    1.41310   1.46749    0.005
 6073.00    1.31045   1.46748    0.005
 6074.00    1.20029   1.46743    0.005
 6075.00    1.18265   1.46730    0.005
 6076.00    1.19380   1.46723    0.005
 6077.00    1.22188   1.46714    0.005
 6078.00    1.25434   1.46699    0.005
 6079.00    1.29390   1.46682    0.005
 6080.00    1.33496   1.46668    0.005
 6081.00    1.36797   1.46650    0.005
 6082.00    1.39963   1.46632    0.005
 6083.00    1.38941   1.46616    0.005
 6084.00    1.37391   1.46596    0.005
 6085.00    1.39934   1.46577    0.005
 6086.00    1.42836   1.46559    0.005
 6087.00    1.54923   1.46539    0.005
 6088.00    1.67486   1.46518    0.005
 6089.00    1.55171   1.46496    0.004
 6090.00    1.42367   1.46474    0.004
 6091.00    1.26942   1.46451    0.004
 6092.00    1.12707   1.46425    0.004
 6093.00    1.23804   1.46399    0.004
 6094.00    1.34312   1.46374    0.004
 6095.00    1.37672   1.46345    0.004
 6096.00    1.39841   1.46313    0.004
 6097.00    1.32127   1.46281    0.004
 6098.00    1.25672   1.46245    0.004
 6099.00    1.27026   1.46206    0.004
 6100.00    1.28039   1.46168    0.004
 6101.00    1.27391   1.46125    0.005
 6102.00    1.27405   1.46083    0.005
 6103.00    1.30037   1.46043    0.005
 6104.00    1.31677   1.46002    0.005
 6105.00    1.30050   1.45963    0.005
 6106.00    1.27509   1.45927    0.005
 6107.00    1.22425   1.45896    0.005
 6108.00    1.21599   1.45869    0.005
 6109.00    1.30914   1.45850    0.005
 6110.00    1.38670   1.45832    0.005
 6111.00    1.43219   1.45819    0.005
 6112.00    1.47565   1.45816    0.005
 6113.00    1.51551   1.45816    0.005
 6114.00    1.52985   1.45810    0.005
 6115.00    1.50425   1.45815    0.005
 6116.00    1.49120   1.45822    0.004
 6117.00    1.49539   1.45825    0.004
 6118.00    1.46193   1.45830    0.004
 6119.00    1.38291   1.45833    0.004
 6120.00    1.33378   1.45830    0.004
 6121.00    1.31652   1.45830    0.004
 6122.00    1.32904   1.45819    0.004
 6123.00    1.36958   1.45802    0.004
 6124.00    1.39092   1.45786    0.004
 6125.00    1.39635   1.45765    0.004
 6126.00    1.41186   1.45740    0.004
 6127.00    1.43473   1.45720    0.005
 6128.00    1.42036   1.45701    0.005
 6129.00    1.38211   1.45682    0.005
 6130.00    1.36441   1.45665    0.005
 6131.00    1.35825   1.45649    0.005
 6132.00    1.33700   1.45634    0.005
 6133.00    1.30838   1.45618    0.005
 6134.00    1.33505   1.45601    0.005
 6135.00    1.38504   1.45582    0.005
 6136.00    1.45591   1.45560    0.005
 6137.00    1.53431   1.45539    0.005
 6138.00    1.59972   1.45509    0.005
 6139.00    1.66116   1.45479    0.005
 6140.00    1.58793   1.45452    0.005
 6141.00    1.48050   1.45423    0.005
 6142.00    1.42175   1.45390    0.005
 6143.00    1.37304   1.45363    0.004
 6144.00    1.39891   1.45336    0.004
 6145.00    1.43689   1.45309    0.004
 6146.00    1.43318   1.45279    0.004
 6147.00    1.42440   1.45251    0.004
 6148.00    1.41786   1.45221    0.008
 6149.00    1.41150   1.45184    0.193
 6150.00    1.51428   1.45145   -1.000
 6151.00    1.62229   1.45099   -1.000
 6152.00    1.79381   1.45054   -1.000
 6153.00    1.96341   1.45000   -1.000
 6154.00    1.96794   1.44944   -1.000
 6155.00    1.96369   1.44887   -1.000
 6156.00    1.78693   1.44828   -1.000
 6157.00    1.60571   1.44776   -1.000
 6158.00    1.37305   1.44725   -1.000
 6159.00    1.17232   1.44681    0.083
 6160.00    1.22714   1.44652    0.008
 6161.00    1.28275   1.44635    0.005
 6162.00    1.34316   1.44620    0.005
 6163.00    1.39957   1.44617    0.004
 6164.00    1.43694   1.44629    0.005
 6165.00    1.47312   1.44638    0.005
 6166.00    1.50470   1.44643    0.005
 6167.00    1.51987   1.44660    0.005
 6168.00    1.48210   1.44675    0.005
 6169.00    1.45652   1.44677    0.004
 6170.00    1.46424   1.44684    0.004
 6171.00    1.45276   1.44692    0.004
 6172.00    1.39631   1.44692    0.004
 6173.00    1.33265   1.44689    0.004
 6174.00    1.25441   1.44686    0.004
 6175.00    1.19616   1.44678    0.004
 6176.00    1.17317   1.44673    0.004
 6177.00    1.19007   1.44657    0.004
 6178.00    1.26851   1.44647    0.004
 6179.00    1.32452   1.44635    0.004
 6180.00    1.35013   1.44621    0.004
 6181.00    1.39774   1.44602    0.004
 6182.00    1.47159   1.44590    0.004
 6183.00    1.51979   1.44575    0.004
 6184.00    1.54102   1.44552    0.004
 6185.00    1.50727   1.44533    0.004
 6186.00    1.42255   1.44516    0.004
 6187.00    1.36102   1.44492    0.004
 6188.00    1.31846   1.44472    0.004
 6189.00    1.30774   1.44452    0.004
 6190.00    1.31993   1.44432    0.005
 6191.00    1.35234   1.44416    0.005
 6192.00    1.39752   1.44400    0.005
 6193.00    1.47026   1.44379    0.005
 6194.00    1.55822   1.44360    0.005
 6195.00    1.59409   1.44343    0.005
 6196.00    1.60494   1.44321   -2.000
 6197.00    1.62199   1.44300   -2.000
 6198.00    1.64162   1.44277   -2.000
 6199.00    1.46084   1.44257   -2.000
 6200.00    1.20903   1.44235   -2.000
 6201.00    0.87020   1.44211   -2.000
 6202.00    0.50534   1.44187   -2.000
 6203.00    0.65718   1.44163   -2.000
 6204.00    0.93736   1.44138   -2.000
 6205.00    1.17939   1.44112   -2.000
 6206.00    1.41375   1.44086   -2.000
 6207.00    1.52370   1.44058   -2.000
 6208.00    1.61403   1.44030    0.005
 6209.00    1.52158   1.43998    0.005
 6210.00    1.40771   1.43964    0.004
 6211.00    1.32484   1.43926    0.004
 6212.00    1.24443   1.43886    0.004
 6213.00    1.31089   1.43840    0.004
 6214.00    1.38382   1.43790    0.005
 6215.00    1.47041   1.43739    0.004
 6216.00    1.55311   1.43681    0.004
 6217.00    1.44346   1.43618    0.004
 6218.00    1.33794   1.43556    0.004
 6219.00    1.30784   1.43493    0.004
 6220.00    1.28844   1.43426    0.004
 6221.00    1.38691   1.43370    0.004
 6222.00    1.47598   1.43324    0.004
 6223.00    1.49241   1.43283    0.004
 6224.00    1.50459   1.43259    0.004
 6225.00    1.49184   1.43248    0.004
 6226.00    1.47924   1.43246    0.004
 6227.00    1.46733   1.43257    0.004
 6228.00    1.44293   1.43273    0.004
 6229.00    1.37121   1.43292    0.004
 6230.00    1.32924   1.43315    0.004
 6231.00    1.38144   1.43337    0.004
 6232.00    1.41730   1.43354    0.004
 6233.00    1.40931   1.43372    0.004
 6234.00    1.39172   1.43388    0.004
 6235.00    1.35204   1.43394    0.004
 6236.00    1.31077   1.43402    0.004
 6237.00    1.26633   1.43407    0.004
 6238.00    1.23619   1.43403    0.004
 6239.00    1.23086   1.43400    0.004
 6240.00    1.22610   1.43394    0.004
 6241.00    1.22221   1.43382    0.004
 6242.00    1.21888   1.43365    0.004
 6243.00    1.21628   1.43353    0.004
 6244.00    1.24599   1.43333    0.004
 6245.00    1.31369   1.43310    0.004
 6246.00    1.35645   1.43293    0.004
 6247.00    1.37335   1.43272    0.004
 6248.00    1.39229   1.43251    0.004
 6249.00    1.41307   1.43230    0.004
 6250.00    1.37191   1.43212    0.004
 6251.00    1.28080   1.43191    0.004
 6252.00    1.21658   1.43170    0.004
 6253.00    1.17144   1.43151    0.004
 6254.00    1.21531   1.43128    0.004
 6255.00    1.31459   1.43106    0.004
 6256.00    1.36701   1.43085    0.004
 6257.00    1.39397   1.43064    0.004
 6258.00    1.38985   1.43038    0.004
 6259.00    1.37105   1.43019    0.005
 6260.00    1.40734   1.43000    0.005
 6261.00    1.46607   1.42975    0.005
 6262.00    1.55356   1.42954    0.005
 6263.00    1.65106   1.42933    0.006
 6264.00    1.62988   1.42908    0.005
 6265.00    1.57389   1.42884    0.005
 6266.00    1.52585   1.42859    0.005
 6267.00    1.47975   1.42834    0.005
 6268.00    1.43568   1.42810    0.005
 6269.00    1.39201   1.42787    0.004
 6270.00    1.37470   1.42760    0.004
 6271.00    1.36142   1.42737    0.004
 6272.00    1.34845   1.42715    0.004
 6273.00    1.33551   1.42691    0.004
 6274.00    1.36606   1.42668    0.004
 6275.00    1.39989   1.42648    0.004
 6276.00    1.43201   1.42630    0.004
 6277.00    1.46406   1.42611    0.004
 6278.00    1.46069   1.42595    0.004
 6279.00    1.45598   1.42579    0.004
 6280.00    1.40751   1.42563    0.000
 6281.00    1.35853   1.42545    0.000
 6282.00    1.30072   1.42522    0.000
 6283.00    1.24574   1.42497    0.000
 6284.00    1.22049   1.42472    0.000
 6285.00    1.19644   1.42439    0.000
 6286.00    1.18138   1.42401    0.000
 6287.00    1.17125   1.42368    0.000
 6288.00    1.18910   1.42326    0.000
 6289.00    1.20463   1.42278    0.000
 6290.00    1.20960   1.42232    0.000
 6291.00    1.22289   1.42181    0.000
 6292.00    1.26701   1.42118    0.000
 6293.00    1.30248   1.42055    0.000
 6294.00    1.31107   1.41989    0.000
 6295.00    1.30733   1.41915    0.000
 6296.00    1.27104   1.41842    0.000
 6297.00    1.26457   1.41772    0.000
 6298.00    1.32566   1.41706    0.000
 6299.00    1.36845   1.41650    0.000
 6300.00    1.37538   1.41609    0.000
 6301.00    1.38052   1.41579    0.000
 6302.00    1.38260   1.41569    0.000
 6303.00    1.37427   1.41575    0.000
 6304.00    1.35034   1.41593    0.000
 6305.00    1.32823   1.41624    0.000
 6306.00    1.30852   1.41659    0.000
 6307.00    1.30125   1.41698    0.000
 6308.00    1.30841   1.41738    0.000
 6309.00    1.28271   1.41769    0.000
 6310.00    1.22343   1.41794    0.000
 6311.00    1.19423   1.41820    0.000
 6312.00    1.19216   1.41837    0.000
 6313.00    1.20581   1.41839    0.000
 6314.00    1.23195   1.41851    0.000
 6315.00    1.29988   1.41852    0.000
 6316.00    1.39703   1.41844    0.000
 6317.00    1.42001   1.41843    0.000
 6318.00    1.39753   1.41831    0.000
 6319.00    1.36560   1.41817    0.000
 6320.00    1.32862   1.41805    0.000
 6321.00    1.35666   1.41788    0.004
 6322.00    1.41492   1.41766    0.004
 6323.00    1.41328   1.41746    0.004
 6324.00    1.38764   1.41731    0.004
 6325.00    1.37793   1.41704    0.004
 6326.00    1.37365   1.41680    0.004
 6327.00    1.36853   1.41661    0.004
 6328.00    1.36318   1.41631    0.004
 6329.00    1.27670   1.41597    0.004
 6330.00    1.17095   1.41561    0.004
 6331.00    1.16544   1.41519    0.004
 6332.00    1.17910   1.41466    0.004
 6333.00    1.23215   1.41407    0.004
 6334.00    1.29104   1.41353    0.004
 6335.00    1.33459   1.41305    0.004
 6336.00    1.37648   1.41259    0.004
 6337.00    1.39034   1.41230    0.004
 6338.00    1.40221   1.41226    0.004
 6339.00    1.37613   1.41231    0.004
 6340.00    1.34867   1.41241    0.004
 6341.00    1.34007   1.41259    0.004
 6342.00    1.33088   1.41284    0.004
 6343.00    1.29831   1.41292    0.004
 6344.00    1.26848   1.41291    0.004
 6345.00    1.28244   1.41289    0.004
 6346.00    1.30088   1.41278    0.004
 6347.00    1.36443   1.41263    0.004
 6348.00    1.41289   1.41247    0.004
 6349.00    1.35245   1.41229    0.004
 6350.00    1.29707   1.41212    0.004
 6351.00    1.26969   1.41193    0.004
 6352.00    1.25219   1.41167    0.004
 6353.00    1.27848   1.41142    0.004
 6354.00    1.29425   1.41114    0.004
 6355.00    1.27181   1.41074    0.004
 6356.00    1.25940   1.41035    0.004
 6357.00    1.27752   1.40991    0.004
 6358.00    1.27409   1.40943    0.004
 6359.00    1.21485   1.40904    0.004
 6360.00    1.17291   1.40865    0.004
 6361.00    1.16950   1.40831    0.004
 6362.00    1.18153   1.40811    0.004
 6363.00    1.22338   1.40798    0.004
 6364.00    1.26490   1.40782    0.004
 6365.00    1.30585   1.40765    0.004
 6366.00    1.33626   1.40751    0.004
 6367.00    1.35112   1.40727    0.004
 6368.00    1.33139   1.40694    0.004
 6369.00    1.26678   1.40662    0.004
 6370.00    1.20511   1.40635    0.004
 6371.00    1.14679   1.40609    0.004
 6372.00    1.10843   1.40589    0.004
 6373.00    1.09021   1.40587    0.004
 6374.00    1.11323   1.40579    0.004
 6375.00    1.17292   1.40572    0.004
 6376.00    1.17349   1.40577    0.004
 6377.00    1.12775   1.40566    0.004
 6378.00    1.08504   1.40553    0.004
 6379.00    1.04444   1.40541    0.004
 6380.00    1.05060   1.40516    0.004
 6381.00    1.08501   1.40489    0.004
 6382.00    1.12899   1.40460    0.004
 6383.00    1.17801   1.40418    0.004
 6384.00    1.19085   1.40372    0.004
 6385.00    1.18714   1.40323    0.004
 6386.00    1.15654   1.40256    0.004
 6387.00    1.11536   1.40183    0.004
 6388.00    1.07573   1.40105    0.004
 6389.00    1.03662   1.40013    0.004
 6390.00    1.05803   1.39908    0.004
 6391.00    1.09650   1.39815    0.004
 6392.00    1.14504   1.39715    0.004
 6393.00    1.19592   1.39613    0.004
 6394.00    1.20980   1.39546    0.004
 6395.00    1.21678   1.39487    0.004
 6396.00    1.21811   1.39444    0.004
 6397.00    1.21863   1.39444    0.005
 6398.00    1.15005   1.39461    0.004
 6399.00    1.07427   1.39494    0.004
 6400.00    1.00870   1.39549    0.004
 6401.00    0.94382   1.39616    0.004
 6402.00    0.96269   1.39679    0.004
 6403.00    0.98430   1.39740    0.004
 6404.00    0.96698   1.39798    0.004
 6405.00    0.95030   1.39846    0.004
 6406.00    0.95415   1.39879    0.004
 6407.00    0.96313   1.39905    0.004
 6408.00    1.04899   1.39925    0.004
 6409.00    1.13725   1.39932    0.004
 6410.00    1.24867   1.39936    0.004
 6411.00    1.34182   1.39937    0.004
 6412.00    1.30724   1.39935    0.004
 6413.00    1.27834   1.39930    0.004
 6414.00    1.28003   1.39926    0.004
 6415.00    1.28241   1.39919    0.004
 6416.00    1.28777   1.39912    0.004
 6417.00    1.28766   1.39901    0.004
 6418.00    1.26807   1.39890    0.004
 6419.00    1.25186   1.39877    0.004
 6420.00    1.24578   1.39859    0.004
 6421.00    1.24156   1.39842    0.004
 6422.00    1.24210   1.39825    0.004
 6423.00    1.24673   1.39805    0.004
 6424.00    1.26034   1.39783    0.004
 6425.00    1.28342   1.39761    0.004
 6426.00    1.32450   1.39744    0.004
 6427.00    1.35748   1.39716    0.004
 6428.00    1.37702   1.39694    0.004
 6429.00    1.37698   1.39677    0.004
 6430.00    1.34844   1.39649    0.004
 6431.00    1.30460   1.39633    0.004
 6432.00    1.24120   1.39612    0.004
 6433.00    1.19436   1.39591    0.004
 6434.00    1.16620   1.39574    0.004
 6435.00    1.19564   1.39552    0.004
 6436.00    1.28232   1.39532    0.004
 6437.00    1.37948   1.39510    0.004
 6438.00    1.48585   1.39487    0.004
 6439.00    1.51420   1.39465    0.004
 6440.00    1.48230   1.39437    0.004
 6441.00    1.38585   1.39415    0.004
 6442.00    1.24556   1.39388    0.004
 6443.00    1.14412   1.39359    0.004
 6444.00    1.06578   1.39336    0.004
 6445.00    1.09148   1.39310    0.004
 6446.00    1.17117   1.39283    0.004
 6447.00    1.21933   1.39267    0.004
 6448.00    1.25330   1.39247    0.004
 6449.00    1.24688   1.39229    0.004
 6450.00    1.22484   1.39215    0.004
 6451.00    1.25208   1.39200    0.004
 6452.00    1.29552   1.39186    0.004
 6453.00    1.32425   1.39168    0.004
 6454.00    1.34893   1.39153    0.004
 6455.00    1.34545   1.39137    0.004
 6456.00    1.33559   1.39115    0.004
 6457.00    1.34340   1.39098    0.004
 6458.00    1.35441   1.39079    0.004
 6459.00    1.26776   1.39056    0.004
 6460.00    1.16752   1.39037    0.004
 6461.00    1.16595   1.39013    0.004
 6462.00    1.17422   1.38986    0.004
 6463.00    1.23468   1.38964    0.004
 6464.00    1.29843   1.38937    0.004
 6465.00    1.22169   1.38909    0.004
 6466.00    1.14109   1.38886    0.004
 6467.00    1.12119   1.38862    0.004
 6468.00    1.10616   1.38838    0.004
 6469.00    1.22692   1.38819    0.004
 6470.00    1.34510   1.38800    0.004
 6471.00    1.42679   1.38778    0.004
 6472.00    1.49947   1.38760    0.004
 6473.00    1.48863   1.38742    0.004
 6474.00    1.47206   1.38720    0.004
 6475.00    1.41665   1.38701    0.004
 6476.00    1.35397   1.38683    0.004
 6477.00    1.25311   1.38660    0.004
 6478.00    1.17204   1.38639    0.004
 6479.00    1.17448   1.38617    0.004
 6480.00    1.17519   1.38589    0.004
 6481.00    1.16987   1.38560    0.004
 6482.00    1.16499   1.38529    0.004
 6483.00    1.16145   1.38495    0.004
 6484.00    1.16021   1.38460    0.004
 6485.00    1.16477   1.38426    0.004
 6486.00    1.18503   1.38395    0.004
 6487.00    1.23910   1.38364    0.004
 6488.00    1.30100   1.38336    0.004
 6489.00    1.37755   1.38312    0.004
 6490.00    1.40930   1.38283    0.004
 6491.00    1.36785   1.38258    0.004
 6492.00    1.32175   1.38236    0.004
 6493.00    1.26901   1.38205    0.004
 6494.00    1.22090   1.38179    0.004
 6495.00    1.17863   1.38157    0.004
 6496.00    1.13108   1.38126    0.004
 6497.00    1.07764   1.38097    0.004
 6498.00    1.06164   1.38074    0.004
 6499.00    1.08232   1.38039    0.004
 6500.00    1.14677   1.38001    0.004
 6501.00    1.24904   1.37964    0.004
 6502.00    1.31163   1.37913    0.004
 6503.00    1.34403   1.37853    0.004
 6504.00    1.32962   1.37789    0.004
 6505.00    1.28390   1.37710    0.004
 6506.00    1.20575   1.37622    0.004
 6507.00    1.10858   1.37524    0.004
 6508.00    1.05397   1.37410    0.004
 6509.00    1.02109   1.37286    0.004
 6510.00    1.10372   1.37149    0.004
 6511.00    1.23744   1.36996    0.004
 6512.00    1.33113   1.36845    0.004
 6513.00    1.40961   1.36691    0.004
 6514.00    1.42818   1.36544    0.004
 6515.00    1.42742   1.36423    0.004
 6516.00    1.39630   1.36324    0.004
 6517.00    1.35697   1.36257    0.004
 6518.00    1.28400   1.36224    0.004
 6519.00    1.20356   1.36216    0.004
 6520.00    1.15058   1.36230    0.004
 6521.00    1.10243   1.36252    0.004
 6522.00    1.15986   1.36278    0.004
 6523.00    1.23149   1.36294    0.004
 6524.00    1.30240   1.36291    0.004
 6525.00    1.37325   1.36273    0.004
 6526.00    1.30592   1.36226    0.004
 6527.00    1.23042   1.36151    0.004
 6528.00    1.25751   1.36055    0.000
 6529.00    1.28720   1.35926    0.000
 6530.00    1.32221   1.35766    0.000
 6531.00    1.35371   1.35576    0.000
 6532.00    1.29675   1.35352    0.000
 6533.00    1.24656   1.35088    0.000
 6534.00    1.28694   1.34777    0.000
 6535.00    1.32945   1.34415    0.000
 6536.00    1.39096   1.33988    0.000
 6537.00    1.43407   1.33470    0.000
 6538.00    1.35651   1.32851    0.000
 6539.00    1.30171   1.32093    0.000
 6540.00    1.36321   1.31154    0.000
 6541.00    1.44110   1.29999    0.000
 6542.00    1.58661   1.28564    0.000
 6543.00    1.69523   1.26816    0.000
 6544.00    1.67781   1.24724    0.000
 6545.00    1.62312   1.22259    0.000
 6546.00    1.46109   1.19499    0.000
 6547.00    1.31843   1.16525    0.000
 6548.00    1.22340   1.13492    0.000
 6549.00    1.15322   1.10661    0.000
 6550.00    1.13573   1.08245    0.000
 6551.00    1.14008   1.06533    0.000
 6552.00    1.18468   1.05728    0.000
 6553.00    1.23378   1.05879    0.000
 6554.00    1.29013   1.07039    0.000
 6555.00    1.41262   1.09046    0.000
 6556.00    1.62853   1.11648    0.000
 6557.00    1.91981   1.14625    0.000
 6558.00    2.30474   1.17676    0.000
 6559.00    2.54210   1.20593    0.000
 6560.00    2.61784   1.23235    0.000
 6561.00    2.53368   1.25500    0.000
 6562.00    2.29504   1.27391    0.000
 6563.00    2.02384   1.28929    0.000
 6564.00    1.72488   1.30151    0.000
 6565.00    1.51806   1.31127    0.000
 6566.00    1.38037   1.31906    0.000
 6567.00    1.31060   1.32532    0.000
 6568.00    1.28558   1.33049    0.000
 6569.00    1.24803   1.33476    0.000
 6570.00    1.20324   1.33845    0.000
 6571.00    1.18311   1.34165    0.000
 6572.00    1.17538   1.34440    0.000
 6573.00    1.16744   1.34691    0.000
 6574.00    1.15942   1.34911    0.000
 6575.00    1.20573   1.35106    0.000
 6576.00    1.27233   1.35281    0.000
 6577.00    1.42292   1.35429    0.000
 6578.00    1.60011   1.35560    0.000
 6579.00    1.72257   1.35671    0.000
 6580.00    1.83055   1.35761    0.000
 6581.00    1.76309   1.35841    0.000
 6582.00    1.65769   1.35908    0.000
 6583.00    1.49636   1.35962    0.000
 6584.00    1.32544   1.36013    0.000
 6585.00    1.23565   1.36058    0.000
 6586.00    1.15641   1.36094    0.000
 6587.00    1.14208   1.36128    0.000
 6588.00    1.13367   1.36161    0.000
 6589.00    1.14907   1.36184    0.000
 6590.00    1.16578   1.36203    0.000
 6591.00    1.16876   1.36226    0.000
 6592.00    1.17181   1.36240    0.000
 6593.00    1.20887   1.36250    0.000
 6594.00    1.24442   1.36262    0.000
 6595.00    1.24538   1.36270    0.000
 6596.00    1.24481   1.36274    0.000
 6597.00    1.22488   1.36277    0.000
 6598.00    1.21581   1.36282    0.000
 6599.00    1.29970   1.36283    0.000
 6600.00    1.37272   1.36282    0.000
 6601.00    1.37661   1.36286    0.000
 6602.00    1.37254   1.36288    0.000
 6603.00    1.32881   1.36287    0.000
 6604.00    1.28796   1.36288    0.000
 6605.00    1.25873   1.36289    0.000
 6606.00    1.21712   1.36284    0.000
 6607.00    1.13401   1.36280    0.000
 6608.00    1.07555   1.36274    0.000
 6609.00    1.08675   1.36266    0.004
 6610.00    1.10973   1.36257    0.004
 6611.00    1.16120   1.36245    0.004
 6612.00    1.19463   1.36236    0.004
 6613.00    1.19041   1.36222    0.004
 6614.00    1.17609   1.36206    0.004
 6615.00    1.14345   1.36195    0.004
 6616.00    1.09134   1.36178    0.004
 6617.00    1.00836   1.36161    0.004
 6618.00    0.94761   1.36151    0.004
 6619.00    0.91782   1.36135    0.004
 6620.00    0.92152   1.36123    0.004
 6621.00    0.96625   1.36116    0.004
 6622.00    1.03534   1.36107    0.004
 6623.00    1.13071   1.36100    0.004
 6624.00    1.24584   1.36094    0.004
 6625.00    1.37979   1.36090    0.004
 6626.00    1.42315   1.36081    0.004
 6627.00    1.39041   1.36074    0.004
 6628.00    1.31376   1.36068    0.004
 6629.00    1.20463   1.36055    0.004
 6630.00    1.15499   1.36045    0.004
 6631.00    1.14399   1.36034    0.004
 6632.00    1.13831   1.36018    0.004
 6633.00    1.13565   1.36005    0.004
 6634.00    1.16980   1.35989    0.004
 6635.00    1.22216   1.35972    0.004
 6636.00    1.26660   1.35957    0.004
 6637.00    1.30765   1.35938    0.004
 6638.00    1.29507   1.35923    0.004
 6639.00    1.26284   1.35911    0.004
 6640.00    1.16603   1.35892    0.004
 6641.00    1.04915   1.35879    0.004
 6642.00    1.04989   1.35868    0.004
 6643.00    1.08106   1.35849    0.004
 6644.00    1.11275   1.35835    0.004
 6645.00    1.14456   1.35822    0.004
 6646.00    1.12096   1.35801    0.004
 6647.00    1.08813   1.35783    0.004
 6648.00    1.07112   1.35766    0.004
 6649.00    1.05610   1.35744    0.004
 6650.00    1.05269   1.35717    0.004
 6651.00    1.05029   1.35692    0.004
 6652.00    1.11869   1.35666    0.004
 6653.00    1.19073   1.35626    0.004
 6654.00    1.21630   1.35590    0.004
 6655.00    1.24130   1.35549    0.004
 6656.00    1.28481   1.35485    0.004
 6657.00    1.32727   1.35416    0.004
 6658.00    1.34769   1.35318    0.004
 6659.00    1.36441   1.35161    0.004
 6660.00    1.33651   1.34978    0.004
 6661.00    1.30475   1.34716    0.004
 6662.00    1.24116   1.34358    0.004
 6663.00    1.17629   1.33986    0.004
 6664.00    1.10351   1.33543    0.004
 6665.00    1.04822   1.33074    0.004
 6666.00    1.07785   1.32702    0.004
 6667.00    1.10306   1.32367    0.004
 6668.00    1.11078   1.32167    0.004
 6669.00    1.11839   1.32129    0.004
 6670.00    1.12558   1.32178    0.004
 6671.00    1.14056   1.32378    0.004
 6672.00    1.17715   1.32649    0.004
 6673.00    1.21353   1.32936    0.004
 6674.00    1.24939   1.33264    0.004
 6675.00    1.27755   1.33572    0.004
 6676.00    1.28991   1.33849    0.004
 6677.00    1.29665   1.34101    0.004
 6678.00    1.29334   1.34323    0.004
 6679.00    1.26692   1.34505    0.004
 6680.00    1.20437   1.34656    0.004
 6681.00    1.17423   1.34787    0.004
 6682.00    1.18853   1.34877    0.004
 6683.00    1.21616   1.34951    0.004
 6684.00    1.25988   1.35008    0.004
 6685.00    1.27121   1.35036    0.004
 6686.00    1.24803   1.35058    0.004
 6687.00    1.24507   1.35072    0.004
 6688.00    1.26108   1.35069    0.004
 6689.00    1.25526   1.35065    0.004
 6690.00    1.23137   1.35065    0.004
 6691.00    1.23204   1.35056    0.004
 6692.00    1.25063   1.35050    0.004
 6693.00    1.19613   1.35051    0.004
 6694.00    1.09486   1.35043    0.004
 6695.00    1.06756   1.35040    0.004
 6696.00    1.08167   1.35040    0.000
 6697.00    1.13587   1.35026    0.000
 6698.00    1.20959   1.35021    0.000
 6699.00    1.18529   1.35014    0.000
 6700.00    1.11974   1.34995    0.000
 6701.00    1.06883   1.34989    0.000
 6702.00    1.02319   1.34975    0.000
 6703.00    1.05719   1.34955    0.000
 6704.00    1.11546   1.34948    0.000
 6705.00    1.11050   1.34928    0.000
 6706.00    1.08953   1.34908    0.000
 6707.00    1.10155   1.34898    0.000
 6708.00    1.12036   1.34874    0.000
 6709.00    1.26885   1.34858    0.000
 6710.00    1.43833   1.34846    0.000
 6711.00    1.51152   1.34828    0.000
 6712.00    1.57306   1.34814    0.000
 6713.00    1.56709   1.34803    0.000
 6714.00    1.55552   1.34794    0.000
 6715.00    1.48111   1.34777    0.000
 6716.00    1.40372   1.34770    0.000
 6717.00    1.28823   1.34762    0.000
 6718.00    1.17320   1.34744    0.000
 6719.00    1.11431   1.34735    0.000
 6720.00    1.05795   1.34725    0.000
 6721.00    1.05105   1.34706    0.000
 6722.00    1.04777   1.34693    0.000
 6723.00    1.08593   1.34682    0.000
 6724.00    1.13013   1.34663    0.000
 6725.00    1.22244   1.34648    0.000
 6726.00    1.30049   1.34635    0.000
 6727.00    1.29295   1.34619    0.000
 6728.00    1.29904   1.34602    0.000
 6729.00    1.36974   1.34587    0.000
 6730.00    1.41647   1.34577    0.000
 6731.00    1.37062   1.34557    0.000
 6732.00    1.31799   1.34545    0.000
 6733.00    1.24357   1.34541    0.000
 6734.00    1.19469   1.34522    0.000
 6735.00    1.21545   1.34520    0.000
 6736.00    1.22522   1.34517    0.000
 6737.00    1.20932   1.34501    0.000
 6738.00    1.19374   1.34501    0.000
 6739.00    1.17877   1.34495    0.000
 6740.00    1.19326   1.34475    0.000
 6741.00    1.25958   1.34467    0.000
 6742.00    1.27760   1.34456    0.000
 6743.00    1.22127   1.34431    0.000
 6744.00    1.18090   1.34418    0.000
 6745.00    1.16213   1.34405    0.000
 6746.00    1.13726   1.34385    0.000
 6747.00    1.10513   1.34371    0.000
 6748.00    1.12601   1.34359    0.000
 6749.00    1.20253   1.34345    0.000
 6750.00    1.22435   1.34329    0.000
 6751.00    1.19552   1.34319    0.000
 6752.00    1.22949   1.34301    0.000
 6753.00    1.31472   1.34286    0.004
 6754.00    1.30403   1.34272    0.005
 6755.00    1.22444   1.34254    0.005
 6756.00    1.09848   1.34242    0.005
 6757.00    0.94330   1.34217    0.005
 6758.00    0.97663   1.34207    0.005
 6759.00    1.11388   1.34192    0.005
 6760.00    1.34815   1.34162    0.005
 6761.00    1.62892   1.34158    0.005
 6762.00    1.71742   1.34137    0.005
 6763.00    1.72638   1.34113    0.005
 6764.00    1.57352   1.34104    0.005
 6765.00    1.36343   1.34081    0.005
 6766.00    1.37168   1.34065    0.005
 6767.00    1.44509   1.34045    0.005
 6768.00    1.55959   1.34023    0.005
 6769.00    1.68427   1.34010    0.005
 6770.00    1.68181   1.33984    0.005
 6771.00    1.65384   1.33969    0.004
 6772.00    1.65653   1.33955    0.004
 6773.00    1.66404   1.33935    0.004
 6774.00    1.60220   1.33928    0.004
 6775.00    1.53228   1.33912    0.004
 6776.00    1.40356   1.33901    0.004
 6777.00    1.27020   1.33895    0.004
 6778.00    1.36716   1.33874    0.004
 6779.00    1.47416   1.33865    0.005
 6780.00    1.34586   1.33854    0.005
 6781.00    1.21679   1.33832    0.005
 6782.00    1.16661   1.33824    0.004
 6783.00    1.11882   1.33811    0.004
 6784.00    1.11457   1.33795    0.004
 6785.00    1.11688   1.33785    0.004
 6786.00    1.19107   1.33777    0.004
 6787.00    1.26372   1.33764    0.004
 6788.00    1.32444   1.33752    0.004
 6789.00    1.38351   1.33752    0.004
 6790.00    1.43298   1.33738    0.004
 6791.00    1.46338   1.33728    0.004
 6792.00    1.40555   1.33728    0.004
 6793.00    1.37417   1.33716    0.004
 6794.00    1.44273   1.33705    0.004
 6795.00    1.48455   1.33698    0.004
 6796.00    1.44187   1.33686    0.004
 6797.00    1.42061   1.33667    0.004
 6798.00    1.45671   1.33652    0.004
 6799.00    1.50326   1.33636    0.004
 6800.00    1.57380   1.33614    0.004
 6801.00    1.63546   1.33596    0.004
 6802.00    1.67949   1.33578    0.004
 6803.00    1.65273   1.33563    0.004
 6804.00    1.50336   1.33545    0.004
 6805.00    1.35399   1.33531    0.004
 6806.00    1.20464   1.33525    0.004
 6807.00    1.14913   1.33507    0.004
 6808.00    1.21867   1.33498    0.004
 6809.00    1.27348   1.33491    0.004
 6810.00    1.31098   1.33475    0.004
 6811.00    1.38974   1.33464    0.004
 6812.00    1.51119   1.33453    0.004
 6813.00    1.51949   1.33436    0.004
 6814.00    1.42450   1.33421    0.005
 6815.00    1.28067   1.33405    0.005
 6816.00    1.09756   1.33388    0.004
 6817.00    1.07477   1.33374    0.004
 6818.00    1.16547   1.33357    0.004
 6819.00    1.20552   1.33346    0.004
 6820.00    1.21410   1.33332    0.004
 6821.00    1.20735   1.33319    0.004
 6822.00    1.19230   1.33312    0.004
 6823.00    1.19498   1.33298    0.004
 6824.00    1.20602   1.33288    0.004
 6825.00    1.23415   1.33278    0.004
 6826.00    1.26924   1.33261    0.004
 6827.00    1.25520   1.33252    0.004
 6828.00    1.22411   1.33234    0.004
 6829.00    1.14854   1.33217    0.004
 6830.00    1.05996   1.33203    0.004
 6831.00    1.03699   1.33181    0.004
 6832.00    1.02991   1.33166    0.004
 6833.00    1.06869   1.33149    0.004
 6834.00    1.11645   1.33130    0.004
 6835.00    1.15892   1.33120    0.004
 6836.00    1.20057   1.33104    0.004
 6837.00    1.33419   1.33090    0.005
 6838.00    1.47812   1.33081    0.005
 6839.00    1.49052   1.33066    0.005
 6840.00    1.49309   1.33053    0.005
 6841.00    1.29294   1.33041    0.005
 6842.00    1.08475   1.33023    0.005
 6843.00    1.05396   1.33011    0.005
 6844.00    1.03002   1.32994    0.004
 6845.00    1.22936   1.32979    0.004
 6846.00    1.41525   1.32970    0.004
 6847.00    1.37391   1.32953    0.004
 6848.00    1.33513   1.32944    0.004
 6849.00    1.32320   1.32933    0.004
 6850.00    1.30851   1.32920    0.004
 6851.00    1.27332   1.32909    0.004
 6852.00    1.24537   1.32895    0.004
 6853.00    1.25841   1.32882    0.004
 6854.00    1.27149   1.32866    0.004
 6855.00    1.28476   1.32852    0.004
 6856.00    1.31042   1.32834    0.004
 6857.00    1.38194   1.32820    0.004
 6858.00    1.41643   1.32803    0.004
 6859.00    1.33622   1.32783    0.004
 6860.00    1.25670   1.32766    0.004
 6861.00    1.17902   1.32746    0.004
 6862.00    1.12936   1.32722    0.004
 6863.00    1.14303   1.32693    0.004
 6864.00    1.19194   1.32667    0.004
 6865.00    1.30981   1.32624    0.005
 6866.00    1.37421   1.32578    0.005
 6867.00    1.34737   1.32526    0.005
 6868.00    1.29840   1.32445    0.004
 6869.00    1.21638   1.32364    0.004
 6870.00    1.14916   1.32254    0.004
 6871.00    1.10138   1.32117    0.004
 6872.00    1.08159   1.31968    0.004
 6873.00    1.09417   1.31783    0.004
 6874.00    1.09438   1.31587    0.004
 6875.00    1.08198   1.31379    0.004
 6876.00    1.03605   1.31171    0.004
 6877.00    0.95995   1.30988    0.004
 6878.00    0.99821   1.30833    0.004
 6879.00    1.12720   1.30732    0.004
 6880.00    1.17293   1.30695    0.004
 6881.00    1.16057   1.30712    0.004
 6882.00    1.19212   1.30796    0.004
 6883.00    1.25056   1.30933    0.004
 6884.00    1.25351   1.31087    0.004
 6885.00    1.22681   1.31276    0.004
 6886.00    1.20998   1.31459    0.004
 6887.00    1.19773   1.31623    0.004
 6888.00    1.18601   1.31783    0.004
 6889.00    1.17451   1.31904    0.004
 6890.00    1.15344   1.32005    0.004
 6891.00    1.12911   1.32084    0.004
 6892.00    1.03900   1.32140    0.004
 6893.00    0.93005   1.32178    0.004
 6894.00    0.86260   1.32202    0.004
 6895.00    0.80498   1.32221    0.004
 6896.00    0.94106   1.32222    0.004
 6897.00    1.11406   1.32229    0.004
 6898.00    1.14080   1.32225    0.004
 6899.00    1.14592   1.32220    0.004
 6900.00    1.17413   1.32218    0.004
 6901.00    1.20484   1.32206    0.004
 6902.00    1.14370   1.32202    0.004
 6903.00    1.07607   1.32189    0.004
 6904.00    1.14730   1.32183    0.004
 6905.00    1.22352   1.32173    0.004
 6906.00    1.09649   1.32159    0.004
 6907.00    0.97391   1.32160    0.004
 6908.00    1.02882   1.32142    0.004
 6909.00    1.08332   1.32140    0.004
 6910.00    1.13150   1.32137    0.004
 6911.00    1.17644   1.32115    0.004
 6912.00    1.18893   1.32119    0.004
 6913.00    1.19128   1.32102    0.004
 6914.00    1.12078   1.32085    0.004
 6915.00    1.06659   1.32083    0.004
 6916.00    1.10233   1.32058    0.004
 6917.00    1.10560   1.32052    0.004
 6918.00    0.96572   1.32041    0.004
 6919.00    0.88542   1.32022    0.004
 6920.00    1.02113   1.32024    0.004
 6921.00    1.10933   1.32008    0.004
 6922.00    1.05313   1.32004    0.004
 6923.00    1.01615   1.31999    0.004
 6924.00    1.02884   1.31990    0.004
 6925.00    1.05024   1.31991    0.004
 6926.00    1.09099   1.31977    0.004
 6927.00    1.13471   1.31976    0.004
 6928.00    1.18416   1.31967    0.004
 6929.00    1.20500   1.31952    0.004
 6930.00    1.17776   1.31948    0.004
 6931.00    1.18573   1.31930    0.004
 6932.00    1.24558   1.31919    0.004
 6933.00    1.22322   1.31910    0.004
 6934.00    1.09438   1.31891    0.004
 6935.00    1.04370   1.31883    0.004
 6936.00    1.08217   1.31873    0.004
 6937.00    1.10873   1.31857    0.004
 6938.00    1.12331   1.31848    0.004
 6939.00    1.16782   1.31839    0.004
 6940.00    1.23889   1.31818    0.004
 6941.00    1.22607   1.31813    0.004
 6942.00    1.14764   1.31800    0.004
 6943.00    1.10986   1.31782    0.004
 6944.00    1.10001   1.31781    0.004
 6945.00    1.12613   1.31761    0.004
 6946.00    1.17395   1.31758    0.004
 6947.00    1.16646   1.31749    0.004
 6948.00    1.12988   1.31732    0.004
 6949.00    1.13039   1.31735    0.004
 6950.00    1.14784   1.31718    0.004
 6951.00    1.13461   1.31707    0.004
 6952.00    1.10933   1.31707    0.004
 6953.00    1.09117   1.31688    0.004
 6954.00    1.07539   1.31679    0.004
 6955.00    1.10401   1.31674    0.004
 6956.00    1.14510   1.31653    0.004
 6957.00    1.08220   1.31645    0.004
 6958.00    0.99523   1.31630    0.004
 6959.00    1.02349   1.31611    0.004
 6960.00    1.07314   1.31598    0.004
 6961.00    1.17016   1.31578    0.004
 6962.00    1.27395   1.31561    0.005
 6963.00    1.14510   1.31544    0.004
 6964.00    0.99216   1.31533    0.004
 6965.00    1.08143   1.31512    0.004
 6966.00    1.18683   1.31503    0.004
 6967.00    1.32270   1.31493    0.004
 6968.00    1.45948   1.31479    0.005
 6969.00    1.31820   1.31473    0.004
 6970.00    1.17809   1.31465    0.004
 6971.00    1.07394   1.31457    0.004
 6972.00    0.97480   1.31446    0.004
 6973.00    0.95027   1.31439    0.004
 6974.00    0.94841   1.31423    0.004
 6975.00    1.16436   1.31409    0.004
 6976.00    1.33245   1.31400    0.004
 6977.00    1.16763   1.31378    0.004
 6978.00    1.04906   1.31371    0.004
 6979.00    1.17883   1.31360    0.005
 6980.00    1.28897   1.31349    0.005
 6981.00    1.31453   1.31346    0.005
 6982.00    1.31852   1.31342    0.005
 6983.00    1.24594   1.31336    0.005
 6984.00    1.17391   1.31336    0.004
 6985.00    1.10354   1.31335    0.004
 6986.00    1.03874   1.31322    0.004
 6987.00    0.98808   1.31325    0.005
 6988.00    0.97298   1.31315    0.004
 6989.00    1.03563   1.31303    0.004
 6990.00    1.09861   1.31298    0.004
 6991.00    1.16223   1.31287    0.004
 6992.00    1.22647   1.31272    0.004
 6993.00    1.29173   1.31264    0.004
 6994.00    1.31745   1.31255    0.004
 6995.00    1.28580   1.31234    0.004
 6996.00    1.26575   1.31234    0.004
 6997.00    1.26052   1.31218    0.005
 6998.00    1.26359   1.31204    0.005
 6999.00    1.27598   1.31208    0.005
 7000.00    1.24599   1.31185    0.005
 7001.00    1.17396   1.31184    0.005
 7002.00    1.08640   1.31180    0.005
 7003.00    0.98524   1.31165    0.005
 7004.00    1.02337   1.31170    0.005
 7005.00    1.16885   1.31156    0.005
 7006.00    1.22472   1.31159    0.005
 7007.00    1.21987   1.31153    0.005
 7008.00    1.14030   1.31144    0.005
 7009.00    1.01636   1.31149    0.004
 7010.00    1.00463   1.31131    0.004
 7011.00    1.05101   1.31133    0.004
 7012.00    1.03545   1.31125    0.004
 7013.00    0.99208   1.31105    0.004
 7014.00    0.98921   1.31110    0.004
 7015.00    1.00198   1.31090    0.004
 7016.00    1.06425   1.31081    0.004
 7017.00    1.14277   1.31074    0.005
 7018.00    1.13935   1.31055    0.005
 7019.00    1.11338   1.31048    0.005
 7020.00    1.15521   1.31031    0.005
 7021.00    1.21236   1.31022    0.005
 7022.00    1.12542   1.31004    0.005
 7023.00    1.01246   1.30996    0.005
 7024.00    1.04082   1.30990    0.005
 7025.00    1.08877   1.30976    0.005
 7026.00    1.15172   1.30984    0.005
 7027.00    1.21616   1.30970    0.005
 7028.00    1.15243   1.30974    0.005
 7029.00    1.08067   1.30981    0.005
 7030.00    1.04191   1.30965    0.005
 7031.00    1.00407   1.30980    0.005
 7032.00    0.96496   1.30970    0.005
 7033.00    0.93142   1.30966    0.005
 7034.00    1.05099   1.30974    0.005
 7035.00    1.16000   1.30955    0.005
 7036.00    1.12065   1.30963    0.005
 7037.00    1.08370   1.30951    0.005
 7038.00    1.06877   1.30939    0.005
 7039.00    1.05263   1.30942    0.005
 7040.00    1.02832   1.30916    0.005
 7041.00    1.00536   1.30914    0.005
 7042.00    0.98948   1.30902    0.005
 7043.00    1.01852   1.30882    0.005
 7044.00    1.23675   1.30877    0.005
 7045.00    1.36358   1.30860    0.005
 7046.00    1.17251   1.30846    0.005
 7047.00    1.05044   1.30837    0.005
 7048.00    1.13033   1.30816    0.005
 7049.00    1.21703   1.30808    0.005
 7050.00    1.32076   1.30790   -2.000
 7051.00    1.38462   1.30779   -2.000
 7052.00    1.36275   1.30763   -2.000
 7053.00    1.31327   1.30761   -2.000
 7054.00    1.21224   1.30740   -2.000
 7055.00    1.21059   1.30738   -2.000
 7056.00    1.37102   1.30737   -2.000
 7057.00    1.42324   1.30720   -2.000
 7058.00    1.32067   1.30727   -2.000
 7059.00    1.30788   1.30715   -2.000
 7060.00    1.40807   1.30716   -2.000
 7061.00    1.39961   1.30709   -2.000
 7062.00    1.27068   1.30702   -2.000
 7063.00    1.23188   1.30696   -2.000
 7064.00    1.28124   1.30678   -2.000
 7065.00    1.34785   1.30669   -2.000
 7066.00    1.42934   1.30650   -2.000
 7067.00    1.43498   1.30623   -2.000
 7068.00    1.38301   1.30604   -2.000
 7069.00    1.26016   1.30578   -2.000
 7070.00    1.08998   1.30548   -2.000
 7071.00    1.17343   1.30520   -2.000
 7072.00    1.40519   1.30484   -2.000
 7073.00    1.49300   1.30458   -2.000
 7074.00    1.50742   1.30423   -2.000
 7075.00    1.41597   1.30387   -2.000
 7076.00    1.27776   1.30358   -2.000
 7077.00    1.15740   1.30331   -2.000
 7078.00    1.04381   1.30304   -2.000
 7079.00    1.04174   1.30279   -2.000
 7080.00    1.07558   1.30262   -2.000
 7081.00    1.13499   1.30248   -2.000
 7082.00    1.20129   1.30236   -2.000
 7083.00    1.20211   1.30239   -2.000
 7084.00    1.18847   1.30233   -2.000
 7085.00    1.22867   1.30255   -2.000
 7086.00    1.27833   1.30268   -2.000
 7087.00    1.23662   1.30284   -2.000
 7088.00    1.18266   1.30326   -2.000
 7089.00    1.33269   1.30336   -2.000
 7090.00    1.50210   1.30369   -2.000
 7091.00    1.32423   1.30386   -2.000
 7092.00    1.12598   1.30389   -2.000
 7093.00    1.21366   1.30413   -2.000
 7094.00    1.30784   1.30398   -2.000
 7095.00    1.32772   1.30403   -2.000
 7096.00    1.34445   1.30401   -2.000
 7097.00    1.28286   1.30379   -2.000
 7098.00    1.22329   1.30385   -2.000
 7099.00    1.19061   1.30366   -2.000
 7100.00    1.16782   1.30356   -2.000
 7101.00    1.23282   1.30356   -2.000
 7102.00    1.27320   1.30337   -2.000
 7103.00    1.15281   1.30338   -2.000
 7104.00    1.07592   1.30327   -2.000
 7105.00    1.22061   1.30325   -2.000
 7106.00    1.30626   1.30314   -2.000
 7107.00    1.14889   1.30312   -2.000
 7108.00    0.87197   1.30305   -2.000
 7109.00    0.18754   1.30289   -2.000
 7110.00   -0.14561   1.30295   -2.000
 7111.00    0.53050   1.30271   -2.000
 7112.00    1.03118   1.30272   -2.000
 7113.00    1.10141   1.30265   -2.000
 7114.00    1.13640   1.30247   -2.000
 7115.00    1.09684   1.30256   -2.000
 7116.00    1.08895   1.30239   -2.000
 7117.00    1.13929   1.30237   -2.000
 7118.00    1.16929   1.30237   -2.000
 7119.00    1.16660   1.30222   -2.000
 7120.00    1.19459   1.30226   -2.000
 7121.00    1.26582   1.30215   -2.000
 7122.00    1.31104   1.30206   -2.000
 7123.00    1.32398   1.30202   -2.000
 7124.00    1.31877   1.30192   -2.000
 7125.00    1.29372   1.30181   -2.000
 7126.00    1.30941   1.30175   -2.000
 7127.00    1.36439   1.30165   -2.000
 7128.00    1.32307   1.30153   -2.000
 7129.00    1.19986   1.30150   -2.000
 7130.00    1.22504   1.30135   -2.000
 7131.00    1.36136   1.30130   -2.000
 7132.00    1.39358   1.30123   -2.000
 7133.00    1.35730   1.30114   -2.000
 7134.00    1.21667   1.30110   -2.000
 7135.00    1.01593   1.30102   -2.000
 7136.00    1.03309   1.30097   -2.000
 7137.00    1.15959   1.30093   -2.000
 7138.00    1.19124   1.30087   -2.000
 7139.00    1.18168   1.30078   -2.000
 7140.00    1.16085   1.30071   -2.000
 7141.00    1.13580   1.30063   -2.000
 7142.00    1.10315   1.30055   -2.000
 7143.00    1.06810   1.30043   -2.000
 7144.00    1.18693   1.30037   -2.000
 7145.00    1.34635   1.30024   -2.000
 7146.00    1.46758   1.30020   -2.000
 7147.00    1.58059   1.30011   -2.000
 7148.00    1.38432   1.30000   -2.000
 7149.00    1.13520   1.30001   -2.000
 7150.00    1.14043   1.29989   -2.000
 7151.00    1.17858   1.29990   -2.000
 7152.00    1.31007   1.29980   -2.000
 7153.00    1.45003   1.29978   -2.000
 7154.00    1.36804   1.29975   -2.000
 7155.00    1.27390   1.29967   -2.000
 7156.00    1.15141   1.29974   -2.000
 7157.00    1.03075   1.29959   -2.000
 7158.00    1.13141   1.29965   -2.000
 7159.00    1.23937   1.29962   -2.000
 7160.00    1.51283   1.29955   -2.000
 7161.00    1.78895   1.29957   -2.000
 7162.00    2.09854   1.29944   -2.000
 7163.00    2.32547   1.29942   -2.000
 7164.00    1.84708   1.29929   -2.000
 7165.00    1.36177   1.29921   -2.000
 7166.00    0.83266   1.29907   -2.000
 7167.00    0.46205   1.29893   -2.000
 7168.00    0.87846   1.29886   -2.000
 7169.00    1.25879   1.29868   -2.000
 7170.00    1.49394   1.29862   -2.000
 7171.00    1.65013   1.29851   -2.000
 7172.00    1.54252   1.29839   -2.000
 7173.00    1.45484   1.29836   -2.000
 7174.00    1.42338   1.29826   -2.000
 7175.00    1.37021   1.29818   -2.000
 7176.00    1.26468   1.29819   -2.000
 7177.00    1.22675   1.29806   -2.000
 7178.00    1.32958   1.29804   -2.000
 7179.00    1.44783   1.29803   -2.000
 7180.00    1.59399   1.29789   -2.000
 7181.00    1.66085   1.29795   -2.000
 7182.00    1.60219   1.29780   -2.000
 7183.00    1.45033   1.29776   -2.000
 7184.00    1.16899   1.29774   -2.000
 7185.00    0.97719   1.29757   -2.000
 7186.00    0.89487   1.29762   -2.000
 7187.00    1.04973   1.29748   -2.000
 7188.00    1.46026   1.29745   -2.000
 7189.00    1.55767   1.29744   -2.000
 7190.00    1.35736   1.29729   -2.000
 7191.00    1.24559   1.29736   -2.000
 7192.00    1.20802   1.29721   -2.000
 7193.00    1.18735   1.29722   -2.000
 7194.00    1.17915   1.29717   -2.000
 7195.00    1.19569   1.29708   -2.000
 7196.00    1.22828   1.29711   -2.000
 7197.00    1.19992   1.29701   -2.000
 7198.00    1.13697   1.29705   -2.000
 7199.00    1.29862   1.29697   -2.000
 7200.00    1.57119   1.29701   -2.000
 7201.00    1.52588   1.29693   -2.000
 7202.00    1.34484   1.29697   -2.000
 7203.00    1.46139   1.29696   -2.000
 7204.00    1.68682   1.29691   -2.000
 7205.00    1.30999   1.29699   -2.000
 7206.00    0.74660   1.29686   -2.000
 7207.00    0.83405   1.29695   -2.000
 7208.00    1.08948   1.29686   -2.000
 7209.00    1.14891   1.29687   -2.000
 7210.00    1.16711   1.29684   -2.000
 7211.00    1.21144   1.29679   -2.000
 7212.00    1.26012   1.29682   -2.000
 7213.00    1.35873   1.29674   -2.000
 7214.00    1.46358   1.29677   -2.000
 7215.00    1.50854   1.29673   -2.000
 7216.00    1.54832   1.29671   -2.000
 7217.00    1.31972   1.29671   -2.000
 7218.00    1.07748   1.29660   -2.000
