###################################################################
## OUTPUT of StarlightChains_v04.for    [Cid@UFSC - 01/Apr/2007] ##
###################################################################

## Some input info
KUG0210-078._40_46.txt                   [arq_obs]
Base.CB07.vall.4m                        [arq_base]
Masks.EmLines.NEW.gm                     [arq_masks]
StCv04.C11.config                        [arq_config]
   66                                    [N_base]
    0                                    [N_YAV_components = # of components with extra extinction!]
    0                                    [i_FitPowerLaw (1/0 = Yes/No)]
-9.99                                    [alpha_PowerLaw]
CCM                                      [red_law_option]
 1.458241                                [q_norm = A(l_norm)/A(V)]

## (Re)Sampling Parameters
 3741.00                                 [l_ini (A)]
 7218.00                                 [l_fin (A)]
    1.00                                 [dl    (A)]     (OBS: dl_cushion =    50.00 A)

## Normalization info
 4020.00                                 [l_norm (A) - for base]
 4010.00                                 [llow_norm (A) - window for f_obs]
 4060.00                                 [lupp_norm (A) - window for f_obs]
6.344414E-19                             [fobs_norm (in input units)]

## S/N
 3691.00                                 [llow_SN (A) - window for S/N]
 7268.00                                 [lupp_SN (A) - window for S/N]
   3.802                                 [S/N in S/N window]
   0.325                                 [S/N in norm. window]
   0.008                                 [S/N_err in S/N window]
   0.001                                 [S/N_err in norm. window]
  1.0000                                 [fscale_chi2]

## etc...
    -2007731                             [idum_orig]
  2271                                   [NOl_eff]
  2110                                   [Nl_eff]
   161    NSIGMA                         [Ntot_cliped & clip_method]
  1312220                                [Nglobal_steps]
   7                                     [N_chains]
  35                                     [NEX0s_base = N_base in EX0s-fits]
 0   0   1      161   2.0   3.649E+02    [Clip-Bug, RC-Crash & Burn-In warning-flags, n_censored_weights, wei_nsig_threshold & wei_limit]
    37     36.922     36.073      0.849  [idt_all, wdt_TotTime, wdt_UsrTime & wdt_SysTime (sec)]

## Synthesis Results - Best model ##

 2.26994E-05                             [chi2/Nl_eff]
    38.82822                             [adev (%)]

   129.86256                             [sum-of-x (%)]
 7.52926E-17                             [Flux_tot (units of input spectrum!)]
 9.40001E-12                             [Mini_tot (???)]
 4.67402E-12                             [Mcor_tot (???)]

-436.05                                  [v0_min  (km/s)]
 403.03                                  [vd_min  (km/s)]
 3.3617                                  [AV_min  (mag)]
 0.0000                                  [YAV_min (mag)]

# j     x_j(%)      Mini_j(%)     Mcor_j(%)     age_j(yr)     Z_j      (L/M)_j    YAV?  Mstars   component_j        a/Fe...       SSP_chi2r SSP_adev(%)   SSP_AV   SSP_x(%)
  1      2.6195     1.4768E-03    2.9701E-03    1.000000E+06  0.00400  1.094E-02    0   1.0000   age020_m42            0.0000     2.8893E-06    14.6888   3.7849   824.2474
  2      0.0000     0.0000E+00    0.0000E+00    3.160000E+06  0.00400  4.007E-02    0   0.9999   age045_m42            0.0000     2.9365E-06    14.9773   3.1208   856.0139
  3      0.0000     0.0000E+00    0.0000E+00    5.010000E+06  0.00400  2.539E-02    0   0.9488   age055_m42            0.0000     2.9091E-06    14.8311   3.4103   847.1040
  4      0.4445     1.0465E-04    1.9406E-04    6.610000E+06  0.00400  2.620E-02    0   0.9220   age061_m42            0.0000     2.9382E-06    15.0395   3.0422   859.8323
  5      0.0000     0.0000E+00    0.0000E+00    1.000000E+07  0.00400  1.322E-02    0   0.8862   age070_m42            0.0000     2.9907E-06    15.5165   2.7206   895.0452
  6      0.0000     0.0000E+00    0.0000E+00    1.445000E+07  0.00400  7.883E-03    0   0.8571   age078_m42            0.0000     2.9716E-06    15.3808   3.0356   877.0297
  7      0.0000     0.0000E+00    0.0000E+00    2.512000E+07  0.00400  5.251E-03    0   0.8174   age090_m42            0.0000     3.0201E-06    15.6664   2.5890   900.9376
  8      0.0000     0.0000E+00    0.0000E+00    4.000000E+07  0.00400  3.649E-03    0   0.7851   age104_m42            0.0000     3.0114E-06    15.6449   2.3770   901.9108
  9      0.2736     5.4478E-04    8.3584E-04    5.500000E+07  0.00400  3.098E-03    0   0.7629   age110_m42            0.0000     3.0004E-06    15.4938   2.5565   890.8130
 10      0.0000     0.0000E+00    0.0000E+00    1.015200E+08  0.00400  2.228E-03    0   0.7207   age116_m42            0.0000     2.9948E-06    15.4087   2.5935   885.3499
 11      0.0000     0.0000E+00    0.0000E+00    2.861200E+08  0.00400  1.093E-03    0   0.6648   age125_m42            0.0000     3.0644E-06    15.9555   2.0193   911.6526
 12      0.0000     0.0000E+00    0.0000E+00    5.088000E+08  0.00400  6.597E-04    0   0.6365   age130_m42            0.0000     3.0142E-06    15.6639   2.0391   906.7909
 13      0.0000     0.0000E+00    0.0000E+00    1.434000E+09  0.00400  2.132E-04    0   0.5798   age139_m42            0.0000     2.9013E-06    15.2948   1.1044   909.4520
 14      0.4399     4.6024E-02    4.9770E-02    4.250000E+09  0.00400  5.895E-05    0   0.5377   age158_m42            0.0000     2.7553E-06    14.6040   0.6778   868.0568
 15      0.0000     0.0000E+00    0.0000E+00    7.500000E+09  0.00400  3.510E-05    0   0.5212   age171_m42            0.0000     2.7259E-06    14.4764   0.5014   857.1093
 16      0.9938     3.0571E-01    3.0950E-01    1.300000E+10  0.00400  2.005E-05    0   0.5034   age193_m42            0.0000     2.7054E-06    14.3938   0.3432   849.1170
 17      2.5315     1.0239E+00    1.0228E+00    1.800000E+10  0.00400  1.525E-05    0   0.4967   age213_m42            0.0000     2.7140E-06    14.4162   0.3178   846.2513
 18      2.3144     1.1531E-03    2.3189E-03    1.000000E+06  0.00800  1.238E-02    0   1.0000   age020_m52            0.0000     2.8863E-06    14.6784   3.7812   825.8316
 19      0.0000     0.0000E+00    0.0000E+00    3.160000E+06  0.00800  3.074E-02    0   0.9966   age045_m52            0.0000     2.8821E-06    14.6528   3.7118   830.6349
 20      0.3299     7.6266E-05    1.4484E-04    5.010000E+06  0.00800  2.668E-02    0   0.9443   age055_m52            0.0000     2.8943E-06    14.7740   3.4834   843.2686
 21      0.0000     0.0000E+00    0.0000E+00    6.610000E+06  0.00800  2.136E-02    0   0.9177   age061_m52            0.0000     2.8841E-06    15.1745   2.2231   903.9705
 22      0.0000     0.0000E+00    0.0000E+00    1.000000E+07  0.00800  1.215E-02    0   0.8827   age070_m52            0.0000     3.0202E-06    15.7071   2.8804   900.9186
 23      0.0000     0.0000E+00    0.0000E+00    1.445000E+07  0.00800  8.717E-03    0   0.8552   age078_m52            0.0000     2.9750E-06    15.4129   3.0051   887.6899
 24      0.0000     0.0000E+00    0.0000E+00    2.512000E+07  0.00800  5.592E-03    0   0.8162   age090_m52            0.0000     3.0450E-06    15.7912   2.6534   910.9800
 25      0.0000     0.0000E+00    0.0000E+00    4.000000E+07  0.00800  3.896E-03    0   0.7841   age104_m52            0.0000     3.0457E-06    15.7977   2.5876   908.4642
 26      0.0000     0.0000E+00    0.0000E+00    1.015200E+08  0.00800  2.148E-03    0   0.7226   age116_m52            0.0000     3.0051E-06    15.5544   2.5515   896.0775
 27      0.4571     2.8406E-03    3.8178E-03    2.861200E+08  0.00800  9.925E-04    0   0.6683   age125_m52            0.0000     3.0092E-06    15.6349   2.1034   915.7617
 28      0.0000     0.0000E+00    0.0000E+00    9.047900E+08  0.00800  3.141E-04    0   0.6138   age135_m52            0.0000     2.9184E-06    15.3367   1.3680   925.1407
 29      0.0000     0.0000E+00    0.0000E+00    1.434000E+09  0.00800  1.719E-04    0   0.5853   age139_m52            0.0000     2.8454E-06    15.1475   0.7746   910.3401
 30      0.0000     0.0000E+00    0.0000E+00    2.500000E+09  0.00800  7.872E-05    0   0.5600   age150_m52            0.0000     2.7300E-06    14.4826   0.5366   874.7259
 31     11.5074     1.6369E+00    1.7863E+00    4.250000E+09  0.00800  4.336E-05    0   0.5426   age158_m52            0.0000     2.7207E-06    14.4241   0.5220   866.2008
 32      0.3249     6.3440E-02    6.7863E-02    6.250000E+09  0.00800  3.159E-05    0   0.5319   age166_m52            0.0000     2.6963E-06    14.2598   0.3390   858.3467
 33      2.1669     9.8204E-01    1.0019E+00    1.300000E+10  0.00800  1.361E-05    0   0.5073   age193_m52            0.0000     2.6928E-06    14.0633  -0.1062   843.3909
 34     54.8939     3.4249E+01    3.4370E+01    1.800000E+10  0.00800  9.886E-06    0   0.4990   age213_m52            0.0000     2.6996E-06    13.9600  -0.1956   831.9431
 35      0.0000     0.0000E+00    0.0000E+00    1.000000E+06  0.02000  1.544E-02    0   1.0000   age020_m62            0.0000     2.8833E-06    14.6677   3.7775   827.7847
 36      0.0000     0.0000E+00    0.0000E+00    3.160000E+06  0.02000  3.762E-02    0   0.9858   age045_m62            0.0000     2.8784E-06    14.6449   3.7154   835.1913
 37      0.0000     0.0000E+00    0.0000E+00    5.010000E+06  0.02000  3.296E-02    0   0.9342   age055_m62            0.0000     2.9051E-06    14.8149   3.3829   852.6628
 38      2.0501     1.0958E-03    1.9527E-03    8.710000E+06  0.02000  1.154E-02    0   0.8861   age067_m62            0.0000     3.3077E-06    17.1553   2.2350   969.3777
 39      0.0000     0.0000E+00    0.0000E+00    1.445000E+07  0.02000  7.663E-03    0   0.8472   age078_m62            0.0000     3.1005E-06    16.2277   2.5012   931.3602
 40      0.0000     0.0000E+00    0.0000E+00    2.512000E+07  0.02000  4.532E-03    0   0.8099   age090_m62            0.0000     3.1448E-06    16.4330   2.4899   930.0300
 41      0.0000     0.0000E+00    0.0000E+00    5.500000E+07  0.02000  2.733E-03    0   0.7595   age110_m62            0.0000     3.0142E-06    15.6927   2.5602   905.9950
 42      0.8991     4.0508E-03    5.6904E-03    1.609000E+08  0.02000  1.369E-03    0   0.6985   age120_m62            0.0000     3.0089E-06    15.5728   2.4428   911.7394
 43      0.0000     0.0000E+00    0.0000E+00    2.861200E+08  0.02000  9.013E-04    0   0.6714   age125_m62            0.0000     3.0039E-06    15.5266   2.2254   923.9688
 44      0.3508     4.3034E-03    5.5814E-03    5.088000E+08  0.02000  5.028E-04    0   0.6449   age130_m62            0.0000     2.9411E-06    15.2232   1.8988   925.5745
 45      0.4548     1.1553E-02    1.4356E-02    9.047900E+08  0.02000  2.428E-04    0   0.6179   age135_m62            0.0000     2.8287E-06    14.8670   1.3342   909.9567
 46      0.0000     0.0000E+00    0.0000E+00    1.434000E+09  0.02000  1.263E-04    0   0.5908   age139_m62            0.0000     2.7572E-06    14.5653   0.8929   894.8651
 47      0.0000     0.0000E+00    0.0000E+00    2.500000E+09  0.02000  5.985E-05    0   0.5673   age150_m62            0.0000     2.7050E-06    14.2050   0.5443   875.1733
 48      0.0000     0.0000E+00    0.0000E+00    4.250000E+09  0.02000  3.271E-05    0   0.5468   age158_m62            0.0000     2.6922E-06    13.9583   0.2653   857.1638
 49      0.0000     0.0000E+00    0.0000E+00    1.000000E+10  0.02000  1.360E-05    0   0.5167   age181_m62            0.0000     2.7274E-06    13.8309  -0.0464   839.2075
 50      0.0000     0.0000E+00    0.0000E+00    1.800000E+10  0.02000  7.124E-06    0   0.5013   age213_m62            0.0000     2.7803E-06    13.7762  -0.2330   823.3007
 51      0.0000     0.0000E+00    0.0000E+00    1.000000E+06  0.05000  2.592E-02    0   0.9998   age020_m72            0.0000     2.8810E-06    14.6631   3.7634   830.0946
 52      0.3674     4.6767E-05    9.0076E-05    3.160000E+06  0.05000  4.845E-02    0   0.9577   age045_m72            0.0000     2.8884E-06    14.6821   3.6172   839.0778
 53      0.0000     0.0000E+00    0.0000E+00    5.010000E+06  0.05000  3.072E-02    0   0.9147   age055_m72            0.0000     3.0237E-06    15.8573   3.0883   893.4387
 54      0.0000     0.0000E+00    0.0000E+00    6.610000E+06  0.05000  1.455E-02    0   0.8877   age061_m72            0.0000     3.7814E-06    19.3966   2.2121  1001.9068
 55      0.0000     0.0000E+00    0.0000E+00    1.000000E+07  0.05000  9.074E-03    0   0.8524   age070_m72            0.0000     3.1747E-06    16.6224   3.2477   895.3837
 56      0.0000     0.0000E+00    0.0000E+00    2.512000E+07  0.05000  4.250E-03    0   0.7902   age090_m72            0.0000     3.1404E-06    16.3958   2.9859   900.0471
 57      0.0000     0.0000E+00    0.0000E+00    4.000000E+07  0.05000  3.087E-03    0   0.7618   age104_m72            0.0000     3.1936E-06    16.6460   2.7635   912.8869
 58      0.4426     1.6058E-03    2.2917E-03    1.015200E+08  0.05000  1.700E-03    0   0.7096   age116_m72            0.0000     3.0728E-06    15.8839   2.5670   915.0991
 59      0.0000     0.0000E+00    0.0000E+00    2.861200E+08  0.05000  7.384E-04    0   0.6633   age125_m72            0.0000     2.9794E-06    15.3924   2.1235   923.2484
 60      0.0000     0.0000E+00    0.0000E+00    5.088000E+08  0.05000  3.819E-04    0   0.6372   age130_m72            0.0000     2.8656E-06    14.8921   1.6735   920.0495
 61      0.0000     0.0000E+00    0.0000E+00    9.047900E+08  0.05000  1.676E-04    0   0.6110   age135_m72            0.0000     2.7308E-06    14.2454   1.0112   889.5623
 62      0.2945     2.0554E-02    2.4281E-02    1.434000E+09  0.05000  8.837E-05    0   0.5874   age139_m72            0.0000     2.7194E-06    14.2369   0.5553   883.0755
 63      0.0000     0.0000E+00    0.0000E+00    2.500000E+09  0.05000  4.233E-05    0   0.5598   age150_m72            0.0000     2.7027E-06    13.9195   0.2752   860.3378
 64      0.3057     1.3142E-01    1.3873E-01    6.250000E+09  0.05000  1.435E-05    0   0.5249   age166_m72            0.0000     2.7550E-06    13.8464  -0.1361   832.6774
 65      0.8290     7.8513E-01    7.9517E-01    1.300000E+10  0.05000  6.513E-06    0   0.5036   age193_m72            0.0000     2.8428E-06    13.8179  -0.3920   830.4719
 66     44.5713     6.0727E+01    6.0393E+01    1.800000E+10  0.05000  4.527E-06    0   0.4945   age213_m72            0.0000     2.9257E-06    13.8647  -0.5344   821.2304


## Synthesis Results - Average & Chains ##

# j      x_j: min, <> & last-chain-values for 1 ...  7 chains
  1      2.6195      3.0946      2.8884      2.5530      3.7316      3.0753      4.7081      3.4257      2.9495
  2      0.0000      1.2470      0.0000      0.0000      0.0000      0.0000      0.0480      0.0000      0.8413
  3      0.0000      0.8413      0.0000      0.1262      0.3926      0.0093      0.1043      1.5093      0.0000
  4      0.4445      0.5557      0.0000      0.4333      1.0909      0.0000      0.1103      0.0000      0.6968
  5      0.0000      0.8996      0.0000      0.0549      0.5275      0.1400      0.3381      0.2408      0.0000
  6      0.0000      0.9141      0.0799      0.4284      0.1831      0.1716      0.0685      0.0000      0.0420
  7      0.0000      1.1384      0.6743      0.0000      0.0000      0.0000      0.0000      0.4553      0.0000
  8      0.0000      0.8942      0.0000      0.1492      0.5671      0.1924      0.0000      1.0715      0.1453
  9      0.2736      1.5085      0.8193      0.2667      0.0000      0.7750      0.0000      0.0000      0.0502
 10      0.0000      1.1900      0.0000      0.0000      0.7154      0.0000      0.0000      0.2572      0.4560
 11      0.0000      1.0034      1.7922      0.0855      0.0000      0.0000      0.0000      1.4007      0.0000
 12      0.0000      1.2724      0.0161      0.3630      1.4484      0.2659      0.5371      0.0000      0.2919
 13      0.0000      0.8958      0.7477      0.0000      0.0000      0.4187      0.2315      0.3377      0.4614
 14      0.4399      1.0930      1.1044      0.4287      0.2086      0.5568      0.1025      0.8718      0.3528
 15      0.0000      1.0690      2.0502      0.0000      0.6756      0.7205      0.0000      0.3778      0.1205
 16      0.9938      1.2028      0.0845      1.6954      2.1352      0.5407      1.1242      1.5636      1.4339
 17      2.5315      1.2977      2.1901      2.4673      3.0815      2.4624      2.1956      0.7068      1.4500
 18      2.3144      1.9163      3.3926      2.2557      2.7165      2.1639      0.5692      2.2772      2.3627
 19      0.0000      2.9743      2.4151      3.1317      3.0823      3.1762      1.8148      5.0904      3.3832
 20      0.3299      1.5967      1.0273      0.3215      0.0000      0.4970      1.5945      0.0000      0.0000
 21      0.0000      1.3031      0.0724      0.0887      0.0000      0.7868      0.1774      0.0000      0.6348
 22      0.0000      0.9444      0.4283      0.8724      0.5496      0.3205      1.4046      0.0000      0.2810
 23      0.0000      0.9852      0.1232      0.3035      0.2413      0.4422      0.2084      0.0000      0.6425
 24      0.0000      0.9658      0.2753      0.1944      0.0000      0.0000      0.0651      0.0000      0.6195
 25      0.0000      0.9533      0.1588      0.0000      0.3542      2.1423      1.1135      0.0000      0.1863
 26      0.0000      0.9151      0.3292      0.0423      0.0000      1.1007      0.6033      0.1433      0.6752
 27      0.4571      1.1621      2.1435      0.4455      0.2063      0.4144      0.1413      1.0365      0.5598
 28      0.0000      1.0873      0.9886      0.2013      0.0000      0.9391      0.0000      0.0000      0.5468
 29      0.0000      1.1421      0.3894      0.0882      0.0000      0.0795      0.3388      0.0000      0.3900
 30      0.0000      1.3890      0.0000      0.0503      0.7903      0.1779      0.5655      1.4920      0.3549
 31     11.5074      1.3336      1.0118      0.9479      1.3966      0.0000      1.3056      0.0000      0.0641
 32      0.3249      1.1664      0.0000      0.3167      0.3125      0.0008      0.6484      1.3159      0.2710
 33      2.1669      2.3153      3.3484      2.1120      1.5340      2.0876      2.0703      0.7559      2.1222
 34     54.8939     27.3058     43.3232     53.5021     47.2203     51.7810     48.5229     50.0091     51.1280
 35      0.0000      1.9559      2.4625      3.0753      3.6870      2.4452      1.6798      1.5874      2.9351
 36      0.0000      1.6153      2.3752      1.6294      2.6417      1.4406      1.1641      2.2758      0.8398
 37      0.0000      1.1294      0.4404      0.2750      0.0761      0.5951      0.0000      0.4450      0.0000
 38      2.0501      1.9453      2.8499      1.9981      1.4163      3.9855      3.3754      1.4853      0.5400
 39      0.0000      0.8892      0.1201      0.3224      0.5332      0.6190      1.2725      0.3033      1.1461
 40      0.0000      1.0916      0.0000      0.1935      0.4074      0.0000      0.0469      0.0000      0.6211
 41      0.0000      1.7353      0.3412      0.0000      0.7722      0.6959      0.9113      0.0513      0.8268
 42      0.8991      1.0943      0.0000      0.8763      0.0000      0.0000      0.0000      0.0000      0.2219
 43      0.0000      1.3899      1.8343      0.0000      0.5382      0.0000      0.0567      0.6134      1.1383
 44      0.3508      0.9853      0.0000      0.3419      0.0000      0.3102      0.1400      0.0000      0.3604
 45      0.4548      1.2562      0.0000      0.4432      0.0000      1.2405      0.2020      0.8917      0.0000
 46      0.0000      1.2366      1.5979      0.2112      0.4067      0.2817      1.3294      0.0821      0.2775
 47      0.0000      0.9481      0.0000      0.1691      0.3133      0.9719      0.0000      0.6815      0.2763
 48      0.0000      1.1506      1.1457      0.4564      1.2336      0.0000      0.8483      0.0526      0.8079
 49      0.0000      1.0371      0.7166      0.2264      0.0000      0.7943      0.0000      0.1905      0.0000
 50      0.0000      1.1198      0.0000      0.0000      1.0583      0.0000      1.8083      1.3504      0.1673
 51      0.0000      2.1024      1.3523      1.8840      2.8830      3.3714      1.4507      2.2113      0.0000
 52      0.3674      1.2643      1.6741      0.3581      0.0000      0.1474      0.7480      0.0000      0.9541
 53      0.0000      1.4616      0.6132      0.1798      0.4637      0.5443      0.7008      0.1334      0.2718
 54      0.0000      1.5280      1.2836      2.1711      1.6541      0.8030      2.1530      2.3770      1.4760
 55      0.0000      1.7144      1.6949      0.0043      0.2827      0.2265      0.4760      0.3132      0.9388
 56      0.0000      1.0120      0.3984      0.1366      0.0000      0.0000      0.0000      0.0136      0.0000
 57      0.0000      1.1928      0.9224      0.0566      0.0000      0.0000      0.5474      0.2280      0.9951
 58      0.4426      0.9766      1.1383      0.4314      0.7305      0.0000      1.0108      0.7910      0.4868
 59      0.0000      0.9233      0.6117      0.0000      0.1762      0.5687      0.0000      0.0000      0.2434
 60      0.0000      1.0451      0.0789      0.1294      0.0000      0.0020      0.8246      0.6819      0.0000
 61      0.0000      0.7542      0.0000      0.0130      0.9618      0.0578      0.2398      0.2230      0.0000
 62      0.2945      1.0928      0.5242      0.2870      0.3196      0.0000      1.2391      0.9267      0.9849
 63      0.0000      1.2240      0.5709      0.0000      0.0465      1.4463      0.5061      0.0000      2.0034
 64      0.3057      1.7882      0.0000      0.2980      2.1137      0.3267      0.2281      2.4551      0.4279
 65      0.8290      1.4044      0.9574      0.8080      1.0014      0.2150      0.6363      0.0000      0.0000
 66     44.5713     19.5587     32.4217     38.9613     32.8298     32.6733     35.5498     35.2968     37.5458

# j      m_j: min, <> & last-chain-values for 1 ...  7 chains
  1  2.9701E-03  6.8610E-03  4.3061E-03  3.2060E-03  5.2585E-03  4.3444E-03  6.3569E-03  4.6515E-03  3.8828E-03
  2  0.0000E+00  7.5474E-04  0.0000E+00  0.0000E+00  0.0000E+00  0.0000E+00  1.7705E-05  0.0000E+00  3.0233E-04
  3  0.0000E+00  7.6251E-04  0.0000E+00  6.4765E-05  2.2620E-04  5.3905E-06  5.7566E-05  8.3781E-04  0.0000E+00
  4  1.9406E-04  4.7428E-04  0.0000E+00  2.0947E-04  5.9182E-04  0.0000E+00  5.7323E-05  0.0000E+00  3.5313E-04
  5  0.0000E+00  1.4626E-03  0.0000E+00  5.0599E-05  5.4514E-04  1.4507E-04  3.3480E-04  2.3977E-04  0.0000E+00
  6  0.0000E+00  2.4105E-03  1.4173E-04  6.3986E-04  3.0698E-04  2.8831E-04  1.0998E-04  0.0000E+00  6.5732E-05
  7  0.0000E+00  4.2982E-03  1.7119E-03  0.0000E+00  0.0000E+00  0.0000E+00  0.0000E+00  1.0527E-03  0.0000E+00
  8  0.0000E+00  4.6666E-03  0.0000E+00  4.4091E-04  1.8811E-03  6.3992E-04  0.0000E+00  3.4247E-03  4.5018E-04
  9  8.3584E-04  9.0102E-03  3.2907E-03  9.0223E-04  0.0000E+00  2.9493E-03  0.0000E+00  0.0000E+00  1.7817E-04
 10  0.0000E+00  9.3367E-03  0.0000E+00  0.0000E+00  3.5675E-03  0.0000E+00  0.0000E+00  1.2357E-03  2.1242E-03
 11  0.0000E+00  1.4803E-02  1.7779E-02  7.1415E-04  0.0000E+00  0.0000E+00  0.0000E+00  1.2655E-02  0.0000E+00
 12  0.0000E+00  2.9777E-02  2.5320E-04  4.8110E-03  2.1543E-02  3.9656E-03  7.6544E-03  0.0000E+00  4.0564E-03
 13  0.0000E+00  5.9088E-02  3.3165E-02  0.0000E+00  0.0000E+00  1.7598E-02  9.3011E-03  1.3642E-02  1.8072E-02
 14  4.9770E-02  2.4181E-01  1.6430E-01  5.3723E-02  2.9335E-02  7.8488E-02  1.3813E-02  1.1813E-01  4.6350E-02
 15  0.0000E+00  3.8500E-01  4.9651E-01  0.0000E+00  1.5465E-01  1.6535E-01  0.0000E+00  8.3326E-02  2.5760E-02
 16  3.0950E-01  7.3249E-01  3.4603E-02  5.8480E-01  8.2646E-01  2.0981E-01  4.1691E-01  5.8315E-01  5.1846E-01
 17  1.0228E+00  1.0252E+00  1.1634E+00  1.1040E+00  1.5473E+00  1.2395E+00  1.0563E+00  3.4197E-01  6.8016E-01
 18  2.3189E-03  3.7543E-03  4.4695E-03  2.5031E-03  3.3827E-03  2.7013E-03  6.7914E-04  2.7325E-03  2.7485E-03
 19  0.0000E+00  2.3388E-03  1.2770E-03  1.3948E-03  1.5405E-03  1.5914E-03  8.6908E-04  2.4515E-03  1.5796E-03
 20  1.4484E-04  1.3707E-03  5.9302E-04  1.5634E-04  0.0000E+00  2.7187E-04  8.3361E-04  0.0000E+00  0.0000E+00
 21  0.0000E+00  1.3579E-03  5.0706E-05  5.2354E-05  0.0000E+00  5.2243E-04  1.1256E-04  0.0000E+00  3.9275E-04
 22  0.0000E+00  1.6641E-03  5.0744E-04  8.7071E-04  6.1554E-04  3.5980E-04  1.5074E-03  0.0000E+00  2.9395E-04
 23  0.0000E+00  2.3444E-03  1.9711E-04  4.0902E-04  3.6495E-04  6.7049E-04  3.0201E-04  0.0000E+00  9.0773E-04
 24  0.0000E+00  3.4191E-03  6.5542E-04  3.8988E-04  0.0000E+00  0.0000E+00  1.4039E-04  0.0000E+00  1.3023E-03
 25  0.0000E+00  4.6536E-03  5.2112E-04  0.0000E+00  1.0990E-03  6.6632E-03  3.3102E-03  0.0000E+00  5.4008E-04
 26  0.0000E+00  7.4670E-03  1.8063E-03  1.9542E-04  0.0000E+00  5.7225E-03  2.9978E-03  7.1601E-04  3.2713E-03
 27  3.8178E-03  1.8979E-02  2.3540E-02  4.1211E-03  2.1411E-03  4.3119E-03  1.4050E-03  1.0368E-02  5.4281E-03
 28  0.0000E+00  5.1534E-02  3.1507E-02  5.4034E-03  0.0000E+00  2.8361E-02  0.0000E+00  0.0000E+00  1.5388E-02
 29  0.0000E+00  9.4319E-02  2.1624E-02  4.1258E-03  0.0000E+00  4.1848E-03  1.7041E-02  0.0000E+00  1.9123E-02
 30  0.0000E+00  2.3966E-01  0.0000E+00  4.9135E-03  8.6666E-02  1.9559E-02  5.9428E-02  1.5767E-01  3.6357E-02
 31  1.7863E+00  4.0478E-01  2.0650E-01  1.6295E-01  2.6943E-01  0.0000E+00  2.4133E-01  0.0000E+00  1.1550E-02
 32  6.7863E-02  4.7633E-01  0.0000E+00  7.3253E-02  8.1110E-02  2.0527E-04  1.6125E-01  3.2912E-01  6.5721E-02
 33  1.0019E+00  2.0932E+00  2.0356E+00  1.0815E+00  8.8150E-01  1.2026E+00  1.1399E+00  4.1857E-01  1.1392E+00
 34  3.4370E+01  3.3430E+01  3.5665E+01  3.7100E+01  3.6744E+01  4.0393E+01  3.6178E+01  3.7497E+01  3.7166E+01
 35  0.0000E+00  3.0725E-03  2.6011E-03  2.7363E-03  3.6813E-03  2.4475E-03  1.6070E-03  1.5272E-03  2.7377E-03
 36  0.0000E+00  1.0266E-03  1.0151E-03  5.8657E-04  1.0672E-03  5.8339E-04  4.5060E-04  8.8586E-04  3.1692E-04
 37  0.0000E+00  7.7640E-04  2.0356E-04  1.0707E-04  3.3271E-05  2.6066E-04  0.0000E+00  1.8737E-04  0.0000E+00
 38  1.9527E-03  3.6230E-03  3.5689E-03  2.1078E-03  1.6765E-03  4.7296E-03  3.8284E-03  1.6942E-03  5.9713E-04
 39  0.0000E+00  2.3844E-03  2.1656E-04  4.8967E-04  9.0877E-04  1.0577E-03  2.0781E-03  4.9810E-04  1.8248E-03
 40  0.0000E+00  4.7313E-03  0.0000E+00  4.7512E-04  1.1223E-03  0.0000E+00  1.2392E-04  0.0000E+00  1.5984E-03
 41  0.0000E+00  1.1697E-02  1.5465E-03  0.0000E+00  3.3082E-03  2.9887E-03  3.7407E-03  2.1197E-04  3.3092E-03
 42  5.6904E-03  1.3542E-02  0.0000E+00  6.1424E-03  0.0000E+00  0.0000E+00  0.0000E+00  0.0000E+00  1.6305E-03
 43  0.0000E+00  2.5112E-02  2.2286E-02  0.0000E+00  6.1802E-03  0.0000E+00  6.2434E-04  6.7881E-03  1.2212E-02
 44  5.5814E-03  3.0653E-02  0.0000E+00  6.0247E-03  0.0000E+00  6.1497E-03  2.6523E-03  0.0000E+00  6.6570E-03
 45  1.4356E-02  7.7542E-02  0.0000E+00  1.5496E-02  0.0000E+00  4.8791E-02  7.5927E-03  3.3710E-02  0.0000E+00
 46  0.0000E+00  1.4031E-01  1.2191E-01  1.3570E-02  2.9331E-02  2.0362E-02  9.1860E-02  5.7017E-03  1.8693E-02
 47  0.0000E+00  2.1796E-01  0.0000E+00  2.2021E-02  4.5786E-02  1.4237E-01  0.0000E+00  9.5954E-02  3.7712E-02
 48  0.0000E+00  4.6650E-01  3.1235E-01  1.0480E-01  3.1791E-01  0.0000E+00  2.0946E-01  1.3050E-02  1.9450E-01
 49  0.0000E+00  9.5568E-01  4.4406E-01  1.1816E-01  0.0000E+00  4.6636E-01  0.0000E+00  1.0753E-01  0.0000E+00
 50  0.0000E+00  1.9113E+00  0.0000E+00  0.0000E+00  1.1480E+00  0.0000E+00  1.8796E+00  1.4116E+00  1.6957E-01
 51  0.0000E+00  1.9669E-03  8.5074E-04  9.9838E-04  1.7143E-03  2.0097E-03  8.2656E-04  1.2671E-03  0.0000E+00
 52  9.0076E-05  6.0614E-04  5.3970E-04  9.7231E-05  0.0000E+00  4.5044E-05  2.1841E-04  0.0000E+00  2.7161E-04
 53  0.0000E+00  1.0556E-03  2.9777E-04  7.3547E-05  2.1285E-04  2.5046E-04  3.0823E-04  5.8982E-05  1.1653E-04
 54  0.0000E+00  2.2611E-03  1.2772E-03  1.8197E-03  1.5558E-03  7.5713E-04  1.9403E-03  2.1543E-03  1.2969E-03
 55  0.0000E+00  3.9062E-03  2.5968E-03  5.5469E-06  4.0933E-04  3.2890E-04  6.6044E-04  4.3709E-04  1.2701E-03
 56  0.0000E+00  4.5639E-03  1.2080E-03  3.4904E-04  0.0000E+00  0.0000E+00  0.0000E+00  3.7599E-05  0.0000E+00
 57  0.0000E+00  7.1394E-03  3.7124E-03  1.9194E-04  0.0000E+00  0.0000E+00  1.9956E-03  8.3581E-04  3.5366E-03
 58  2.2917E-03  9.8876E-03  7.7491E-03  2.4737E-03  4.7006E-03  0.0000E+00  6.2325E-03  4.9044E-03  2.9265E-03
 59  0.0000E+00  2.0116E-02  8.9613E-03  0.0000E+00  2.4399E-03  7.8958E-03  0.0000E+00  0.0000E+00  3.1485E-03
 60  0.0000E+00  4.2292E-02  2.1484E-03  2.9671E-03  0.0000E+00  5.2332E-05  2.0323E-02  1.6901E-02  0.0000E+00
 61  0.0000E+00  6.6686E-02  0.0000E+00  6.5118E-04  5.4053E-02  3.2553E-03  1.2912E-02  1.2079E-02  0.0000E+00
 62  2.4281E-02  1.7618E-01  5.6832E-02  2.6210E-02  3.2754E-02  0.0000E+00  1.2166E-01  9.1507E-02  9.4281E-02
 63  0.0000E+00  3.9260E-01  1.2314E-01  0.0000E+00  9.4837E-03  2.9560E-01  9.8869E-02  0.0000E+00  3.8155E-01
 64  1.3873E-01  1.5865E+00  0.0000E+00  1.4975E-01  1.1919E+00  1.8466E-01  1.2324E-01  1.3340E+00  2.2543E-01
 65  7.9517E-01  2.6339E+00  1.2073E+00  8.5834E-01  1.1936E+00  2.5698E-01  7.2675E-01  0.0000E+00  0.0000E+00
 66  6.0393E+01  5.1819E+01  5.7761E+01  5.8467E+01  5.5284E+01  5.5158E+01  5.7360E+01  5.7274E+01  5.9065E+01

# AV, chi2 & Mass for <> & i_chain = 1 ...  7 solutions
AV       3.3617      3.5753      3.7186      3.5254      3.6470      3.5216      3.6004      3.6048      3.5720
chi2 2.2699E-05  2.7285E-05  2.3699E-05  2.3243E-05  2.3519E-05  2.3728E-05  2.3421E-05  2.3411E-05  2.3332E-05
Mass 4.6740E-12  3.1845E-12  5.7410E-12  5.2577E-12  5.5172E-12  4.6505E-12  5.4081E-12  5.4102E-12  5.3395E-12
-436.05                                  [v0_min (km/s) before EX0s...]
 403.03                                  [vd_min (km/s) before EX0s...]


## Synthetic spectrum (Best Model) ##l_obs f_obs f_syn wei
 3478    [Nl_obs]
 3741.00    7.30731   0.43773    0.000
 3742.00    5.95525   0.44062    0.000
 3743.00    2.10341   0.44563    0.000
 3744.00   -1.10028   0.45303    0.000
 3745.00   -3.92631   0.46211    0.000
 3746.00   -4.36272   0.47241    0.000
 3747.00   -3.58567   0.48285    0.000
 3748.00   -5.23688   0.49270    0.000
 3749.00   -7.95588   0.50115    0.000
 3750.00   -8.38990   0.50776    0.000
 3751.00   -7.96126   0.51245    0.000
 3752.00   -7.03218   0.51532    0.000
 3753.00   -5.94271   0.51691    0.000
 3754.00   -7.17410   0.51767    0.000
 3755.00   -9.02743   0.51841    0.000
 3756.00   -7.36134   0.51953    0.000
 3757.00   -4.92279   0.52169    0.000
 3758.00   -0.85380   0.52513    0.000
 3759.00    3.49982   0.53014   -1.000
 3760.00    2.08463   0.53673   -1.000
 3761.00   -0.09687   0.54487    0.000
 3762.00   -1.69524   0.55447    0.000
 3763.00   -3.23881   0.56517    0.000
 3764.00    0.03206   0.57684   -1.000
 3765.00    3.58066   0.58896   -1.000
 3766.00    7.60363   0.60138   -1.000
 3767.00   11.58826   0.61355   -1.000
 3768.00    9.55837   0.62532   -1.000
 3769.00    7.55633   0.63620   -1.000
 3770.00    6.23058   0.64602   -1.000
 3771.00    5.16427   0.65437   -1.000
 3772.00    7.49782   0.66100   -1.000
 3773.00    9.31246   0.66558   -1.000
 3774.00    6.57168   0.66779   -1.000
 3775.00    3.46494   0.66749   -1.000
 3776.00   -2.01462   0.66436    0.000
 3777.00   -6.24178   0.65866    0.000
 3778.00   -4.13020   0.65024    0.000
 3779.00   -2.90531   0.63977    0.000
 3780.00   -5.30982   0.62740    0.000
 3781.00   -8.89273   0.61396    0.000
 3782.00  -16.47246   0.59992    0.000
 3783.00  -20.19061   0.58589    0.000
 3784.00  -12.86438   0.57257    0.000
 3785.00   -7.68647   0.56017    0.000
 3786.00   -7.75742   0.54948    0.000
 3787.00   -8.86025   0.54046    0.000
 3788.00  -12.13794   0.53383    0.000
 3789.00  -12.03665   0.52953    0.000
 3790.00   -5.74606   0.52801    0.000
 3791.00   -0.56503   0.52925    0.000
 3792.00    2.83987   0.53322   -1.000
 3793.00    4.01132   0.53977   -1.000
 3794.00    2.04562   0.54836   -1.000
 3795.00    1.43580   0.55850   -1.000
 3796.00    2.50187   0.56938   -1.000
 3797.00   -0.17506   0.58018    0.000
 3798.00   -6.92993   0.59019    0.000
 3799.00  -11.41389   0.59853    0.000
 3800.00  -13.71550   0.60484    0.000
 3801.00  -14.19905   0.60840    0.000
 3802.00  -13.14201   0.60926    0.000
 3803.00  -11.78579   0.60707    0.000
 3804.00  -10.20632   0.60211    0.000
 3805.00   -7.38910   0.59450    0.000
 3806.00   -3.76046   0.58457    0.000
 3807.00   -0.12461   0.57288    0.000
 3808.00    3.51537   0.55970   -1.000
 3809.00    5.12545   0.54583   -1.000
 3810.00    5.72095   0.53144   -1.000
 3811.00    3.73091   0.51732   -1.000
 3812.00    0.62278   0.50349   -1.000
 3813.00    2.49327   0.49054   -1.000
 3814.00    6.21012   0.47836   -1.000
 3815.00    6.65772   0.46726   -1.000
 3816.00    6.07761   0.45710   -1.000
 3817.00    1.49150   0.44795   -1.000
 3818.00   -4.14547   0.43968    0.000
 3819.00   -8.41936   0.43227    0.000
 3820.00  -12.40120   0.42560    0.000
 3821.00  -12.04348   0.41971    0.000
 3822.00  -10.94927   0.41447    0.000
 3823.00   -9.61073   0.41003    0.000
 3824.00   -8.24083   0.40630    0.000
 3825.00   -3.84060   0.40355    0.000
 3826.00    0.83164   0.40180   -1.000
 3827.00    1.14287   0.40137   -1.000
 3828.00    1.21970   0.40246   -1.000
 3829.00    1.98100   0.40526   -1.000
 3830.00    2.74327   0.41010   -1.000
 3831.00    2.43085   0.41684   -1.000
 3832.00    2.11863   0.42580   -1.000
 3833.00    1.81079   0.43644   -1.000
 3834.00    1.44138   0.44883   -1.000
 3835.00    0.30643   0.46220   -1.000
 3836.00   -0.59990   0.47622    0.000
 3837.00    0.42617   0.49010   -1.000
 3838.00    1.35194   0.50322   -1.000
 3839.00    1.64670   0.51514   -1.000
 3840.00    1.97439   0.52517   -1.000
 3841.00    2.46456   0.53327   -1.000
 3842.00    2.26087   0.53896   -1.000
 3843.00   -0.72041   0.54252    0.000
 3844.00   -3.07557   0.54385    0.000
 3845.00   -3.34915   0.54349    0.000
 3846.00   -3.59129   0.54156    0.000
 3847.00   -3.74513   0.53866    0.000
 3848.00   -4.97203   0.53508    0.000
 3849.00   -8.77625   0.53147    0.000
 3850.00  -10.06504   0.52819    0.000
 3851.00   -6.13706   0.52570    0.000
 3852.00   -3.60338   0.52430    0.000
 3853.00   -3.58455   0.52409    0.000
 3854.00   -3.35157   0.52513    0.000
 3855.00   -2.78085   0.52721    0.000
 3856.00   -1.59231   0.52999    0.000
 3857.00    0.45153   0.53324    0.000
 3858.00    0.00682   0.53636    0.000
 3859.00   -3.47011   0.53934    0.000
 3860.00   -4.91631   0.54162    0.000
 3861.00   -4.18116   0.54343    0.000
 3862.00   -0.95893   0.54435    0.000
 3863.00    4.61980   0.54492    0.000
 3864.00    8.89792   0.54491    0.000
 3865.00   12.08950   0.54502    0.000
 3866.00   12.12530   0.54504    0.000
 3867.00    9.84001   0.54515    0.000
 3868.00   10.16286   0.54521    0.000
 3869.00   12.17037   0.54554    0.000
 3870.00   11.86234   0.54596    0.000
 3871.00   10.24571   0.54608    0.000
 3872.00    8.42883   0.54621    0.000
 3873.00    6.51344   0.54629    0.000
 3874.00    4.06446   0.54670    0.000
 3875.00    1.38859   0.54724    0.000
 3876.00    3.68922   0.54878    0.000
 3877.00    7.80255   0.55101    0.000
 3878.00    7.04910   0.55485    0.000
 3879.00    4.79532   0.55989    0.000
 3880.00    2.62405   0.56696    0.000
 3881.00    0.47397   0.57533   -1.000
 3882.00    0.35295   0.58575   -1.000
 3883.00    0.65615   0.59725   -1.000
 3884.00   -0.17846   0.61001    0.000
 3885.00   -1.20069   0.62335    0.000
 3886.00   -5.11730   0.63645    0.000
 3887.00   -9.39235   0.64941    0.000
 3888.00   -7.13167   0.66089    0.000
 3889.00   -4.31165   0.67194    0.000
 3890.00   -7.35111   0.68075    0.000
 3891.00  -10.68260   0.68858    0.000
 3892.00   -6.65256   0.69488    0.000
 3893.00   -2.56700   0.70017    0.000
 3894.00   -2.68276   0.70478    0.000
 3895.00   -2.88022   0.70931    0.000
 3896.00   -4.74892   0.71426    0.000
 3897.00   -6.22860   0.71958    0.000
 3898.00   -3.10780   0.72569    0.000
 3899.00    0.12674   0.73278   -1.000
 3900.00    4.28804   0.74067   -1.000
 3901.00    8.10163   0.74916   -1.000
 3902.00    9.79148   0.75747   -1.000
 3903.00   11.17058   0.76574   -1.000
 3904.00   11.05426   0.77234   -1.000
 3905.00   10.92718   0.77764   -1.000
 3906.00   10.75797   0.78023   -1.000
 3907.00   10.35016   0.78013   -1.000
 3908.00    9.16463   0.77667   -1.000
 3909.00    8.69667   0.77003   -1.000
 3910.00   10.20748   0.76049   -1.000
 3911.00    9.86863   0.74778   -1.000
 3912.00    5.16192   0.73319   -1.000
 3913.00    1.09529   0.71571   -1.000
 3914.00   -1.66502   0.69707    0.000
 3915.00   -3.78179   0.67613    0.000
 3916.00   -4.75553   0.65416    0.000
 3917.00   -3.20100   0.63072    0.000
 3918.00    2.28196   0.60619   -1.000
 3919.00    5.78352   0.58106   -1.000
 3920.00    6.58158   0.55521   -1.000
 3921.00    5.74687   0.52988   -1.000
 3922.00    2.95085   0.50510   -1.000
 3923.00   -0.97304   0.48240    0.000
 3924.00   -6.09145   0.46235    0.000
 3925.00   -7.90665   0.44617    0.000
 3926.00   -6.63606   0.43474    0.000
 3927.00   -3.42577   0.42853    0.000
 3928.00    1.38198   0.42815   -1.000
 3929.00    0.91288   0.43333   -1.000
 3930.00   -3.38155   0.44408    0.000
 3931.00   -4.78888   0.45936    0.000
 3932.00   -4.35883   0.47889    0.000
 3933.00   -4.61191   0.50162    0.000
 3934.00   -5.24518   0.52667    0.000
 3935.00   -1.88831   0.55378    0.000
 3936.00    3.40011   0.58200   -1.000
 3937.00    1.65359   0.61004   -1.000
 3938.00   -3.03413   0.63741    0.000
 3939.00   -7.76482   0.66436    0.000
 3940.00  -12.51088   0.69007    0.000
 3941.00   -9.56903   0.71412    0.000
 3942.00   -4.30346   0.73507    0.000
 3943.00   -7.95647   0.75367    0.000
 3944.00  -13.84948   0.76969    0.000
 3945.00   -9.58891   0.78159    0.000
 3946.00   -3.25781   0.78873    0.000
 3947.00    1.81319   0.79164   -1.000
 3948.00    6.68243   0.78982   -1.000
 3949.00    0.63199   0.78306   -1.000
 3950.00   -6.72220   0.77079    0.000
 3951.00   -7.30374   0.75299    0.000
 3952.00   -7.33375   0.73079    0.000
 3953.00   -6.42939   0.70484    0.000
 3954.00   -5.48208   0.67567    0.000
 3955.00   -4.92535   0.64445    0.000
 3956.00   -4.33400   0.61227    0.000
 3957.00   -1.67421   0.58075    0.000
 3958.00    1.01010   0.55141   -1.000
 3959.00    4.15918   0.52594   -1.000
 3960.00    6.51226   0.50596    0.000
 3961.00   -0.10537   0.49271    0.000
 3962.00   -6.14976   0.48713    0.000
 3963.00   -7.68821   0.48966    0.000
 3964.00   -8.30085   0.50045    0.000
 3965.00   -3.41990   0.51945    0.000
 3966.00   -0.57070   0.54532    0.000
 3967.00   -7.26122   0.57755    0.000
 3968.00  -11.43477   0.61444    0.000
 3969.00   -5.96273   0.65448    0.000
 3970.00   -1.32989   0.69662    0.000
 3971.00    0.62061   0.73844    0.000
 3972.00    1.31209   0.77944    0.000
 3973.00   -1.40621   0.81810    0.000
 3974.00   -1.97798   0.85393    0.000
 3975.00    2.43446   0.88703    0.000
 3976.00    4.90198   0.91671    0.000
 3977.00    3.46302   0.94331    0.000
 3978.00    1.53227   0.96709    0.000
 3979.00   -1.25873   0.98729    0.000
 3980.00   -2.62780   1.00577    0.000
 3981.00   -1.81995   1.02133    0.000
 3982.00   -1.85347   1.03466    0.000
 3983.00   -3.01850   1.04702    0.000
 3984.00   -3.36469   1.05709    0.000
 3985.00   -2.74117   1.06651    0.000
 3986.00   -1.79160   1.07362    0.000
 3987.00   -0.50154   1.08051    0.000
 3988.00    2.09246   1.08612   -1.000
 3989.00    5.88746   1.09181   -1.000
 3990.00    6.96052   1.09701   -1.000
 3991.00    5.82365   1.10279   -1.000
 3992.00    5.47321   1.10857   -1.000
 3993.00    5.68464   1.11314   -1.000
 3994.00    3.31276   1.11821   -1.000
 3995.00   -0.67886   1.12251    0.000
 3996.00   -0.30760   1.12670    0.000
 3997.00    2.45457   1.12941   -1.000
 3998.00    2.98820   1.13395   -1.000
 3999.00    2.46028   1.13984   -1.000
 4000.00    1.60568   1.14637   -1.000
 4001.00    0.61681   1.15347   -1.000
 4002.00    3.85478   1.16112   -1.000
 4003.00    8.57733   1.17008   -1.000
 4004.00    6.54646   1.17897   -1.000
 4005.00    2.51462   1.18908   -1.000
 4006.00   -0.34083   1.19836    0.000
 4007.00   -2.90729   1.20803    0.000
 4008.00   -3.77852   1.21709    0.000
 4009.00   -4.31270   1.22394    0.000
 4010.00    0.66208   1.23038   -1.000
 4011.00    6.49287   1.23645   -1.000
 4012.00    4.68975   1.24037   -1.000
 4013.00    2.00884   1.24272   -1.000
 4014.00    0.30435   1.24351   -1.000
 4015.00   -1.32465   1.24343    0.000
 4016.00   -3.73880   1.24089    0.000
 4017.00   -6.18601   1.23763    0.000
 4018.00   -1.13611   1.23363    0.000
 4019.00    3.83731   1.22837   -1.000
 4020.00    2.46168   1.22233   -1.000
 4021.00    1.45379   1.21515   -1.000
 4022.00    6.92957   1.20622   -1.000
 4023.00   11.91893   1.19784   -1.000
 4024.00   11.67445   1.19164   -1.000
 4025.00   10.50997   1.18603   -1.000
 4026.00    2.36142   1.18379   -1.000
 4027.00   -5.17440   1.18345    0.000
 4028.00   -9.17608   1.18626    0.000
 4029.00  -10.63380   1.19056    0.000
 4030.00   -0.43263   1.19526    0.000
 4031.00    7.40509   1.19976   -1.000
 4032.00    6.37726   1.20281   -1.000
 4033.00    5.13763   1.20440   -1.000
 4034.00    3.23402   1.20530   -1.000
 4035.00    0.78413   1.20385   -1.000
 4036.00   -3.11907   1.20074    0.000
 4037.00   -4.74095   1.19671    0.000
 4038.00   -1.15355   1.19289    0.000
 4039.00    2.14148   1.19222   -1.000
 4040.00    4.85851   1.19273   -1.000
 4041.00    6.11107   1.19592   -1.000
 4042.00    4.84073   1.19998   -1.000
 4043.00    4.92313   1.20466   -1.000
 4044.00    7.04615   1.20876   -1.000
 4045.00    6.07432   1.21275   -1.000
 4046.00    1.00000   1.21544   -1.000
 4047.00   -2.43841   1.21623    0.000
 4048.00   -3.96689   1.21645    0.000
 4049.00   -4.48005   1.21335    0.000
 4050.00   -3.94788   1.20975    0.000
 4051.00   -2.06208   1.20489    0.000
 4052.00    1.05296   1.19978   -1.000
 4053.00    2.51352   1.19459   -1.000
 4054.00    2.64989   1.18875   -1.000
 4055.00    0.15448   1.18291   -1.000
 4056.00   -4.19410   1.17807    0.000
 4057.00   -5.03178   1.17574    0.000
 4058.00   -3.70079   1.17467    0.000
 4059.00   -4.29516   1.17672    0.000
 4060.00   -5.92843   1.17953    0.000
 4061.00   -5.51525   1.18304    0.000
 4062.00   -4.14293   1.18757    0.000
 4063.00   -4.80271   1.19164    0.000
 4064.00   -6.28349   1.19585    0.000
 4065.00   -5.16859   1.20018    0.000
 4066.00   -3.15869   1.20460    0.000
 4067.00   -0.23507   1.21124    0.000
 4068.00    2.95387   1.21749   -1.000
 4069.00    0.99980   1.22390   -1.000
 4070.00   -2.18960   1.23236    0.000
 4071.00    1.47398   1.24259   -1.000
 4072.00    6.46543   1.25590   -1.000
 4073.00    9.32537   1.27178   -1.000
 4074.00   11.86412   1.28896   -1.000
 4075.00    6.36961   1.30643   -1.000
 4076.00   -0.01345   1.32407    0.000
 4077.00   -3.87829   1.34061    0.000
 4078.00   -7.55872   1.35730    0.000
 4079.00   -4.47125   1.37288    0.000
 4080.00   -1.12467   1.38608    0.000
 4081.00    0.08017   1.39743   -1.000
 4082.00    1.26558   1.40439   -1.000
 4083.00    2.16628   1.40763   -1.000
 4084.00    2.61719   1.40479   -1.000
 4085.00   -4.34446   1.39904    0.000
 4086.00  -10.31004   1.38897    0.000
 4087.00   -6.02554   1.37527    0.000
 4088.00   -1.75886   1.36035    0.000
 4089.00    2.37703   1.34166   -1.000
 4090.00    5.24031   1.32314   -1.000
 4091.00    0.96445   1.30598   -1.000
 4092.00   -2.16434   1.29075    0.000
 4093.00   -0.16012   1.27754    0.000
 4094.00    0.31752   1.26747    0.000
 4095.00   -4.81143   1.26057    0.000
 4096.00   -7.42843   1.25942    0.000
 4097.00   -2.32007   1.26387    0.000
 4098.00    2.08003   1.27106    0.000
 4099.00    4.62901   1.28069    0.000
 4100.00    5.30795   1.29316    0.000
 4101.00    1.78715   1.30521    0.000
 4102.00    1.62437   1.31758    0.000
 4103.00    7.99600   1.32976    0.000
 4104.00    9.02794   1.34032    0.000
 4105.00    0.99961   1.35143    0.000
 4106.00   -3.20744   1.36035    0.000
 4107.00   -1.73421   1.36952    0.000
 4108.00   -1.42055   1.37636    0.000
 4109.00   -2.62202   1.38146    0.000
 4110.00   -2.80984   1.38517    0.000
 4111.00   -1.83090   1.38718    0.000
 4112.00   -1.17762   1.38756    0.000
 4113.00   -0.85493   1.38574    0.000
 4114.00   -0.49631   1.38676    0.000
 4115.00   -0.10553   1.38512    0.000
 4116.00    0.97672   1.38291   -1.000
 4117.00    2.60452   1.37916   -1.000
 4118.00    3.32872   1.37594   -1.000
 4119.00    3.42585   1.37256   -1.000
 4120.00    3.55057   1.36696   -1.000
 4121.00    3.69208   1.36164   -1.000
 4122.00    3.68205   1.35538   -1.000
 4123.00    3.59149   1.35173   -1.000
 4124.00    5.79342   1.34724   -1.000
 4125.00    9.05241   1.34508   -1.000
 4126.00   11.24861   1.34125    0.003
 4127.00   13.02281   1.34092    0.001
 4128.00   11.71475   1.34101    0.001
 4129.00    9.36353   1.34223    0.001
 4130.00    7.90849   1.34613    0.001
 4131.00    6.70842   1.34572    0.001
 4132.00    4.25563   1.34656    0.001
 4133.00    1.50872   1.34592    0.001
 4134.00   -0.18513   1.34368    0.000
 4135.00   -1.68021   1.34074    0.000
 4136.00    4.66222   1.33580    0.001
 4137.00   12.14913   1.33001    0.001
 4138.00   10.85294   1.32718    0.001
 4139.00    8.62338   1.32716    0.001
 4140.00    5.28624   1.32803    0.001
 4141.00    1.87248   1.32816    0.001
 4142.00    5.39030   1.33011    0.001
 4143.00    9.14718   1.33202    0.001
 4144.00   11.08133   1.33495    0.001
 4145.00   12.92193   1.34098    0.001
 4146.00   11.79165   1.34578    0.001
 4147.00   10.72302   1.35497    0.001
 4148.00   10.60765   1.36282    0.001
 4149.00   10.28889   1.37323    0.001
 4150.00    7.96521   1.38346    0.001
 4151.00    5.38553   1.39367    0.001
 4152.00    0.98837   1.40523    0.001
 4153.00   -1.72479   1.41481    0.000
 4154.00    4.75491   1.42494    0.001
 4155.00   10.19547   1.43103    0.001
 4156.00   11.09389   1.43705    0.001
 4157.00   10.63140   1.43907    0.001
 4158.00    5.27401   1.43773    0.001
 4159.00    1.73414   1.43424    0.001
 4160.00    3.67882   1.42880    0.001
 4161.00    6.62271   1.42089    0.001
 4162.00   12.13264   1.41224    0.001
 4163.00   16.12758   1.40440    0.001
 4164.00   16.77596   1.39502    0.001
 4165.00   15.57762   1.38698    0.001
 4166.00   10.84177   1.37758    0.001
 4167.00    7.43597   1.37070    0.001
 4168.00    6.25310   1.36732    0.001
 4169.00    4.60641   1.36581    0.001
 4170.00    2.28029   1.36816    0.001
 4171.00    0.92038   1.37072    0.001
 4172.00    0.80491   1.37548    0.001
 4173.00    1.35289   1.38226    0.001
 4174.00    2.65377   1.38913    0.001
 4175.00    3.56661   1.39711    0.001
 4176.00    4.09106   1.40424    0.001
 4177.00    5.91734   1.41354    0.001
 4178.00    8.89275   1.42130    0.001
 4179.00    9.76300   1.42951    0.001
 4180.00    8.99598   1.43605    0.001
 4181.00    9.01687   1.43816    0.001
 4182.00    9.57659   1.44182    0.001
 4183.00    8.04062   1.44288    0.001
 4184.00    5.24848   1.44378    0.001
 4185.00    4.98795   1.44212    0.001
 4186.00    6.05149   1.43955    0.001
 4187.00    7.65574   1.43755    0.001
 4188.00    9.50524   1.43248    0.001
 4189.00   10.51360   1.42757    0.001
 4190.00   11.19372   1.42218    0.001
 4191.00   10.52179   1.41910    0.001
 4192.00    9.40079   1.41781    0.001
 4193.00    6.60215   1.41985    0.001
 4194.00    3.33592   1.42520    0.001
 4195.00    3.31212   1.43230    0.001
 4196.00    4.03220   1.44224    0.001
 4197.00    5.37774   1.45457    0.001
 4198.00    6.83823   1.46819    0.001
 4199.00    5.55435   1.48341    0.001
 4200.00    3.88241   1.49918    0.001
 4201.00    8.67016   1.51307    0.001
 4202.00   14.11655   1.52602    0.001
 4203.00   11.70206   1.53734    0.001
 4204.00    8.77544   1.54757    0.001
 4205.00   10.03974   1.55610    0.001
 4206.00   11.43288   1.56292    0.001
 4207.00   12.89075   1.56750    0.001
 4208.00   14.20631   1.57055    0.001
 4209.00   11.34079   1.56886    0.001
 4210.00    8.79502   1.56527    0.001
 4211.00   10.90417   1.56101    0.001
 4212.00   12.68936   1.55306    0.001
 4213.00   11.41102   1.54298    0.001
 4214.00   10.13334   1.52995    0.001
 4215.00    8.86017   1.51814    0.001
 4216.00    7.81615   1.50372    0.001
 4217.00    7.98994   1.48916    0.001
 4218.00    7.81664   1.47604    0.001
 4219.00    6.16087   1.46373    0.001
 4220.00    5.02494   1.45501    0.001
 4221.00    5.72057   1.45203    0.001
 4222.00    6.91534   1.45581    0.001
 4223.00    9.58823   1.46312    0.001
 4224.00   11.07888   1.47801    0.001
 4225.00    9.58600   1.49541    0.001
 4226.00   10.15156   1.51168    0.001
 4227.00   15.19008   1.52850    0.001
 4228.00   17.29277   1.54827    0.001
 4229.00   13.85896   1.56603    0.001
 4230.00   11.27469   1.58350    0.001
 4231.00   10.08904   1.60612    0.001
 4232.00    9.48229   1.62361    0.001
 4233.00    9.71122   1.64052    0.001
 4234.00    8.93906   1.65405    0.001
 4235.00    6.89592   1.66533    0.001
 4236.00    7.50558   1.67398    0.001
 4237.00   11.08325   1.67796    0.001
 4238.00   13.07650   1.68286    0.001
 4239.00   13.50625   1.68156    0.001
 4240.00   13.06418   1.67901    0.001
 4241.00   11.86339   1.67233    0.001
 4242.00   11.19691   1.66194    0.001
 4243.00   10.94005   1.65365    0.001
 4244.00   10.78350   1.64520    0.001
 4245.00   10.69455   1.63882    0.001
 4246.00   11.61710   1.63361    0.001
 4247.00   13.13687   1.62919    0.001
 4248.00   13.12490   1.62905    0.001
 4249.00   12.32428   1.63091    0.001
 4250.00   11.11989   1.63480    0.001
 4251.00    9.73535   1.64360    0.001
 4252.00    9.66328   1.65385    0.001
 4253.00   10.09444   1.66577    0.001
 4254.00    9.05889   1.67241    0.001
 4255.00    7.54534   1.67929    0.001
 4256.00    7.64407   1.68583    0.001
 4257.00    8.18289   1.68908    0.001
 4258.00    6.45596   1.69135    0.001
 4259.00    4.22127   1.68988    0.001
 4260.00    4.41072   1.68495    0.001
 4261.00    5.03371   1.67304    0.001
 4262.00    7.96460   1.66229    0.001
 4263.00   11.21126   1.64992    0.001
 4264.00    9.76857   1.63792    0.001
 4265.00    7.86780   1.63088    0.001
 4266.00    5.90346   1.62490    0.001
 4267.00    3.93525   1.62111    0.001
 4268.00    2.98730   1.62108    0.001
 4269.00    2.08094   1.62642    0.001
 4270.00    3.92327   1.63500    0.001
 4271.00    5.64037   1.64331    0.001
 4272.00    4.04673   1.65507    0.001
 4273.00    2.64727   1.66638    0.001
 4274.00    3.91717   1.67065    0.001
 4275.00    5.52114   1.67563    0.001
 4276.00   10.15970   1.67385    0.001
 4277.00   13.78601   1.67245    0.001
 4278.00   10.66966   1.66823    0.001
 4279.00    8.13989   1.65981    0.001
 4280.00    8.64680   1.65457    0.001
 4281.00    9.33867   1.64148    0.001
 4282.00   10.80264   1.63114   -2.000
 4283.00   11.29552   1.61612   -2.000
 4284.00    8.43606   1.60215   -2.000
 4285.00    5.82165   1.58740   -2.000
 4286.00    3.91949   1.56827   -2.000
 4287.00    2.68089   1.55510   -2.000
 4288.00    3.08813   1.53542   -2.000
 4289.00    1.42466   1.51709   -2.000
 4290.00   -4.66560   1.49577   -2.000
 4291.00   -8.43105   1.47327   -2.000
 4292.00   -7.88001   1.45248   -2.000
 4293.00   -5.98134   1.42970   -2.000
 4294.00   -1.89704   1.41025   -2.000
 4295.00    1.13287   1.39240   -2.000
 4296.00    2.66275   1.37891   -2.000
 4297.00    4.07843   1.37221   -2.000
 4298.00    5.35119   1.37365    0.001
 4299.00    5.16564   1.38026    0.001
 4300.00    3.37146   1.39737    0.001
 4301.00    3.10386   1.41954    0.001
 4302.00    4.32155   1.44968    0.001
 4303.00    4.87943   1.48870    0.001
 4304.00    4.87118   1.53355    0.001
 4305.00    5.26352   1.59002    0.001
 4306.00    5.95857   1.64630    0.001
 4307.00    6.78139   1.70284    0.001
 4308.00    7.68905   1.75662    0.001
 4309.00    7.66798   1.80793    0.001
 4310.00    7.10684   1.85313    0.001
 4311.00    8.82957   1.89237    0.001
 4312.00   11.70977   1.92514    0.001
 4313.00   12.35482   1.94681    0.001
 4314.00   12.01906   1.95849    0.001
 4315.00   10.58741   1.96513    0.001
 4316.00    8.74295   1.97605    0.001
 4317.00    8.38875   1.98149    0.001
 4318.00    8.51101   1.98872    0.001
 4319.00    7.98476   1.99006    0.001
 4320.00    7.28517   1.99154    0.001
 4321.00    7.10911   1.99926    0.001
 4322.00    7.04760   2.00731    0.001
 4323.00    7.65984   2.02511    0.001
 4324.00    8.38928   2.04087    0.001
 4325.00   10.83356   2.05099    0.001
 4326.00   13.50466   2.04803    0.001
 4327.00   12.13025   2.04372    0.001
 4328.00   10.37781   2.04330    0.001
 4329.00   10.16989   2.03555    0.001
 4330.00   10.05031   2.03127    0.000
 4331.00    4.72837   2.03060    0.000
 4332.00   -0.64452   2.02552    0.000
 4333.00    2.04138   2.01217    0.000
 4334.00    4.63224   2.00801    0.000
 4335.00    4.94119   2.01298    0.000
 4336.00    5.40468   2.01651    0.000
 4337.00    7.87979   2.02828    0.000
 4338.00   10.35900   2.05016    0.000
 4339.00   12.87399   2.06695    0.000
 4340.00   14.66940   2.07166    0.000
 4341.00   11.81697   2.08342    0.000
 4342.00    9.52403   2.10149    0.000
 4343.00   10.05372   2.11490    0.000
 4344.00    9.99347   2.12897    0.000
 4345.00    7.52526   2.14660    0.000
 4346.00    5.58623   2.16098    0.000
 4347.00    5.43748   2.16483    0.000
 4348.00    6.28619   2.17122    0.000
 4349.00    9.98112   2.19079    0.000
 4350.00   12.52065   2.21107    0.000
 4351.00   12.24329   2.22796    0.001
 4352.00   11.32831   2.24391    0.001
 4353.00    9.07214   2.26249    0.003
 4354.00    8.35316   2.27648   -1.000
 4355.00   10.44441   2.28347   -1.000
 4356.00   11.30402   2.29346   -1.000
 4357.00   10.19576   2.30241   -1.000
 4358.00   10.02014   2.30714   -1.000
 4359.00   11.15212   2.30342   -1.000
 4360.00   11.38849   2.29990   -1.000
 4361.00   10.51986   2.29635   -1.000
 4362.00   10.53858   2.28211    0.005
 4363.00   11.52234   2.26331    0.001
 4364.00   10.01961   2.24384    0.001
 4365.00    6.13161   2.22874    0.001
 4366.00    4.85263   2.21234    0.001
 4367.00    5.78052   2.19277    0.001
 4368.00    6.68131   2.17527    0.001
 4369.00    7.56191   2.15245    0.001
 4370.00    7.04103   2.12889    0.001
 4371.00    5.60310   2.10447    0.001
 4372.00    8.26644   2.08038    0.001
 4373.00   13.27876   2.06289    0.001
 4374.00   13.37909   2.04558    0.001
 4375.00   11.02921   2.03275    0.001
 4376.00    8.08593   2.02090    0.001
 4377.00    4.88659   2.01396    0.001
 4378.00    5.73940   2.01050    0.001
 4379.00    8.09162   2.00443    0.001
 4380.00    7.60574   2.01208    0.001
 4381.00    6.22986   2.03231    0.001
 4382.00    7.59906   2.05794    0.001
 4383.00    9.68643   2.08064    0.001
 4384.00    8.86969   2.09941    0.001
 4385.00    7.43263   2.12371    0.001
 4386.00    6.44943   2.14771    0.001
 4387.00    5.54298   2.17102    0.001
 4388.00    7.71819   2.19462    0.001
 4389.00   10.28710   2.20934    0.001
 4390.00    6.49115   2.21933    0.001
 4391.00    2.12724   2.22618    0.001
 4392.00    5.77750   2.23155    0.001
 4393.00    9.85457   2.23602    0.001
 4394.00   10.13621   2.23335    0.001
 4395.00   10.34688   2.22937    0.001
 4396.00   10.82922   2.22411    0.001
 4397.00   11.27950   2.22326    0.001
 4398.00   11.02479   2.23101    0.001
 4399.00   10.89415   2.23606    0.001
 4400.00   12.29645   2.23875    0.001
 4401.00   13.27234   2.24930    0.001
 4402.00   10.66085   2.27075    0.001
 4403.00    8.29012   2.28974    0.001
 4404.00    7.42836   2.30389    0.001
 4405.00    6.73714   2.32391    0.001
 4406.00    6.88476   2.34393    0.001
 4407.00    7.56585   2.36508    0.001
 4408.00   10.37660   2.38694    0.001
 4409.00   11.66607   2.40664    0.001
 4410.00    7.91047   2.42066    0.001
 4411.00    5.21599   2.42453    0.001
 4412.00    5.49448   2.43776    0.001
 4413.00    6.50993   2.45147    0.001
 4414.00    9.29166   2.45852    0.001
 4415.00   10.92543   2.47063    0.001
 4416.00   10.18323   2.47502    0.001
 4417.00   10.17608   2.47695    0.001
 4418.00   11.49217   2.47484    0.001
 4419.00   11.96048   2.47214    0.001
 4420.00   11.09426   2.48040    0.001
 4421.00   10.35975   2.48000    0.001
 4422.00    9.80725   2.48168    0.001
 4423.00    8.92471   2.48515    0.001
 4424.00    7.64075   2.48383    0.001
 4425.00    7.20406   2.48708    0.001
 4426.00    7.67588   2.48423    0.001
 4427.00    7.54547   2.49258    0.001
 4428.00    6.84545   2.50921    0.001
 4429.00    7.24775   2.51909    0.001
 4430.00    8.56930   2.52972    0.001
 4431.00   10.20663   2.53517    0.001
 4432.00   12.07580   2.54738    0.001
 4433.00   12.60027   2.56433    0.001
 4434.00   12.25778   2.57982    0.001
 4435.00   11.96181   2.59943    0.001
 4436.00   11.69208   2.61207    0.001
 4437.00    9.53756   2.62163    0.001
 4438.00    6.45776   2.62453    0.001
 4439.00    4.23753   2.62834    0.001
 4440.00    2.38203   2.63696    0.001
 4441.00    3.96288   2.63735    0.001
 4442.00    6.79259   2.63626    0.001
 4443.00    8.13527   2.62440    0.001
 4444.00    9.02065   2.61031    0.001
 4445.00   10.75490   2.59533    0.001
 4446.00   12.70647   2.57221    0.001
 4447.00   13.38046   2.56009    0.001
 4448.00   13.78818   2.54643    0.001
 4449.00   12.98982   2.53099    0.001
 4450.00   11.99331   2.51470    0.001
 4451.00    8.97494   2.50095    0.001
 4452.00    5.70732   2.50004    0.001
 4453.00    7.11964   2.49962    0.001
 4454.00    8.93003   2.51048    0.001
 4455.00    8.68351   2.52268    0.001
 4456.00    8.33549   2.53619    0.001
 4457.00    8.13938   2.55626    0.001
 4458.00    7.98296   2.57603    0.001
 4459.00   10.16502   2.60894    0.001
 4460.00   12.07300   2.63817    0.001
 4461.00    8.43016   2.66651    0.000
 4462.00    5.38640   2.69994    0.000
 4463.00    9.38395   2.73021    0.000
 4464.00   13.11411   2.76362    0.000
 4465.00   14.67580   2.79038    0.000
 4466.00   15.57538   2.81434    0.000
 4467.00   12.44567   2.84099    0.000
 4468.00   10.09309   2.86420    0.000
 4469.00   11.46873   2.88680    0.000
 4470.00   13.04742   2.90129    0.000
 4471.00   15.41917   2.90749    0.000
 4472.00   15.78053   2.91605    0.000
 4473.00    9.60518   2.92289    0.000
 4474.00    5.59442   2.93246    0.000
 4475.00    7.53914   2.93766    0.000
 4476.00    9.02835   2.93679    0.000
 4477.00    9.44417   2.93913    0.000
 4478.00    9.74318   2.93682    0.000
 4479.00    9.80427   2.93728    0.000
 4480.00   10.18049   2.93512    0.000
 4481.00   11.11533   2.93396    0.000
 4482.00   11.08289   2.93919    0.001
 4483.00    9.55030   2.94142    0.001
 4484.00    8.98284   2.94472    0.001
 4485.00    9.72986   2.94040    0.001
 4486.00   11.65536   2.94475    0.001
 4487.00   14.99395   2.95799    0.001
 4488.00   15.36275   2.97435    0.001
 4489.00   12.59185   2.99940    0.001
 4490.00   11.08259   3.01559    0.001
 4491.00   10.74986   3.03758    0.001
 4492.00   11.47370   3.05854    0.001
 4493.00   13.06614   3.08451    0.001
 4494.00   13.23472   3.12531    0.001
 4495.00   12.37298   3.15492    0.001
 4496.00   11.36241   3.18138    0.001
 4497.00   10.25729   3.19934    0.001
 4498.00   10.11162   3.21395    0.001
 4499.00   10.49889   3.23619    0.001
 4500.00   11.84612   3.25034    0.001
 4501.00   13.65712   3.26090    0.001
 4502.00   13.75937   3.26515    0.001
 4503.00   13.14874   3.25818    0.001
 4504.00   12.02034   3.25184    0.001
 4505.00   10.70715   3.24646    0.001
 4506.00   10.77542   3.23949    0.001
 4507.00   11.26020   3.23543    0.001
 4508.00   10.92556   3.21818    0.001
 4509.00   10.38569   3.19646    0.001
 4510.00   10.80204   3.18541    0.001
 4511.00   11.41277   3.16932    0.001
 4512.00   13.58474   3.15789    0.001
 4513.00   16.00577   3.13415    0.001
 4514.00   13.80807   3.10279    0.001
 4515.00   11.06148   3.08548    0.001
 4516.00   11.20560   3.06033    0.001
 4517.00   11.58361   3.03663    0.001
 4518.00   11.66039   3.01319    0.001
 4519.00   11.72346   2.98302    0.001
 4520.00   13.36671   2.96403    0.001
 4521.00   14.92693   2.94656    0.001
 4522.00   11.26017   2.93273    0.001
 4523.00    7.72244   2.93680    0.001
 4524.00    6.60663   2.93233    0.001
 4525.00    5.83542   2.93207    0.001
 4526.00    8.92494   2.93843    0.001
 4527.00   11.89315   2.94948    0.001
 4528.00   13.91201   2.98479    0.001
 4529.00   15.03769   3.00716    0.001
 4530.00   10.88244   3.02318    0.001
 4531.00    7.34392   3.04038    0.001
 4532.00    6.69231   3.05752    0.001
 4533.00    6.31510   3.08893    0.001
 4534.00    6.98661   3.11190    0.001
 4535.00    8.38170   3.12123    0.001
 4536.00   12.08397   3.12866    0.001
 4537.00   14.55165   3.13919    0.001
 4538.00   13.68318   3.14999    0.001
 4539.00   13.08727   3.16093    0.001
 4540.00   13.12291   3.16100    0.001
 4541.00   12.30787   3.16303    0.001
 4542.00    9.78761   3.17574    0.001
 4543.00    8.42716   3.18337    0.001
 4544.00    9.09155   3.19589    0.001
 4545.00    9.59002   3.20402    0.001
 4546.00    9.83495   3.21314    0.001
 4547.00    9.89189   3.23466    0.001
 4548.00    9.69644   3.25609    0.001
 4549.00    9.60724   3.27596    0.001
 4550.00    9.64362   3.29325    0.000
 4551.00    9.91271   3.30720    0.000
 4552.00   10.42435   3.32687    0.000
 4553.00   11.35431   3.35268    0.000
 4554.00   12.66889   3.36943    0.000
 4555.00   12.72220   3.38268    0.000
 4556.00   11.75334   3.39258    0.000
 4557.00   10.54807   3.39843    0.000
 4558.00    9.17419   3.41579    0.000
 4559.00    9.68502   3.42919    0.000
 4560.00   11.37534   3.43534    0.000
 4561.00   12.32858   3.44070    0.000
 4562.00   12.87867   3.43770    0.000
 4563.00   11.07183   3.44486    0.000
 4564.00    8.14457   3.45573    0.000
 4565.00    7.60491   3.45442    0.000
 4566.00    8.04449   3.45261    0.000
 4567.00   11.18956   3.44458    0.000
 4568.00   15.28268   3.44153    0.000
 4569.00   14.24568   3.44371    0.000
 4570.00   11.69248   3.43576    0.000
 4571.00   10.88380   3.42768    0.000
 4572.00   10.50248   3.41750    0.000
 4573.00   10.79981   3.41372    0.000
 4574.00   11.23165   3.41418    0.000
 4575.00    8.11700   3.41153    0.000
 4576.00    4.45337   3.41000    0.000
 4577.00    7.45089   3.40523    0.000
 4578.00   11.21067   3.40888    0.000
 4579.00   12.24246   3.41580    0.000
 4580.00   13.06474   3.42158    0.000
 4581.00   11.75518   3.42595    0.000
 4582.00   10.35687   3.42535    0.000
 4583.00    9.31651   3.42785    0.000
 4584.00    8.28567   3.43313    0.000
 4585.00    7.52995   3.43935    0.000
 4586.00    6.99070   3.43906    0.000
 4587.00   10.23472   3.44048    0.000
 4588.00   13.10766   3.44163    0.000
 4589.00   12.01051   3.44519    0.000
 4590.00   10.97236   3.45789    0.000
 4591.00   10.38018   3.45974    0.000
 4592.00   10.01140   3.47076    0.000
 4593.00   10.92671   3.48431    0.000
 4594.00   11.41244   3.49742    0.000
 4595.00    9.93539   3.52533    0.000
 4596.00    8.98950   3.54095    0.000
 4597.00   10.03073   3.56319    0.000
 4598.00   11.13022   3.59076    0.000
 4599.00   12.41191   3.61298    0.000
 4600.00   12.57811   3.64732    0.000
 4601.00    9.78335   3.67212    0.000
 4602.00    8.30984   3.69345    0.000
 4603.00    9.84703   3.72117    0.000
 4604.00   10.60715   3.73971    0.000
 4605.00    9.83411   3.76275    0.000
 4606.00    9.79235   3.78424    0.000
 4607.00   11.00800   3.79499    0.000
 4608.00   11.94487   3.81231    0.000
 4609.00   12.46197   3.82340    0.000
 4610.00   12.37848   3.83067    0.000
 4611.00   11.50029   3.84319    0.000
 4612.00   10.82784   3.84761    0.000
 4613.00   10.39517   3.85359    0.000
 4614.00    9.98181   3.86014    0.000
 4615.00    9.58827   3.85869    0.000
 4616.00   10.30492   3.85986    0.000
 4617.00   12.02795   3.86099    0.000
 4618.00   12.00743   3.85757    0.000
 4619.00   10.59394   3.85677    0.000
 4620.00   10.49403   3.84934    0.000
 4621.00   11.31739   3.83857    0.000
 4622.00   11.19971   3.83389    0.000
 4623.00   10.50185   3.82208    0.000
 4624.00   10.03470   3.81157    0.000
 4625.00    9.69181   3.79800    0.000
 4626.00   10.27472   3.77746    0.000
 4627.00   11.29064   3.76739    0.000
 4628.00   10.98687   3.75042    0.000
 4629.00   10.15107   3.73338    0.000
 4630.00   10.95286   3.71899    0.000
 4631.00   12.31798   3.69672    0.000
 4632.00   10.16819   3.68544    0.000
 4633.00    7.00032   3.67232    0.000
 4634.00    7.99320   3.65699    0.000
 4635.00    9.98262   3.64906    0.000
 4636.00   10.37505   3.63850    0.000
 4637.00   10.45906   3.63203    0.000
 4638.00    8.92767   3.63194    0.000
 4639.00    7.15381   3.63032    0.000
 4640.00    8.42061   3.63404    0.000
 4641.00   10.02208   3.64561    0.000
 4642.00    9.09263   3.65238    0.000
 4643.00    7.97913   3.66688    0.000
 4644.00    8.66394   3.68458    0.000
 4645.00    9.41673   3.69826    0.000
 4646.00   10.55307   3.72320    0.000
 4647.00   11.61106   3.73916    0.000
 4648.00    9.69543   3.75429    0.000
 4649.00    8.07016   3.77254    0.000
 4650.00   11.19111   3.77917    0.000
 4651.00   13.81930   3.79160    0.000
 4652.00   11.40436   3.79672    0.000
 4653.00    9.37657   3.79404    0.000
 4654.00   10.17788   3.79099    0.000
 4655.00   11.19756   3.77820    0.000
 4656.00   13.43806   3.77050    0.000
 4657.00   15.11141   3.76325    0.000
 4658.00   14.25435   3.75010    0.000
 4659.00   12.97521   3.74056    0.000
 4660.00   10.14998   3.72910    0.000
 4661.00    7.90971   3.72507    0.000
 4662.00    7.46418   3.73005    0.000
 4663.00    7.27533   3.73059    0.000
 4664.00    7.75585   3.73805    0.000
 4665.00    8.50688   3.74591    0.000
 4666.00    9.86413   3.75485    0.000
 4667.00   10.11868   3.77261    0.000
 4668.00    8.23171   3.78345    0.000
 4669.00    8.02542   3.79702    0.000
 4670.00   10.66548   3.80877    0.000
 4671.00   12.92577   3.81730    0.000
 4672.00   14.62258   3.83151    0.000
 4673.00   15.19131   3.83857    0.000
 4674.00   14.28870   3.84750    0.000
 4675.00   13.12759   3.85512    0.000
 4676.00   11.66946   3.86084    0.000
 4677.00    9.46341   3.87253    0.000
 4678.00    6.49949   3.87849    0.000
 4679.00    6.55329   3.88602    0.000
 4680.00    9.30411   3.89497    0.000
 4681.00   11.96223   3.89908    0.000
 4682.00   14.54735   3.90820    0.000
 4683.00   14.68495   3.91639    0.000
 4684.00   13.12720   3.91999    0.000
 4685.00   13.02853   3.92486    0.000
 4686.00   13.81605   3.92233    0.000
 4687.00   13.11694   3.92188    0.000
 4688.00   11.62957   3.92738    0.000
 4689.00    9.67154   3.92278    0.000
 4690.00    7.49693   3.91607    0.000
 4691.00    8.23244   3.90687    0.000
 4692.00   10.12099   3.90006    0.000
 4693.00   10.82171   3.90285    0.000
 4694.00   11.12136   3.89803    0.000
 4695.00   10.99836   3.88966    0.000
 4696.00   10.75542   3.88766    0.000
 4697.00    9.45917   3.88842    0.000
 4698.00    7.91634   3.89691    0.000
 4699.00    8.65002   3.91001    0.000
 4700.00    9.81198   3.91632    0.000
 4701.00    9.68152   3.93086    0.000
 4702.00    9.36309   3.94933    0.000
 4703.00   10.09582   3.96868    0.000
 4704.00   10.93968   4.00320    0.000
 4705.00   13.61538   4.02608    0.000
 4706.00   16.41687   4.04917    0.000
 4707.00   11.89565   4.08240    0.000
 4708.00    7.12535   4.10874    0.000
 4709.00    8.32591   4.14484    0.000
 4710.00    9.54207   4.16686    0.000
 4711.00   10.96718   4.18060    0.000
 4712.00   12.29332   4.20868    0.000
 4713.00   12.10101   4.22551    0.000
 4714.00   11.92056   4.23723    0.000
 4715.00   11.85637   4.23764    0.000
 4716.00   11.88883   4.22956    0.000
 4717.00   12.60470   4.23525    0.000
 4718.00   13.26690   4.23437    0.000
 4719.00   13.63708   4.22109    0.000
 4720.00   13.93918   4.20877    0.000
 4721.00   13.94455   4.19797    0.000
 4722.00   13.88090   4.19439    0.000
 4723.00   13.56960   4.19683    0.000
 4724.00   13.52747   4.18678    0.000
 4725.00   14.29566   4.18352    0.000
 4726.00   13.96323   4.20032    0.000
 4727.00   10.81056   4.21069    0.000
 4728.00    9.54338   4.22413    0.000
 4729.00   12.43261   4.23565    0.000
 4730.00   14.34891   4.24791    0.000
 4731.00   14.40514   4.28276    0.000
 4732.00   13.37371   4.30462    0.000
 4733.00   10.52789   4.31596    0.000
 4734.00    8.57095   4.34002    0.000
 4735.00    7.91366   4.36031    0.000
 4736.00    9.07316   4.38278    0.000
 4737.00   12.56843   4.39953    0.000
 4738.00   13.70074   4.40639    0.000
 4739.00   12.15633   4.42209    0.000
 4740.00   11.66482   4.43377    0.000
 4741.00   12.22522   4.43544    0.000
 4742.00   14.21284   4.43574    0.000
 4743.00   17.45802   4.43675    0.000
 4744.00   17.55173   4.43443    0.000
 4745.00   15.19880   4.42717    0.000
 4746.00   13.26727   4.41624    0.000
 4747.00   11.62339   4.40360    0.000
 4748.00   10.57025   4.39720    0.000
 4749.00    9.87054   4.38293    0.000
 4750.00    9.17824   4.36301    0.000
 4751.00    8.48982   4.35071    0.000
 4752.00    9.50630   4.33936    0.000
 4753.00   11.29453   4.33093    0.000
 4754.00   12.04248   4.31768    0.000
 4755.00   12.38539   4.30575    0.000
 4756.00   11.82318   4.30455    0.000
 4757.00   10.96107   4.30955    0.000
 4758.00   14.29404   4.31517    0.000
 4759.00   18.79323   4.31523    0.000
 4760.00   16.25205   4.32692    0.000
 4761.00   12.10040   4.34516    0.001
 4762.00   11.51000   4.36860    0.001
 4763.00   11.57187   4.39375    0.001
 4764.00   11.77174   4.40441    0.001
 4765.00   11.99105   4.42732    0.001
 4766.00   10.96557   4.45212    0.001
 4767.00    9.81384   4.47260    0.001
 4768.00   12.91236   4.49379    0.001
 4769.00   16.28565   4.49865    0.001
 4770.00   13.72632   4.51307    0.001
 4771.00   10.99227   4.52176    0.001
 4772.00   10.62931   4.52135    0.001
 4773.00   10.27401   4.53088    0.001
 4774.00   10.14077   4.52480    0.001
 4775.00   10.03326   4.52662    0.001
 4776.00   10.29746   4.52795    0.001
 4777.00   10.47940   4.52196    0.001
 4778.00    9.88737   4.53714    0.001
 4779.00    9.26514   4.53551    0.001
 4780.00    8.43616   4.53906    0.001
 4781.00    8.08057   4.56157    0.001
 4782.00   10.23261   4.56881    0.001
 4783.00   11.56023   4.58864    0.001
 4784.00    9.37689   4.60681    0.001
 4785.00    8.57721   4.61800    0.001
 4786.00   12.64005   4.64497    0.001
 4787.00   15.31854   4.66301    0.001
 4788.00   13.90710   4.67704    0.001
 4789.00   13.27000   4.69399    0.001
 4790.00   14.58276   4.70370    0.001
 4791.00   14.95190   4.71624    0.001
 4792.00   13.27476   4.72198    0.001
 4793.00   11.70134   4.72098    0.001
 4794.00   10.32312   4.73196    0.001
 4795.00   10.41356   4.73834    0.001
 4796.00   12.91736   4.73929    0.001
 4797.00   13.70953   4.74086    0.001
 4798.00   12.03541   4.73615    0.001
 4799.00    9.85306   4.74660    0.001
 4800.00    7.02659   4.75442    0.001
 4801.00    6.85101   4.75343    0.001
 4802.00    9.63602   4.76738    0.001
 4803.00   12.91544   4.77631    0.001
 4804.00   16.68188   4.78786    0.001
 4805.00   17.04759   4.80240    0.001
 4806.00   14.45903   4.80901    0.001
 4807.00   13.77515   4.82688    0.001
 4808.00   14.54888   4.83542    0.001
 4809.00   14.93535   4.84292    0.001
 4810.00   15.06132   4.85964    0.001
 4811.00   13.43968   4.85747    0.001
 4812.00   10.78815   4.86210    0.001
 4813.00   10.20753   4.86521    0.001
 4814.00   10.69105   4.86105    0.001
 4815.00   10.31844   4.86848    0.001
 4816.00    9.56466   4.85078    0.001
 4817.00   10.30843   4.83724    0.001
 4818.00   11.62513   4.84858    0.001
 4819.00   13.36707   4.84244    0.001
 4820.00   15.24727   4.83444    0.001
 4821.00   14.23974   4.82564    0.001
 4822.00   12.44603   4.81772    0.001
 4823.00   10.81867   4.82934    0.001
 4824.00    9.22849   4.82451    0.001
 4825.00    9.84773   4.81099    0.001
 4826.00   10.86077   4.81908    0.001
 4827.00   10.26187   4.82641    0.001
 4828.00    9.44334   4.82397    0.001
 4829.00    9.08737   4.82155    0.001
 4830.00    8.77634   4.82549    0.001
 4831.00   10.87562   4.83130    0.001
 4832.00   13.12110   4.83310    0.001
 4833.00   12.22603   4.82690    0.001
 4834.00   11.25818   4.82961    0.001
 4835.00   12.17667   4.84235    0.001
 4836.00   13.08642   4.83137    0.001
 4837.00   13.76840   4.82366    0.001
 4838.00   14.33934   4.82945    0.001
 4839.00   13.39453   4.82127    0.001
 4840.00   12.38236   4.80976    0.001
 4841.00   10.76138   4.78563    0.001
 4842.00    9.57479   4.76470    0.001
 4843.00   11.27048   4.75660    0.001
 4844.00   12.31792   4.72525    0.001
 4845.00   10.02035   4.68586    0.001
 4846.00    8.32833   4.65183    0.001
 4847.00    9.15710   4.61961    0.001
 4848.00    9.71175   4.58230    0.000
 4849.00    9.32253   4.53702    0.000
 4850.00    9.44352   4.51144    0.000
 4851.00   11.04412   4.48703    0.000
 4852.00   11.85204   4.45788    0.000
 4853.00   10.69810   4.43509    0.000
 4854.00   10.40213   4.40980    0.000
 4855.00   11.93661   4.41353    0.000
 4856.00   13.64314   4.42418    0.000
 4857.00   15.66849   4.42049    0.000
 4858.00   16.94040   4.43782    0.000
 4859.00   16.99262   4.45804    0.000
 4860.00   15.86900   4.47690    0.000
 4861.00   13.07563   4.50445    0.000
 4862.00   11.50790   4.53359    0.000
 4863.00   11.47138   4.56462    0.000
 4864.00   11.46354   4.59567    0.000
 4865.00   11.48729   4.62380    0.000
 4866.00   11.56469   4.65369    0.000
 4867.00   11.69421   4.69081    0.000
 4868.00   11.37638   4.71621    0.000
 4869.00   10.67541   4.74026    0.000
 4870.00   10.25432   4.76699    0.000
 4871.00   10.04436   4.77848    0.000
 4872.00   11.07336   4.80585    0.000
 4873.00   12.92360   4.82585    0.000
 4874.00   12.66875   4.82671    0.000
 4875.00   11.19204   4.83934    0.001
 4876.00   10.49412   4.84123    0.001
 4877.00   10.19011   4.85790    0.001
 4878.00   11.08282   4.87572    0.001
 4879.00   12.49957   4.87331    0.001
 4880.00   13.31625   4.89840    0.001
 4881.00   13.90739   4.91959    0.001
 4882.00   12.57847   4.94390    0.001
 4883.00   10.63716   4.98176    0.001
 4884.00    9.53459   4.99387    0.001
 4885.00    8.65560   5.03726    0.001
 4886.00    8.38217   5.09266    0.001
 4887.00    8.24085   5.12068    0.001
 4888.00    9.55333   5.16264    0.001
 4889.00   11.11783   5.19040    0.001
 4890.00   11.60811   5.21930    0.001
 4891.00   11.95692   5.26680    0.001
 4892.00   12.95508   5.27777    0.001
 4893.00   14.01358   5.28522    0.001
 4894.00   14.65352   5.30897    0.001
 4895.00   15.26972   5.31241    0.001
 4896.00   14.90660   5.31422    0.001
 4897.00   14.51262   5.30961    0.001
 4898.00   13.18738   5.29851    0.001
 4899.00   11.99057   5.30111    0.001
 4900.00   13.84208   5.28745    0.001
 4901.00   15.48565   5.26443    0.001
 4902.00   14.44060   5.25166    0.001
 4903.00   13.67751   5.23051    0.001
 4904.00   15.36607   5.21059    0.001
 4905.00   16.46594   5.19246    0.001
 4906.00   13.77791   5.16910    0.001
 4907.00   11.82320   5.15273    0.001
 4908.00   13.55636   5.13447    0.001
 4909.00   15.10939   5.11204    0.001
 4910.00   15.92919   5.09811    0.001
 4911.00   15.56561   5.09195    0.001
 4912.00   11.20849   5.08848    0.001
 4913.00    8.63198   5.09144    0.001
 4914.00   11.12470   5.10264    0.001
 4915.00   12.76837   5.11581    0.001
 4916.00   12.34647   5.14204    0.001
 4917.00   12.94630   5.16631    0.001
 4918.00   15.69090   5.17941    0.001
 4919.00   16.95617   5.21843    0.001
 4920.00   15.52223   5.25364    0.001
 4921.00   14.62328   5.27450    0.001
 4922.00   14.57752   5.30931    0.001
 4923.00   14.63474   5.31841    0.001
 4924.00   14.83609   5.33180    0.001
 4925.00   14.34976   5.36772    0.001
 4926.00   13.01652   5.36910    0.001
 4927.00   12.31282   5.37387    0.001
 4928.00   12.29258   5.39450    0.001
 4929.00   13.30199   5.40107    0.001
 4930.00   15.29740   5.42188    0.001
 4931.00   15.16337   5.43476    0.001
 4932.00   13.23131   5.43855    0.001
 4933.00   12.09134   5.47791    0.001
 4934.00   11.54030   5.51123    0.001
 4935.00   12.63420   5.52041    0.001
 4936.00   14.80246   5.54520    0.001
 4937.00   14.38906   5.57658    0.001
 4938.00   12.49987   5.60001    0.001
 4939.00   10.64873   5.61160    0.001
 4940.00    8.81653   5.62073    0.000
 4941.00    8.86808   5.64006    0.000
 4942.00    9.73082   5.64033    0.000
 4943.00   11.61045   5.62713    0.000
 4944.00   13.86552   5.61710    0.000
 4945.00   14.50566   5.60901    0.000
 4946.00   14.64061   5.59934    0.000
 4947.00   14.64640   5.55629    0.000
 4948.00   14.61849   5.53273    0.000
 4949.00   14.39644   5.54103    0.000
 4950.00   14.13303   5.50798    0.000
 4951.00   13.85901   5.48451    0.000
 4952.00   13.58319   5.48027    0.000
 4953.00   12.48678   5.47391    0.000
 4954.00   11.28599   5.48070    0.000
 4955.00   12.34052   5.45509    0.000
 4956.00   13.59513   5.45291    0.000
 4957.00   15.68451   5.48310    0.000
 4958.00   17.81794   5.47527    0.000
 4959.00   16.19995   5.48136    0.000
 4960.00   14.52682   5.49090    0.000
 4961.00   14.15314   5.49451    0.000
 4962.00   13.86139   5.51430    0.000
 4963.00   15.35123   5.50213    0.000
 4964.00   16.67853   5.49895    0.000
 4965.00   16.01044   5.50838    0.000
 4966.00   15.32778   5.49234    0.000
 4967.00   14.52314   5.48696    0.000
 4968.00   13.67131   5.46893    0.000
 4969.00   12.52486   5.44702    0.000
 4970.00   11.71921   5.44147    0.000
 4971.00   12.58455   5.41639    0.000
 4972.00   13.49470   5.38797    0.000
 4973.00   14.58322   5.36967    0.000
 4974.00   15.66403   5.36364    0.000
 4975.00   16.71933   5.35185    0.000
 4976.00   17.09828   5.33221    0.000
 4977.00   15.58666   5.34425    0.000
 4978.00   13.67120   5.34858    0.000
 4979.00   10.78994   5.34945    0.000
 4980.00    9.72071   5.36469    0.000
 4981.00   12.39434   5.35983    0.000
 4982.00   13.88421   5.38786    0.000
 4983.00   13.24722   5.40764    0.000
 4984.00   13.01911   5.39015    0.000
 4985.00   13.43344   5.42165    0.000
 4986.00   13.54293   5.42972    0.000
 4987.00   13.23194   5.41006    0.000
 4988.00   12.63926   5.42225    0.000
 4989.00   11.70458   5.40011    0.000
 4990.00   11.70635   5.38653    0.000
 4991.00   12.71049   5.38579    0.000
 4992.00   15.11938   5.34793    0.000
 4993.00   18.85458   5.33503    0.000
 4994.00   17.57634   5.32386    0.000
 4995.00   12.12482   5.28949    0.000
 4996.00    9.83361   5.26551    0.000
 4997.00    9.85839   5.24616    0.000
 4998.00   10.23894   5.23809    0.000
 4999.00   10.84844   5.22071    0.000
 5000.00   12.38104   5.19962    0.000
 5001.00   14.43331   5.19481    0.000
 5002.00   14.95869   5.18258    0.000
 5003.00   14.73598   5.17616    0.000
 5004.00   14.78279   5.16282    0.000
 5005.00   14.94372   5.16114    0.000
 5006.00   13.32020   5.18597    0.000
 5007.00   11.04961   5.18089    0.000
 5008.00   12.38716   5.18305    0.000
 5009.00   14.83154   5.20670    0.000
 5010.00   14.25463   5.22110    0.000
 5011.00   12.90632   5.24664    0.000
 5012.00   13.22020   5.25670    0.000
 5013.00   13.87943   5.28620    0.000
 5014.00   12.63541   5.33345    0.000
 5015.00   11.07984   5.34857    0.000
 5016.00   11.76515   5.38988    0.000
 5017.00   12.72547   5.41898    0.000
 5018.00   12.14564   5.43563    0.000
 5019.00   11.43560   5.48901    0.000
 5020.00   12.91447   5.49996    0.000
 5021.00   14.50029   5.51765    0.000
 5022.00   14.87202   5.55492    0.000
 5023.00   15.20050   5.54882    0.000
 5024.00   14.03645   5.57453    0.000
 5025.00   12.95628   5.57683    0.000
 5026.00   13.55847   5.54700    0.000
 5027.00   14.05963   5.57583    0.000
 5028.00   13.38058   5.56569    0.000
 5029.00   12.84156   5.54432    0.001
 5030.00   13.43296   5.55913    0.001
 5031.00   13.87347   5.53122    0.001
 5032.00   13.39904   5.54167    0.001
 5033.00   13.26335   5.56692    0.001
 5034.00   14.74774   5.54657    0.001
 5035.00   15.28251   5.57297    0.001
 5036.00   12.11865   5.60103    0.001
 5037.00    9.79314   5.60991    0.001
 5038.00   10.18679   5.63850    0.001
 5039.00   10.87702   5.65200    0.001
 5040.00   12.38138   5.68889    0.001
 5041.00   13.11238   5.73561    0.001
 5042.00   12.02486   5.75365    0.001
 5043.00   11.57724   5.78811    0.001
 5044.00   12.43036   5.82844    0.001
 5045.00   12.81483   5.86185    0.001
 5046.00   12.37012   5.88377    0.001
 5047.00   12.66020   5.90161    0.001
 5048.00   14.08777   5.93811    0.001
 5049.00   13.90508   5.95627    0.001
 5050.00   11.53325   5.96496    0.001
 5051.00   10.08448   5.98054    0.001
 5052.00    9.74056   5.98286    0.001
 5053.00   10.08524   5.99536    0.001
 5054.00   11.15664   5.98491    0.001
 5055.00   11.53935   5.95777    0.001
 5056.00   11.28099   5.96636    0.001
 5057.00   12.08615   5.95583    0.001
 5058.00   13.76407   5.92165    0.001
 5059.00   14.85483   5.90447    0.001
 5060.00   15.52146   5.89361    0.001
 5061.00   15.23501   5.87967    0.001
 5062.00   14.34427   5.84483    0.001
 5063.00   14.83262   5.81592    0.001
 5064.00   16.08552   5.81905    0.001
 5065.00   15.29212   5.80429    0.001
 5066.00   13.51212   5.76512    0.001
 5067.00   12.55670   5.75381    0.001
 5068.00   11.94455   5.76337    0.001
 5069.00   12.54492   5.74373    0.001
 5070.00   13.57704   5.71784    0.001
 5071.00   13.97433   5.72879    0.001
 5072.00   14.18069   5.74380    0.001
 5073.00   13.43080   5.73970    0.001
 5074.00   12.44206   5.74231    0.001
 5075.00   11.49102   5.76641    0.001
 5076.00   10.54763   5.79667    0.001
 5077.00   10.40930   5.80723    0.001
 5078.00   10.39893   5.82028    0.001
 5079.00   13.24647   5.86168    0.001
 5080.00   16.43207   5.89341    0.001
 5081.00   14.85145   5.90474    0.001
 5082.00   12.88764   5.92791    0.001
 5083.00   10.34652   5.95284    0.001
 5084.00    7.77942   5.96773    0.001
 5085.00    9.67168   5.97299    0.001
 5086.00   11.58853   5.96777    0.001
 5087.00   12.10047   5.97887    0.001
 5088.00   12.69026   5.98159    0.001
 5089.00   14.72794   5.95943    0.001
 5090.00   16.46278   5.95969    0.001
 5091.00   14.82453   5.95645    0.001
 5092.00   13.38892   5.94047    0.001
 5093.00   13.53219   5.93955    0.001
 5094.00   13.92920   5.91948    0.001
 5095.00   15.82103   5.91706    0.001
 5096.00   17.50704   5.93164    0.001
 5097.00   18.23257   5.90383    0.001
 5098.00   18.13980   5.91657    0.001
 5099.00   14.92795   5.94696    0.001
 5100.00   12.34395   5.93002    0.001
 5101.00   11.75699   5.95449    0.001
 5102.00   11.38322   5.97712    0.001
 5103.00   11.58424   5.97295    0.001
 5104.00   11.41362   6.00960    0.001
 5105.00   10.38366   6.01631    0.001
 5106.00   10.49996   6.01799    0.001
 5107.00   12.90941   6.05043    0.001
 5108.00   14.04793   6.03867    0.001
 5109.00   12.97186   6.04224    0.001
 5110.00   12.41863   6.05440    0.001
 5111.00   12.66292   6.02613    0.001
 5112.00   12.56315   6.02758    0.001
 5113.00   12.00238   6.02102    0.001
 5114.00   12.00918   5.98788    0.001
 5115.00   12.68574   5.98304    0.001
 5116.00   12.81192   5.96816    0.001
 5117.00   12.36542   5.94475    0.001
 5118.00   12.68093   5.93776    0.001
 5119.00   13.69580   5.92950    0.001
 5120.00   13.94297   5.92110    0.001
 5121.00   13.56908   5.91430    0.001
 5122.00   12.87964   5.92220    0.001
 5123.00   11.96558   5.92185    0.001
 5124.00   11.12191   5.92077    0.001
 5125.00   10.32220   5.94076    0.001
 5126.00   10.12826   5.92578    0.001
 5127.00   10.26501   5.93287    0.001
 5128.00   10.56317   5.96459    0.001
 5129.00   10.93792   5.93080    0.001
 5130.00   11.20736   5.93730    0.001
 5131.00   11.43370   5.96369    0.001
 5132.00   12.11660   5.92479    0.001
 5133.00   12.95912   5.93880    0.001
 5134.00   13.79498   5.94358    0.001
 5135.00   14.62889   5.90800    0.001
 5136.00   12.14449   5.93899    0.001
 5137.00    8.84950   5.92700    0.001
 5138.00    9.66177   5.90250    0.001
 5139.00   11.28543   5.94873    0.001
 5140.00   12.25890   5.93354    0.001
 5141.00   13.13212   5.92059    0.001
 5142.00   12.27201   5.96915    0.001
 5143.00   11.21450   5.96144    0.001
 5144.00   12.63179   5.96478    0.001
 5145.00   14.23787   5.99686    0.001
 5146.00   13.55958   5.97834    0.001
 5147.00   12.78730   5.98891    0.001
 5148.00   11.86199   6.00089    0.001
 5149.00   10.96269   5.95808    0.001
 5150.00   11.21200   5.94786    0.001
 5151.00   11.52339   5.92644    0.001
 5152.00   12.91050   5.86198    0.001
 5153.00   14.10710   5.82269    0.001
 5154.00   13.27703   5.76232    0.001
 5155.00   12.50503   5.68570    0.001
 5156.00   12.17004   5.62684    0.001
 5157.00   11.72190   5.54810    0.001
 5158.00   10.62561   5.48046    0.001
 5159.00    9.71189   5.41869    0.001
 5160.00    9.62983   5.34236    0.001
 5161.00   10.07273   5.30379    0.001
 5162.00   12.47434   5.27608    0.001
 5163.00   14.07735   5.23578    0.001
 5164.00   13.18883   5.22022    0.001
 5165.00   11.89701   5.22127    0.001
 5166.00    9.53708   5.22724    0.001
 5167.00    8.65737   5.23272    0.001
 5168.00   11.14361   5.26048    0.001
 5169.00   11.99160   5.30520    0.001
 5170.00    9.61376   5.31357    0.001
 5171.00    8.10692   5.34052    0.001
 5172.00    8.09487   5.40286    0.001
 5173.00    8.74824   5.43719    0.001
 5174.00   10.40169   5.47990    0.001
 5175.00   11.18617   5.52057    0.001
 5176.00   10.82290   5.54940    0.001
 5177.00   10.35484   5.61888    0.001
 5178.00    9.76486   5.65612    0.001
 5179.00   10.28152   5.67820    0.001
 5180.00   11.93349   5.75940    0.001
 5181.00   12.40213   5.79820    0.001
 5182.00   11.80003   5.82250    0.001
 5183.00   11.41476   5.90116    0.001
 5184.00   11.20243   5.94612    0.001
 5185.00   11.30263   5.98122    0.001
 5186.00   11.62211   6.02745    0.001
 5187.00   12.59895   6.04968    0.001
 5188.00   13.98032   6.09019    0.001
 5189.00   13.95721   6.11150    0.001
 5190.00   13.17919   6.10482    0.000
 5191.00   11.06419   6.13314    0.000
 5192.00    8.32511   6.14294    0.000
 5193.00    8.67231   6.13023    0.000
 5194.00   10.26103   6.14092    0.000
 5195.00   11.27263   6.14155    0.000
 5196.00   12.08616   6.14084    0.000
 5197.00   11.51263   6.14497    0.000
 5198.00   10.53835   6.14996    0.000
 5199.00   10.76042   6.16747    0.000
 5200.00   11.26822   6.17093    0.000
 5201.00   11.44425   6.19352    0.000
 5202.00   11.55641   6.23945    0.000
 5203.00   11.23191   6.25267    0.000
 5204.00   10.84212   6.28563    0.000
 5205.00   10.87351   6.34770    0.000
 5206.00   10.95102   6.37548    0.000
 5207.00   12.77969   6.40717    0.000
 5208.00   14.73481   6.45468    0.000
 5209.00   13.31777   6.48956    0.000
 5210.00   11.77485   6.51304    0.000
 5211.00   12.21393   6.53021    0.001
 5212.00   12.64238   6.56294    0.001
 5213.00   12.34897   6.57473    0.001
 5214.00   12.10068   6.56732    0.001
 5215.00   12.58380   6.59499    0.001
 5216.00   13.00757   6.60105    0.001
 5217.00   12.82723   6.59431    0.001
 5218.00   12.65756   6.62397    0.001
 5219.00   12.56552   6.62607    0.001
 5220.00   12.34984   6.64033    0.001
 5221.00   11.44528   6.68271    0.001
 5222.00   10.79122   6.68449    0.001
 5223.00   11.25150   6.72428    0.001
 5224.00   11.40269   6.77646    0.001
 5225.00   10.42463   6.78180    0.001
 5226.00   10.10071   6.84539    0.001
 5227.00   11.77901   6.90079    0.001
 5228.00   12.54410   6.90610    0.001
 5229.00   10.93297   6.96907    0.001
 5230.00   10.10522   7.00693    0.001
 5231.00   11.02950   7.00203    0.001
 5232.00   11.71641   7.04787    0.001
 5233.00   11.94324   7.06885    0.001
 5234.00   11.79453   7.06080    0.001
 5235.00   11.01104   7.08227    0.001
 5236.00   11.12013   7.07936    0.001
 5237.00   12.55116   7.06836    0.001
 5238.00   13.33753   7.07066    0.001
 5239.00   13.28460   7.04863    0.001
 5240.00   13.40570   7.04435    0.001
 5241.00   13.72639   7.03920    0.001
 5242.00   13.47047   7.00250    0.001
 5243.00   12.63130   7.00562    0.001
 5244.00   11.44247   6.99749    0.001
 5245.00    9.94170   6.94905    0.001
 5246.00   10.86236   6.94624    0.001
 5247.00   13.68666   6.92900    0.001
 5248.00   14.13023   6.88629    0.001
 5249.00   12.92773   6.87086    0.001
 5250.00   13.43599   6.81925    0.001
 5251.00   14.98133   6.77749    0.001
 5252.00   15.15153   6.75811    0.001
 5253.00   14.59402   6.68178    0.001
 5254.00   13.00609   6.63709    0.001
 5255.00   10.94497   6.61905    0.001
 5256.00   10.01112   6.55152    0.001
 5257.00    9.52292   6.52063    0.001
 5258.00    9.17805   6.50826    0.001
 5259.00    8.88146   6.47216    0.001
 5260.00    9.92404   6.48308    0.001
 5261.00   11.34569   6.48961    0.001
 5262.00   12.33189   6.49167    0.001
 5263.00   13.21645   6.56140    0.001
 5264.00   11.54987   6.59448    0.001
 5265.00    9.40494   6.62364    0.001
 5266.00    9.74916   6.74326    0.001
 5267.00   10.45396   6.80104    0.001
 5268.00   11.59560   6.83050    0.001
 5269.00   12.78319   6.96244    0.001
 5270.00   11.96293   7.04508    0.001
 5271.00   11.00581   7.08365    0.001
 5272.00   11.05226   7.19353    0.001
 5273.00   11.13236   7.26268    0.001
 5274.00   11.43729   7.30553    0.001
 5275.00   11.78791   7.39284    0.001
 5276.00   13.59465   7.44394    0.001
 5277.00   15.25043   7.48547    0.001
 5278.00   14.60749   7.54033    0.001
 5279.00   14.09474   7.56138    0.001
 5280.00   14.85191   7.59472    0.001
 5281.00   15.35660   7.62785    0.001
 5282.00   14.08339   7.62565    0.001
 5283.00   12.99546   7.64434    0.001
 5284.00   12.91212   7.66092    0.001
 5285.00   12.52155   7.64888    0.001
 5286.00   10.79587   7.65293    0.001
 5287.00    9.95632   7.65392    0.001
 5288.00   12.28748   7.64627    0.001
 5289.00   14.21766   7.65759    0.001
 5290.00   14.94354   7.66018    0.001
 5291.00   15.32722   7.66488    0.001
 5292.00   14.83595   7.69047    0.001
 5293.00   14.45281   7.70447    0.001
 5294.00   14.30750   7.72911    0.001
 5295.00   14.16918   7.76847    0.001
 5296.00   14.04417   7.78629    0.001
 5297.00   14.38072   7.82112    0.001
 5298.00   15.48576   7.87336    0.001
 5299.00   15.06154   7.89031    0.001
 5300.00   12.40541   7.91021    0.001
 5301.00   11.37345   7.95073    0.001
 5302.00   12.42585   7.95734    0.001
 5303.00   12.79350   7.95848    0.001
 5304.00   12.38685   7.97777    0.001
 5305.00   12.42402   7.95829    0.001
 5306.00   12.90382   7.93411    0.001
 5307.00   12.65511   7.93387    0.001
 5308.00   11.76561   7.89324    0.001
 5309.00   11.12871   7.84984    0.001
 5310.00   10.68755   7.83031    0.001
 5311.00   11.15164   7.77233    0.001
 5312.00   12.23254   7.72222    0.001
 5313.00   13.47404   7.69518    0.001
 5314.00   14.81145   7.63404    0.001
 5315.00   14.44724   7.59181    0.001
 5316.00   13.19655   7.56822    0.001
 5317.00   12.00440   7.52001    0.001
 5318.00   10.83869   7.50288    0.001
 5319.00   11.32082   7.49386    0.001
 5320.00   12.44315   7.46504    0.001
 5321.00   12.05111   7.47961    0.001
 5322.00   11.15847   7.49503    0.001
 5323.00   11.85195   7.48323    0.001
 5324.00   12.98521   7.52040    0.001
 5325.00   13.19589   7.56321    0.001
 5326.00   13.19613   7.56274    0.001
 5327.00   12.45422   7.60008    0.001
 5328.00   11.57684   7.65701    0.001
 5329.00   11.80513   7.67219    0.001
 5330.00   12.18849   7.70550    0.001
 5331.00   12.13517   7.75442    0.001
 5332.00   12.03778   7.76518    0.001
 5333.00   12.45420   7.80167    0.001
 5334.00   12.90357   7.85410    0.001
 5335.00   13.33501   7.85752    0.001
 5336.00   13.76611   7.89602    0.001
 5337.00   14.27197   7.95738    0.001
 5338.00   14.73487   7.96574    0.001
 5339.00   13.96928   8.00819    0.001
 5340.00   13.29673   8.07336    0.001
 5341.00   13.95892   8.09548    0.001
 5342.00   14.40146   8.14166    0.001
 5343.00   12.78803   8.19893    0.001
 5344.00   11.51962   8.22483    0.001
 5345.00   12.60416   8.26097    0.001
 5346.00   13.62140   8.30703    0.001
 5347.00   14.28333   8.33033    0.001
 5348.00   14.55306   8.33773    0.001
 5349.00   13.15730   8.36242    0.001
 5350.00   11.97002   8.37637    0.001
 5351.00   11.51349   8.35175    0.001
 5352.00   11.34358   8.34959    0.001
 5353.00   12.01845   8.34689    0.001
 5354.00   12.62732   8.30077    0.001
 5355.00   13.07033   8.28416    0.001
 5356.00   13.12728   8.27010    0.001
 5357.00   12.34878   8.21584    0.001
 5358.00   11.81071   8.20227    0.001
 5359.00   11.72426   8.19448    0.001
 5360.00   12.11948   8.14704    0.001
 5361.00   13.30472   8.14852    0.001
 5362.00   13.70149   8.16137    0.001
 5363.00   12.96425   8.13169    0.001
 5364.00   12.16814   8.15046    0.001
 5365.00   11.29758   8.18477    0.001
 5366.00   11.38115   8.16966    0.001
 5367.00   12.52844   8.19854    0.001
 5368.00   12.01876   8.24720   -2.000
 5369.00    9.87977   8.23564   -2.000
 5370.00    9.69155   8.26055   -2.000
 5371.00   11.19500   8.30866   -2.000
 5372.00   13.21464   8.29108   -2.000
 5373.00   15.62858   8.30041   -2.000
 5374.00   16.11980   8.33079   -2.000
 5375.00   15.32004   8.29895   -2.000
 5376.00   13.76315   8.28965   -2.000
 5377.00   11.76094   8.29911   -2.000
 5378.00   11.60948   8.25617   -2.000
 5379.00   12.40716   8.23183   -2.000
 5380.00   13.23800   8.21931   -2.000
 5381.00   14.08358   8.17320   -2.000
 5382.00   14.25710   8.14411   -2.000
 5383.00   14.17407   8.11179    0.001
 5384.00   14.21779   8.07142    0.001
 5385.00   14.30262   8.04863    0.001
 5386.00   14.28368   8.00061    0.001
 5387.00   14.23656   7.97160    0.001
 5388.00   14.90550   7.96523    0.001
 5389.00   15.73395   7.90952    0.001
 5390.00   14.66764   7.89309    0.001
 5391.00   13.26480   7.90837    0.001
 5392.00   13.31603   7.85495    0.001
 5393.00   13.56454   7.84799    0.001
 5394.00   13.39489   7.88668    0.001
 5395.00   13.18483   7.85158    0.001
 5396.00   13.42485   7.85245    0.001
 5397.00   13.69195   7.90913    0.001
 5398.00   13.43482   7.90343    0.001
 5399.00   13.16649   7.91757    0.001
 5400.00   13.30618   7.98366    0.001
 5401.00   13.38062   8.00220    0.001
 5402.00   11.77285   8.03585    0.001
 5403.00   10.42180   8.10987    0.001
 5404.00   12.55107   8.13914    0.001
 5405.00   14.41333   8.18275    0.001
 5406.00   13.87393   8.25358    0.001
 5407.00   13.24661   8.28019    0.001
 5408.00   12.03814   8.32645    0.001
 5409.00   11.25186   8.37674    0.001
 5410.00   12.63701   8.38286    0.001
 5411.00   13.63425   8.42826    0.001
 5412.00   13.02125   8.45272    0.001
 5413.00   12.40401   8.43126    0.001
 5414.00   11.77224   8.47255    0.001
 5415.00   11.50149   8.47107    0.001
 5416.00   12.27526   8.42896    0.001
 5417.00   12.72231   8.47172    0.001
 5418.00   12.36255   8.45293    0.001
 5419.00   12.49001   8.40317    0.001
 5420.00   13.65484   8.45160    0.001
 5421.00   14.25756   8.42874    0.001
 5422.00   13.82063   8.39090    0.001
 5423.00   13.13230   8.44861    0.001
 5424.00   12.03775   8.42851    0.001
 5425.00   11.88196   8.40783    0.001
 5426.00   13.05683   8.47313    0.001
 5427.00   13.56397   8.46900    0.001
 5428.00   13.23843   8.46579    0.001
 5429.00   13.18849   8.51954    0.001
 5430.00   13.44151   8.52443    0.001
 5431.00   13.33289   8.53627    0.001
 5432.00   12.87366   8.56949    0.001
 5433.00   12.73613   8.56894    0.001
 5434.00   12.87365   8.58550    0.001
 5435.00   13.19076   8.59511    0.001
 5436.00   13.64311   8.57887    0.001
 5437.00   13.60284   8.59397    0.001
 5438.00   13.23665   8.58481    0.001
 5439.00   12.28400   8.55584    0.001
 5440.00   10.99159   8.57177    0.001
 5441.00   10.85318   8.55146    0.001
 5442.00   11.29729   8.51858    0.001
 5443.00   11.71259   8.53979    0.001
 5444.00   12.11531   8.52321    0.001
 5445.00   12.29502   8.50078    0.001
 5446.00   12.39109   8.52079    0.001
 5447.00   11.87498   8.50738    0.001
 5448.00   11.16408   8.50157    0.001
 5449.00   12.65345   8.51981    0.001
 5450.00   14.72775   8.50969    0.001
 5451.00   14.91492   8.51754    0.001
 5452.00   14.69162   8.53053    0.001
 5453.00   14.23510   8.52503    0.001
 5454.00   13.73828   8.54292    0.001
 5455.00   13.16033   8.54286    0.001
 5456.00   12.57173   8.52908    0.001
 5457.00   12.22396   8.54961    0.001
 5458.00   11.89843   8.54584    0.001
 5459.00   13.29497   8.51786    0.001
 5460.00   14.78829   8.53143    0.001
 5461.00   13.65030   8.53606    0.001
 5462.00   12.47328   8.49533    0.001
 5463.00   13.35378   8.49331    0.001
 5464.00   14.23158   8.51325    0.001
 5465.00   15.04579   8.47391    0.001
 5466.00   15.69917   8.45967    0.001
 5467.00   14.28673   8.49229    0.001
 5468.00   13.02154   8.47143    0.001
 5469.00   13.03054   8.45726    0.001
 5470.00   12.98045   8.49158    0.001
 5471.00   12.55155   8.49897    0.001
 5472.00   12.26785   8.50081    0.001
 5473.00   12.71198   8.52296    0.001
 5474.00   13.18274   8.55180    0.001
 5475.00   13.76154   8.58062    0.001
 5476.00   14.25498   8.58621    0.001
 5477.00   14.46111   8.61748    0.001
 5478.00   14.63670   8.66913   -2.000
 5479.00   14.72553   8.66360   -2.000
 5480.00   14.73830   8.68095   -2.000
 5481.00   14.56642   8.74302   -2.000
 5482.00   14.88322   8.73549   -2.000
 5483.00   16.22374   8.73003   -2.000
 5484.00   15.41020   8.78734   -2.000
 5485.00   10.67393   8.78821   -2.000
 5486.00    5.79278   8.75960   -2.000
 5487.00    0.68102   8.79904   -2.000
 5488.00   -3.91176   8.81514   -2.000
 5489.00   -7.77954   8.77013   -2.000
 5490.00   -9.01541   8.78465   -2.000
 5491.00   -7.01567   8.81627   -2.000
 5492.00   -4.04270   8.76701   -2.000
 5493.00   -0.01502   8.76019   -2.000
 5494.00    4.43338   8.79980   -2.000
 5495.00    9.28393   8.75280   -2.000
 5496.00   12.71480   8.73880   -2.000
 5497.00   14.94906   8.78532   -2.000
 5498.00   15.64687   8.74497   -2.000
 5499.00   15.20437   8.73291   -2.000
 5500.00   14.50299   8.78402   -2.000
 5501.00   13.63282   8.75902   -2.000
 5502.00   13.13290   8.75643    0.001
 5503.00   12.84422   8.80654    0.001
 5504.00   12.52609   8.80116    0.001
 5505.00   12.19332   8.81032    0.001
 5506.00   13.02571   8.85473    0.001
 5507.00   14.35879   8.86829    0.001
 5508.00   14.60255   8.88412    0.001
 5509.00   14.44504   8.91800    0.001
 5510.00   13.56556   8.94296    0.001
 5511.00   12.46077   8.95564    0.001
 5512.00   12.70763   8.97680    0.001
 5513.00   13.30620   9.00696    0.001
 5514.00   13.52025   9.00915    0.001
 5515.00   13.65268   9.01710    0.001
 5516.00   13.67378   9.05066    0.001
 5517.00   13.67618   9.04369    0.001
 5518.00   13.85623   9.04089    0.001
 5519.00   14.05878   9.07953    0.001
 5520.00   13.98868   9.07196    0.001
 5521.00   13.89453   9.06341    0.001
 5522.00   14.47443   9.10880    0.001
 5523.00   15.08957   9.10900    0.001
 5524.00   14.54526   9.10125    0.001
 5525.00   13.97612   9.15269    0.001
 5526.00   13.16526   9.16289    0.001
 5527.00   12.42255   9.16033    0.001
 5528.00   13.14682   9.21503    0.001
 5529.00   13.80673   9.23176    0.001
 5530.00   13.68163   9.23571    0.001
 5531.00   13.69265   9.28985    0.001
 5532.00   14.83822   9.30653    0.001
 5533.00   15.90287   9.31556    0.001
 5534.00   16.46409   9.36546    0.001
 5535.00   17.11926   9.37709    0.001
 5536.00   18.23360   9.38751    0.001
 5537.00   18.70639   9.42905    0.001
 5538.00   16.63216   9.43409    0.001
 5539.00   14.70096   9.44194    0.001
 5540.00   13.24174   9.47002    0.001
 5541.00   12.52987   9.46937    0.001
 5542.00   13.90234   9.47239    0.001
 5543.00   14.75084   9.48202    0.001
 5544.00   14.34887   9.47749    0.001
 5545.00   14.23701   9.47640    0.001
 5546.00   14.72321   9.46510    0.002
 5547.00   14.65883   9.45838   -1.000
 5548.00   13.60713   9.45706   -1.000
 5549.00   13.11721   9.42593   -1.000
 5550.00   13.50833   9.41822   -1.000
 5551.00   13.06734   9.42343   -1.000
 5552.00   11.48067   9.37695   -1.000
 5553.00   10.61597   9.36815    0.003
 5554.00   10.62627   9.38836    0.001
 5555.00   11.14394   9.33358    0.001
 5556.00   12.20372   9.32140    0.001
 5557.00   12.70633   9.36387    0.001
 5558.00   12.68383   9.30913    0.001
 5559.00   12.42999   9.28905    0.001
 5560.00   11.98391   9.35555    0.001
 5561.00   11.57084   9.30848    0.001
 5562.00   11.18192   9.27547    0.001
 5563.00   11.93861   9.35886    0.001
 5564.00   13.43116   9.32332    0.001
 5565.00   13.82296   9.27431    0.001
 5566.00   13.59626   9.35962    0.001
 5567.00   12.92344   9.33415    0.001
 5568.00   12.03249   9.27007    0.001
 5569.00   12.31887   9.34044    0.001
 5570.00   13.10271   9.32034    0.001
 5571.00   12.35121   9.24700    0.001
 5572.00   11.04424   9.29169    0.001
 5573.00   10.40236   9.27394    0.001
 5574.00    9.96400   9.20109    0.001
 5575.00   11.22983   9.21997    0.001
 5576.00   12.92958   9.20743    0.001
 5577.00   12.62281   9.14607    0.001
 5578.00   11.90043   9.14753    0.001
 5579.00   12.71527   9.14783    0.001
 5580.00   13.78082   9.10675    0.001
 5581.00   14.16191   9.10154    0.001
 5582.00   14.45938   9.12160    0.001
 5583.00   13.84367   9.10455    0.001
 5584.00   13.15124   9.10024    0.001
 5585.00   12.25180   9.14125    0.001
 5586.00   11.34235   9.14678    0.001
 5587.00   11.78029   9.14756    0.001
 5588.00   12.23918   9.20373    0.001
 5589.00   12.74136   9.22669    0.001
 5590.00   13.21847   9.23512    0.001
 5591.00   13.19785   9.29699    0.001
 5592.00   13.19273   9.32909    0.001
 5593.00   13.36756   9.34644    0.001
 5594.00   13.48569   9.40444    0.001
 5595.00   13.14810   9.43439    0.001
 5596.00   12.73744   9.45852    0.001
 5597.00   11.88539   9.50552    0.001
 5598.00   11.25698   9.52062    0.001
 5599.00   11.69487   9.54527    0.001
 5600.00   12.22943   9.57873    0.001
 5601.00   13.13945   9.56986    0.001
 5602.00   13.94734   9.58801    0.001
 5603.00   14.42480   9.61112    0.001
 5604.00   14.36346   9.57813    0.001
 5605.00   12.82646   9.58653    0.001
 5606.00   11.77389   9.60743    0.001
 5607.00   11.85804   9.55977    0.001
 5608.00   12.22741   9.56066    0.001
 5609.00   13.17541   9.58856    0.001
 5610.00   13.77876   9.54050    0.001
 5611.00   13.77348   9.53849    0.001
 5612.00   14.13194   9.57872    0.001
 5613.00   15.05245   9.54225    0.001
 5614.00   15.41409   9.54023    0.001
 5615.00   15.01733   9.59138    0.001
 5616.00   14.97204   9.57193    0.001
 5617.00   15.34671   9.56950    0.001
 5618.00   15.18606   9.62411    0.001
 5619.00   14.46149   9.62031    0.001
 5620.00   13.38559   9.61437    0.001
 5621.00   11.98321   9.66236    0.001
 5622.00   11.49603   9.66964    0.001
 5623.00   11.75852   9.65836    0.001
 5624.00   12.32917   9.69178    0.001
 5625.00   13.12197   9.70573    0.001
 5626.00   13.59860   9.69122    0.001
 5627.00   13.87514   9.70770    0.001
 5628.00   13.42103   9.72572    0.001
 5629.00   12.56263   9.71319    0.001
 5630.00   12.77059   9.71663    0.001
 5631.00   13.49163   9.73707    0.001
 5632.00   14.20589   9.73098    0.001
 5633.00   14.91733   9.72858    0.001
 5634.00   15.87872   9.74873    0.001
 5635.00   16.92890   9.74835    0.001
 5636.00   15.88773   9.74693    0.001
 5637.00   14.21913   9.76266    0.001
 5638.00   13.65399   9.76076    0.001
 5639.00   13.36370   9.76401    0.001
 5640.00   13.57034   9.77303    0.001
 5641.00   13.87736   9.75958    0.001
 5642.00   13.40717   9.76798    0.001
 5643.00   12.81392   9.77332    0.001
 5644.00   13.18723   9.74255    0.001
 5645.00   13.67435   9.75428    0.001
 5646.00   13.31827   9.76493    0.001
 5647.00   12.89484   9.72092    0.001
 5648.00   12.14796   9.73345    0.001
 5649.00   11.38668   9.75962    0.001
 5650.00   12.26490   9.71584    0.001
 5651.00   13.13501   9.72767    0.001
 5652.00   12.70117   9.77378    0.001
 5653.00   12.32233   9.74600    0.001
 5654.00   12.95743   9.75741    0.001
 5655.00   13.56960   9.81872    0.001
 5656.00   13.92790   9.81633    0.001
 5657.00   14.19372   9.82887    0.001
 5658.00   13.74214   9.89328    0.001
 5659.00   13.36870   9.91463    0.001
 5660.00   13.45391   9.92964    0.001
 5661.00   13.41614   9.98409    0.001
 5662.00   12.80620  10.01770    0.001
 5663.00   12.34148  10.03482    0.001
 5664.00   12.42882  10.07078    0.001
 5665.00   12.50341  10.10207    0.001
 5666.00   12.53758  10.11921    0.001
 5667.00   12.63006  10.13550    0.001
 5668.00   12.87941  10.15376    0.001
 5669.00   13.14164  10.16897    0.001
 5670.00   13.43362  10.17144    0.001
 5671.00   13.33003  10.17355    0.001
 5672.00   12.43665  10.18622    0.001
 5673.00   11.98162  10.18500    0.001
 5674.00   12.28894  10.17546    0.001
 5675.00   12.66779  10.18580    0.001
 5676.00   13.15555  10.18917    0.001
 5677.00   13.21801  10.17542    0.001
 5678.00   12.71162  10.18353    0.001
 5679.00   11.99011  10.19401    0.001
 5680.00   11.01521  10.18024    0.001
 5681.00   10.81264  10.18318    0.001
 5682.00   11.41226  10.19715    0.001
 5683.00   12.08209  10.18344    0.001
 5684.00   12.81625  10.17555    0.001
 5685.00   12.70987  10.18531    0.001
 5686.00   11.92471  10.17112    0.001
 5687.00   11.11351  10.14909    0.001
 5688.00   10.28381  10.14649    0.001
 5689.00   10.15319  10.13316    0.001
 5690.00   10.45843  10.10189    0.001
 5691.00   11.26661  10.08377    0.001
 5692.00   12.34881  10.07399    0.001
 5693.00   13.09775  10.04728    0.001
 5694.00   13.68891  10.01926    0.001
 5695.00   13.38279  10.01561    0.001
 5696.00   12.71025  10.01059    0.001
 5697.00   12.63683   9.98512    0.001
 5698.00   12.77240   9.98917    0.001
 5699.00   12.57891  10.01826    0.001
 5700.00   12.28866  10.00881    0.001
 5701.00   12.71670  10.02026    0.001
 5702.00   13.31971  10.08521    0.001
 5703.00   13.58370  10.09939    0.001
 5704.00   13.78092  10.11542    0.001
 5705.00   13.66019  10.20674    0.001
 5706.00   13.49061  10.24223    0.001
 5707.00   12.88350  10.25743    0.001
 5708.00   12.22680  10.35851    0.001
 5709.00   12.22681  10.40594    0.001
 5710.00   12.27659  10.41378    0.001
 5711.00   12.18665  10.50709    0.001
 5712.00   12.09103  10.55591    0.001
 5713.00   13.17379  10.55223    0.001
 5714.00   14.24885  10.62586    0.001
 5715.00   14.62792  10.67051    0.001
 5716.00   14.95675  10.65602    0.001
 5717.00   14.42217  10.70438    0.001
 5718.00   13.92087  10.74444    0.001
 5719.00   13.77162  10.72563    0.001
 5720.00   13.60026  10.74979    0.001
 5721.00   13.26330  10.78604    0.001
 5722.00   12.98992  10.77130    0.001
 5723.00   13.07942  10.77713    0.001
 5724.00   13.20732  10.80894    0.001
 5725.00   13.50963  10.80406    0.001
 5726.00   13.63746  10.79901    0.001
 5727.00   13.11598  10.82352    0.001
 5728.00   12.79557  10.82818    0.001
 5729.00   13.10100  10.81922    0.001
 5730.00   13.39816  10.83370    0.001
 5731.00   13.67344  10.84295    0.001
 5732.00   13.80599  10.83467    0.001
 5733.00   13.61464  10.83887    0.001
 5734.00   13.33513  10.84732    0.001
 5735.00   12.88238  10.84231    0.001
 5736.00   12.59706  10.83730    0.001
 5737.00   12.59853  10.84021    0.001
 5738.00   12.29993  10.84080    0.001
 5739.00   11.55116  10.83191    0.001
 5740.00   11.09266  10.82809    0.000
 5741.00   11.01684  10.83342    0.000
 5742.00   11.70103  10.82509    0.000
 5743.00   13.26777  10.81855    0.000
 5744.00   14.35117  10.82950    0.000
 5745.00   14.93956  10.82437    0.000
 5746.00   15.00240  10.81942    0.000
 5747.00   14.59052  10.83702    0.000
 5748.00   14.17707  10.83592    0.000
 5749.00   13.76235  10.83516    0.000
 5750.00   13.57077  10.86076    0.000
 5751.00   13.53543  10.86278    0.000
 5752.00   13.61333  10.86471    0.000
 5753.00   13.76078  10.89626    0.000
 5754.00   13.69919  10.89957    0.000
 5755.00   13.52547  10.90164    0.000
 5756.00   13.17321  10.93520    0.000
 5757.00   12.73778  10.93380    0.000
 5758.00   12.42249  10.92835    0.000
 5759.00   12.15543  10.95915    0.000
 5760.00   12.07854  10.95079    0.000
 5761.00   12.06678  10.93136    0.000
 5762.00   12.73444  10.95336    0.000
 5763.00   13.59789  10.93497    0.000
 5764.00   14.46684  10.89756    0.000
 5765.00   15.33709  10.91107    0.000
 5766.00   14.73085  10.88700    0.000
 5767.00   13.84131  10.83237    0.000
 5768.00   13.02227  10.84115    0.000
 5769.00   12.21373  10.82307    0.000
 5770.00   12.76521  10.75952    0.000
 5771.00   13.46489  10.76764    0.000
 5772.00   14.85694  10.76867    0.000
 5773.00   16.29863  10.70992    0.000
 5774.00   15.61428  10.72060    0.000
 5775.00   14.85158  10.75223    0.000
 5776.00   13.72347  10.71415    0.000
 5777.00   12.61958  10.72595    0.000
 5778.00   12.43776  10.78895    0.000
 5779.00   12.27432  10.78205    0.000
 5780.00   12.40652  10.79027    0.000
 5781.00   12.55378  10.87396    0.000
 5782.00   12.85353  10.89955    0.000
 5783.00   13.02194  10.90022    0.000
 5784.00   12.23848  10.98751    0.000
 5785.00   11.69652  11.03867    0.000
 5786.00   12.49539  11.03196    0.000
 5787.00   13.30914  11.10559    0.000
 5788.00   14.18888  11.17023    0.000
 5789.00   14.87111  11.16101    0.000
 5790.00   14.83370  11.20931    0.000
 5791.00   14.66856  11.27242   -2.000
 5792.00   14.11341  11.26685   -2.000
 5793.00   13.72265  11.28966   -2.000
 5794.00   13.75869  11.34151   -2.000
 5795.00   13.72874  11.34170   -2.000
 5796.00   13.55149  11.34615   -2.000
 5797.00   13.49734  11.38578   -2.000
 5798.00   13.68134  11.39248   -2.000
 5799.00   13.64699  11.38843   -2.000
 5800.00   13.24423  11.41763   -2.000
 5801.00   13.21538  11.42817   -2.000
 5802.00   13.73929  11.42509   -2.000
 5803.00   13.72420  11.44960   -2.000
 5804.00   13.00866  11.46285   -2.000
 5805.00   12.37754  11.46545   -2.000
 5806.00   11.84309  11.48982   -2.000
 5807.00   11.93011  11.50464   -2.000
 5808.00   12.64464  11.51294   -2.000
 5809.00   12.97998  11.53990   -2.000
 5810.00   12.97763  11.55667   -2.000
 5811.00   13.08198  11.56736    0.000
 5812.00   13.27007  11.59581    0.000
 5813.00   13.25703  11.61323    0.000
 5814.00   13.10517  11.62115    0.000
 5815.00   13.17729  11.64916    0.000
 5816.00   13.38493  11.66657    0.000
 5817.00   13.76935  11.66715    0.000
 5818.00   14.24713  11.69200    0.000
 5819.00   14.54061  11.71037    0.000
 5820.00   14.74964  11.70257    0.000
 5821.00   13.99774  11.72089    0.000
 5822.00   12.86675  11.74071    0.000
 5823.00   12.90459  11.72554    0.000
 5824.00   13.33524  11.73411    0.000
 5825.00   14.32844  11.75539    0.000
 5826.00   15.48047  11.73522    0.000
 5827.00   15.48300  11.73081    0.000
 5828.00   15.21796  11.75176    0.000
 5829.00   14.90499  11.72964    0.000
 5830.00   14.58307  11.71076    0.000
 5831.00   14.47356  11.72581    0.000
 5832.00   14.39470  11.70250    0.000
 5833.00   14.27914  11.66992    0.000
 5834.00   14.15973  11.67381    0.000
 5835.00   14.82377  11.64676    0.000
 5836.00   15.54082  11.60154    0.000
 5837.00   15.43594  11.59568    0.000
 5838.00   15.30388  11.56842    0.000
 5839.00   14.79811  11.51226    0.000
 5840.00   14.29531  11.49668    0.000
 5841.00   13.89429  11.47421    0.000
 5842.00   13.50318  11.41751    0.000
 5843.00   13.26186  11.40195    0.000
 5844.00   13.00209  11.38850    0.000
 5845.00   12.56330  11.33458    0.000
 5846.00   12.26224  11.32401    0.000
 5847.00   12.92719  11.33172    0.000
 5848.00   13.52404  11.28956    0.000
 5849.00   13.75295  11.28007    0.000
 5850.00   14.01049  11.31091    0.000
 5851.00   14.39205  11.29317    0.000
 5852.00   14.64553  11.28390    0.000
 5853.00   14.44187  11.32777    0.000
 5854.00   14.23074  11.33414    0.000
 5855.00   13.99718  11.32046    0.000
 5856.00   13.79970  11.36441    0.000
 5857.00   13.69423  11.39285    0.000
 5858.00   13.60219  11.37374    0.000
 5859.00   13.53961  11.39686    0.000
 5860.00   13.52394  11.43317    0.000
 5861.00   13.59760  11.41293    0.000
 5862.00   13.75162  11.40111    0.000
 5863.00   14.03918  11.42339    0.000
 5864.00   14.20444  11.40317    0.000
 5865.00   14.19156  11.35124    0.000
 5866.00   14.07069  11.34011    0.000
 5867.00   13.81148  11.31717    0.000
 5868.00   13.92119  11.22605    0.000
 5869.00   14.44730  11.16718    0.000
 5870.00   14.62383  11.14118    0.000
 5871.00   14.45234  11.01672    0.000
 5872.00   14.19925  10.89566    0.000
 5873.00   13.87453  10.87179    0.000
 5874.00   13.16291  10.74311    0.000
 5875.00   12.15201  10.56681    0.000
 5876.00   11.63785  10.55033    0.000
 5877.00   11.46153  10.45288    0.000
 5878.00   11.41901  10.24665    0.000
 5879.00   11.45623  10.24075    0.000
 5880.00   11.09126  10.20847    0.000
 5881.00   10.51717  10.00898    0.000
 5882.00   10.29257  10.01259    0.000
 5883.00   10.22552  10.07908    0.000
 5884.00   11.15562   9.94161    0.000
 5885.00   12.47226   9.94407    0.000
 5886.00   12.77208  10.09305    0.000
 5887.00   12.73658  10.04909    0.000
 5888.00   11.99446  10.05067    0.000
 5889.00   11.05691  10.24889    0.000
 5890.00   10.70394  10.29796    0.000
 5891.00   10.48391  10.29597    0.000
 5892.00   10.98928  10.49566    0.000
 5893.00   11.62661  10.61895    0.000
 5894.00   12.16700  10.62769    0.000
 5895.00   12.69385  10.78128    0.000
 5896.00   13.28139  10.92233    0.000
 5897.00   13.87501  10.94434    0.000
 5898.00   14.31110  11.03954    0.000
 5899.00   14.73716  11.16301    0.000
 5900.00   14.39979  11.19967    0.000
 5901.00   14.04120  11.24384    0.001
 5902.00   14.08592  11.33125    0.001
 5903.00   14.13276  11.37501    0.001
 5904.00   14.23909  11.38953    0.001
 5905.00   14.30554  11.44186    0.001
 5906.00   13.80390  11.48247    0.001
 5907.00   13.34640  11.48622    0.001
 5908.00   13.30006  11.51580    0.001
 5909.00   13.20181  11.55108    0.001
 5910.00   12.75095  11.55760    0.001
 5911.00   12.37147  11.57581    0.001
 5912.00   12.36766  11.60175    0.001
 5913.00   12.26789  11.61212    0.001
 5914.00   11.76182  11.62534    0.001
 5915.00   11.34467  11.64195    0.001
 5916.00   11.23835  11.65266    0.001
 5917.00   10.99311  11.66850    0.001
 5918.00   10.33934  11.69069    0.001
 5919.00   10.07537  11.69135    0.001
 5920.00   10.78872  11.69529    0.001
 5921.00   11.59704  11.73030    0.001
 5922.00   12.61047  11.73183    0.001
 5923.00   13.17159  11.72248    0.001
 5924.00   12.88472  11.76266    0.001
 5925.00   12.68309  11.77056    0.001
 5926.00   12.62100  11.75046    0.001
 5927.00   12.74711  11.78431    0.001
 5928.00   13.14341  11.80316    0.001
 5929.00   13.64404  11.78462    0.001
 5930.00   14.27644  11.80423    0.001
 5931.00   14.45195  11.82782    0.001
 5932.00   14.11902  11.81900    0.001
 5933.00   13.82878  11.82477    0.001
 5934.00   13.58045  11.84199    0.001
 5935.00   13.76612  11.84098    0.001
 5936.00   14.32747  11.84657    0.001
 5937.00   14.12516  11.85561    0.001
 5938.00   13.34053  11.85072    0.001
 5939.00   12.68347  11.86600    0.001
 5940.00   12.11189  11.87946    0.001
 5941.00   12.31549  11.86515    0.001
 5942.00   12.97416  11.88162    0.001
 5943.00   13.67357  11.90860    0.001
 5944.00   14.39382  11.89555    0.001
 5945.00   14.44501  11.90980    0.001
 5946.00   14.19955  11.95324    0.001
 5947.00   13.77888  11.94903    0.001
 5948.00   13.29148  11.95416    0.001
 5949.00   12.90909  12.00932    0.001
 5950.00   12.56067  12.01850    0.001
 5951.00   13.08171  12.01025    0.001
 5952.00   13.83822  12.06913    0.001
 5953.00   14.21125  12.09697    0.001
 5954.00   14.49911  12.07807    0.001
 5955.00   14.01795  12.12140    0.001
 5956.00   13.40067  12.16276    0.001
 5957.00   12.75898  12.14526    0.001
 5958.00   12.11400  12.16255    0.001
 5959.00   11.59694  12.20106    0.001
 5960.00   11.09218  12.18775    0.001
 5961.00   11.92630  12.18372    0.001
 5962.00   12.84030  12.21161    0.001
 5963.00   14.19915  12.19913    0.001
 5964.00   15.56190  12.18036    0.001
 5965.00   15.76644  12.19776    0.001
 5966.00   15.96193  12.18529    0.001
 5967.00   15.92700  12.16413    0.001
 5968.00   15.86442  12.17645    0.001
 5969.00   15.42959  12.16026    0.001
 5970.00   15.04941  12.14323    0.001
 5971.00   15.15831  12.15831    0.001
 5972.00   15.18909  12.13978    0.001
 5973.00   14.70549  12.12370    0.001
 5974.00   14.31845  12.15075    0.001
 5975.00   14.42639  12.14876    0.001
 5976.00   14.56866  12.12845    0.001
 5977.00   14.85303  12.15185    0.001
 5978.00   15.01638  12.17316    0.001
 5979.00   14.76514  12.15526    0.001
 5980.00   14.39883  12.16629    0.001
 5981.00   13.70037  12.20207    0.001
 5982.00   13.16234  12.19372    0.001
 5983.00   13.01966  12.19268    0.001
 5984.00   13.02519  12.22132    0.001
 5985.00   13.34568  12.21665    0.001
 5986.00   13.53751  12.21049    0.001
 5987.00   13.49186  12.22596    0.001
 5988.00   13.34105  12.22622    0.001
 5989.00   13.02065  12.22520    0.001
 5990.00   12.84882  12.22034    0.001
 5991.00   12.88721  12.21131    0.001
 5992.00   12.98907  12.21625    0.001
 5993.00   13.16996  12.20586    0.001
 5994.00   13.20891  12.19200    0.001
 5995.00   13.09214  12.19542    0.001
 5996.00   12.88759  12.18375    0.001
 5997.00   12.59811  12.17020    0.001
 5998.00   12.38516  12.17237    0.001
 5999.00   12.23754  12.17605    0.001
 6000.00   12.36234  12.17093    0.001
 6001.00   12.69191  12.15385    0.001
 6002.00   12.91843  12.16151    0.001
 6003.00   13.07691  12.18495    0.001
 6004.00   13.04064  12.17076    0.001
 6005.00   12.89176  12.16453    0.001
 6006.00   12.81355  12.20201    0.001
 6007.00   12.77094  12.21813    0.001
 6008.00   12.91095  12.20476    0.001
 6009.00   13.13058  12.22860    0.001
 6010.00   13.25893  12.27919    0.001
 6011.00   13.35313  12.28756    0.001
 6012.00   12.95757  12.29434    0.001
 6013.00   12.40656  12.36164    0.001
 6014.00   12.67401  12.39571    0.001
 6015.00   13.15848  12.39014    0.001
 6016.00   13.37406  12.45456    0.001
 6017.00   13.53133  12.51768    0.001
 6018.00   13.69094  12.52114    0.001
 6019.00   13.85096  12.56025    0.001
 6020.00   14.67993  12.63152    0.001
 6021.00   15.59625  12.65833    0.001
 6022.00   15.72848  12.67822    0.001
 6023.00   15.78868  12.73643    0.001
 6024.00   15.43533  12.77761    0.001
 6025.00   15.05893  12.79198    0.001
 6026.00   14.73692  12.83429    0.001
 6027.00   14.41290  12.87115    0.001
 6028.00   13.77044  12.88585    0.001
 6029.00   13.15003  12.91701    0.001
 6030.00   13.04133  12.94034    0.001
 6031.00   12.95464  12.95719    0.001
 6032.00   13.14902  12.98495    0.001
 6033.00   13.31476  12.99612    0.001
 6034.00   13.23386  13.00399    0.001
 6035.00   13.19302  13.03006    0.001
 6036.00   13.40802  13.03913    0.001
 6037.00   13.62889  13.02942    0.001
 6038.00   13.87904  13.04731    0.001
 6039.00   14.12691  13.06436    0.001
 6040.00   14.36557  13.04340    0.001
 6041.00   14.41463  13.04121    0.001
 6042.00   13.82705  13.06353    0.001
 6043.00   13.18376  13.04452    0.001
 6044.00   12.38256  13.02595    0.001
 6045.00   11.97602  13.04893    0.001
 6046.00   12.52548  13.04131    0.001
 6047.00   13.13364  13.01626    0.001
 6048.00   13.86452  13.03580    0.001
 6049.00   14.55369  13.04432    0.001
 6050.00   15.16707  13.01551    0.001
 6051.00   15.51389  13.02854    0.001
 6052.00   15.43721  13.05988    0.001
 6053.00   15.23533  13.03098    0.001
 6054.00   14.85886  13.03063    0.001
 6055.00   14.47513  13.08721    0.001
 6056.00   14.08249  13.07690    0.001
 6057.00   13.49677  13.06004    0.001
 6058.00   12.70219  13.11627    0.001
 6059.00   12.23246  13.12999    0.001
 6060.00   12.07269  13.10142    0.001
 6061.00   12.64252  13.13519    0.001
 6062.00   13.82620  13.16789    0.001
 6063.00   14.56442  13.13134    0.001
 6064.00   14.97263  13.13078    0.001
 6065.00   14.81593  13.17331    0.001
 6066.00   14.29163  13.13847    0.001
 6067.00   13.90010  13.10154    0.001
 6068.00   13.58419  13.14088    0.001
 6069.00   13.75701  13.12850    0.001
 6070.00   14.17216  13.06894    0.001
 6071.00   14.48769  13.07872    0.001
 6072.00   14.76050  13.09213    0.001
 6073.00   14.94895  13.04359    0.001
 6074.00   15.10641  13.02139    0.001
 6075.00   14.77736  13.04150    0.001
 6076.00   14.29687  13.02703    0.001
 6077.00   13.94024  12.99211    0.001
 6078.00   13.61575  12.99561    0.001
 6079.00   13.55596  13.01347    0.001
 6080.00   13.55218  12.98722    0.001
 6081.00   13.72475  12.96356    0.001
 6082.00   13.92681  12.99806    0.001
 6083.00   14.00476  13.00627    0.001
 6084.00   14.06707  12.97172    0.001
 6085.00   13.95491  12.99107    0.001
 6086.00   13.82745  13.02219    0.001
 6087.00   13.97451  12.99558    0.001
 6088.00   14.13579  12.99519    0.001
 6089.00   13.82711  13.03946    0.001
 6090.00   13.50424  13.01917    0.001
 6091.00   12.76904  12.99638    0.001
 6092.00   12.08527  13.05536    0.001
 6093.00   12.49699  13.05548    0.001
 6094.00   12.93118  13.01733    0.001
 6095.00   13.63767  13.07019    0.001
 6096.00   14.23925  13.09817    0.001
 6097.00   13.97038  13.07056    0.001
 6098.00   13.65484  13.09961    0.001
 6099.00   13.05010  13.12647    0.001
 6100.00   12.57133  13.09999    0.001
 6101.00   12.70638  13.11956    0.001
 6102.00   12.83421  13.16423    0.001
 6103.00   12.93346  13.12968    0.001
 6104.00   12.85127  13.11007    0.001
 6105.00   12.17190  13.16709    0.001
 6106.00   11.73508  13.16120    0.001
 6107.00   11.97316  13.11016    0.001
 6108.00   12.26124  13.14082    0.001
 6109.00   12.66835  13.15543    0.001
 6110.00   13.01824  13.09022    0.001
 6111.00   13.25037  13.09977    0.001
 6112.00   13.66449  13.13917    0.001
 6113.00   14.40432  13.07231    0.001
 6114.00   14.64682  13.04869    0.001
 6115.00   14.11081  13.10258    0.001
 6116.00   13.61433  13.07508    0.001
 6117.00   13.17218  13.02391    0.001
 6118.00   12.94955  13.04667    0.001
 6119.00   12.99252  13.05072    0.001
 6120.00   12.97005  13.01053    0.001
 6121.00   12.87780  13.02224    0.001
 6122.00   12.60669  13.03276    0.001
 6123.00   12.16733  12.99803    0.001
 6124.00   11.98169  13.00746    0.001
 6125.00   12.00651  13.01614    0.001
 6126.00   12.50239  12.99934    0.001
 6127.00   13.34223  13.01584    0.001
 6128.00   13.91668  13.01295    0.001
 6129.00   14.32098  12.99577    0.001
 6130.00   14.29895  13.03438    0.001
 6131.00   14.03783  13.07651    0.001
 6132.00   14.00030  13.04931    0.001
 6133.00   14.07188  13.04379    0.001
 6134.00   14.22326  13.10609    0.001
 6135.00   14.40829  13.10455    0.001
 6136.00   14.52345  13.07251    0.001
 6137.00   14.61338  13.11040    0.001
 6138.00   14.26117  13.11535    0.001
 6139.00   13.77398  13.06420    0.001
 6140.00   13.32379  13.06961    0.001
 6141.00   12.88300  13.09343    0.001
 6142.00   12.95285  13.02819    0.001
 6143.00   13.12815  12.96704    0.001
 6144.00   13.44522  12.98487    0.001
 6145.00   13.78533  12.94734    0.001
 6146.00   13.78938  12.85605    0.001
 6147.00   13.75257  12.82821    0.001
 6148.00   13.62727  12.81197    0.001
 6149.00   13.49458  12.73647    0.001
 6150.00   13.30357  12.66663    0.001
 6151.00   13.10976  12.64964    0.001
 6152.00   13.25111  12.61866    0.001
 6153.00   13.39779  12.55141    0.001
 6154.00   13.57066  12.51753    0.001
 6155.00   13.71801  12.54225    0.001
 6156.00   13.36355  12.54481    0.001
 6157.00   12.98891  12.48664    0.001
 6158.00   12.38135  12.50044    0.001
 6159.00   11.79358  12.57903    0.001
 6160.00   11.36421  12.55071    0.001
 6161.00   11.01101  12.51134    0.001
 6162.00   11.11631  12.61268    0.001
 6163.00   11.34179  12.67957    0.001
 6164.00   12.13852  12.62801    0.001
 6165.00   12.79213  12.67710    0.001
 6166.00   12.89134  12.79819    0.001
 6167.00   12.90719  12.77971    0.001
 6168.00   12.65401  12.75466    0.001
 6169.00   12.53592  12.85802    0.001
 6170.00   12.78702  12.90163    0.001
 6171.00   13.07304  12.84620    0.001
 6172.00   13.44081  12.87183    0.001
 6173.00   13.74041  12.94698    0.001
 6174.00   13.90199  12.93280    0.001
 6175.00   13.81759  12.90318    0.001
 6176.00   13.29963  12.94329    0.001
 6177.00   12.95185  12.96139    0.001
 6178.00   12.86657  12.93021    0.001
 6179.00   12.78164  12.92345    0.001
 6180.00   12.69718  12.95535    0.001
 6181.00   12.73725  12.96443    0.001
 6182.00   12.92582  12.92651    0.001
 6183.00   13.18531  12.93736    0.001
 6184.00   13.51940  12.99332    0.001
 6185.00   13.86085  12.99322    0.001
 6186.00   14.20911  12.98436    0.001
 6187.00   14.16203  13.01733    0.001
 6188.00   13.79168  13.04456    0.001
 6189.00   13.27919  13.04645    0.001
 6190.00   12.66442  13.05551    0.001
 6191.00   12.50600  13.07388    0.001
 6192.00   12.63584  13.08254    0.001
 6193.00   12.34939  13.09586    0.001
 6194.00   11.83306  13.10441    0.001
 6195.00   10.30065  13.10103    0.001
 6196.00    8.28032  13.10427   -2.000
 6197.00    7.39391  13.09039   -2.000
 6198.00    6.97753  13.06983   -2.000
 6199.00    7.76441  13.07091   -2.000
 6200.00    8.97779  13.04909   -2.000
 6201.00    9.49310  12.99748   -2.000
 6202.00    9.79951  12.98365   -2.000
 6203.00    9.77496  12.98350   -2.000
 6204.00    9.66821  12.92543   -2.000
 6205.00   10.37255  12.88102   -2.000
 6206.00   11.24020  12.88748   -2.000
 6207.00   12.13972  12.84877   -2.000
 6208.00   13.04425  12.80328    0.001
 6209.00   13.40437  12.81953    0.001
 6210.00   13.70069  12.80297    0.001
 6211.00   13.68030  12.73730    0.001
 6212.00   13.63478  12.73803    0.001
 6213.00   13.76388  12.77174    0.001
 6214.00   13.90065  12.72251    0.001
 6215.00   13.76875  12.69255    0.001
 6216.00   13.63261  12.74534    0.001
 6217.00   13.43438  12.73079    0.001
 6218.00   13.23965  12.68844    0.001
 6219.00   13.10888  12.73812    0.001
 6220.00   12.99190  12.75217    0.001
 6221.00   13.02677  12.68132    0.001
 6222.00   13.10175  12.70135    0.001
 6223.00   13.48654  12.76068    0.001
 6224.00   13.84569  12.70285    0.001
 6225.00   14.05488  12.69839    0.001
 6226.00   14.28418  12.76920    0.001
 6227.00   14.60678  12.72593    0.001
 6228.00   14.79684  12.68865    0.001
 6229.00   14.48436  12.75488    0.001
 6230.00   14.10186  12.74164    0.001
 6231.00   13.49772  12.66720    0.001
 6232.00   13.05159  12.71725    0.001
 6233.00   13.02959  12.74956    0.001
 6234.00   13.10452  12.66758    0.001
 6235.00   13.40260  12.68515    0.000
 6236.00   13.59269  12.73895    0.000
 6237.00   13.56756  12.67767    0.001
 6238.00   13.43348  12.65897    0.001
 6239.00   13.11026  12.71179    0.000
 6240.00   12.82926  12.69240    0.000
 6241.00   12.61244  12.66419    0.000
 6242.00   12.54024  12.69353    0.000
 6243.00   12.66113  12.69730    0.000
 6244.00   12.64069  12.69257    0.000
 6245.00   12.45408  12.71301    0.001
 6246.00   12.40976  12.72464    0.001
 6247.00   12.51295  12.74899    0.001
 6248.00   12.54230  12.78782    0.001
 6249.00   12.50410  12.78461    0.001
 6250.00   12.43620  12.80876    0.001
 6251.00   12.34437  12.89720    0.001
 6252.00   12.34229  12.90953    0.001
 6253.00   12.40389  12.90535    0.001
 6254.00   12.42394  13.00205    0.001
 6255.00   12.41815  13.05683    0.001
 6256.00   12.37780  13.04175    0.001
 6257.00   12.31868  13.10512    0.001
 6258.00   12.14325  13.19296    0.001
 6259.00   11.91286  13.18927    0.001
 6260.00   12.16835  13.20781    0.001
 6261.00   12.62183  13.29436    0.001
 6262.00   13.14489  13.32416    0.001
 6263.00   13.69215  13.32841    0.001
 6264.00   13.41791  13.37811    0.001
 6265.00   12.90271  13.41813    0.001
 6266.00   12.66998  13.42423    0.001
 6267.00   12.50588  13.45015    0.001
 6268.00   12.72348  13.49278    0.001
 6269.00   13.01602  13.51053    0.001
 6270.00   13.05489  13.52549    0.001
 6271.00   13.05494  13.54468    0.001
 6272.00   12.97157  13.56761    0.001
 6273.00   12.87879  13.59337    0.001
 6274.00   13.05553  13.60337    0.001
 6275.00   13.25256  13.61928    0.000
 6276.00   13.46553  13.63606    0.001
 6277.00   13.67914  13.64219    0.001
 6278.00   13.37018  13.65550    0.001
 6279.00   13.06746  13.67232    0.001
 6280.00   13.17249  13.67722    0.000
 6281.00   13.27910  13.66485    0.000
 6282.00   13.41251  13.66835    0.000
 6283.00   13.54374  13.68504    0.000
 6284.00   13.65203  13.67903    0.000
 6285.00   13.74954  13.67044    0.000
 6286.00   13.76659  13.67092    0.000
 6287.00   13.76083  13.67396    0.000
 6288.00   13.62538  13.67063    0.000
 6289.00   13.53098  13.66178    0.000
 6290.00   13.62253  13.67652    0.000
 6291.00   13.80335  13.68917    0.000
 6292.00   14.31549  13.66734    0.000
 6293.00   14.70061  13.67155    0.000
 6294.00   14.69132  13.70715    0.000
 6295.00   14.58138  13.69932    0.000
 6296.00   14.20602  13.67796    0.000
 6297.00   14.01227  13.72254    0.000
 6298.00   14.22976  13.74740    0.000
 6299.00   14.51310  13.69960    0.000
 6300.00   14.92558  13.72944    0.000
 6301.00   15.28906  13.79507    0.000
 6302.00   15.56879  13.74393    0.000
 6303.00   15.49492  13.72167    0.000
 6304.00   14.89156  13.80894    0.000
 6305.00   14.31272  13.81873    0.000
 6306.00   13.76615  13.75663    0.000
 6307.00   13.52736  13.81254    0.000
 6308.00   13.64536  13.88444    0.000
 6309.00   13.65318  13.82975    0.000
 6310.00   13.54838  13.84102    0.000
 6311.00   13.35526  13.92936    0.000
 6312.00   13.08251  13.92128    0.000
 6313.00   12.72693  13.90043    0.000
 6314.00   12.30553  13.96746    0.000
 6315.00   12.34869  14.01555    0.000
 6316.00   12.71660  13.98787    0.000
 6317.00   12.94349  14.02011    0.000
 6318.00   13.08393  14.08554    0.000
 6319.00   12.79610  14.06439    0.000
 6320.00   12.27896  14.05562    0.000
 6321.00   11.90884  14.10484    0.000
 6322.00   11.60705  14.12964    0.000
 6323.00   11.65679  14.10993    0.000
 6324.00   11.84733  14.12428    0.000
 6325.00   11.82074  14.16675    0.001
 6326.00   11.71999  14.15110    0.001
 6327.00   11.70327  14.13365    0.000
 6328.00   11.71071  14.15664    0.000
 6329.00   12.11653  14.17275    0.000
 6330.00   12.61695  14.15775    0.000
 6331.00   12.80468  14.15404    0.000
 6332.00   12.93261  14.18515    0.000
 6333.00   13.13698  14.19230    0.000
 6334.00   13.35268  14.17641    0.000
 6335.00   13.85375  14.17571    0.000
 6336.00   14.38576  14.19083    0.000
 6337.00   14.70902  14.18867    0.001
 6338.00   15.01742  14.15810    0.001
 6339.00   14.28454  14.15740    0.000
 6340.00   13.51379  14.18555    0.000
 6341.00   12.93965  14.17196    0.000
 6342.00   12.38537  14.12580    0.000
 6343.00   12.50433  14.13111    0.000
 6344.00   12.62965  14.15343    0.000
 6345.00   12.85634  14.10535    0.000
 6346.00   13.10560  14.06857    0.000
 6347.00   13.58207  14.10806    0.000
 6348.00   14.03435  14.11333    0.000
 6349.00   14.31213  14.06343    0.000
 6350.00   14.51687  14.07626    0.000
 6351.00   14.31744  14.12762    0.000
 6352.00   14.05961  14.11938    0.000
 6353.00   13.54354  14.10810    0.000
 6354.00   13.09465  14.15994    0.000
 6355.00   12.88987  14.19964    0.001
 6356.00   12.90913  14.20677    0.001
 6357.00   13.61084  14.24904    0.001
 6358.00   14.07448  14.30611    0.000
 6359.00   13.92137  14.34440    0.000
 6360.00   13.75531  14.38452    0.000
 6361.00   13.56039  14.42896    0.000
 6362.00   13.40315  14.46664    0.001
 6363.00   13.31867  14.51312    0.001
 6364.00   13.16224  14.55724    0.001
 6365.00   12.88467  14.57337    0.001
 6366.00   12.72163  14.61072    0.001
 6367.00   12.72758  14.66581    0.001
 6368.00   12.75584  14.67705    0.001
 6369.00   12.81304  14.67543    0.000
 6370.00   12.96486  14.70745    0.000
 6371.00   13.22483  14.73535    0.000
 6372.00   13.12704  14.72126    0.000
 6373.00   12.66864  14.72231    0.000
 6374.00   12.30239  14.75695    0.000
 6375.00   12.01806  14.76520    0.001
 6376.00   11.96075  14.73905    0.001
 6377.00   12.08127  14.72367    0.001
 6378.00   12.47971  14.75378    0.001
 6379.00   13.06959  14.76187    0.001
 6380.00   13.33031  14.71513    0.001
 6381.00   13.39222  14.72106    0.000
 6382.00   13.34569  14.77826    0.000
 6383.00   13.24200  14.75493    0.000
 6384.00   13.25595  14.68716    0.000
 6385.00   13.32370  14.73972    0.000
 6386.00   13.30713  14.79842    0.000
 6387.00   13.25736  14.71338    0.000
 6388.00   13.10219  14.69663    0.000
 6389.00   12.91168  14.81235    0.000
 6390.00   12.66703  14.81306    0.000
 6391.00   12.40713  14.71807    0.000
 6392.00   12.36235  14.77385    0.000
 6393.00   12.36749  14.86949    0.000
 6394.00   12.43810  14.78441    0.000
 6395.00   12.52090  14.73911    0.001
 6396.00   12.64511  14.86706    0.001
 6397.00   12.77528  14.90267    0.001
 6398.00   12.38391  14.80350    0.001
 6399.00   11.93825  14.82700    0.001
 6400.00   12.11961  14.93003    0.001
 6401.00   12.34308  14.87444    0.001
 6402.00   12.67365  14.81397    0.001
 6403.00   13.00772  14.91839    0.001
 6404.00   12.46445  14.96278    0.001
 6405.00   11.91848  14.87940    0.000
 6406.00   11.29398  14.89597    0.000
 6407.00   10.70797  14.98140    0.000
 6408.00   10.69913  14.94237    0.000
 6409.00   10.73957  14.91081    0.000
 6410.00   11.25579  14.99935    0.000
 6411.00   11.70922  15.01827    0.000
 6412.00   11.72399  14.96718    0.000
 6413.00   11.73363  15.01105    0.000
 6414.00   11.71560  15.06328    0.000
 6415.00   11.70326  15.02092    0.000
 6416.00   11.71551  15.03341    0.000
 6417.00   11.78341  15.11325    0.000
 6418.00   12.04942  15.09731    0.000
 6419.00   12.43696  15.06716    0.000
 6420.00   13.18774  15.13521    0.000
 6421.00   13.85232  15.17327    0.000
 6422.00   14.29746  15.12344    0.000
 6423.00   14.57674  15.14330    0.000
 6424.00   14.49265  15.22467    0.000
 6425.00   14.28331  15.20048    0.000
 6426.00   13.83589  15.15579    0.000
 6427.00   13.58879  15.22993    0.000
 6428.00   13.67396  15.29139    0.001
 6429.00   13.76975  15.23145    0.001
 6430.00   13.88095  15.22062    0.001
 6431.00   13.66637  15.31036    0.001
 6432.00   13.03520  15.29864    0.000
 6433.00   12.93452  15.22497    0.000
 6434.00   13.43159  15.28548    0.000
 6435.00   14.05082  15.35749    0.000
 6436.00   14.79145  15.28252    0.000
 6437.00   14.98339  15.24936    0.000
 6438.00   14.69443  15.34075    0.000
 6439.00   14.51061  15.33287    0.000
 6440.00   14.40798  15.26398    0.000
 6441.00   14.42626  15.32290    0.000
 6442.00   14.52662  15.36258    0.000
 6443.00   14.22210  15.28530    0.000
 6444.00   13.67672  15.29078    0.000
 6445.00   13.30117  15.37644    0.000
 6446.00   13.01374  15.35418    0.000
 6447.00   12.96145  15.33453    0.000
 6448.00   13.01494  15.41346    0.001
 6449.00   12.47190  15.40234    0.001
 6450.00   11.69812  15.34103    0.001
 6451.00   11.62649  15.40314    0.001
 6452.00   11.78589  15.46825    0.001
 6453.00   12.24829  15.44001    0.000
 6454.00   12.79428  15.45481    0.000
 6455.00   12.89079  15.51363    0.000
 6456.00   12.88539  15.48200    0.000
 6457.00   13.01477  15.46173    0.000
 6458.00   13.16858  15.51273    0.000
 6459.00   13.66313  15.52622    0.000
 6460.00   14.20507  15.52984    0.000
 6461.00   14.11681  15.54848    0.000
 6462.00   13.96563  15.52810    0.000
 6463.00   13.41084  15.50051    0.000
 6464.00   12.83057  15.53011    0.000
 6465.00   12.78206  15.52296    0.000
 6466.00   12.74923  15.47149    0.000
 6467.00   12.81649  15.49538    0.000
 6468.00   12.89537  15.50416    0.000
 6469.00   13.29756  15.41761    0.000
 6470.00   13.72350  15.37239    0.000
 6471.00   14.48517  15.40608    0.000
 6472.00   15.14384  15.37095    0.001
 6473.00   14.84810  15.28283    0.001
 6474.00   14.53741  15.26137    0.001
 6475.00   14.12560  15.24947    0.001
 6476.00   13.81217  15.16941    0.000
 6477.00   14.01472  15.09822    0.000
 6478.00   14.18159  15.08771    0.000
 6479.00   14.19779  15.06675    0.000
 6480.00   14.08042  15.00418    0.000
 6481.00   13.49725  14.93945    0.000
 6482.00   12.97900  14.91724    0.000
 6483.00   12.65125  14.90493    0.000
 6484.00   12.37946  14.86858    0.000
 6485.00   12.24768  14.85323    0.000
 6486.00   12.24175  14.87337    0.000
 6487.00   12.50705  14.89000    0.000
 6488.00   12.93471  14.86732    0.000
 6489.00   13.66618  14.87733    0.000
 6490.00   13.99508  14.94296    0.000
 6491.00   13.66619  14.98168    0.000
 6492.00   13.24593  15.00619    0.000
 6493.00   12.69475  15.06931    0.000
 6494.00   12.55064  15.14636    0.000
 6495.00   12.91968  15.16866    0.000
 6496.00   13.14223  15.20092    0.000
 6497.00   13.20206  15.29891    0.001
 6498.00   13.39317  15.35698    0.001
 6499.00   13.71291  15.37066    0.000
 6500.00   13.96133  15.43811    0.000
 6501.00   14.14813  15.52077    0.000
 6502.00   14.19090  15.52277    0.000
 6503.00   14.12406  15.52833    0.000
 6504.00   13.85866  15.61710    0.000
 6505.00   13.46043  15.65634    0.000
 6506.00   12.99552  15.62668    0.000
 6507.00   12.49152  15.66900    0.000
 6508.00   12.23399  15.74540    0.000
 6509.00   12.10236  15.73339    0.000
 6510.00   12.26528  15.71037    0.000
 6511.00   12.55853  15.77688    0.000
 6512.00   12.80621  15.81692    0.000
 6513.00   13.03656  15.77677    0.000
 6514.00   13.39904  15.78865    0.000
 6515.00   13.80416  15.85941    0.000
 6516.00   14.03886  15.86838    0.000
 6517.00   14.22752  15.83938    0.000
 6518.00   14.05657  15.87250    0.000
 6519.00   13.80597  15.91292    0.000
 6520.00   13.82495  15.89058    0.000
 6521.00   13.89148  15.88066    0.000
 6522.00   14.08695  15.92495    0.000
 6523.00   14.29978  15.94398    0.000
 6524.00   14.07490  15.91898    0.000
 6525.00   13.80819  15.91379    0.000
 6526.00   13.29401  15.92512    0.000
 6527.00   12.76519  15.91398    0.000
 6528.00   12.86284  15.89219    0.000
 6529.00   12.97728  15.88753    0.000
 6530.00   13.24470  15.88006    0.000
 6531.00   13.49569  15.84750    0.000
 6532.00   13.33342  15.80632    0.000
 6533.00   13.18120  15.77341    0.000
 6534.00   13.16337  15.74650    0.000
 6535.00   13.17282  15.69296    0.000
 6536.00   13.42522  15.63987    0.000
 6537.00   13.61471  15.61129    0.000
 6538.00   13.39159  15.54262    0.000
 6539.00   13.20219  15.44672    0.000
 6540.00   13.18501  15.41056    0.000
 6541.00   13.38357  15.38206    0.000
 6542.00   14.47261  15.24177    0.000
 6543.00   15.60870  15.13939    0.000
 6544.00   16.90560  15.17728    0.000
 6545.00   17.78131  15.10007    0.000
 6546.00   17.44406  14.91813    0.000
 6547.00   16.86288  14.93356    0.000
 6548.00   15.68189  14.99858    0.000
 6549.00   14.63291  14.79217    0.000
 6550.00   13.86387  14.63767    0.000
 6551.00   13.21954  14.81374    0.000
 6552.00   12.80497  14.84986    0.000
 6553.00   12.89375  14.65121    0.000
 6554.00   13.79276  14.70608    0.000
 6555.00   15.83910  14.89768    0.000
 6556.00   19.50581  14.77133    0.000
 6557.00   24.00048  14.64007    0.000
 6558.00   29.52401  14.87588    0.000
 6559.00   33.06360  15.03513    0.000
 6560.00   34.43025  14.93656    0.000
 6561.00   33.10315  14.98722    0.000
 6562.00   29.17370  15.17862    0.000
 6563.00   24.85563  15.19203    0.000
 6564.00   20.20651  15.16186    0.000
 6565.00   17.22217  15.31408    0.000
 6566.00   15.48683  15.44866    0.000
 6567.00   14.51875  15.45193    0.000
 6568.00   14.05643  15.48180    0.000
 6569.00   13.26320  15.56937    0.000
 6570.00   12.27899  15.63439    0.000
 6571.00   11.83446  15.67388    0.000
 6572.00   11.66128  15.71432    0.000
 6573.00   12.09988  15.74725    0.000
 6574.00   12.80471  15.78840    0.000
 6575.00   13.95344  15.81398    0.000
 6576.00   15.26790  15.80767    0.000
 6577.00   16.94986  15.84271    0.000
 6578.00   18.74818  15.90241    0.000
 6579.00   19.88330  15.89122    0.000
 6580.00   20.84304  15.84682    0.000
 6581.00   20.27220  15.88434    0.000
 6582.00   19.37044  15.93208    0.000
 6583.00   17.71128  15.90462    0.000
 6584.00   15.92221  15.90207    0.000
 6585.00   14.97676  15.94572    0.000
 6586.00   14.14099  15.94222    0.000
 6587.00   13.92576  15.90702    0.000
 6588.00   13.76719  15.93165    0.000
 6589.00   13.43691  15.97345    0.000
 6590.00   13.09715  15.97945    0.000
 6591.00   12.77733  15.99029    0.000
 6592.00   12.45965  15.99783    0.000
 6593.00   12.30411  15.99713    0.000
 6594.00   12.15149  16.02542    0.000
 6595.00   12.06598  16.06182    0.000
 6596.00   12.01969  16.05518    0.000
 6597.00   12.47065  16.06832    0.000
 6598.00   12.89264  16.12964    0.000
 6599.00   13.06632  16.13860    0.000
 6600.00   13.23473  16.10903    0.000
 6601.00   13.36964  16.14894    0.000
 6602.00   13.40289  16.21736    0.000
 6603.00   12.92974  16.19625    0.000
 6604.00   12.40878  16.17496    0.000
 6605.00   11.69484  16.24208    0.000
 6606.00   11.23166  16.28170    0.000
 6607.00   11.60836  16.23672    0.000
 6608.00   12.10359  16.22623    0.000
 6609.00   12.93395  16.28902    0.000
 6610.00   13.47943  16.29251    0.000
 6611.00   13.33630  16.24417    0.000
 6612.00   13.14617  16.25037    0.000
 6613.00   12.85798  16.28861    0.000
 6614.00   12.69288  16.26884    0.000
 6615.00   12.75106  16.22710    0.000
 6616.00   12.51880  16.23613    0.000
 6617.00   11.82596  16.25127    0.000
 6618.00   11.39433  16.22640    0.000
 6619.00   11.32627  16.18779    0.000
 6620.00   11.43428  16.19375    0.000
 6621.00   11.75798  16.21441    0.000
 6622.00   12.14096  16.19717    0.000
 6623.00   12.58798  16.16332    0.000
 6624.00   12.89204  16.17760    0.000
 6625.00   13.05992  16.21064    0.000
 6626.00   13.00635  16.17513    0.000
 6627.00   12.76678  16.14290    0.000
 6628.00   12.67465  16.19132    0.000
 6629.00   12.69153  16.22448    0.000
 6630.00   12.74895  16.17402    0.000
 6631.00   12.83268  16.17389    0.000
 6632.00   12.72108  16.24528    0.000
 6633.00   12.49845  16.23399    0.000
 6634.00   12.70244  16.17953    0.000
 6635.00   13.11754  16.22133    0.000
 6636.00   13.07813  16.27873    0.000
 6637.00   12.84423  16.23608    0.000
 6638.00   12.32981  16.21207    0.000
 6639.00   11.71251  16.26143    0.000
 6640.00   11.46818  16.27255    0.000
 6641.00   11.33966  16.23962    0.000
 6642.00   11.78481  16.24449    0.000
 6643.00   12.37841  16.26504    0.000
 6644.00   12.27670  16.25356    0.000
 6645.00   12.02829  16.24545    0.000
 6646.00   11.77593  16.23759    0.000
 6647.00   11.52291  16.23155    0.000
 6648.00   11.93738  16.24789    0.000
 6649.00   12.43562  16.24924    0.000
 6650.00   12.55455  16.20959    0.000
 6651.00   12.64043  16.21082    0.000
 6652.00   12.60074  16.25701    0.000
 6653.00   12.55461  16.23042    0.000
 6654.00   12.54365  16.18335    0.000
 6655.00   12.53268  16.22905    0.000
 6656.00   12.47608  16.26985    0.000
 6657.00   12.41029  16.20456    0.000
 6658.00   12.15087  16.19287    0.000
 6659.00   11.89995  16.27955    0.000
 6660.00   11.75153  16.27206    0.000
 6661.00   11.59654  16.19232    0.000
 6662.00   11.38728  16.23730    0.000
 6663.00   11.16903  16.32151    0.000
 6664.00   10.89533  16.26379    0.000
 6665.00   10.73277  16.21990    0.000
 6666.00   11.11005  16.30812    0.000
 6667.00   11.46004  16.33953    0.000
 6668.00   11.70229  16.25876    0.000
 6669.00   11.97289  16.27794    0.000
 6670.00   12.33656  16.37501    0.000
 6671.00   12.64600  16.34571    0.000
 6672.00   12.80486  16.27917    0.000
 6673.00   12.79246  16.34525    0.000
 6674.00   12.37303  16.41038    0.000
 6675.00   12.02013  16.35486    0.000
 6676.00   11.80379  16.34475    0.000
 6677.00   11.60413  16.42092    0.000
 6678.00   11.43427  16.42397    0.000
 6679.00   11.42065  16.36505    0.000
 6680.00   11.65118  16.39528    0.000
 6681.00   11.95193  16.45336    0.000
 6682.00   12.34902  16.42372    0.000
 6683.00   12.61835  16.40100    0.000
 6684.00   12.73339  16.44446    0.000
 6685.00   12.84506  16.45993    0.000
 6686.00   12.95313  16.41611    0.000
 6687.00   12.87723  16.41427    0.000
 6688.00   12.62856  16.45351    0.000
 6689.00   12.35010  16.44114    0.000
 6690.00   12.04698  16.40685    0.000
 6691.00   11.97840  16.42300    0.000
 6692.00   12.08079  16.44219    0.000
 6693.00   12.14690  16.40196    0.000
 6694.00   12.18981  16.38422    0.000
 6695.00   12.28996  16.41763    0.000
 6696.00   12.42215  16.40957    0.000
 6697.00   12.26434  16.35880    0.000
 6698.00   11.96530  16.35616    0.000
 6699.00   11.76351  16.38391    0.000
 6700.00   11.60264  16.34505    0.000
 6701.00   11.74561  16.30780    0.000
 6702.00   11.99799  16.34726    0.000
 6703.00   13.04180  16.36396    0.000
 6704.00   14.32659  16.30456    0.000
 6705.00   14.64668  16.28431    0.000
 6706.00   14.72249  16.34097    0.000
 6707.00   14.22031  16.34197    0.000
 6708.00   13.59916  16.29559    0.000
 6709.00   14.51200  16.31616    0.000
 6710.00   15.67319  16.37063    0.000
 6711.00   16.54988  16.35129    0.000
 6712.00   17.39214  16.32493    0.000
 6713.00   17.74344  16.38457    0.000
 6714.00   18.05400  16.42938    0.000
 6715.00   17.39259  16.40539    0.000
 6716.00   16.68511  16.39898    0.000
 6717.00   15.57741  16.45234    0.000
 6718.00   14.47648  16.47394    0.000
 6719.00   14.07375  16.46090    0.000
 6720.00   13.67402  16.48430    0.000
 6721.00   13.33261  16.51253    0.000
 6722.00   13.03548  16.50372    0.000
 6723.00   13.24620  16.50291    0.000
 6724.00   13.60909  16.53679    0.000
 6725.00   15.18409  16.53506    0.000
 6726.00   16.53374  16.51728    0.000
 6727.00   16.53181  16.53585    0.000
 6728.00   16.43369  16.54741    0.000
 6729.00   15.87980  16.51824    0.000
 6730.00   15.27129  16.52382    0.000
 6731.00   14.45173  16.56396    0.000
 6732.00   13.59296  16.54229    0.000
 6733.00   12.60794  16.50502    0.000
 6734.00   11.78296  16.54265    0.000
 6735.00   11.39432  16.58074    0.000
 6736.00   11.18323  16.54232    0.000
 6737.00   11.38702  16.54088    0.000
 6738.00   11.85133  16.59641    0.000
 6739.00   12.84204  16.60247    0.000
 6740.00   13.35462  16.57776    0.000
 6741.00   13.02607  16.61951    0.000
 6742.00   12.91371  16.67011    0.000
 6743.00   13.13416  16.65548    0.000
 6744.00   13.12938  16.66453    0.000
 6745.00   12.82006  16.71892    0.000
 6746.00   12.62134  16.74020    0.000
 6747.00   12.55427  16.73732    0.000
 6748.00   12.76973  16.78329    0.000
 6749.00   13.28178  16.81815    0.000
 6750.00   13.32963  16.80504    0.000
 6751.00   12.94766  16.82667    0.000
 6752.00   12.99151  16.88342    0.000
 6753.00   13.38292  16.89139    0.001
 6754.00   13.40204  16.87465    0.001
 6755.00   13.15372  16.91874    0.001
 6756.00   12.39770  16.95444    0.001
 6757.00   11.32158  16.93116    0.001
 6758.00   10.90780  16.93707    0.001
 6759.00   10.85911  16.99666    0.001
 6760.00   12.12356  17.00737    0.001
 6761.00   14.01732  16.96814    0.001
 6762.00   15.23250  16.98760    0.001
 6763.00   16.16699  17.03868    0.001
 6764.00   16.15260  17.03300    0.001
 6765.00   15.80264  17.00530    0.001
 6766.00   15.19260  17.03194    0.001
 6767.00   14.50493  17.05869    0.001
 6768.00   14.66762  17.03162    0.001
 6769.00   15.04095  17.01889    0.001
 6770.00   15.09100  17.05478    0.001
 6771.00   15.07616  17.06815    0.001
 6772.00   14.62411  17.02834    0.001
 6773.00   14.10336  17.01809    0.001
 6774.00   14.16788  17.05210    0.001
 6775.00   14.30067  17.05358    0.001
 6776.00   13.52873  17.02280    0.001
 6777.00   12.68546  17.03205    0.001
 6778.00   12.45634  17.06367    0.001
 6779.00   12.25397  17.04626    0.001
 6780.00   12.51299  17.03181    0.001
 6781.00   12.76642  17.06899    0.001
 6782.00   12.53384  17.09075    0.001
 6783.00   12.28822  17.06585    0.001
 6784.00   11.80643  17.07470    0.001
 6785.00   11.40308  17.11823    0.001
 6786.00   11.85834  17.11695    0.001
 6787.00   12.34702  17.11332    0.001
 6788.00   13.09274  17.15317    0.001
 6789.00   13.80889  17.17496    0.001
 6790.00   14.35272  17.15832    0.001
 6791.00   14.80242  17.18480    0.001
 6792.00   14.81683  17.23418    0.001
 6793.00   14.82518  17.22352    0.001
 6794.00   14.81061  17.20851    0.001
 6795.00   14.66797  17.25963    0.001
 6796.00   14.12090  17.29355    0.001
 6797.00   13.74186  17.26564    0.001
 6798.00   13.81285  17.27732    0.001
 6799.00   14.01295  17.33047    0.001
 6800.00   14.50969  17.33282    0.001
 6801.00   14.82896  17.31586    0.001
 6802.00   14.79528  17.35323    0.001
 6803.00   14.68802  17.39343    0.001
 6804.00   14.45328  17.38032    0.001
 6805.00   13.83110  17.37553    0.001
 6806.00   12.62124  17.41854    0.001
 6807.00   12.01657  17.44260    0.001
 6808.00   12.21844  17.43539    0.001
 6809.00   12.34995  17.45181    0.001
 6810.00   12.39890  17.47840    0.001
 6811.00   12.53060  17.47970    0.001
 6812.00   12.74794  17.48696    0.001
 6813.00   12.91357  17.51757    0.001
 6814.00   13.03199  17.52785    0.001
 6815.00   12.94104  17.51621    0.001
 6816.00   12.68163  17.52896    0.001
 6817.00   12.05611  17.55419    0.001
 6818.00   11.17140  17.54249    0.001
 6819.00   11.25879  17.52693    0.001
 6820.00   11.95000  17.54851    0.001
 6821.00   12.81446  17.56175    0.001
 6822.00   13.77295  17.53592    0.001
 6823.00   14.17883  17.52364    0.001
 6824.00   14.32415  17.54946    0.001
 6825.00   13.51699  17.55022    0.001
 6826.00   12.32254  17.51941    0.001
 6827.00   12.31060  17.51852    0.001
 6828.00   12.70923  17.53845    0.001
 6829.00   13.71282  17.52044    0.001
 6830.00   14.89341  17.49537    0.001
 6831.00   14.67992  17.51172    0.001
 6832.00   14.12875  17.52541    0.001
 6833.00   13.53454  17.50013    0.001
 6834.00   12.93191  17.48953    0.001
 6835.00   12.60019  17.52298    0.001
 6836.00   12.30977  17.52180    0.001
 6837.00   13.22698  17.48765    0.001
 6838.00   14.27973  17.50504    0.001
 6839.00   13.59582  17.54115    0.001
 6840.00   12.78210  17.51007    0.001
 6841.00   12.13449  17.47585    0.001
 6842.00   11.49347  17.51943    0.001
 6843.00   11.08568  17.55031    0.001
 6844.00   10.72975  17.50391    0.001
 6845.00   12.37244  17.48682    0.001
 6846.00   13.87268  17.53923    0.001
 6847.00   12.96654  17.53549    0.001
 6848.00   12.14853  17.49192    0.001
 6849.00   12.25241  17.53345    0.001
 6850.00   12.31485  17.57648    0.001
 6851.00   12.06931  17.52390    0.001
 6852.00   11.93212  17.50492    0.001
 6853.00   12.40902  17.58345    0.001
 6854.00   12.76366  17.60329    0.001
 6855.00   12.56628  17.55608    0.000
 6856.00   12.48847  17.58723    0.000
 6857.00   12.85328  17.64557    0.001
 6858.00   13.21370  17.61341    0.001
 6859.00   13.56053  17.60947    0.001
 6860.00   13.75705  17.69972    0.001
 6861.00   13.55811  17.72132    0.001
 6862.00   13.22059  17.66674    0.001
 6863.00   12.56990  17.70802    0.001
 6864.00   12.15518  17.80139    0.001
 6865.00   12.20237  17.79081    0.001
 6866.00   12.15829  17.77415    0.001
 6867.00   11.95846  17.84832    0.001
 6868.00   11.83889  17.89557    0.001
 6869.00   11.83926  17.87316    0.001
 6870.00   11.90930  17.91491    0.001
 6871.00   12.07085  17.98780    0.001
 6872.00   12.27101  17.98453    0.001
 6873.00   12.51585  17.98473    0.001
 6874.00   12.70707  18.06425    0.001
 6875.00   12.84356  18.10844    0.000
 6876.00   12.66019  18.08990    0.000
 6877.00   12.18891  18.13650    0.000
 6878.00   11.79155  18.20891    0.000
 6879.00   11.45282  18.20670    0.000
 6880.00   11.71621  18.21220    0.000
 6881.00   12.39972  18.29093    0.000
 6882.00   12.89284  18.32244    0.001
 6883.00   13.26945  18.29646    0.001
 6884.00   13.28317  18.34009    0.001
 6885.00   13.10297  18.41341    0.001
 6886.00   12.36918  18.40329    0.001
 6887.00   11.37856  18.38826    0.000
 6888.00   11.05244  18.45792    0.001
 6889.00   10.99191  18.50257    0.001
 6890.00   11.54344  18.46685    0.001
 6891.00   12.30357  18.47247    0.001
 6892.00   12.51290  18.53984    0.001
 6893.00   12.56433  18.55443    0.001
 6894.00   12.79142  18.52468    0.001
 6895.00   13.06011  18.54275    0.001
 6896.00   13.08088  18.57952    0.001
 6897.00   13.05439  18.57776    0.001
 6898.00   12.55446  18.57095    0.001
 6899.00   11.98457  18.58680    0.001
 6900.00   12.12949  18.58970    0.001
 6901.00   12.35153  18.58437    0.001
 6902.00   12.39245  18.59933    0.001
 6903.00   12.42056  18.60041    0.001
 6904.00   11.57652  18.58106    0.000
 6905.00   10.70118  18.59214    0.000
 6906.00   10.99130  18.61593    0.001
 6907.00   11.27847  18.59552    0.001
 6908.00   11.33039  18.57999    0.001
 6909.00   11.40780  18.60963    0.001
 6910.00   11.88869  18.62494    0.001
 6911.00   12.35063  18.59380    0.001
 6912.00   12.62268  18.59033    0.001
 6913.00   12.69819  18.63651    0.001
 6914.00   11.36113  18.64077    0.001
 6915.00   10.40873  18.60000    0.000
 6916.00   11.57746  18.61049    0.001
 6917.00   12.52113  18.66982    0.001
 6918.00   12.47245  18.67432    0.001
 6919.00   12.36902  18.63333    0.001
 6920.00   12.06714  18.65059    0.000
 6921.00   11.69826  18.71108    0.000
 6922.00   11.12576  18.71366    0.000
 6923.00   10.76345  18.67509    0.000
 6924.00   10.94445  18.70087    0.001
 6925.00   11.00634  18.75716    0.001
 6926.00   10.80352  18.74980    0.001
 6927.00   10.84922  18.72288    0.001
 6928.00   11.37374  18.75710    0.001
 6929.00   11.80221  18.80048    0.001
 6930.00   12.06924  18.78406    0.001
 6931.00   12.36983  18.77061    0.001
 6932.00   12.71986  18.81255    0.001
 6933.00   12.71256  18.84442    0.001
 6934.00   12.24255  18.82263    0.001
 6935.00   12.29047  18.82366    0.001
 6936.00   12.92924  18.86911    0.001
 6937.00   13.03591  18.88642    0.001
 6938.00   12.60722  18.87870    0.001
 6939.00   12.58933  18.90749    0.001
 6940.00   12.93600  18.94013    0.001
 6941.00   12.79959  18.93821    0.001
 6942.00   12.28545  18.95564    0.001
 6943.00   12.48234  19.00631    0.001
 6944.00   13.16815  19.02381    0.001
 6945.00   13.20412  19.01775    0.001
 6946.00   12.84836  19.05274    0.001
 6947.00   12.80212  19.10903    0.001
 6948.00   12.91870  19.11532    0.001
 6949.00   13.23502  19.10781    0.001
 6950.00   13.64251  19.15396    0.001
 6951.00   13.25230  19.20452    0.001
 6952.00   12.54878  19.18913    0.001
 6953.00   12.56578  19.17443    0.001
 6954.00   12.82379  19.22915    0.001
 6955.00   13.05093  19.27528    0.001
 6956.00   13.26942  19.23839    0.001
 6957.00   13.02276  19.20492    0.001
 6958.00   12.66847  19.26222    0.001
 6959.00   12.67517  19.31487    0.001
 6960.00   12.74889  19.25784    0.001
 6961.00   12.73307  19.20536    0.001
 6962.00   12.70444  19.27436    0.001
 6963.00   12.24385  19.32918    0.001
 6964.00   11.73852  19.24870    0.001
 6965.00   11.80526  19.20193    0.001
 6966.00   11.91012  19.29697    0.001
 6967.00   12.49167  19.34011    0.001
 6968.00   13.08834  19.25613    0.001
 6969.00   12.87603  19.24594    0.001
 6970.00   12.65458  19.34980    0.001
 6971.00   12.15328  19.36598    0.001
 6972.00   11.70361  19.30119    0.001
 6973.00   12.02251  19.33594    0.001
 6974.00   12.30108  19.42682    0.001
 6975.00   12.19237  19.41141    0.001
 6976.00   12.09705  19.37254    0.001
 6977.00   12.09489  19.43393    0.001
 6978.00   12.13442  19.49699    0.001
 6979.00   12.39773  19.46786    0.001
 6980.00   12.65199  19.45724    0.001
 6981.00   12.86726  19.51176    0.001
 6982.00   12.80119  19.53225    0.001
 6983.00   11.73624  19.51225    0.001
 6984.00   10.97082  19.53701    0.001
 6985.00   11.09867  19.56127    0.001
 6986.00   11.26257  19.52927    0.001
 6987.00   11.51807  19.52190    0.001
 6988.00   11.68027  19.57916    0.001
 6989.00   11.63850  19.58513    0.001
 6990.00   11.42670  19.51940    0.001
 6991.00   10.89239  19.52007    0.001
 6992.00   10.89170  19.58998    0.001
 6993.00   11.77447  19.58238    0.001
 6994.00   12.66683  19.50974    0.001
 6995.00   13.57311  19.53064    0.001
 6996.00   14.18170  19.60718    0.001
 6997.00   14.41034  19.57752    0.001
 6998.00   14.15183  19.49788    0.001
 6999.00   13.34542  19.54766    0.001
 7000.00   12.90332  19.64434    0.001
 7001.00   12.82261  19.59579    0.001
 7002.00   12.71854  19.49621    0.001
 7003.00   12.59404  19.56649    0.001
 7004.00   12.74730  19.68962    0.001
 7005.00   13.11467  19.63518    0.001
 7006.00   12.63250  19.54448    0.001
 7007.00   11.57468  19.63805    0.001
 7008.00   11.35643  19.75119    0.001
 7009.00   11.63668  19.68024    0.001
 7010.00   11.30257  19.61938    0.001
 7011.00   10.65030  19.73771    0.001
 7012.00   10.62103  19.82779    0.001
 7013.00   10.87144  19.75455    0.001
 7014.00   11.68635  19.74259    0.001
 7015.00   12.71912  19.87308    0.001
 7016.00   12.27523  19.91947    0.001
 7017.00   11.34666  19.85400    0.001
 7018.00   10.96654  19.89898    0.001
 7019.00   10.73729  20.02281    0.001
 7020.00   11.19678  20.01728    0.001
 7021.00   11.81197  19.97618    0.001
 7022.00   11.70827  20.08070    0.001
 7023.00   11.47468  20.17526    0.001
 7024.00   11.33873  20.11832    0.001
 7025.00   11.21630  20.10816    0.001
 7026.00   11.40050  20.23710    0.001
 7027.00   11.61515  20.28404    0.001
 7028.00   11.77355  20.22164    0.001
 7029.00   11.92843  20.24873    0.001
 7030.00   11.81475  20.34121    0.001
 7031.00   11.69304  20.31870    0.001
 7032.00   11.46521  20.26554    0.001
 7033.00   11.25284  20.31414    0.001
 7034.00   11.46532  20.35113    0.001
 7035.00   11.64807  20.27750    0.001
 7036.00   11.41337  20.23112    0.001
 7037.00   11.24299  20.26528    0.001
 7038.00   11.66562  20.23904    0.001
 7039.00   11.99409  20.14115    0.001
 7040.00   11.68809  20.10250    0.001
 7041.00   11.47702  20.09537    0.001
 7042.00   11.76221  20.02347    0.001
 7043.00   12.19674  19.94607    0.001
 7044.00   13.26007  19.92209    0.001
 7045.00   13.99587  19.87193    0.001
 7046.00   13.59237  19.77444    0.001
 7047.00   13.43475  19.72789    0.001
 7048.00   13.99676  19.72039    0.001
 7049.00   14.05333  19.65958    0.001
 7050.00   12.84814  19.57228   -2.000
 7051.00   12.06964  19.55365   -2.000
 7052.00   12.20890  19.56294   -2.000
 7053.00   12.66342  19.51742   -2.000
 7054.00   13.70666  19.44941   -2.000
 7055.00   14.30626  19.45007   -2.000
 7056.00   14.18231  19.48035   -2.000
 7057.00   13.59069  19.45486   -2.000
 7058.00   12.33010  19.40670   -2.000
 7059.00   11.73981  19.42129   -2.000
 7060.00   11.99294  19.46009   -2.000
 7061.00   12.02262  19.43448   -2.000
 7062.00   11.80454  19.38994   -2.000
 7063.00   11.44571  19.41005   -2.000
 7064.00   10.94923  19.45057   -2.000
 7065.00   10.74182  19.41085   -2.000
 7066.00   10.78376  19.34675   -2.000
 7067.00   12.08971  19.35663   -2.000
 7068.00   14.35602  19.39280   -2.000
 7069.00   14.37797  19.33667   -2.000
 7070.00   12.90128  19.25069   -2.000
 7071.00   13.91995  19.24624   -2.000
 7072.00   16.39800  19.26684   -2.000
 7073.00   16.36047  19.20073   -2.000
 7074.00   15.04049  19.11712   -2.000
 7075.00   14.23971  19.10579   -2.000
 7076.00   13.66818  19.10678   -2.000
 7077.00   13.20763  19.04266   -2.000
 7078.00   12.78916  18.97987   -2.000
 7079.00   12.83949  18.97741   -2.000
 7080.00   13.04076  18.96932   -2.000
 7081.00   14.11283  18.91636   -2.000
 7082.00   15.41947  18.88386   -2.000
 7083.00   14.52023  18.90660   -2.000
 7084.00   13.13394  18.89776   -2.000
 7085.00   12.22365  18.84926   -2.000
 7086.00   11.39703  18.84863   -2.000
 7087.00   12.11250  18.90505   -2.000
 7088.00   13.03456  18.89920   -2.000
 7089.00   13.05536  18.84765   -2.000
 7090.00   12.99053  18.87267   -2.000
 7091.00   12.36965  18.95181   -2.000
 7092.00   11.71616  18.94178   -2.000
 7093.00   12.07905  18.88758   -2.000
 7094.00   12.46318  18.93357   -2.000
 7095.00   12.32920  19.01734   -2.000
 7096.00   12.15840  18.99097   -2.000
 7097.00   11.07230  18.93974   -2.000
 7098.00   10.04866  19.00686   -2.000
 7099.00    9.85450  19.07687   -2.000
 7100.00    9.74300  19.01888   -2.000
 7101.00   10.36408  18.97740   -2.000
 7102.00   11.07794  19.06584   -2.000
 7103.00   12.39798  19.10978   -2.000
 7104.00   13.56893  19.01379   -2.000
 7105.00   13.98048  18.98619   -2.000
 7106.00   13.84521  19.09411   -2.000
 7107.00   11.45929  19.10847   -2.000
 7108.00    9.68247  18.98518   -2.000
 7109.00    9.98190  18.96662   -2.000
 7110.00   10.50030  19.07648   -2.000
 7111.00   11.64787  19.07382   -2.000
 7112.00   12.57400  18.95186   -2.000
 7113.00   12.95682  18.93712   -2.000
 7114.00   12.86685  19.02936   -2.000
 7115.00   11.77640  19.02293   -2.000
 7116.00   11.12741  18.93181   -2.000
 7117.00   11.29016  18.92159   -2.000
 7118.00   11.63615  18.98602   -2.000
 7119.00   12.27657  18.99183   -2.000
 7120.00   12.14304  18.94181   -2.000
 7121.00   10.91846  18.93012   -2.000
 7122.00   11.35393  18.97203   -2.000
 7123.00   13.84851  19.00119   -2.000
 7124.00   14.75727  18.99036   -2.000
 7125.00   13.93223  18.97322   -2.000
 7126.00   12.86037  18.99718   -2.000
 7127.00   11.55049  19.05480   -2.000
 7128.00   10.70299  19.07402   -2.000
 7129.00   10.24869  19.04079   -2.000
 7130.00   11.22170  19.05419   -2.000
 7131.00   13.26361  19.14700   -2.000
 7132.00   13.91519  19.18038   -2.000
 7133.00   13.65199  19.11970   -2.000
 7134.00   12.25969  19.13321   -2.000
 7135.00   10.21702  19.25943   -2.000
 7136.00   10.71155  19.29558   -2.000
 7137.00   12.47921  19.21179   -2.000
 7138.00   12.63896  19.22613   -2.000
 7139.00   12.10049  19.36649   -2.000
 7140.00   12.43530  19.40388   -2.000
 7141.00   13.09542  19.31875   -2.000
 7142.00   12.44726  19.33311   -2.000
 7143.00   11.38585  19.45883   -2.000
 7144.00   11.83111  19.49328   -2.000
 7145.00   12.67369  19.42900   -2.000
 7146.00   12.44366  19.44756   -2.000
 7147.00   11.98242  19.54608   -2.000
 7148.00   12.18288  19.57508   -2.000
 7149.00   12.49642  19.53641   -2.000
 7150.00   11.81666  19.55399   -2.000
 7151.00   11.00833  19.62350   -2.000
 7152.00   11.63897  19.65726   -2.000
 7153.00   12.40027  19.64462   -2.000
 7154.00   13.01299  19.64682   -2.000
 7155.00   13.61757  19.68674   -2.000
 7156.00   12.38435  19.73796   -2.000
 7157.00   11.11253  19.75110   -2.000
 7158.00    9.83257  19.72804   -2.000
 7159.00    8.66933  19.73999   -2.000
 7160.00   10.15551  19.80852   -2.000
 7161.00   11.82228  19.83575   -2.000
 7162.00   15.76348  19.78650   -2.000
 7163.00   18.89345  19.78214   -2.000
 7164.00   15.10259  19.86414   -2.000
 7165.00   11.68583  19.89083   -2.000
 7166.00   10.64004  19.81738   -2.000
 7167.00   10.31135  19.80203   -2.000
 7168.00   13.54319  19.88912   -2.000
 7169.00   16.12809  19.91788   -2.000
 7170.00   16.10897  19.83612   -2.000
 7171.00   15.77175  19.80865   -2.000
 7172.00   14.37173  19.88992   -2.000
 7173.00   12.73965  19.92515   -2.000
 7174.00   10.45297  19.85334   -2.000
 7175.00    9.26552  19.82013   -2.000
 7176.00   10.72946  19.88875   -2.000
 7177.00   11.39384  19.93002   -2.000
 7178.00   10.39335  19.87773   -2.000
 7179.00   10.36894  19.84871   -2.000
 7180.00   12.11178  19.90706   -2.000
 7181.00   12.86799  19.95127   -2.000
 7182.00   12.06249  19.91789   -2.000
 7183.00   11.49651  19.89445   -2.000
 7184.00   11.26333  19.94638   -2.000
 7185.00   10.50376  19.99820   -2.000
 7186.00    9.10054  19.98037   -2.000
 7187.00    9.53120  19.95726   -2.000
 7188.00   11.93871  20.00234   -2.000
 7189.00   12.23798  20.05859   -2.000
 7190.00   10.53271  20.05475   -2.000
 7191.00   10.50357  20.03745   -2.000
 7192.00   11.87963  20.07798   -2.000
 7193.00   11.64152  20.13220   -2.000
 7194.00   10.21191  20.13613   -2.000
 7195.00    9.86575  20.12969   -2.000
 7196.00   10.22200  20.17594   -2.000
 7197.00   10.49247  20.22878   -2.000
 7198.00   10.71429  20.23640   -2.000
 7199.00   11.22231  20.24504   -2.000
 7200.00   11.87167  20.30049   -2.000
 7201.00   12.70271  20.35201   -2.000
 7202.00   13.61134  20.36370   -2.000
 7203.00   13.24250  20.39056   -2.000
 7204.00   12.40627  20.45830   -2.000
 7205.00   10.91687  20.50578   -2.000
 7206.00    9.22513  20.51909   -2.000
 7207.00    9.88961  20.56513   -2.000
 7208.00   11.16223  20.64576   -2.000
 7209.00   10.70156  20.68668   -2.000
 7210.00    9.87628  20.69555   -2.000
 7211.00   10.45115  20.75672   -2.000
 7212.00   11.25857  20.84924   -2.000
 7213.00   12.00665  20.88190   -2.000
 7214.00   12.74731  20.87912   -2.000
 7215.00   13.11830  20.94539   -2.000
 7216.00   13.45728  21.04897   -2.000
 7217.00   12.66120  21.07425   -2.000
 7218.00   11.80746  21.05568   -2.000
