###################################################################
## OUTPUT of StarlightChains_v04.for    [Cid@UFSC - 01/Apr/2007] ##
###################################################################

## Some input info
KUG0210-078._28_30.txt                   [arq_obs]
Base.CB07.vall.4m                        [arq_base]
Masks.EmLines.NEW.gm                     [arq_masks]
StCv04.C11.config                        [arq_config]
   66                                    [N_base]
    0                                    [N_YAV_components = # of components with extra extinction!]
    0                                    [i_FitPowerLaw (1/0 = Yes/No)]
-9.99                                    [alpha_PowerLaw]
CCM                                      [red_law_option]
 1.458241                                [q_norm = A(l_norm)/A(V)]

## (Re)Sampling Parameters
 3741.00                                 [l_ini (A)]
 7218.00                                 [l_fin (A)]
    1.00                                 [dl    (A)]     (OBS: dl_cushion =    50.00 A)

## Normalization info
 4020.00                                 [l_norm (A) - for base]
 4010.00                                 [llow_norm (A) - window for f_obs]
 4060.00                                 [lupp_norm (A) - window for f_obs]
4.338516E-17                             [fobs_norm (in input units)]

## S/N
 3691.00                                 [llow_SN (A) - window for S/N]
 7268.00                                 [lupp_SN (A) - window for S/N]
   6.138                                 [S/N in S/N window]
   8.070                                 [S/N in norm. window]
   0.057                                 [S/N_err in S/N window]
   0.075                                 [S/N_err in norm. window]
  1.0000                                 [fscale_chi2]

## etc...
    -2007378                             [idum_orig]
  2431                                   [NOl_eff]
  1941                                   [Nl_eff]
   490    NSIGMA                         [Ntot_cliped & clip_method]
 15193220                                [Nglobal_steps]
   7                                     [N_chains]
  14                                     [NEX0s_base = N_base in EX0s-fits]
 0   0   1        0   2.0   4.288E+04    [Clip-Bug, RC-Crash & Burn-In warning-flags, n_censored_weights, wei_nsig_threshold & wei_limit]
   107    106.238    105.528      0.709  [idt_all, wdt_TotTime, wdt_UsrTime & wdt_SysTime (sec)]

## Synthesis Results - Best model ##

 5.09851E-05                             [chi2/Nl_eff]
     8.17783                             [adev (%)]

    82.24728                             [sum-of-x (%)]
 3.48023E-17                             [Flux_tot (units of input spectrum!)]
 1.05020E-12                             [Mini_tot (???)]
 5.30932E-13                             [Mcor_tot (???)]

 194.66                                  [v0_min  (km/s)]
 214.78                                  [vd_min  (km/s)]
-0.0186                                  [AV_min  (mag)]
 0.0000                                  [YAV_min (mag)]

# j     x_j(%)      Mini_j(%)     Mcor_j(%)     age_j(yr)     Z_j      (L/M)_j    YAV?  Mstars   component_j        a/Fe...       SSP_chi2r SSP_adev(%)   SSP_AV   SSP_x(%)
  1      0.0000     0.0000E+00    0.0000E+00    1.000000E+06  0.00400  1.094E-02    0   1.0000   age020_m42            0.0000     7.8042E-05    11.1604   3.2195    64.2022
  2      0.0000     0.0000E+00    0.0000E+00    3.160000E+06  0.00400  4.007E-02    0   0.9999   age045_m42            0.0000     6.5307E-05    10.1491   2.4044    71.3142
  3      0.0000     0.0000E+00    0.0000E+00    5.010000E+06  0.00400  2.539E-02    0   0.9488   age055_m42            0.0000     6.9284E-05    10.4808   2.7621    68.4358
  4      0.0000     0.0000E+00    0.0000E+00    6.610000E+06  0.00400  2.620E-02    0   0.9220   age061_m42            0.0000     6.4639E-05     9.9074   2.3208    71.7830
  5      0.0000     0.0000E+00    0.0000E+00    1.000000E+07  0.00400  1.322E-02    0   0.8862   age070_m42            0.0000     6.1554E-05     9.5023   2.0628    72.7002
  6      0.0000     0.0000E+00    0.0000E+00    1.445000E+07  0.00400  7.883E-03    0   0.8571   age078_m42            0.0000     6.4997E-05     9.8593   2.4145    70.0516
  7      0.0000     0.0000E+00    0.0000E+00    2.512000E+07  0.00400  5.251E-03    0   0.8174   age090_m42            0.0000     6.0471E-05     9.3994   1.9312    73.1839
  8      0.0000     0.0000E+00    0.0000E+00    4.000000E+07  0.00400  3.649E-03    0   0.7851   age104_m42            0.0000     5.8381E-05     9.1814   1.6850    74.4091
  9      0.0000     0.0000E+00    0.0000E+00    5.500000E+07  0.00400  3.098E-03    0   0.7629   age110_m42            0.0000     5.8658E-05     9.0938   1.8070    75.3390
 10      0.0000     0.0000E+00    0.0000E+00    1.015200E+08  0.00400  2.228E-03    0   0.7207   age116_m42            0.0000     6.0688E-05     9.1033   1.8033    76.2292
 11      0.0000     0.0000E+00    0.0000E+00    2.861200E+08  0.00400  1.093E-03    0   0.6648   age125_m42            0.0000     5.7577E-05     8.4815   1.2173    79.1969
 12      0.3303     2.0175E-02    2.5400E-02    5.088000E+08  0.00400  6.597E-04    0   0.6365   age130_m42            0.0000     6.1068E-05     8.5705   1.1752    80.9097
 13     11.0975     2.0973E+00    2.4053E+00    1.434000E+09  0.00400  2.132E-04    0   0.5798   age139_m42            0.0000     5.3595E-05     8.1638   0.1853    83.3607
 14      4.2384     2.8969E+00    3.0811E+00    4.250000E+09  0.00400  5.895E-05    0   0.5377   age158_m42            0.0000     5.1855E-05     8.6074  -0.2027    78.2872
 15      0.0000     0.0000E+00    0.0000E+00    7.500000E+09  0.00400  3.510E-05    0   0.5212   age171_m42            0.0000     5.2437E-05     8.6605  -0.3982    77.9701
 16     27.1018     5.4463E+01    5.4231E+01    1.300000E+10  0.00400  2.005E-05    0   0.5034   age193_m42            0.0000     5.4246E-05     8.7963  -0.5726    77.8459
 17      0.0000     0.0000E+00    0.0000E+00    1.800000E+10  0.00400  1.525E-05    0   0.4967   age213_m42            0.0000     5.3915E-05     8.7566  -0.5855    77.1913
 18      0.0000     0.0000E+00    0.0000E+00    1.000000E+06  0.00800  1.238E-02    0   1.0000   age020_m52            0.0000     7.7925E-05    11.1656   3.2154    64.3471
 19      0.0000     0.0000E+00    0.0000E+00    3.160000E+06  0.00800  3.074E-02    0   0.9966   age045_m52            0.0000     7.6665E-05    11.0871   3.1303    65.1617
 20      0.0000     0.0000E+00    0.0000E+00    5.010000E+06  0.00800  2.668E-02    0   0.9443   age055_m52            0.0000     7.0896E-05    10.5847   2.8558    67.5263
 21      0.0000     0.0000E+00    0.0000E+00    6.610000E+06  0.00800  2.136E-02    0   0.9177   age061_m52            0.0000     6.0767E-05     9.5361   1.5831    72.9683
 22      0.0000     0.0000E+00    0.0000E+00    1.000000E+07  0.00800  1.215E-02    0   0.8827   age070_m52            0.0000     6.3081E-05     9.6177   2.2669    71.7956
 23      0.0000     0.0000E+00    0.0000E+00    1.445000E+07  0.00800  8.717E-03    0   0.8552   age078_m52            0.0000     6.3689E-05     9.7247   2.3725    71.2884
 24      0.0000     0.0000E+00    0.0000E+00    2.512000E+07  0.00800  5.592E-03    0   0.8162   age090_m52            0.0000     5.9297E-05     9.2526   1.9942    74.1164
 25      0.0000     0.0000E+00    0.0000E+00    4.000000E+07  0.00800  3.896E-03    0   0.7841   age104_m52            0.0000     5.7073E-05     8.9612   1.8846    75.3496
 26      0.0000     0.0000E+00    0.0000E+00    1.015200E+08  0.00800  2.148E-03    0   0.7226   age116_m52            0.0000     5.8318E-05     8.9299   1.7915    76.2052
 27     28.3081     1.1492E+00    1.5191E+00    2.861200E+08  0.00800  9.925E-04    0   0.6683   age125_m52            0.0000     6.0251E-05     8.4833   1.2373    81.7804
 28      0.0000     0.0000E+00    0.0000E+00    9.047900E+08  0.00800  3.141E-04    0   0.6138   age135_m52            0.0000     5.7440E-05     8.2068   0.4287    85.4575
 29      0.0000     0.0000E+00    0.0000E+00    1.434000E+09  0.00800  1.719E-04    0   0.5853   age139_m52            0.0000     5.0716E-05     8.0918  -0.1246    82.9369
 30      0.0000     0.0000E+00    0.0000E+00    2.500000E+09  0.00800  7.872E-05    0   0.5600   age150_m52            0.0000     5.2780E-05     8.5473  -0.3951    80.6042
 31      0.0000     0.0000E+00    0.0000E+00    4.250000E+09  0.00800  4.336E-05    0   0.5426   age158_m52            0.0000     5.2691E-05     8.5762  -0.3994    79.4666
 32      0.0000     0.0000E+00    0.0000E+00    6.250000E+09  0.00800  3.159E-05    0   0.5319   age166_m52            0.0000     5.6621E-05     8.8751  -0.6274    80.2932
 33      0.0000     0.0000E+00    0.0000E+00    1.300000E+10  0.00800  1.361E-05    0   0.5073   age193_m52            0.0000     6.5825E-05     9.8115  -1.0000    77.6733
 34      0.0000     0.0000E+00    0.0000E+00    1.800000E+10  0.00800  9.886E-06    0   0.4990   age213_m52            0.0000     7.8910E-05    10.9552  -1.0000    74.7091
 35      0.0000     0.0000E+00    0.0000E+00    1.000000E+06  0.02000  1.544E-02    0   1.0000   age020_m62            0.0000     7.8570E-05    11.1999   3.2125    64.4749
 36      0.0000     0.0000E+00    0.0000E+00    3.160000E+06  0.02000  3.762E-02    0   0.9858   age045_m62            0.0000     7.8506E-05    11.1659   3.1456    65.2177
 37      0.0000     0.0000E+00    0.0000E+00    5.010000E+06  0.02000  3.296E-02    0   0.9342   age055_m62            0.0000     6.8105E-05    10.3330   2.6940    70.1376
 38      0.0000     0.0000E+00    0.0000E+00    8.710000E+06  0.02000  1.154E-02    0   0.8861   age067_m62            0.0000     7.7122E-05    10.4455   1.7960    71.5584
 39      0.0000     0.0000E+00    0.0000E+00    1.445000E+07  0.02000  7.663E-03    0   0.8472   age078_m62            0.0000     6.2948E-05     9.5427   1.9358    72.8520
 40      0.0000     0.0000E+00    0.0000E+00    2.512000E+07  0.02000  4.532E-03    0   0.8099   age090_m62            0.0000     6.1974E-05     9.4014   1.9202    72.9250
 41      0.0000     0.0000E+00    0.0000E+00    5.500000E+07  0.02000  2.733E-03    0   0.7595   age110_m62            0.0000     5.8318E-05     9.0275   1.8736    74.6454
 42      0.0000     0.0000E+00    0.0000E+00    1.609000E+08  0.02000  1.369E-03    0   0.6985   age120_m62            0.0000     6.0476E-05     8.6940   1.6334    79.2651
 43      0.0000     0.0000E+00    0.0000E+00    2.861200E+08  0.02000  9.013E-04    0   0.6714   age125_m62            0.0000     6.4497E-05     8.5692   1.3310    83.3120
 44      0.0000     0.0000E+00    0.0000E+00    5.088000E+08  0.02000  5.028E-04    0   0.6449   age130_m62            0.0000     6.8056E-05     8.7143   0.9327    86.0776
 45      0.0000     0.0000E+00    0.0000E+00    9.047900E+08  0.02000  2.428E-04    0   0.6179   age135_m62            0.0000     5.7790E-05     8.4533   0.3909    83.9892
 46      0.0000     0.0000E+00    0.0000E+00    1.434000E+09  0.02000  1.263E-04    0   0.5908   age139_m62            0.0000     5.2935E-05     8.4105  -0.0349    82.1595
 47      0.0000     0.0000E+00    0.0000E+00    2.500000E+09  0.02000  5.985E-05    0   0.5673   age150_m62            0.0000     5.5683E-05     8.7918  -0.4097    81.2565
 48      0.0000     0.0000E+00    0.0000E+00    4.250000E+09  0.02000  3.271E-05    0   0.5468   age158_m62            0.0000     6.4943E-05     9.4711  -0.7565    81.9384
 49      0.2055     6.0877E-01    6.2219E-01    1.000000E+10  0.02000  1.360E-05    0   0.5167   age181_m62            0.0000     8.1583E-05    10.5471  -1.0000    79.1369
 50      0.0000     0.0000E+00    0.0000E+00    1.800000E+10  0.02000  7.124E-06    0   0.5013   age213_m62            0.0000     1.0661E-04    12.1758  -1.0000    73.2121
 51      0.0000     0.0000E+00    0.0000E+00    1.000000E+06  0.05000  2.592E-02    0   0.9998   age020_m72            0.0000     7.9795E-05    11.2892   3.2136    64.2358
 52      0.0000     0.0000E+00    0.0000E+00    3.160000E+06  0.05000  4.845E-02    0   0.9577   age045_m72            0.0000     7.4195E-05    10.8734   2.9992    66.9180
 53      0.0000     0.0000E+00    0.0000E+00    5.010000E+06  0.05000  3.072E-02    0   0.9147   age055_m72            0.0000     6.7149E-05     9.9316   2.5410    69.4589
 54      0.0000     0.0000E+00    0.0000E+00    6.610000E+06  0.05000  1.455E-02    0   0.8877   age061_m72            0.0000     8.6328E-05    11.2701   1.8855    71.1733
 55      0.0000     0.0000E+00    0.0000E+00    1.000000E+07  0.05000  9.074E-03    0   0.8524   age070_m72            0.0000     6.7170E-05     9.9684   2.7347    69.2123
 56      0.0000     0.0000E+00    0.0000E+00    2.512000E+07  0.05000  4.250E-03    0   0.7902   age090_m72            0.0000     6.0874E-05     9.3655   2.3821    71.9131
 57      0.0000     0.0000E+00    0.0000E+00    4.000000E+07  0.05000  3.087E-03    0   0.7618   age104_m72            0.0000     5.9245E-05     9.1553   2.1368    73.7233
 58      0.0000     0.0000E+00    0.0000E+00    1.015200E+08  0.05000  1.700E-03    0   0.7096   age116_m72            0.0000     5.9145E-05     8.6617   1.7932    78.4153
 59      0.0000     0.0000E+00    0.0000E+00    2.861200E+08  0.05000  7.384E-04    0   0.6633   age125_m72            0.0000     6.6858E-05     8.4836   1.1899    84.6000
 60      6.6895     7.0577E-01    8.8955E-01    5.088000E+08  0.05000  3.819E-04    0   0.6372   age130_m72            0.0000     6.3955E-05     8.5695   0.7176    85.1263
 61      0.0000     0.0000E+00    0.0000E+00    9.047900E+08  0.05000  1.676E-04    0   0.6110   age135_m72            0.0000     5.8949E-05     8.8290   0.0507    82.5064
 62      0.0000     0.0000E+00    0.0000E+00    1.434000E+09  0.05000  8.837E-05    0   0.5874   age139_m72            0.0000     5.6745E-05     8.7778  -0.4093    82.3843
 63      0.0000     0.0000E+00    0.0000E+00    2.500000E+09  0.05000  4.233E-05    0   0.5598   age150_m72            0.0000     6.7427E-05     9.6470  -0.7570    82.5339
 64      0.0000     0.0000E+00    0.0000E+00    6.250000E+09  0.05000  1.435E-05    0   0.5249   age166_m72            0.0000     8.8736E-05    11.1187  -1.0000    76.3401
 65      0.0000     0.0000E+00    0.0000E+00    1.300000E+10  0.05000  6.513E-06    0   0.5036   age193_m72            0.0000     1.2927E-04    13.6646  -1.0000    69.9252
 66      4.2762     3.8059E+01    3.7227E+01    1.800000E+10  0.05000  4.527E-06    0   0.4945   age213_m72            0.0000     1.5794E-04    15.1200  -1.0000    65.6703


## Synthesis Results - Average & Chains ##

# j      x_j: min, <> & last-chain-values for 1 ...  7 chains
  1      0.0000      0.4077      0.0054      0.0152      0.1612      0.0000      0.1204      0.1079      0.0418
  2      0.0000      0.2707      0.0000      0.1135      0.0000      0.0451      0.0000      0.0606      0.0716
  3      0.0000      0.3038      0.2524      0.0095      0.0572      0.0218      0.1155      0.1111      0.0089
  4      0.0000      0.3903      0.0000      0.0231      0.0000      0.0480      0.1276      0.0000      0.0102
  5      0.0000      0.3939      0.8322      0.0336      0.0000      0.0000      0.0822      0.0117      0.0000
  6      0.0000      0.3013      0.0032      0.0234      0.0000      0.0019      0.1753      0.0000      0.0000
  7      0.0000      0.2761      0.0000      0.0023      0.1021      0.0000      0.1379      0.2565      0.0495
  8      0.0000      0.2852      1.0408      0.0000      0.1837      0.0528      0.0801      0.0000      0.0324
  9      0.0000      0.2268      0.0000      0.0033      0.1732      0.0335      0.2948      0.1915      0.0000
 10      0.0000      0.3548      0.2886      0.0227      0.2264      0.0232      0.0678      0.0000      0.1213
 11      0.0000      0.4701      1.0072      0.1149      0.3069      0.2271      0.2664      0.2170      0.1888
 12      0.3303      1.8539      1.7020      1.8679      2.6034      1.4262      1.9525      2.2284      1.1012
 13     11.0975     20.0913     19.3807     30.9372     24.0658     30.8727     23.1645     18.9701     25.2563
 14      4.2384      4.8564      4.4299      0.3567      3.3232      2.5144      5.2641      5.6542     16.7412
 15      0.0000      0.2821      0.3733      0.0306      0.0529      0.0631      0.2305      0.2455      0.0678
 16     27.1018      3.6638      4.0301      4.1193      4.1375      4.2409      4.0389      4.1023      2.7383
 17      0.0000      1.5279      1.5727      0.1310      1.5612      1.9830      1.7451      1.9018      1.4651
 18      0.0000      0.2524      0.2138      0.0089      0.0308      0.0339      0.0000      0.0576      0.0000
 19      0.0000      0.3002      0.4340      0.0199      0.0331      0.0249      0.0000      0.0040      0.0185
 20      0.0000      0.2604      0.0000      0.0136      0.1247      0.0743      0.1860      0.1380      0.0381
 21      0.0000      0.3314      0.0000      0.0859      0.0894      0.0000      0.0000      0.0000      0.0843
 22      0.0000      0.3934      0.6332      0.0200      0.1874      0.0409      0.4513      0.0000      0.0128
 23      0.0000      0.3367      0.4922      0.0298      0.1440      0.0092      0.1200      0.0000      0.0000
 24      0.0000      0.3393      0.0000      0.0226      0.0000      0.0254      0.0000      0.1356      0.0557
 25      0.0000      0.2607      0.0000      0.0340      0.1502      0.0121      0.0768      0.0000      0.0000
 26      0.0000      0.3205      0.0000      0.0000      0.0800      0.0315      0.1412      0.0000      0.0163
 27     28.3081      1.1443      1.4779      1.7641      1.2597      0.7710      1.2268      1.1408      0.7545
 28      0.0000      5.0535      8.1764      8.7510      5.2062      8.6896      4.9769      3.9754      5.1896
 29      0.0000      0.2515      0.2161      0.0009      0.0020      0.0318      0.0712      0.0000      0.0242
 30      0.0000      0.3374      0.1004      0.0000      0.2012      0.0000      0.0234      0.0000      0.0073
 31      0.0000      0.3760      0.1125      0.0263      0.0262      0.0496      0.0706      0.0850      0.0000
 32      0.0000      0.7382      0.6192      0.0322      1.1779      0.5859      0.5104      0.7770      0.1978
 33      0.0000      0.4043      0.2914      0.0541      0.2126      0.1393      0.1898      0.2684      0.0699
 34      0.0000      0.4991      0.2812      0.0797      0.2614      0.5551      0.2087      0.3519      0.0251
 35      0.0000      0.3235      0.0000      0.0012      0.0337      0.0579      0.1099      0.0000      0.0229
 36      0.0000      0.2879      0.6489      0.0125      0.0423      0.0337      0.1069      0.2554      0.0173
 37      0.0000      0.2967      0.3306      0.0037      0.1644      0.1787      0.1624      0.0000      0.0021
 38      0.0000      0.3180      0.5031      0.0000      0.0648      0.0503      0.0614      0.0890      0.0626
 39      0.0000      0.3442      0.7614      0.0206      0.0000      0.0135      0.1074      0.1268      0.0280
 40      0.0000      0.2576      0.0000      0.0138      0.0000      0.0011      0.0000      0.2190      0.0105
 41      0.0000      0.3330      0.5142      0.0007      0.0855      0.0294      0.0000      0.3558      0.0020
 42      0.0000      0.2984      0.0643      0.0300      0.0000      0.0000      0.0000      0.7365      0.0692
 43      0.0000      0.4481      0.3816      0.0916      0.1976      0.1411      0.1078      0.0000      0.1217
 44      0.0000      2.0888      1.4903      1.9608      2.2536      0.4890      2.0775      2.1942      6.1388
 45      0.0000      8.2496      8.4943      5.9895      8.8553      8.0708      8.8250     14.9828      4.5060
 46      0.0000      0.2881      0.0000      0.0038      0.0000      0.0037      0.0000      0.0000      0.0222
 47      0.0000      0.6845      1.0891      0.0672      0.5390      1.4234      0.4099      0.5679      0.5294
 48      0.0000      3.9394      4.0306      2.9916      5.6489      4.1063      4.6553      4.3893      4.5328
 49      0.2055      8.0830      8.2531     17.1507      7.9867      8.2889      7.8849      7.8282      4.4645
 50      0.0000      2.5791      3.3578      0.1799      3.3904      3.2821      3.3081      2.8252      2.9056
 51      0.0000      0.3585      0.0329      0.0085      0.0350      0.0173      0.2615      0.2823      0.0287
 52      0.0000      0.4022      0.3725      0.0576      0.1364      0.1391      0.2634      0.0665      0.1202
 53      0.0000      0.4421      0.6011      0.2920      0.1605      0.0065      0.1069      0.0482      0.0735
 54      0.0000      0.2971      0.1220      0.0234      0.1223      0.0000      0.0527      0.0000      0.0000
 55      0.0000      0.2951      0.0000      0.0287      0.1022      0.0419      0.0595      0.0000      0.0462
 56      0.0000      0.2792      0.0000      0.0000      0.0000      0.1239      0.1591      0.1822      0.0000
 57      0.0000      0.2497      0.1571      0.0152      0.0000      0.0562      0.0000      0.1421      0.0012
 58      0.0000      0.3702      0.2052      0.0148      0.2076      0.0232      0.1397      0.0803      0.0188
 59      0.0000      0.7607      0.4622      0.0476      1.0252      0.9294      1.1503      0.7908      0.0958
 60      6.6895      0.7403      0.6103      1.1927      0.6375      0.3213      0.7127      0.7040      0.7185
 61      0.0000      6.3051      6.3162     12.2085      6.3934      8.3112      6.3661      7.2824      5.2192
 62      0.0000      0.3518      0.5226      0.0000      0.1024      0.2174      0.1588      0.0000      0.0735
 63      0.0000      7.5547      7.7615      6.5498      9.2307      6.9300      9.8351      9.0865     10.5441
 64      0.0000      0.9889      0.5518      0.0893      1.4497      0.7868      1.1570      0.8543      0.2755
 65      0.0000      0.9743      0.6737      0.0069      0.9926      0.5910      1.2910      1.1023      2.0846
 66      4.2762      1.5115      1.7003      0.5094      2.3002      0.9357      2.5800      2.0426      0.5454

# j      m_j: min, <> & last-chain-values for 1 ...  7 chains
  1  0.0000E+00  2.8455E-03  3.6281E-05  1.2106E-04  9.7976E-04  0.0000E+00  7.1808E-04  6.8972E-04  3.1194E-04
  2  0.0000E+00  5.1570E-04  0.0000E+00  2.4668E-04  0.0000E+00  8.7010E-05  0.0000E+00  1.0588E-04  1.4603E-04
  3  0.0000E+00  8.6667E-04  6.9900E-04  3.0818E-05  1.4219E-04  6.3120E-05  2.8147E-04  2.9046E-04  2.7045E-05
  4  0.0000E+00  1.0485E-03  0.0000E+00  7.0839E-05  0.0000E+00  1.3075E-04  2.9301E-04  0.0000E+00  2.9332E-05
  5  0.0000E+00  2.0159E-03  4.1337E-03  1.9619E-04  0.0000E+00  0.0000E+00  3.5927E-04  5.4824E-05  0.0000E+00
  6  0.0000E+00  2.5015E-03  2.5826E-05  2.2160E-04  0.0000E+00  1.5883E-05  1.2433E-03  0.0000E+00  0.0000E+00
  7  0.0000E+00  3.2810E-03  0.0000E+00  3.1785E-05  1.0562E-03  0.0000E+00  1.4001E-03  2.7932E-03  6.3034E-04
  8  0.0000E+00  4.6854E-03  1.6594E-02  0.0000E+00  2.6271E-03  8.7950E-04  1.1237E-03  0.0000E+00  5.7050E-04
  9  0.0000E+00  4.2651E-03  0.0000E+00  7.1120E-05  2.8346E-03  6.3910E-04  4.7358E-03  3.2998E-03  0.0000E+00
 10  0.0000E+00  8.7621E-03  6.9166E-03  6.4032E-04  4.8675E-03  5.7935E-04  1.4298E-03  0.0000E+00  3.2078E-03
 11  0.0000E+00  2.1831E-02  4.5395E-02  6.0864E-03  1.2407E-02  1.0687E-02  1.0571E-02  9.2356E-03  9.3851E-03
 12  2.5400E-02  1.3657E-01  1.2168E-01  1.5698E-01  1.6697E-01  1.0645E-01  1.2288E-01  1.5042E-01  8.6828E-02
 13  2.4053E+00  4.1717E+00  3.9055E+00  7.3285E+00  4.3505E+00  6.4953E+00  4.1094E+00  3.6092E+00  5.6131E+00
 14  3.0811E+00  3.3820E+00  2.9941E+00  2.8343E-01  2.0150E+00  1.7743E+00  3.1321E+00  3.6081E+00  1.2479E+01
 15  0.0000E+00  3.1988E-01  4.1069E-01  3.9641E-02  5.2179E-02  7.2436E-02  2.2324E-01  2.5500E-01  8.2311E-02
 16  5.4231E+01  7.0233E+00  7.4978E+00  9.0088E+00  6.9053E+00  8.2374E+00  6.6148E+00  7.2057E+00  5.6186E+00
 17  0.0000E+00  3.7995E+00  3.7956E+00  3.7166E-01  3.3802E+00  4.9967E+00  3.7077E+00  4.3336E+00  3.8996E+00
 18  0.0000E+00  1.5567E-03  1.2799E-03  6.2862E-05  1.6529E-04  2.1174E-04  0.0000E+00  3.2543E-04  0.0000E+00
 19  0.0000E+00  7.4312E-04  1.0427E-03  5.6226E-05  7.1256E-05  6.2399E-05  0.0000E+00  8.9945E-06  4.9112E-05
 20  0.0000E+00  7.0375E-04  0.0000E+00  4.1997E-05  2.9340E-04  2.0345E-04  4.2944E-04  3.4169E-04  1.1033E-04
 21  0.0000E+00  1.0870E-03  0.0000E+00  3.2129E-04  2.5519E-04  0.0000E+00  0.0000E+00  0.0000E+00  2.9588E-04
 22  0.0000E+00  2.1822E-03  3.4085E-03  1.2664E-04  9.0505E-04  2.2964E-04  2.1388E-03  0.0000E+00  7.5945E-05
 23  0.0000E+00  2.5219E-03  3.5779E-03  2.5488E-04  9.3943E-04  7.0172E-05  7.6796E-04  0.0000E+00  0.0000E+00
 24  0.0000E+00  3.7808E-03  0.0000E+00  2.8750E-04  0.0000E+00  2.8682E-04  0.0000E+00  1.3849E-03  6.6388E-04
 25  0.0000E+00  4.0057E-03  0.0000E+00  5.9651E-04  2.0091E-03  1.8803E-04  1.0076E-03  0.0000E+00  0.0000E+00
 26  0.0000E+00  8.2314E-03  0.0000E+00  0.0000E+00  1.7880E-03  8.2005E-04  3.0985E-03  0.0000E+00  4.4742E-04
 27  1.5191E+00  5.8827E-02  7.3739E-02  1.0347E-01  5.6386E-02  4.0165E-02  5.3884E-02  5.3742E-02  4.1520E-02
 28  0.0000E+00  7.5398E-01  1.1840E+00  1.4896E+00  6.7629E-01  1.3137E+00  6.3442E-01  5.4349E-01  8.2876E-01
 29  0.0000E+00  6.5381E-02  5.4520E-02  2.7810E-04  4.5157E-04  8.3727E-03  1.5824E-02  0.0000E+00  6.7462E-03
 30  0.0000E+00  1.8327E-01  5.2912E-02  0.0000E+00  9.5148E-02  0.0000E+00  1.0859E-02  0.0000E+00  4.2300E-03
 31  0.0000E+00  3.5926E-01  1.0435E-01  2.8678E-02  2.1779E-02  4.8045E-02  5.7668E-02  7.4459E-02  0.0000E+00
 32  0.0000E+00  9.4899E-01  7.7260E-01  4.7260E-02  1.3184E+00  7.6315E-01  5.6056E-01  9.1525E-01  2.7213E-01
 33  0.0000E+00  1.1505E+00  8.0481E-01  1.7560E-01  5.2675E-01  4.0181E-01  4.6141E-01  6.9994E-01  2.1292E-01
 34  0.0000E+00  1.9234E+00  1.0517E+00  3.5057E-01  8.7699E-01  2.1676E+00  6.8721E-01  1.2427E+00  1.0355E-01
 35  0.0000E+00  1.5996E-03  0.0000E+00  6.8880E-06  1.4501E-04  2.8998E-04  4.6434E-04  0.0000E+00  1.2133E-04
 36  0.0000E+00  5.7596E-04  1.2599E-03  2.8617E-05  7.3711E-05  6.8398E-05  1.8267E-04  4.6822E-04  3.7130E-05
 37  0.0000E+00  6.4215E-04  6.9427E-04  9.2006E-06  3.0982E-04  3.9182E-04  3.0021E-04  0.0000E+00  4.7559E-06
 38  0.0000E+00  1.8643E-03  2.8622E-03  0.0000E+00  3.3058E-04  2.9898E-04  3.0733E-04  4.7825E-04  3.9265E-04
 39  0.0000E+00  2.9056E-03  6.2373E-03  1.9865E-04  0.0000E+00  1.1583E-04  7.7488E-04  9.8047E-04  2.5292E-04
 40  0.0000E+00  3.5154E-03  0.0000E+00  2.1494E-04  0.0000E+00  1.4528E-05  0.0000E+00  2.7376E-03  1.5339E-04
 41  0.0000E+00  7.0653E-03  1.0589E-02  1.6807E-05  1.5793E-03  6.3212E-04  0.0000E+00  6.9175E-03  4.4778E-05
 42  0.0000E+00  1.1625E-02  2.4324E-03  1.3317E-03  0.0000E+00  0.0000E+00  0.0000E+00  2.6288E-02  2.8835E-03
 43  0.0000E+00  2.5487E-02  2.1061E-02  5.9422E-03  9.7844E-03  8.1295E-03  5.2375E-03  0.0000E+00  7.4077E-03
 44  0.0000E+00  2.0456E-01  1.4164E-01  2.1907E-01  1.9215E-01  4.8523E-02  1.7382E-01  1.9689E-01  6.4346E-01
 45  0.0000E+00  1.6029E+00  1.6018E+00  1.3277E+00  1.4980E+00  1.5890E+00  1.4650E+00  2.6676E+00  9.3714E-01
 46  0.0000E+00  1.0290E-01  0.0000E+00  1.5523E-03  0.0000E+00  1.3359E-03  0.0000E+00  0.0000E+00  8.5003E-03
 47  0.0000E+00  4.9535E-01  7.6495E-01  5.5461E-02  3.3959E-01  1.0438E+00  2.5344E-01  3.7662E-01  4.1009E-01
 48  0.0000E+00  5.0279E+00  4.9926E+00  4.3560E+00  6.2772E+00  5.3105E+00  5.0764E+00  5.1332E+00  6.1923E+00
 49  6.2219E-01  2.3447E+01  2.3234E+01  5.6757E+01  2.0171E+01  2.4363E+01  1.9541E+01  2.0807E+01  1.3862E+01
 50  0.0000E+00  1.3857E+01  1.7508E+01  1.1026E+00  1.5859E+01  1.7868E+01  1.5185E+01  1.3908E+01  1.6709E+01
 51  0.0000E+00  1.0557E-03  9.4104E-05  2.8420E-05  8.9766E-05  5.1671E-05  6.5806E-04  7.6171E-04  9.0522E-05
 52  0.0000E+00  6.0703E-04  5.4562E-04  9.9202E-05  1.7920E-04  2.1268E-04  3.3967E-04  9.2004E-05  1.9419E-04
 53  0.0000E+00  1.0051E-03  1.3263E-03  7.5720E-04  3.1766E-04  1.4920E-05  2.0762E-04  1.0040E-04  1.7890E-04
 54  0.0000E+00  1.3838E-03  5.5150E-04  1.2433E-04  4.9580E-04  0.0000E+00  2.0972E-04  0.0000E+00  0.0000E+00
 55  0.0000E+00  2.1163E-03  0.0000E+00  2.3501E-04  6.3792E-04  3.0458E-04  3.6489E-04  0.0000E+00  3.5449E-04
 56  0.0000E+00  3.9641E-03  0.0000E+00  0.0000E+00  0.0000E+00  1.7817E-03  1.9302E-03  2.3706E-03  0.0000E+00
 57  0.0000E+00  4.7050E-03  2.8735E-03  3.2759E-04  0.0000E+00  1.0721E-03  0.0000E+00  2.4532E-03  2.3823E-05
 58  0.0000E+00  1.1799E-02  6.3476E-03  5.3672E-04  5.7608E-03  7.4866E-04  3.8036E-03  2.3440E-03  6.4240E-04
 59  0.0000E+00  5.2170E-02  3.0767E-02  3.7281E-03  6.1219E-02  6.4592E-02  6.7405E-02  4.9699E-02  7.0357E-03
 60  8.8955E-01  9.4303E-02  7.5451E-02  1.7333E-01  7.0711E-02  4.1477E-02  7.7573E-02  8.2179E-02  9.7967E-02
 61  0.0000E+00  1.7550E+00  1.7062E+00  3.8768E+00  1.5493E+00  2.3441E+00  1.5139E+00  1.8574E+00  1.5549E+00
 62  0.0000E+00  1.7856E-01  2.5738E-01  0.0000E+00  4.5263E-02  1.1181E-01  6.8842E-02  0.0000E+00  3.9905E-02
 63  0.0000E+00  7.6280E+00  7.6057E+00  7.5449E+00  8.1147E+00  7.0901E+00  8.4844E+00  8.4068E+00  1.1395E+01
 64  0.0000E+00  2.7616E+00  1.4956E+00  2.8445E-01  3.5250E+00  2.2265E+00  2.7606E+00  2.1861E+00  8.2365E-01
 65  0.0000E+00  5.7516E+00  3.8597E+00  4.6492E-02  5.1017E+00  3.5351E+00  6.5118E+00  5.9628E+00  1.3172E+01
 66  3.7227E+01  1.2606E+01  1.3762E+01  4.8469E+00  1.6702E+01  7.9076E+00  1.8384E+01  1.5609E+01  4.8686E+00

# AV, chi2 & Mass for <> & i_chain = 1 ...  7 solutions
AV      -0.0186     -0.6519     -0.5647     -0.6014     -0.6847     -0.6328     -0.6831     -0.6480     -0.6281
chi2 5.0985E-05  8.6861E-05  8.0843E-05  8.0163E-05  8.1190E-05  8.0825E-05  8.1349E-05  8.1337E-05  8.0667E-05
Mass 5.3093E-13  2.3675E-13  2.7424E-13  2.2206E-13  2.6020E-13  2.3970E-13  2.6572E-13  2.5974E-13  2.2838E-13
 194.66                                  [v0_min (km/s) before EX0s...]
 214.78                                  [vd_min (km/s) before EX0s...]


## Synthetic spectrum (Best Model) ##l_obs f_obs f_syn wei
 3478    [Nl_obs]
 3741.00    0.38791   0.41176    0.000
 3742.00    0.34450   0.43506    0.000
 3743.00    0.28138   0.45094    0.000
 3744.00    0.25860   0.45682    0.000
 3745.00    0.25933   0.45237    0.144
 3746.00    0.29643   0.43913    0.143
 3747.00    0.35200   0.41980    0.138
 3748.00    0.33830   0.39772    0.142
 3749.00    0.29415   0.37662    0.151
 3750.00    0.44522   0.36038    0.152
 3751.00    0.66999   0.35259    0.150
 3752.00    0.67470   0.35559    0.144
 3753.00    0.60887   0.36966    0.137
 3754.00    0.56557   0.39253    0.134
 3755.00    0.52831   0.41992    0.131
 3756.00    0.62300   0.44667    0.132
 3757.00    0.74665   0.46837    0.133
 3758.00    0.60626   0.48268    0.134
 3759.00    0.41978   0.48984    0.135
 3760.00    0.36341   0.49202    0.184
 3761.00    0.32432   0.49204    0.307
 3762.00    0.40795   0.49199    0.198
 3763.00    0.50312   0.49247    0.139
 3764.00    0.56671   0.49266    0.133
 3765.00    0.62848   0.49109    0.130
 3766.00    0.50787   0.48639    0.129
 3767.00    0.38418   0.47800    0.128
 3768.00    0.41045   0.46650    0.125
 3769.00    0.43461   0.45348    0.122
 3770.00    0.40746   0.44117    0.118
 3771.00    0.37652   0.43208    0.115
 3772.00    0.29606   0.42843    0.113
 3773.00    0.24141   0.43157    0.112
 3774.00    0.41330   0.44162    0.115
 3775.00    0.55442   0.45755    0.119
 3776.00    0.49604   0.47762    0.123
 3777.00    0.43119   0.49995    0.125
 3778.00    0.33355   0.52295    0.116
 3779.00    0.29199   0.54549    0.112
 3780.00    0.47995   0.56680    0.121
 3781.00    0.64474   0.58612    0.129
 3782.00    0.73098   0.60257    0.130
 3783.00    0.78430   0.61508    0.131
 3784.00    0.74347   0.62268    0.130
 3785.00    0.72504   0.62458    0.131
 3786.00    0.76131   0.62053    0.137
 3787.00    0.78624   0.61104    0.147
 3788.00    0.78729   0.59742    0.174
 3789.00    0.74327   0.58142    0.179
 3790.00    0.61671   0.56469    0.143
 3791.00    0.56321   0.54826    0.129
 3792.00    0.62668   0.53218    0.132
 3793.00    0.63236   0.51558    0.132
 3794.00    0.55687   0.49719    0.126
 3795.00    0.48618   0.47625    0.122
 3796.00    0.42142   0.45315    0.119
 3797.00    0.33042   0.42969    0.116
 3798.00    0.21083   0.40891    0.113
 3799.00    0.22277   0.39442    0.114
 3800.00    0.36112   0.38947    0.120
 3801.00    0.46571   0.39580    0.127
 3802.00    0.54170   0.41306    0.136
 3803.00    0.55762   0.43874    0.135
 3804.00    0.52871   0.46895    0.127
 3805.00    0.57597   0.49957    0.122
 3806.00    0.67314   0.52739    0.118
 3807.00    0.70989   0.55084    0.119
 3808.00    0.71196   0.56992    0.123
 3809.00    0.68797   0.58547    0.131
 3810.00    0.65095   0.59823    0.142
 3811.00    0.54005   0.60828    0.147
 3812.00    0.39720   0.61496    0.148
 3813.00    0.44010   0.61743    0.135
 3814.00    0.55189   0.61552    0.120
 3815.00    0.66208   0.61006    0.120
 3816.00    0.77177   0.60262    0.124
 3817.00    0.63525   0.59488    0.134
 3818.00    0.43415   0.58801    0.146
 3819.00    0.39810   0.58227    0.133
 3820.00    0.39741   0.57707    0.118
 3821.00    0.44372   0.57151    0.122
 3822.00    0.49799   0.56496    0.129
 3823.00    0.34037   0.55704    0.121
 3824.00    0.15556   0.54750    0.113
 3825.00    0.27789   0.53619    0.115
 3826.00    0.42778   0.52309    0.119
 3827.00    0.35303   0.50845    0.119
 3828.00    0.26620   0.49266    0.118
 3829.00    0.37922   0.47605    0.128
 3830.00    0.49415   0.45866    0.139
 3831.00    0.43274   0.44017    0.129
 3832.00    0.37579   0.42026    0.120
 3833.00    0.41826   0.39911    0.120
 3834.00    0.45690   0.37774    0.121
 3835.00    0.44804   0.35794    0.120
 3836.00    0.43655   0.34205    0.120
 3837.00    0.40278   0.33226    0.136
 3838.00    0.38562   0.33002    0.151
 3839.00    0.47292   0.33591    0.141
 3840.00    0.56233   0.34971    0.133
 3841.00    0.66218   0.37056    0.129
 3842.00    0.70506   0.39711    0.125
 3843.00    0.51987   0.42758    0.122
 3844.00    0.37699   0.45995    0.121
 3845.00    0.37480   0.49195    0.124
 3846.00    0.41121   0.52146    0.128
 3847.00    0.55605   0.54688    0.000
 3848.00    0.63782   0.56743    0.000
 3849.00    0.56809   0.58320    0.000
 3850.00    0.50644   0.59494    0.000
 3851.00    0.46153   0.60368    0.000
 3852.00    0.43851   0.61038    0.000
 3853.00    0.45495   0.61555    0.000
 3854.00    0.47475   0.61927    0.000
 3855.00    0.49985   0.62120    0.000
 3856.00    0.55575   0.62087    0.000
 3857.00    0.65430   0.61825    0.000
 3858.00    0.68004   0.61401    0.000
 3859.00    0.61707   0.60939    0.000
 3860.00    0.55116   0.60587    0.000
 3861.00    0.48211   0.60493    0.000
 3862.00    0.47916   0.60742    0.000
 3863.00    0.53884   0.61319    0.000
 3864.00    0.55606   0.62126    0.000
 3865.00    0.53780   0.63000    0.000
 3866.00    0.49473   0.63771    0.000
 3867.00    0.43342   0.64311    0.000
 3868.00    0.42565   0.64542    0.000
 3869.00    0.45246   0.64426    0.000
 3870.00    0.45467   0.63984    0.000
 3871.00    0.44296   0.63292    0.000
 3872.00    0.46895   0.62457    0.000
 3873.00    0.51347   0.61595    0.000
 3874.00    0.56872   0.60801    0.000
 3875.00    0.62853   0.60117    0.000
 3876.00    0.61269   0.59526    0.000
 3877.00    0.56929   0.58960    0.000
 3878.00    0.60528   0.58315    0.000
 3879.00    0.66575   0.57508    0.000
 3880.00    0.66899   0.56522    0.000
 3881.00    0.65755   0.55393    0.141
 3882.00    0.56882   0.54146    0.128
 3883.00    0.46394   0.52778    0.113
 3884.00    0.46622   0.51248    0.116
 3885.00    0.48617   0.49500    0.122
 3886.00    0.55151   0.47504    0.120
 3887.00    0.62246   0.45321    0.117
 3888.00    0.66611   0.43155    0.115
 3889.00    0.70742   0.41318    0.113
 3890.00    0.71641   0.40126    0.120
 3891.00    0.72379   0.39794    0.129
 3892.00    0.68241   0.40381    0.123
 3893.00    0.64079   0.41803    0.117
 3894.00    0.63591   0.43841    0.115
 3895.00    0.63084   0.46180    0.117
 3896.00    0.62202   0.48536    0.244
 3897.00    0.61457   0.50730   -1.000
 3898.00    0.62326   0.52676   -1.000
 3899.00    0.62136   0.54365   -1.000
 3900.00    0.53307   0.55839   -1.000
 3901.00    0.45105   0.57141   -1.000
 3902.00    0.40733   0.58291   -1.000
 3903.00    0.38982   0.59284   -1.000
 3904.00    0.49849   0.60121   -1.000
 3905.00    0.57880   0.60847   -1.000
 3906.00    0.54803   0.61552   -1.000
 3907.00    0.52511   0.62326   -1.000
 3908.00    0.52777   0.63241   -1.000
 3909.00    0.52972   0.64328   -1.000
 3910.00    0.52977   0.65568   -1.000
 3911.00    0.54365   0.66857   -1.000
 3912.00    0.59021   0.68042   -1.000
 3913.00    0.65476   0.68993   -1.000
 3914.00    0.75604   0.69614   -1.000
 3915.00    0.80047   0.69861   -1.000
 3916.00    0.74392   0.69770   -1.000
 3917.00    0.71754   0.69416   -1.000
 3918.00    0.73804   0.68867   -1.000
 3919.00    0.72726   0.68179   -1.000
 3920.00    0.67379   0.67413   -1.000
 3921.00    0.62765   0.66644   -1.000
 3922.00    0.59030   0.65917   -1.000
 3923.00    0.55860   0.65251   -1.000
 3924.00    0.53288   0.64632   -1.000
 3925.00    0.50663   0.63978   -1.000
 3926.00    0.47989   0.63159   -1.000
 3927.00    0.46133   0.62031   -1.000
 3928.00    0.44951   0.60463   -1.000
 3929.00    0.44852   0.58372   -1.000
 3930.00    0.45537   0.55763   -1.000
 3931.00    0.43166   0.52741   -1.000
 3932.00    0.38850   0.49538   -1.000
 3933.00    0.36958   0.46478   -1.000
 3934.00    0.36415   0.43914   -1.000
 3935.00    0.41303   0.42182   -1.000
 3936.00    0.48819   0.41534   -1.000
 3937.00    0.52164   0.42078   -1.000
 3938.00    0.53764   0.43734   -1.000
 3939.00    0.59663   0.46241   -1.000
 3940.00    0.67099   0.49229   -1.000
 3941.00    0.70810   0.52277   -1.000
 3942.00    0.73396   0.55028   -1.000
 3943.00    0.66035   0.57318   -1.000
 3944.00    0.56175   0.59149   -1.000
 3945.00    0.63051   0.60606   -1.000
 3946.00    0.73340   0.61809   -1.000
 3947.00    0.75868   0.62870   -1.000
 3948.00    0.77153   0.63872   -1.000
 3949.00    0.74593   0.64816   -1.000
 3950.00    0.71575   0.65648   -1.000
 3951.00    0.74029   0.66340   -1.000
 3952.00    0.76929   0.66851   -1.000
 3953.00    0.78350   0.67129   -1.000
 3954.00    0.79703   0.67184   -1.000
 3955.00    0.76101   0.67050   -1.000
 3956.00    0.72478   0.66709   -1.000
 3957.00    0.71023   0.66113   -1.000
 3958.00    0.69650   0.65213   -1.000
 3959.00    0.69833   0.63987   -1.000
 3960.00    0.70045   0.62388    0.000
 3961.00    0.70592   0.60351    0.000
 3962.00    0.70564   0.57869    0.000
 3963.00    0.66024   0.54986    0.000
 3964.00    0.62252   0.51713    0.000
 3965.00    0.63046   0.48063    0.000
 3966.00    0.62962   0.44120    0.000
 3967.00    0.58761   0.40076    0.000
 3968.00    0.53540   0.36204    0.000
 3969.00    0.44409   0.32789    0.000
 3970.00    0.40799   0.30118    0.000
 3971.00    0.54836   0.28507    0.000
 3972.00    0.64553   0.28207    0.000
 3973.00    0.62567   0.29310    0.000
 3974.00    0.60111   0.31696    0.000
 3975.00    0.56567   0.35095    0.000
 3976.00    0.58233   0.39144    0.000
 3977.00    0.70360   0.43469    0.000
 3978.00    0.81161   0.47752    0.000
 3979.00    0.89642   0.51760    0.000
 3980.00    0.92165   0.55351    0.000
 3981.00    0.85569   0.58455   -1.000
 3982.00    0.79754   0.61053   -1.000
 3983.00    0.74990   0.63193   -1.000
 3984.00    0.76735   0.64947   -1.000
 3985.00    0.86188   0.66405   -1.000
 3986.00    0.95147   0.67676   -1.000
 3987.00    1.03588   0.68833   -1.000
 3988.00    1.05290   0.69932   -1.000
 3989.00    1.00783   0.71013   -1.000
 3990.00    0.97433   0.72041   -1.000
 3991.00    0.95020   0.72961   -1.000
 3992.00    0.94094   0.73745   -1.000
 3993.00    0.94230   0.74386   -1.000
 3994.00    0.95614   0.74857   -1.000
 3995.00    0.97781   0.75112   -1.000
 3996.00    0.96725   0.75200   -1.000
 3997.00    0.93902   0.75209   -1.000
 3998.00    0.86763   0.75189   -1.000
 3999.00    0.77568   0.75208   -1.000
 4000.00    0.77473   0.75368   -1.000
 4001.00    0.81120   0.75712   -1.000
 4002.00    0.91156   0.76144   -1.000
 4003.00    1.03438   0.76518   -1.000
 4004.00    0.98024   0.76748   -1.000
 4005.00    0.87367   0.76786   -1.000
 4006.00    0.87435   0.76630   -1.000
 4007.00    0.90138   0.76402   -1.000
 4008.00    0.83932   0.76277   -1.000
 4009.00    0.75956   0.76350   -1.000
 4010.00    0.88577   0.76646   -1.000
 4011.00    1.04400   0.77185   -1.000
 4012.00    1.13587   0.77886   -1.000
 4013.00    1.22011   0.78566   -1.000
 4014.00    1.10001   0.79091   -1.000
 4015.00    0.96411   0.79449   -1.000
 4016.00    0.98334   0.79711   -1.000
 4017.00    1.00910   0.79932   -1.000
 4018.00    1.02578   0.80127   -1.000
 4019.00    1.04110   0.80303   -1.000
 4020.00    1.00000   0.80452   -1.000
 4021.00    0.96009   0.80543   -1.000
 4022.00    0.94110   0.80532   -1.000
 4023.00    0.93467   0.80448   -1.000
 4024.00    1.06325   0.80350   -1.000
 4025.00    1.17647   0.80237   -1.000
 4026.00    1.17307   0.80126   -1.000
 4027.00    1.14683   0.80047   -1.000
 4028.00    0.98888   0.79941   -1.000
 4029.00    0.85746   0.79718   -1.000
 4030.00    0.84761   0.79338   -1.000
 4031.00    0.85707   0.78777   -1.000
 4032.00    0.93901   0.78037   -1.000
 4033.00    0.99524   0.77227   -1.000
 4034.00    0.97092   0.76561   -1.000
 4035.00    0.96024   0.76263   -1.000
 4036.00    0.98585   0.76496   -1.000
 4037.00    1.00247   0.77249   -1.000
 4038.00    0.99852   0.78315   -1.000
 4039.00    1.00903   0.79450   -1.000
 4040.00    1.04812   0.80451   -1.000
 4041.00    1.07180   0.81109   -1.000
 4042.00    1.06896   0.81236   -1.000
 4043.00    1.05611   0.80742   -1.000
 4044.00    1.02817   0.79750   -1.000
 4045.00    1.00880   0.78540   -1.000
 4046.00    1.00079   0.77383   -1.000
 4047.00    0.97707   0.76492   -1.000
 4048.00    0.93501   0.75994   -1.000
 4049.00    0.93432   0.75958   -1.000
 4050.00    0.97621   0.76417   -1.000
 4051.00    0.98721   0.77314   -1.000
 4052.00    0.97017   0.78369   -1.000
 4053.00    0.96542   0.79181   -1.000
 4054.00    0.97050   0.79559   -1.000
 4055.00    1.02662   0.79548   -1.000
 4056.00    1.11868   0.79241   -1.000
 4057.00    1.14241   0.78773   -1.000
 4058.00    1.12394   0.78314   -1.000
 4059.00    1.01776   0.77954   -1.000
 4060.00    0.86424   0.77671   -1.000
 4061.00    0.80134   0.77369   -1.000
 4062.00    0.78091   0.76976   -1.000
 4063.00    0.78058   0.76546   -1.000
 4064.00    0.78839   0.76120   -1.000
 4065.00    0.77858   0.75686   -1.000
 4066.00    0.76269   0.75301   -1.000
 4067.00    0.80581   0.75099   -1.000
 4068.00    0.86606   0.75189   -1.000
 4069.00    0.93361   0.75582   -1.000
 4070.00    1.00292   0.76107   -1.000
 4071.00    1.00096   0.76506   -1.000
 4072.00    0.98519   0.76706   -1.000
 4073.00    0.95683   0.76738   -1.000
 4074.00    0.92657   0.76530   -1.000
 4075.00    0.90365   0.75998   -1.000
 4076.00    0.88155   0.75278   -1.000
 4077.00    0.96285   0.74664   -1.000
 4078.00    1.05173   0.74264   -1.000
 4079.00    0.93634   0.73988   -1.000
 4080.00    0.81314   0.73842   -1.000
 4081.00    0.78630   0.73938   -1.000
 4082.00    0.76459   0.74330   -1.000
 4083.00    0.91626   0.74968   -1.000
 4084.00    1.05787   0.75660   -1.000
 4085.00    1.03374   0.76209   -1.000
 4086.00    1.00503   0.76551   -1.000
 4087.00    0.92921   0.76720   -1.000
 4088.00    0.86328   0.76812   -1.000
 4089.00    0.86990   0.76902   -1.000
 4090.00    0.90215   0.76943   -1.000
 4091.00    1.07820   0.76827   -1.000
 4092.00    1.20768   0.76435    0.000
 4093.00    1.12874   0.75620    0.000
 4094.00    1.04473   0.74313    0.000
 4095.00    0.94216   0.72584    0.000
 4096.00    0.86918   0.70544    0.000
 4097.00    0.88721   0.68235    0.000
 4098.00    0.89799   0.65684    0.000
 4099.00    0.88981   0.62873    0.000
 4100.00    0.87324   0.59897    0.000
 4101.00    0.83781   0.57097    0.000
 4102.00    0.80470   0.54780    0.000
 4103.00    0.77610   0.53128    0.000
 4104.00    0.77813   0.52294    0.000
 4105.00    0.83213   0.52390    0.000
 4106.00    0.87997   0.53459    0.000
 4107.00    0.91864   0.55420    0.000
 4108.00    0.96753   0.57897    0.000
 4109.00    1.02978   0.60425    0.000
 4110.00    1.00830   0.62757    0.000
 4111.00    0.89045   0.64811    0.000
 4112.00    0.87805   0.66585    0.000
 4113.00    0.97270   0.68153   -1.000
 4114.00    0.98856   0.69598   -1.000
 4115.00    0.93389   0.70966   -1.000
 4116.00    0.92153   0.72225   -1.000
 4117.00    0.94255   0.73307   -1.000
 4118.00    0.96966   0.74176   -1.000
 4119.00    1.00100   0.74807   -1.000
 4120.00    1.03737   0.75209   -1.000
 4121.00    1.07680   0.75458   -1.000
 4122.00    1.05904   0.75635   -1.000
 4123.00    1.01091   0.75839   -1.000
 4124.00    0.94197   0.76167   -1.000
 4125.00    0.86342   0.76554   -1.000
 4126.00    0.86406   0.76838   -1.000
 4127.00    0.89615   0.76979   -1.000
 4128.00    0.93104   0.76996   -1.000
 4129.00    0.96689   0.76839   -1.000
 4130.00    0.94576   0.76439   -1.000
 4131.00    0.90843   0.75845   -1.000
 4132.00    0.95163   0.75235   -1.000
 4133.00    1.01373   0.74795   -1.000
 4134.00    0.97967   0.74629   -1.000
 4135.00    0.92747   0.74735   -1.000
 4136.00    0.95834   0.75113   -1.000
 4137.00    1.00134   0.75796   -1.000
 4138.00    0.95133   0.76722   -1.000
 4139.00    0.89144   0.77681   -1.000
 4140.00    0.85180   0.78416   -1.000
 4141.00    0.81356   0.78697   -1.000
 4142.00    0.79367   0.78498   -1.000
 4143.00    0.77442   0.78000   -1.000
 4144.00    0.86030   0.77342   -1.000
 4145.00    0.94446   0.76650   -1.000
 4146.00    0.96478   0.76068   -1.000
 4147.00    0.98025   0.75737   -1.000
 4148.00    0.92056   0.75806   -1.000
 4149.00    0.87393   0.76270   -1.000
 4150.00    0.95610   0.76852   -1.000
 4151.00    1.00717   0.77266   -1.000
 4152.00    0.83756   0.77433   -1.000
 4153.00    0.68812   0.77408   -1.000
 4154.00    0.64876   0.77287   -1.000
 4155.00    0.64709   0.77177   -1.000
 4156.00    0.81019   0.77130   -1.000
 4157.00    0.92577   0.77167   -1.000
 4158.00    0.87045   0.77333   -1.000
 4159.00    0.83777   0.77668   -1.000
 4160.00    0.87345   0.78167   -1.000
 4161.00    0.89332   0.78768   -1.000
 4162.00    0.87260   0.79382   -1.000
 4163.00    0.87638   0.79914   -1.000
 4164.00    0.93429   0.80278   -1.000
 4165.00    0.95736   0.80430   -1.000
 4166.00    0.91368   0.80401   -1.000
 4167.00    0.90659   0.80232   -1.000
 4168.00    0.96065   0.79903   -1.000
 4169.00    0.98239   0.79420   -1.000
 4170.00    0.95677   0.78787   -1.000
 4171.00    0.95901   0.78000   -1.000
 4172.00    0.99714   0.77159   -1.000
 4173.00    0.98067   0.76380   -1.000
 4174.00    0.90223   0.75647   -1.000
 4175.00    0.85286   0.74942   -1.000
 4176.00    0.83260   0.74373   -1.000
 4177.00    0.85477   0.74137   -1.000
 4178.00    0.91438   0.74325   -1.000
 4179.00    0.90664   0.74774   -1.000
 4180.00    0.84652   0.75256   -1.000
 4181.00    0.88372   0.75681   -1.000
 4182.00    0.98748   0.76088   -1.000
 4183.00    0.95284   0.76537   -1.000
 4184.00    0.83523   0.76944   -1.000
 4185.00    0.81836   0.77144   -1.000
 4186.00    0.85417   0.77162   -1.000
 4187.00    0.89929   0.77179   -1.000
 4188.00    0.94864   0.77249   -1.000
 4189.00    0.96919   0.77306   -1.000
 4190.00    0.97850   0.77311   -1.000
 4191.00    0.90424   0.77357   -1.000
 4192.00    0.80222   0.77605   -1.000
 4193.00    0.79446   0.77995   -1.000
 4194.00    0.81297   0.78268   -1.000
 4195.00    0.84863   0.78297   -1.000
 4196.00    0.88822   0.78133   -1.000
 4197.00    0.91100   0.77784   -1.000
 4198.00    0.93070   0.77173   -1.000
 4199.00    0.90973   0.76336   -1.000
 4200.00    0.88301   0.75484   -1.000
 4201.00    0.90906   0.74811   -1.000
 4202.00    0.94049   0.74383   -1.000
 4203.00    0.98859   0.74269   -1.000
 4204.00    1.03778   0.74490   -1.000
 4205.00    1.00482   0.74931   -1.000
 4206.00    0.96935   0.75548   -1.000
 4207.00    0.94249   0.76349   -1.000
 4208.00    0.91836   0.77187   -1.000
 4209.00    0.97432   0.77938   -1.000
 4210.00    1.02160   0.78617   -1.000
 4211.00    0.94261   0.79172   -1.000
 4212.00    0.87253   0.79505   -1.000
 4213.00    0.88667   0.79537   -1.000
 4214.00    0.90246   0.79313   -1.000
 4215.00    0.92955   0.79028   -1.000
 4216.00    0.95036   0.78798   -1.000
 4217.00    0.93779   0.78589   -1.000
 4218.00    0.92537   0.78425   -1.000
 4219.00    0.91353   0.78391   -1.000
 4220.00    0.90762   0.78575   -1.000
 4221.00    0.92257   0.78890   -1.000
 4222.00    0.91547   0.78988   -1.000
 4223.00    0.84306   0.78581   -1.000
 4224.00    0.77304   0.77609   -1.000
 4225.00    0.70904   0.76131   -1.000
 4226.00    0.69044   0.74370   -1.000
 4227.00    0.77050   0.72710   -1.000
 4228.00    0.83154   0.71438   -1.000
 4229.00    0.85673   0.70711   -1.000
 4230.00    0.86065   0.70644   -1.000
 4231.00    0.82955   0.71336   -1.000
 4232.00    0.81710   0.72672   -1.000
 4233.00    0.83158   0.74124   -1.000
 4234.00    0.84928   0.75210   -1.000
 4235.00    0.87106   0.75840   -1.000
 4236.00    0.85117   0.76074   -1.000
 4237.00    0.78468   0.76076   -1.000
 4238.00    0.75924   0.76094   -1.000
 4239.00    0.77433   0.76176   -1.000
 4240.00    0.82595   0.76331   -1.000
 4241.00    0.90935   0.76699   -1.000
 4242.00    0.93154   0.77257   -1.000
 4243.00    0.90679   0.77893   -1.000
 4244.00    0.89430   0.78530   -1.000
 4245.00    0.89007   0.79035   -1.000
 4246.00    0.84396   0.79240   -1.000
 4247.00    0.77312   0.79174   -1.000
 4248.00    0.76781   0.78911   -1.000
 4249.00    0.79624   0.78358   -1.000
 4250.00    0.81972   0.77568   -1.000
 4251.00    0.84099   0.76783   -1.000
 4252.00    0.85303   0.76163   -1.000
 4253.00    0.86151   0.75704   -1.000
 4254.00    0.88917   0.75416   -1.000
 4255.00    0.92308   0.75458   -1.000
 4256.00    0.92866   0.75747   -1.000
 4257.00    0.92651   0.75907   -1.000
 4258.00    0.92115   0.75862   -1.000
 4259.00    0.91506   0.75842   -1.000
 4260.00    0.90944   0.75980   -1.000
 4261.00    0.90389   0.76156   -1.000
 4262.00    0.93773   0.76213   -1.000
 4263.00    0.97696   0.76317   -1.000
 4264.00    1.01989   0.76695   -1.000
 4265.00    1.06318   0.77391   -1.000
 4266.00    1.01235   0.78234   -1.000
 4267.00    0.95576   0.78868   -1.000
 4268.00    0.97464   0.79050   -1.000
 4269.00    0.99506   0.78721   -1.000
 4270.00    0.92062   0.77876   -1.000
 4271.00    0.84763   0.76606   -1.000
 4272.00    0.81282   0.75186   -1.000
 4273.00    0.77893   0.73822   -1.000
 4274.00    0.75763   0.72635   -1.000
 4275.00    0.74623   0.71870   -1.000
 4276.00    0.82475   0.71832   -1.000
 4277.00    0.88414   0.72434   -1.000
 4278.00    0.81609   0.73237   -1.000
 4279.00    0.75425   0.74133    1.103
 4280.00    0.72452   0.75144    0.154
 4281.00    0.70958   0.76008    0.091
 4282.00    0.75641   0.76496   -2.000
 4283.00    0.79886   0.76547   -2.000
 4284.00    0.82620   0.76277   -2.000
 4285.00    0.84505   0.75953   -2.000
 4286.00    0.83923   0.75589   -2.000
 4287.00    0.80661   0.75067   -2.000
 4288.00    0.70753   0.74327   -2.000
 4289.00    0.63891   0.73428   -2.000
 4290.00    0.63536   0.72655   -2.000
 4291.00    0.66534   0.72142   -2.000
 4292.00    0.75754   0.71716   -2.000
 4293.00    0.83743   0.71324   -2.000
 4294.00    0.89738   0.71196   -2.000
 4295.00    0.85432   0.71388   -2.000
 4296.00    0.66471   0.71564   -2.000
 4297.00    0.57987   0.71323   -2.000
 4298.00    0.62614   0.70553    0.089
 4299.00    0.65465   0.69521    0.090
 4300.00    0.66356   0.68358    0.090
 4301.00    0.64086   0.67020    0.090
 4302.00    0.58740   0.65646    0.089
 4303.00    0.54088   0.64449    0.088
 4304.00    0.50031   0.63662    0.088
 4305.00    0.48133   0.63262    0.087
 4306.00    0.47865   0.62951    0.087
 4307.00    0.54041   0.62687    0.088
 4308.00    0.64497   0.62573    0.089
 4309.00    0.70211   0.62552    0.090
 4310.00    0.73168   0.62610    0.091
 4311.00    0.71936   0.62833    0.090
 4312.00    0.68582   0.63407    0.089
 4313.00    0.72755   0.64532    0.088
 4314.00    0.80231   0.66188    0.087
 4315.00    0.81662   0.68237    0.088
 4316.00    0.80816   0.70495    0.088
 4317.00    0.82366   0.72779    0.089
 4318.00    0.84682   0.74962    0.089
 4319.00    0.84660   0.76940    0.089
 4320.00    0.84013   0.78459    0.089
 4321.00    0.82554   0.79157    0.089
 4322.00    0.80918   0.78936    0.089
 4323.00    0.75907   0.77972    0.089
 4324.00    0.70309   0.76475    0.088
 4325.00    0.74198   0.74746    0.089
 4326.00    0.79341   0.73124    0.091
 4327.00    0.78269   0.71743    0.091
 4328.00    0.76615   0.70772    0.090
 4329.00    0.76998   0.70402    0.090
 4330.00    0.77498   0.70750    0.000
 4331.00    0.80841   0.71610    0.000
 4332.00    0.84226   0.72427    0.000
 4333.00    0.84816   0.72828    0.000
 4334.00    0.85441   0.72766    0.000
 4335.00    0.86908   0.72236    0.000
 4336.00    0.88183   0.71100    0.000
 4337.00    0.86957   0.69279    0.000
 4338.00    0.85720   0.66898    0.000
 4339.00    0.84392   0.64149    0.000
 4340.00    0.82044   0.61307    0.000
 4341.00    0.73106   0.58767    0.000
 4342.00    0.67537   0.56937    0.000
 4343.00    0.78969   0.56029    0.000
 4344.00    0.88919   0.56191    0.000
 4345.00    0.92816   0.57499    0.000
 4346.00    0.94697   0.59611    0.000
 4347.00    0.89755   0.62007    0.000
 4348.00    0.83767   0.64443    0.000
 4349.00    0.74792   0.66678    0.000
 4350.00    0.71117   0.68386    0.000
 4351.00    0.80362   0.69595    0.091
 4352.00    0.85427   0.70543    0.092
 4353.00    0.81699   0.71214    0.090
 4354.00    0.80826   0.71507    0.090
 4355.00    0.85171   0.71723    0.090
 4356.00    0.87582   0.72337    0.091
 4357.00    0.86903   0.73344    0.090
 4358.00    0.86124   0.74384    0.090
 4359.00    0.85204   0.75399    0.090
 4360.00    0.84533   0.76507    0.090
 4361.00    0.84170   0.77558    0.091
 4362.00    0.84761   0.78391    0.090
 4363.00    0.86391   0.79162    0.088
 4364.00    0.86530   0.80019    0.088
 4365.00    0.85237   0.80756    0.089
 4366.00    0.85378   0.81155    0.089
 4367.00    0.86732   0.81323    0.090
 4368.00    0.85987   0.81408    0.089
 4369.00    0.83677   0.81278    0.088
 4370.00    0.82305   0.80837    0.088
 4371.00    0.81546   0.80268    0.088
 4372.00    0.85080   0.79747    0.089
 4373.00    0.91072   0.79224    0.090
 4374.00    0.89398   0.78672    0.090
 4375.00    0.83899   0.78249    0.089
 4376.00    0.82941   0.78001    0.089
 4377.00    0.83943   0.77800    0.089
 4378.00    0.82277   0.77657    0.088
 4379.00    0.79624   0.77725    0.088
 4380.00    0.74449   0.77943    0.087
 4381.00    0.68483   0.77896    0.087
 4382.00    0.72233   0.77268    0.086
 4383.00    0.78524   0.76245    0.085
 4384.00    0.79454   0.75175    0.085
 4385.00    0.79239   0.74126    0.086
 4386.00    0.75577   0.73035    0.086
 4387.00    0.71332   0.72235    0.085
 4388.00    0.72415   0.72212    0.085
 4389.00    0.74179   0.72918    0.085
 4390.00    0.79956   0.73900    0.086
 4391.00    0.86091   0.74867    0.086
 4392.00    0.82066   0.75773    0.087
 4393.00    0.77499   0.76566    0.087
 4394.00    0.80717   0.77231    0.086
 4395.00    0.84066   0.77898    0.086
 4396.00    0.85740   0.78547    0.085
 4397.00    0.87121   0.78988    0.085
 4398.00    0.82050   0.79214    0.084
 4399.00    0.77409   0.79441    0.084
 4400.00    0.78075   0.79760    0.085
 4401.00    0.78236   0.79934    0.086
 4402.00    0.74147   0.79676    0.085
 4403.00    0.70776   0.79022    0.084
 4404.00    0.71902   0.78361    0.083
 4405.00    0.72166   0.77971    0.082
 4406.00    0.68192   0.77598    0.083
 4407.00    0.65843   0.77018    0.083
 4408.00    0.69982   0.76639    0.084
 4409.00    0.74494   0.76933    0.085
 4410.00    0.80247   0.77676    0.085
 4411.00    0.83372   0.78424    0.085
 4412.00    0.79130   0.79175    0.086
 4413.00    0.77398   0.79986    0.085
 4414.00    0.81681   0.80644    0.085
 4415.00    0.84122   0.80993    0.084
 4416.00    0.82750   0.81065    0.084
 4417.00    0.81637   0.80917    0.084
 4418.00    0.80990   0.80691    0.084
 4419.00    0.81485   0.80642    0.084
 4420.00    0.83777   0.80848    0.084
 4421.00    0.83456   0.81170    0.084
 4422.00    0.79524   0.81551    0.083
 4423.00    0.77438   0.81923    0.083
 4424.00    0.77598   0.82101    0.083
 4425.00    0.80904   0.82036    0.084
 4426.00    0.87584   0.81912    0.085
 4427.00    0.90072   0.81885    0.085
 4428.00    0.88595   0.81821    0.085
 4429.00    0.86562   0.81610    0.086
 4430.00    0.84065   0.81429    0.086
 4431.00    0.85921   0.81405    0.086
 4432.00    0.90974   0.81349    0.086
 4433.00    0.88492   0.81059    0.085
 4434.00    0.81152   0.80713    0.085
 4435.00    0.77436   0.80574    0.085
 4436.00    0.75763   0.80559    0.085
 4437.00    0.76058   0.80517    0.085
 4438.00    0.77319   0.80563    0.085
 4439.00    0.81956   0.80894    0.086
 4440.00    0.88025   0.81439    0.087
 4441.00    0.91069   0.81901    0.087
 4442.00    0.93014   0.82138    0.086
 4443.00    0.89294   0.82206    0.086
 4444.00    0.83833   0.82188    0.086
 4445.00    0.83842   0.82104    0.086
 4446.00    0.85252   0.82042    0.087
 4447.00    0.82323   0.82221    0.086
 4448.00    0.78490   0.82659    0.085
 4449.00    0.81160   0.83080    0.086
 4450.00    0.84899   0.83322    0.087
 4451.00    0.85328   0.83462    0.086
 4452.00    0.85348   0.83442    0.084
 4453.00    0.82472   0.83051    0.084
 4454.00    0.79349   0.82360    0.083
 4455.00    0.77138   0.81631    0.082
 4456.00    0.74972   0.80860    0.082
 4457.00    0.80673   0.79933    0.083
 4458.00    0.86373   0.79018    0.085
 4459.00    0.84158   0.78440    0.084
 4460.00    0.82088   0.78157    0.083
 4461.00    0.82963   0.77981    0.000
 4462.00    0.83978   0.77979    0.000
 4463.00    0.86638   0.78209    0.000
 4464.00    0.88108   0.78560    0.000
 4465.00    0.79932   0.78983    0.000
 4466.00    0.73215   0.79561    0.000
 4467.00    0.75368   0.80145    0.000
 4468.00    0.77377   0.80540    0.000
 4469.00    0.78698   0.80836    0.000
 4470.00    0.80776   0.81173    0.000
 4471.00    0.85814   0.81545    0.000
 4472.00    0.89918   0.81932    0.000
 4473.00    0.90983   0.82454    0.000
 4474.00    0.90676   0.83137    0.000
 4475.00    0.86595   0.83909    0.000
 4476.00    0.82095   0.84713    0.000
 4477.00    0.76607   0.85391    0.000
 4478.00    0.75238   0.85741    0.000
 4479.00    0.82256   0.85744    0.000
 4480.00    0.87839   0.85532    0.000
 4481.00    0.90879   0.85153    0.000
 4482.00    0.90019   0.84611    0.084
 4483.00    0.83111   0.84003    0.083
 4484.00    0.81645   0.83566    0.083
 4485.00    0.87591   0.83511    0.083
 4486.00    0.88384   0.83822    0.083
 4487.00    0.82997   0.84237    0.082
 4488.00    0.81556   0.84549    0.082
 4489.00    0.84287   0.84769    0.082
 4490.00    0.86266   0.84894    0.082
 4491.00    0.87545   0.84817    0.082
 4492.00    0.88016   0.84514    0.082
 4493.00    0.87823   0.84162    0.082
 4494.00    0.88852   0.83955    0.082
 4495.00    0.90764   0.83874    0.083
 4496.00    0.91655   0.83802    0.084
 4497.00    0.91897   0.83744    0.084
 4498.00    0.89261   0.83841    0.083
 4499.00    0.85025   0.84123    0.082
 4500.00    0.86619   0.84514    0.082
 4501.00    0.91031   0.85048    0.082
 4502.00    0.89555   0.85728    0.082
 4503.00    0.85623   0.86400    0.081
 4504.00    0.87764   0.86972    0.081
 4505.00    0.92071   0.87594    0.081
 4506.00    0.95765   0.88303    0.083
 4507.00    0.99275   0.88862    0.084
 4508.00    0.91265   0.89164    0.082
 4509.00    0.80370   0.89302    0.080
 4510.00    0.84586   0.89321    0.080
 4511.00    0.91873   0.89189    0.081
 4512.00    0.91301   0.88945    0.081
 4513.00    0.89475   0.88639    0.081
 4514.00    0.86111   0.88251    0.081
 4515.00    0.82564   0.87790    0.080
 4516.00    0.85148   0.87310    0.081
 4517.00    0.88230   0.86859    0.081
 4518.00    0.86772   0.86512    0.081
 4519.00    0.85108   0.86312    0.080
 4520.00    0.84153   0.86142    0.080
 4521.00    0.83266   0.85890    0.080
 4522.00    0.85395   0.85671    0.079
 4523.00    0.87324   0.85522    0.078
 4524.00    0.85497   0.85227    0.078
 4525.00    0.84142   0.84589    0.077
 4526.00    0.88064   0.83766    0.078
 4527.00    0.91508   0.82981    0.079
 4528.00    0.91223   0.82157    0.079
 4529.00    0.89962   0.81246    0.079
 4530.00    0.82933   0.80412    0.079
 4531.00    0.78185   0.79823    0.078
 4532.00    0.84117   0.79440    0.079
 4533.00    0.87770   0.79206    0.079
 4534.00    0.82714   0.79166    0.080
 4535.00    0.80451   0.79420    0.080
 4536.00    0.87094   0.79857    0.079
 4537.00    0.91750   0.80342    0.078
 4538.00    0.91038   0.80949    0.078
 4539.00    0.91301   0.81802    0.078
 4540.00    0.93823   0.82818    0.078
 4541.00    0.95214   0.83699    0.079
 4542.00    0.94341   0.84293    0.079
 4543.00    0.89992   0.84625    0.079
 4544.00    0.79576   0.84789    0.079
 4545.00    0.76299   0.84886    0.078
 4546.00    0.83933   0.84828    0.078
 4547.00    0.87971   0.84460    0.078
 4548.00    0.87184   0.83918    0.077
 4549.00    0.85466   0.83537    0.077
 4550.00    0.82647   0.83298    0.000
 4551.00    0.81124   0.82909    0.000
 4552.00    0.80952   0.82399    0.000
 4553.00    0.84260   0.82137    0.000
 4554.00    0.90769   0.82197    0.000
 4555.00    0.90523   0.82297    0.000
 4556.00    0.84805   0.82428    0.000
 4557.00    0.84484   0.82728    0.000
 4558.00    0.88012   0.83236    0.000
 4559.00    0.89581   0.83917    0.000
 4560.00    0.89923   0.84702    0.000
 4561.00    0.86945   0.85392    0.000
 4562.00    0.82150   0.85856    0.000
 4563.00    0.85802   0.86148    0.000
 4564.00    0.93468   0.86340    0.000
 4565.00    0.97171   0.86389    0.000
 4566.00    0.99247   0.86260    0.000
 4567.00    0.90524   0.86091    0.000
 4568.00    0.78016   0.86070    0.000
 4569.00    0.79577   0.86189    0.000
 4570.00    0.85297   0.86298    0.000
 4571.00    0.87751   0.86369    0.000
 4572.00    0.89404   0.86507    0.000
 4573.00    0.89137   0.86586    0.000
 4574.00    0.88490   0.86442    0.000
 4575.00    0.92300   0.86367    0.000
 4576.00    0.96800   0.86535    0.000
 4577.00    0.89972   0.86593    0.000
 4578.00    0.81848   0.86349    0.000
 4579.00    0.81475   0.86057    0.000
 4580.00    0.81697   0.85800    0.000
 4581.00    0.86176   0.85416    0.000
 4582.00    0.90832   0.84836    0.000
 4583.00    0.89340   0.84259    0.000
 4584.00    0.87661   0.83882    0.000
 4585.00    0.80243   0.83711    0.000
 4586.00    0.73640   0.83658    0.000
 4587.00    0.81295   0.83740    0.000
 4588.00    0.88222   0.83997    0.000
 4589.00    0.87362   0.84327    0.000
 4590.00    0.87130   0.84669    0.000
 4591.00    0.91645   0.84973    0.000
 4592.00    0.95039   0.85181    0.000
 4593.00    0.91996   0.85232    0.000
 4594.00    0.89075   0.85132    0.000
 4595.00    0.86713   0.84979    0.000
 4596.00    0.84972   0.84871    0.000
 4597.00    0.85552   0.84787    0.000
 4598.00    0.85949   0.84703    0.000
 4599.00    0.85769   0.84658    0.000
 4600.00    0.85954   0.84676    0.000
 4601.00    0.87108   0.84749    0.000
 4602.00    0.88362   0.84832    0.000
 4603.00    0.89841   0.84849    0.000
 4604.00    0.91962   0.84893    0.000
 4605.00    0.95349   0.85080    0.000
 4606.00    0.97184   0.85347    0.000
 4607.00    0.96348   0.85678    0.000
 4608.00    0.95199   0.86083    0.000
 4609.00    0.93577   0.86552    0.000
 4610.00    0.93244   0.87033    0.000
 4611.00    0.94616   0.87529    0.000
 4612.00    0.95213   0.87920    0.000
 4613.00    0.94907   0.88127    0.000
 4614.00    0.91952   0.88190    0.000
 4615.00    0.86274   0.88172    0.000
 4616.00    0.85547   0.88101    0.000
 4617.00    0.89307   0.88026    0.000
 4618.00    0.88070   0.87918    0.000
 4619.00    0.82842   0.87787    0.000
 4620.00    0.81402   0.87803    0.000
 4621.00    0.82626   0.87860    0.000
 4622.00    0.85608   0.87834    0.000
 4623.00    0.89673   0.87891    0.000
 4624.00    0.89808   0.88057    0.000
 4625.00    0.87824   0.88105    0.000
 4626.00    0.87036   0.88092    0.000
 4627.00    0.86806   0.88097    0.000
 4628.00    0.86740   0.87979    0.000
 4629.00    0.86739   0.87808    0.000
 4630.00    0.90733   0.87759    0.000
 4631.00    0.96101   0.87640    0.000
 4632.00    0.97766   0.87328    0.000
 4633.00    0.98358   0.87132    0.000
 4634.00    0.96403   0.87105    0.000
 4635.00    0.93838   0.86888    0.000
 4636.00    0.88376   0.86456    0.000
 4637.00    0.82355   0.86128    0.000
 4638.00    0.83385   0.85908    0.000
 4639.00    0.85474   0.85615    0.000
 4640.00    0.87218   0.85319    0.000
 4641.00    0.88925   0.85156    0.000
 4642.00    0.88608   0.85066    0.000
 4643.00    0.88143   0.84997    0.000
 4644.00    0.84432   0.84986    0.000
 4645.00    0.80598   0.84887    0.000
 4646.00    0.79234   0.84629    0.000
 4647.00    0.78008   0.84350    0.000
 4648.00    0.81467   0.84100    0.000
 4649.00    0.84635   0.83787    0.000
 4650.00    0.83067   0.83551    0.000
 4651.00    0.82393   0.83556    0.000
 4652.00    0.90880   0.83741    0.000
 4653.00    0.97932   0.83938    0.000
 4654.00    0.94500   0.84134    0.000
 4655.00    0.91146   0.84407    0.000
 4656.00    0.88226   0.84721    0.000
 4657.00    0.86162   0.84975    0.000
 4658.00    0.87920   0.85240    0.000
 4659.00    0.88408   0.85623    0.000
 4660.00    0.84240   0.86076    0.000
 4661.00    0.82184   0.86515    0.000
 4662.00    0.86605   0.86825    0.000
 4663.00    0.89022   0.86933    0.000
 4664.00    0.86211   0.86778    0.000
 4665.00    0.84221   0.86286    0.000
 4666.00    0.84067   0.85482    0.000
 4667.00    0.83780   0.84617    0.000
 4668.00    0.83232   0.83813    0.000
 4669.00    0.81443   0.82987    0.000
 4670.00    0.77549   0.82299    0.000
 4671.00    0.77895   0.82069    0.000
 4672.00    0.84531   0.82257    0.000
 4673.00    0.88408   0.82618    0.000
 4674.00    0.88688   0.83121    0.000
 4675.00    0.88976   0.83760    0.000
 4676.00    0.89272   0.84361    0.000
 4677.00    0.87727   0.84790    0.000
 4678.00    0.84316   0.85085    0.000
 4679.00    0.84089   0.85268    0.000
 4680.00    0.86708   0.85238    0.000
 4681.00    0.87789   0.85022    0.000
 4682.00    0.87657   0.84831    0.000
 4683.00    0.86164   0.84705    0.000
 4684.00    0.83728   0.84574    0.000
 4685.00    0.82174   0.84519    0.000
 4686.00    0.81156   0.84625    0.000
 4687.00    0.81597   0.84787    0.000
 4688.00    0.82812   0.84932    0.000
 4689.00    0.86769   0.85069    0.000
 4690.00    0.91989   0.85162    0.000
 4691.00    0.90856   0.85256    0.000
 4692.00    0.87207   0.85383    0.000
 4693.00    0.88175   0.85468    0.000
 4694.00    0.90702   0.85549    0.000
 4695.00    0.90549   0.85744    0.000
 4696.00    0.89635   0.85929    0.000
 4697.00    0.86234   0.85944    0.000
 4698.00    0.82250   0.85883    0.000
 4699.00    0.76968   0.85800    0.000
 4700.00    0.71442   0.85508    0.000
 4701.00    0.70653   0.84960    0.000
 4702.00    0.70553   0.84412    0.000
 4703.00    0.74064   0.84032    0.000
 4704.00    0.77958   0.83659    0.000
 4705.00    0.82039   0.83221    0.000
 4706.00    0.86133   0.82911    0.000
 4707.00    0.86213   0.82876    0.000
 4708.00    0.86156   0.82914    0.000
 4709.00    0.82511   0.82890    0.000
 4710.00    0.78972   0.82954    0.000
 4711.00    0.79039   0.83172    0.000
 4712.00    0.79265   0.83411    0.000
 4713.00    0.81914   0.83650    0.000
 4714.00    0.84480   0.84001    0.000
 4715.00    0.86230   0.84419    0.000
 4716.00    0.87819   0.84781    0.000
 4717.00    0.88271   0.85099    0.000
 4718.00    0.88218   0.85522    0.000
 4719.00    0.85420   0.86058    0.000
 4720.00    0.82834   0.86516    0.000
 4721.00    0.81178   0.86856    0.000
 4722.00    0.80897   0.87218    0.000
 4723.00    0.85549   0.87562    0.000
 4724.00    0.88401   0.87712    0.000
 4725.00    0.85833   0.87633    0.000
 4726.00    0.82927   0.87404    0.000
 4727.00    0.79154   0.87087    0.000
 4728.00    0.77624   0.86659    0.000
 4729.00    0.81036   0.86066    0.000
 4730.00    0.83381   0.85373    0.000
 4731.00    0.83684   0.84810    0.000
 4732.00    0.84769   0.84442    0.000
 4733.00    0.87158   0.84168    0.000
 4734.00    0.87318   0.84050    0.000
 4735.00    0.84218   0.84115    0.000
 4736.00    0.80973   0.84283    0.000
 4737.00    0.77541   0.84558    0.000
 4738.00    0.78050   0.84873    0.000
 4739.00    0.83022   0.85044    0.000
 4740.00    0.85901   0.85200    0.000
 4741.00    0.86688   0.85511    0.000
 4742.00    0.85526   0.85775    0.000
 4743.00    0.82645   0.85882    0.000
 4744.00    0.82394   0.86031    0.000
 4745.00    0.84186   0.86315    0.000
 4746.00    0.84872   0.86584    0.000
 4747.00    0.84803   0.86733    0.000
 4748.00    0.85556   0.86869    0.000
 4749.00    0.86802   0.87095    0.000
 4750.00    0.88608   0.87250    0.000
 4751.00    0.90707   0.87214    0.000
 4752.00    0.87709   0.87127    0.000
 4753.00    0.82405   0.87031    0.000
 4754.00    0.82352   0.86814    0.000
 4755.00    0.84343   0.86477    0.000
 4756.00    0.84399   0.86149    0.000
 4757.00    0.83814   0.85843    0.000
 4758.00    0.83799   0.85548    0.000
 4759.00    0.83942   0.85293    0.000
 4760.00    0.81490   0.85041    0.000
 4761.00    0.78443   0.84740    0.077
 4762.00    0.78367   0.84445    0.070
 4763.00    0.78834   0.84146    0.069
 4764.00    0.81958   0.83706    0.070
 4765.00    0.85457   0.83210    0.071
 4766.00    0.82721   0.82868    0.070
 4767.00    0.79353   0.82636    0.070
 4768.00    0.79425   0.82469    0.070
 4769.00    0.79719   0.82504    0.069
 4770.00    0.77293   0.82735    0.070
 4771.00    0.74804   0.83041    0.071
 4772.00    0.82009   0.83454    0.071
 4773.00    0.89096   0.83946    0.070
 4774.00    0.92765   0.84341    0.071
 4775.00    0.95946   0.84675    0.071
 4776.00    0.92085   0.85090    0.071
 4777.00    0.88669   0.85462    0.071
 4778.00    0.89441   0.85625    0.071
 4779.00    0.89631   0.85707    0.071
 4780.00    0.85840   0.85821    0.070
 4781.00    0.83266   0.85763    0.070
 4782.00    0.87142   0.85466    0.070
 4783.00    0.89394   0.85197    0.070
 4784.00    0.84731   0.84979    0.069
 4785.00    0.81214   0.84575    0.068
 4786.00    0.81722   0.84161    0.068
 4787.00    0.82037   0.83974    0.068
 4788.00    0.81779   0.83800    0.069
 4789.00    0.80961   0.83572    0.069
 4790.00    0.78728   0.83588    0.069
 4791.00    0.78222   0.83788    0.069
 4792.00    0.81456   0.83983    0.070
 4793.00    0.84285   0.84343    0.070
 4794.00    0.86350   0.84862    0.070
 4795.00    0.86883   0.85323    0.070
 4796.00    0.84896   0.85756    0.071
 4797.00    0.85450   0.86157    0.071
 4798.00    0.89664   0.86372    0.072
 4799.00    0.89406   0.86408    0.071
 4800.00    0.83481   0.86369    0.070
 4801.00    0.81163   0.86256    0.070
 4802.00    0.82874   0.86071    0.071
 4803.00    0.83587   0.85890    0.071
 4804.00    0.83316   0.85761    0.071
 4805.00    0.83535   0.85684    0.071
 4806.00    0.84179   0.85574    0.071
 4807.00    0.85470   0.85396    0.070
 4808.00    0.87255   0.85251    0.069
 4809.00    0.86525   0.85164    0.070
 4810.00    0.84102   0.85033    0.072
 4811.00    0.83195   0.84930    0.071
 4812.00    0.83180   0.84987    0.070
 4813.00    0.80963   0.85115    0.070
 4814.00    0.77614   0.85240    0.070
 4815.00    0.80979   0.85442    0.071
 4816.00    0.87332   0.85710    0.072
 4817.00    0.86034   0.85956    0.072
 4818.00    0.81808   0.86173    0.072
 4819.00    0.81947   0.86351    0.071
 4820.00    0.83504   0.86468    0.071
 4821.00    0.85030   0.86476    0.071
 4822.00    0.86548   0.86300    0.072
 4823.00    0.85827   0.86004    0.072
 4824.00    0.84605   0.85708    0.071
 4825.00    0.86487   0.85335    0.072
 4826.00    0.88923   0.84839    0.072
 4827.00    0.80220   0.84457    0.071
 4828.00    0.70000   0.84258    0.069
 4829.00    0.78391   0.84059    0.070
 4830.00    0.88590   0.83839    0.071
 4831.00    0.83245   0.83696    0.071
 4832.00    0.76958   0.83647    0.070
 4833.00    0.78124   0.83604    0.070
 4834.00    0.79495   0.83465    0.070
 4835.00    0.82285   0.83338    0.070
 4836.00    0.84852   0.83367    0.071
 4837.00    0.81602   0.83361    0.070
 4838.00    0.78923   0.83184    0.070
 4839.00    0.84045   0.83011    0.071
 4840.00    0.88865   0.82911    0.072
 4841.00    0.90967   0.82688    0.071
 4842.00    0.92173   0.82315    0.070
 4843.00    0.87442   0.82040    0.068
 4844.00    0.83452   0.81899    0.067
 4845.00    0.83292   0.81702    0.069
 4846.00    0.82603   0.81456    0.069
 4847.00    0.79711   0.81303    0.069
 4848.00    0.77495   0.81181    0.000
 4849.00    0.77608   0.80946    0.000
 4850.00    0.77327   0.80562    0.000
 4851.00    0.75906   0.80086    0.000
 4852.00    0.75863   0.79590    0.000
 4853.00    0.79230   0.78933    0.000
 4854.00    0.80311   0.77964    0.000
 4855.00    0.76515   0.76909    0.000
 4856.00    0.73803   0.75819    0.000
 4857.00    0.73098   0.74357    0.000
 4858.00    0.72595   0.72605    0.000
 4859.00    0.72418   0.70828    0.000
 4860.00    0.71185   0.68905    0.000
 4861.00    0.68449   0.66971    0.000
 4862.00    0.68276   0.65369    0.000
 4863.00    0.71305   0.64055    0.000
 4864.00    0.72432   0.63215    0.000
 4865.00    0.71465   0.63259    0.000
 4866.00    0.70027   0.63908    0.000
 4867.00    0.68132   0.64851    0.000
 4868.00    0.68189   0.66363    0.000
 4869.00    0.69919   0.68150    0.000
 4870.00    0.71569   0.69584    0.000
 4871.00    0.73159   0.70837    0.000
 4872.00    0.74408   0.72092    0.000
 4873.00    0.75432   0.73007    0.000
 4874.00    0.77507   0.73636    0.000
 4875.00    0.80192   0.74444    0.066
 4876.00    0.80596   0.75336    0.066
 4877.00    0.79847   0.76036    0.067
 4878.00    0.80259   0.76863    0.067
 4879.00    0.81180   0.77889    0.066
 4880.00    0.83539   0.78678    0.066
 4881.00    0.86438   0.79276    0.067
 4882.00    0.85743   0.79943    0.066
 4883.00    0.83901   0.80369    0.066
 4884.00    0.82081   0.80424    0.067
 4885.00    0.80266   0.80495    0.067
 4886.00    0.76100   0.80523    0.066
 4887.00    0.71421   0.80257    0.065
 4888.00    0.69687   0.79964    0.065
 4889.00    0.68464   0.79802    0.066
 4890.00    0.70844   0.79616    0.065
 4891.00    0.73699   0.79544    0.065
 4892.00    0.77525   0.79723    0.065
 4893.00    0.81442   0.80054    0.065
 4894.00    0.84682   0.80623    0.065
 4895.00    0.87884   0.81524    0.065
 4896.00    0.83763   0.82509    0.066
 4897.00    0.79506   0.83447    0.066
 4898.00    0.78607   0.84408    0.065
 4899.00    0.77796   0.85183    0.065
 4900.00    0.79108   0.85681    0.065
 4901.00    0.80367   0.85936    0.066
 4902.00    0.80925   0.85864    0.065
 4903.00    0.81384   0.85678    0.065
 4904.00    0.80986   0.85575    0.064
 4905.00    0.80612   0.85364    0.064
 4906.00    0.80391   0.85085    0.065
 4907.00    0.80284   0.85019    0.065
 4908.00    0.80750   0.85007    0.065
 4909.00    0.80198   0.84811    0.065
 4910.00    0.75501   0.84612    0.065
 4911.00    0.72458   0.84517    0.065
 4912.00    0.74990   0.84337    0.065
 4913.00    0.78339   0.84085    0.065
 4914.00    0.84010   0.83981    0.066
 4915.00    0.86835   0.83921    0.066
 4916.00    0.82734   0.83730    0.065
 4917.00    0.79816   0.83501    0.065
 4918.00    0.79381   0.83203    0.064
 4919.00    0.78343   0.82637    0.064
 4920.00    0.76207   0.81883    0.064
 4921.00    0.75336   0.81155    0.064
 4922.00    0.76481   0.80460    0.064
 4923.00    0.77064   0.79858    0.064
 4924.00    0.76860   0.79616    0.064
 4925.00    0.76607   0.79809    0.064
 4926.00    0.76292   0.80217    0.064
 4927.00    0.77692   0.80881    0.064
 4928.00    0.80955   0.81899    0.064
 4929.00    0.82117   0.82894    0.064
 4930.00    0.81267   0.83673    0.064
 4931.00    0.82911   0.84410    0.064
 4932.00    0.86659   0.84936    0.064
 4933.00    0.83756   0.85067    0.064
 4934.00    0.75908   0.85030    0.063
 4935.00    0.72315   0.84795    0.064
 4936.00    0.71500   0.84244    0.064
 4937.00    0.72969   0.83701    0.065
 4938.00    0.75744   0.83282    0.065
 4939.00    0.75468   0.82846    0.065
 4940.00    0.73674   0.82563    0.000
 4941.00    0.75283   0.82552    0.000
 4942.00    0.78359   0.82770    0.000
 4943.00    0.80063   0.83208    0.000
 4944.00    0.81261   0.83704    0.000
 4945.00    0.84256   0.84246    0.000
 4946.00    0.87814   0.84986    0.000
 4947.00    0.85175   0.85663    0.000
 4948.00    0.80920   0.86071    0.000
 4949.00    0.84182   0.86472    0.000
 4950.00    0.89044   0.86876    0.000
 4951.00    0.87592   0.87022    0.000
 4952.00    0.85076   0.86984    0.000
 4953.00    0.82732   0.86897    0.000
 4954.00    0.80411   0.86637    0.000
 4955.00    0.80321   0.86100    0.000
 4956.00    0.80429   0.85314    0.000
 4957.00    0.84333   0.84504    0.000
 4958.00    0.88437   0.83772    0.000
 4959.00    0.79301   0.82970    0.000
 4960.00    0.70048   0.82272    0.000
 4961.00    0.71401   0.82044    0.000
 4962.00    0.72840   0.82106    0.000
 4963.00    0.76128   0.82130    0.000
 4964.00    0.78872   0.82321    0.000
 4965.00    0.74943   0.82723    0.000
 4966.00    0.71706   0.82963    0.000
 4967.00    0.74268   0.82961    0.000
 4968.00    0.76353   0.82927    0.000
 4969.00    0.75467   0.82922    0.000
 4970.00    0.74796   0.82873    0.000
 4971.00    0.75178   0.82845    0.000
 4972.00    0.75835   0.82958    0.000
 4973.00    0.77585   0.83189    0.000
 4974.00    0.78510   0.83443    0.000
 4975.00    0.76708   0.83692    0.000
 4976.00    0.75605   0.83897    0.000
 4977.00    0.76453   0.83962    0.000
 4978.00    0.76302   0.83829    0.000
 4979.00    0.73759   0.83525    0.000
 4980.00    0.72493   0.83021    0.000
 4981.00    0.73864   0.82269    0.000
 4982.00    0.73937   0.81463    0.000
 4983.00    0.71680   0.80714    0.000
 4984.00    0.70775   0.79924    0.000
 4985.00    0.71994   0.79299    0.000
 4986.00    0.71794   0.79053    0.000
 4987.00    0.69638   0.79009    0.000
 4988.00    0.68863   0.79127    0.000
 4989.00    0.69765   0.79531    0.000
 4990.00    0.72629   0.80057    0.000
 4991.00    0.77593   0.80561    0.000
 4992.00    0.77268   0.81025    0.000
 4993.00    0.71950   0.81386    0.000
 4994.00    0.69244   0.81697    0.000
 4995.00    0.68713   0.81930    0.000
 4996.00    0.69881   0.81984    0.000
 4997.00    0.72294   0.82004    0.000
 4998.00    0.73899   0.82002    0.000
 4999.00    0.74983   0.81789    0.000
 5000.00    0.77281   0.81482    0.000
 5001.00    0.80262   0.81152    0.000
 5002.00    0.77996   0.80670    0.000
 5003.00    0.73160   0.80169    0.000
 5004.00    0.71536   0.79714    0.000
 5005.00    0.71272   0.79216    0.000
 5006.00    0.72526   0.78851    0.000
 5007.00    0.74330   0.78648    0.000
 5008.00    0.74862   0.78426    0.000
 5009.00    0.75004   0.78303    0.000
 5010.00    0.74297   0.78343    0.000
 5011.00    0.73373   0.78309    0.000
 5012.00    0.72226   0.78179    0.000
 5013.00    0.71031   0.78052    0.000
 5014.00    0.70116   0.77850    0.000
 5015.00    0.69246   0.77547    0.000
 5016.00    0.68585   0.77222    0.000
 5017.00    0.67950   0.76952    0.000
 5018.00    0.68552   0.76822    0.000
 5019.00    0.69258   0.76820    0.000
 5020.00    0.69734   0.76878    0.000
 5021.00    0.70199   0.77068    0.000
 5022.00    0.68113   0.77438    0.000
 5023.00    0.66059   0.77805    0.000
 5024.00    0.68257   0.78119    0.000
 5025.00    0.70392   0.78530    0.000
 5026.00    0.71266   0.78952    0.000
 5027.00    0.72253   0.79267    0.000
 5028.00    0.74542   0.79625    0.000
 5029.00    0.76479   0.80020    0.061
 5030.00    0.75569   0.80348    0.061
 5031.00    0.74890   0.80712    0.062
 5032.00    0.75604   0.81101    0.062
 5033.00    0.75597   0.81371    0.061
 5034.00    0.72133   0.81531    0.061
 5035.00    0.69254   0.81585    0.060
 5036.00    0.68651   0.81445    0.062
 5037.00    0.68220   0.81033    0.062
 5038.00    0.68349   0.80416    0.062
 5039.00    0.68523   0.79729    0.062
 5040.00    0.68818   0.78939    0.062
 5041.00    0.69189   0.78166    0.062
 5042.00    0.69737   0.77644    0.061
 5043.00    0.70594   0.77321    0.061
 5044.00    0.72080   0.77276    0.062
 5045.00    0.73413   0.77660    0.062
 5046.00    0.74477   0.78215    0.063
 5047.00    0.74823   0.78807    0.063
 5048.00    0.74059   0.79531    0.063
 5049.00    0.74403   0.80150    0.063
 5050.00    0.76255   0.80452    0.063
 5051.00    0.75977   0.80618    0.063
 5052.00    0.73149   0.80743    0.062
 5053.00    0.70461   0.80756    0.062
 5054.00    0.67920   0.80756    0.062
 5055.00    0.69309   0.80911    0.063
 5056.00    0.74355   0.81212    0.064
 5057.00    0.77166   0.81578    0.064
 5058.00    0.78143   0.81981    0.064
 5059.00    0.77770   0.82422    0.064
 5060.00    0.76423   0.82819    0.064
 5061.00    0.76325   0.83070    0.063
 5062.00    0.77018   0.83192    0.063
 5063.00    0.75968   0.83152    0.063
 5064.00    0.73954   0.82915    0.063
 5065.00    0.73404   0.82587    0.064
 5066.00    0.73562   0.82143    0.065
 5067.00    0.74311   0.81556    0.064
 5068.00    0.75307   0.81073    0.064
 5069.00    0.71408   0.80734    0.063
 5070.00    0.65765   0.80348    0.062
 5071.00    0.66745   0.80064    0.063
 5072.00    0.69717   0.80044    0.063
 5073.00    0.71126   0.80034    0.064
 5074.00    0.72145   0.79903    0.065
 5075.00    0.69398   0.79856    0.065
 5076.00    0.65887   0.79870    0.064
 5077.00    0.63538   0.79690    0.063
 5078.00    0.61373   0.79338    0.063
 5079.00    0.66900   0.79034    0.062
 5080.00    0.73336   0.78722    0.061
 5081.00    0.72001   0.78238    0.061
 5082.00    0.70040   0.77785    0.062
 5083.00    0.70377   0.77600    0.061
 5084.00    0.70817   0.77535    0.060
 5085.00    0.72071   0.77533    0.060
 5086.00    0.73324   0.77797    0.060
 5087.00    0.74018   0.78295    0.060
 5088.00    0.74742   0.78814    0.060
 5089.00    0.76049   0.79346    0.061
 5090.00    0.77107   0.79929    0.061
 5091.00    0.75413   0.80477    0.061
 5092.00    0.73455   0.80907    0.060
 5093.00    0.69437   0.81227    0.059
 5094.00    0.66193   0.81444    0.059
 5095.00    0.67514   0.81524    0.060
 5096.00    0.68625   0.81452    0.061
 5097.00    0.68762   0.81213    0.060
 5098.00    0.69659   0.80837    0.060
 5099.00    0.73452   0.80431    0.060
 5100.00    0.76485   0.80001    0.060
 5101.00    0.77097   0.79548    0.059
 5102.00    0.76075   0.79240    0.059
 5103.00    0.70647   0.79079    0.058
 5104.00    0.66199   0.78952    0.058
 5105.00    0.64013   0.78901    0.059
 5106.00    0.63837   0.78880    0.059
 5107.00    0.67680   0.78834    0.059
 5108.00    0.69886   0.78779    0.059
 5109.00    0.69236   0.78633    0.059
 5110.00    0.67873   0.78528    0.059
 5111.00    0.65421   0.78568    0.059
 5112.00    0.64822   0.78581    0.059
 5113.00    0.66704   0.78727    0.059
 5114.00    0.68699   0.79114    0.059
 5115.00    0.70826   0.79481    0.060
 5116.00    0.72073   0.79896    0.061
 5117.00    0.72404   0.80412    0.062
 5118.00    0.72615   0.80790    0.062
 5119.00    0.72716   0.81035    0.061
 5120.00    0.72628   0.81181    0.061
 5121.00    0.72388   0.81110    0.061
 5122.00    0.72690   0.80807    0.061
 5123.00    0.73379   0.80341    0.060
 5124.00    0.72140   0.79780    0.060
 5125.00    0.69695   0.79108    0.060
 5126.00    0.69571   0.78396    0.060
 5127.00    0.70714   0.77835    0.060
 5128.00    0.68901   0.77388    0.060
 5129.00    0.65687   0.77021    0.060
 5130.00    0.64428   0.76894    0.060
 5131.00    0.63968   0.76959    0.059
 5132.00    0.63592   0.77072    0.059
 5133.00    0.63245   0.77318    0.060
 5134.00    0.64779   0.77688    0.059
 5135.00    0.66867   0.77964    0.059
 5136.00    0.65757   0.78183    0.060
 5137.00    0.63867   0.78435    0.061
 5138.00    0.64416   0.78451    0.061
 5139.00    0.65447   0.78311    0.062
 5140.00    0.66242   0.78240    0.061
 5141.00    0.67001   0.77930    0.060
 5142.00    0.67656   0.77552    0.060
 5143.00    0.68298   0.77417    0.059
 5144.00    0.70265   0.77122    0.060
 5145.00    0.72332   0.76815    0.061
 5146.00    0.69182   0.76815    0.062
 5147.00    0.65816   0.76713    0.062
 5148.00    0.62995   0.76556    0.061
 5149.00    0.60360   0.76585    0.060
 5150.00    0.65392   0.76551    0.061
 5151.00    0.70040   0.76486    0.063
 5152.00    0.68024   0.76499    0.062
 5153.00    0.66334   0.76491    0.061
 5154.00    0.68118   0.76568    0.062
 5155.00    0.69626   0.76755    0.062
 5156.00    0.69058   0.76996    0.062
 5157.00    0.69041   0.77385    0.063
 5158.00    0.72187   0.77861    0.063
 5159.00    0.74651   0.78354    0.063
 5160.00    0.74007   0.78844    0.063
 5161.00    0.73052   0.79148    0.062
 5162.00    0.70936   0.79240    0.062
 5163.00    0.68223   0.79094    0.062
 5164.00    0.63648   0.78491    0.061
 5165.00    0.60357   0.77516    0.060
 5166.00    0.60471   0.76272    0.061
 5167.00    0.59229   0.74666    0.061
 5168.00    0.54907   0.72875    0.059
 5169.00    0.52383   0.71134    0.059
 5170.00    0.53401   0.69489    0.059
 5171.00    0.53751   0.68051    0.060
 5172.00    0.52953   0.67049    0.059
 5173.00    0.54007   0.66536    0.059
 5174.00    0.57843   0.66368    0.059
 5175.00    0.61294   0.66657    0.059
 5176.00    0.64235   0.67475    0.060
 5177.00    0.63788   0.68468    0.060
 5178.00    0.59401   0.69495    0.059
 5179.00    0.58701   0.70607    0.059
 5180.00    0.61782   0.71520    0.058
 5181.00    0.62490   0.71999    0.057
 5182.00    0.61049   0.72074    0.057
 5183.00    0.59770   0.71870    0.057
 5184.00    0.58619   0.71482    0.058
 5185.00    0.58897   0.70911    0.058
 5186.00    0.60177   0.70517    0.058
 5187.00    0.61936   0.70559    0.058
 5188.00    0.63992   0.70805    0.057
 5189.00    0.64477   0.71375    0.057
 5190.00    0.64118   0.72252    0.000
 5191.00    0.63819   0.73077    0.000
 5192.00    0.63548   0.73932    0.000
 5193.00    0.63402   0.74645    0.000
 5194.00    0.63308   0.75014    0.000
 5195.00    0.64382   0.75433    0.000
 5196.00    0.65858   0.75825    0.000
 5197.00    0.68548   0.75980    0.000
 5198.00    0.71589   0.76320    0.000
 5199.00    0.68410   0.76822    0.000
 5200.00    0.63746   0.77127    0.000
 5201.00    0.65590   0.77415    0.000
 5202.00    0.68688   0.77713    0.000
 5203.00    0.68460   0.77705    0.000
 5204.00    0.67734   0.77417    0.000
 5205.00    0.68030   0.77029    0.000
 5206.00    0.68439   0.76456    0.000
 5207.00    0.64411   0.75648    0.000
 5208.00    0.60064   0.74958    0.000
 5209.00    0.61542   0.74494    0.000
 5210.00    0.63239   0.74065    0.000
 5211.00    0.67492   0.73983    0.060
 5212.00    0.71638   0.74350    0.061
 5213.00    0.71469   0.74826    0.060
 5214.00    0.71240   0.75509    0.059
 5215.00    0.70034   0.76396    0.060
 5216.00    0.69061   0.77217    0.061
 5217.00    0.70458   0.77962    0.062
 5218.00    0.71526   0.78638    0.062
 5219.00    0.70202   0.79177    0.061
 5220.00    0.69310   0.79594    0.061
 5221.00    0.70822   0.79882    0.061
 5222.00    0.72301   0.80012    0.061
 5223.00    0.73635   0.79988    0.062
 5224.00    0.73955   0.79792    0.062
 5225.00    0.70572   0.79370    0.062
 5226.00    0.67918   0.78776    0.061
 5227.00    0.67497   0.78195    0.062
 5228.00    0.67599   0.77602    0.063
 5229.00    0.69065   0.77028    0.062
 5230.00    0.70149   0.76839    0.061
 5231.00    0.70382   0.76874    0.060
 5232.00    0.70945   0.76930    0.061
 5233.00    0.72149   0.77376    0.062
 5234.00    0.74024   0.77922    0.062
 5235.00    0.77031   0.78299    0.062
 5236.00    0.77135   0.78872    0.061
 5237.00    0.72938   0.79440    0.061
 5238.00    0.71406   0.79864    0.060
 5239.00    0.73342   0.80392    0.060
 5240.00    0.74924   0.80905    0.059
 5241.00    0.76102   0.81323    0.059
 5242.00    0.77823   0.81698    0.060
 5243.00    0.80094   0.81988    0.060
 5244.00    0.78921   0.82155    0.060
 5245.00    0.74676   0.82137    0.060
 5246.00    0.73854   0.81980    0.060
 5247.00    0.75722   0.81759    0.060
 5248.00    0.75860   0.81359    0.060
 5249.00    0.74802   0.80813    0.060
 5250.00    0.73294   0.80384    0.059
 5251.00    0.71512   0.79968    0.058
 5252.00    0.73214   0.79474    0.058
 5253.00    0.76760   0.79250    0.059
 5254.00    0.75190   0.79213    0.059
 5255.00    0.71270   0.79188    0.058
 5256.00    0.70312   0.79386    0.057
 5257.00    0.70525   0.79680    0.057
 5258.00    0.70947   0.79963    0.058
 5259.00    0.71440   0.80251    0.058
 5260.00    0.70899   0.80345    0.059
 5261.00    0.70065   0.80246    0.059
 5262.00    0.67465   0.79922    0.059
 5263.00    0.64452   0.79258    0.059
 5264.00    0.62229   0.78351    0.060
 5265.00    0.60153   0.77245    0.060
 5266.00    0.60425   0.76073    0.061
 5267.00    0.61036   0.74954    0.061
 5268.00    0.64748   0.73829    0.062
 5269.00    0.68786   0.73006    0.062
 5270.00    0.64596   0.72582    0.062
 5271.00    0.59846   0.72191    0.062
 5272.00    0.57420   0.72154    0.062
 5273.00    0.55072   0.72702    0.062
 5274.00    0.60373   0.73222    0.062
 5275.00    0.65542   0.73864    0.063
 5276.00    0.66196   0.75025    0.062
 5277.00    0.66864   0.76067    0.062
 5278.00    0.67757   0.76924    0.061
 5279.00    0.68816   0.78025    0.060
 5280.00    0.71487   0.78892    0.061
 5281.00    0.73900   0.79442    0.062
 5282.00    0.74491   0.80009    0.062
 5283.00    0.74661   0.80359    0.062
 5284.00    0.72548   0.80561    0.061
 5285.00    0.71663   0.80798    0.060
 5286.00    0.76119   0.81001    0.062
 5287.00    0.78870   0.81326    0.063
 5288.00    0.75521   0.81750    0.062
 5289.00    0.73767   0.82173    0.061
 5290.00    0.76804   0.82679    0.061
 5291.00    0.78635   0.83145    0.062
 5292.00    0.77383   0.83450    0.062
 5293.00    0.76303   0.83619    0.062
 5294.00    0.75599   0.83600    0.062
 5295.00    0.75660   0.83362    0.062
 5296.00    0.77180   0.82941    0.061
 5297.00    0.76650   0.82373    0.061
 5298.00    0.72708   0.81739    0.061
 5299.00    0.70603   0.81099    0.061
 5300.00    0.71181   0.80513    0.061
 5301.00    0.71680   0.80147    0.061
 5302.00    0.72078   0.79984    0.061
 5303.00    0.72642   0.79979    0.060
 5304.00    0.73393   0.80282    0.059
 5305.00    0.74303   0.80767    0.058
 5306.00    0.75372   0.81270    0.059
 5307.00    0.75685   0.81872    0.059
 5308.00    0.75334   0.82488    0.059
 5309.00    0.74141   0.82968    0.058
 5310.00    0.72297   0.83363    0.059
 5311.00    0.73697   0.83690    0.059
 5312.00    0.77306   0.83855    0.059
 5313.00    0.77076   0.83917    0.059
 5314.00    0.74553   0.83933    0.058
 5315.00    0.74422   0.83801    0.058
 5316.00    0.75538   0.83603    0.058
 5317.00    0.75869   0.83423    0.058
 5318.00    0.75847   0.83131    0.058
 5319.00    0.78986   0.82823    0.057
 5320.00    0.83354   0.82585    0.057
 5321.00    0.81428   0.82245    0.057
 5322.00    0.77423   0.81863    0.056
 5323.00    0.74764   0.81491    0.057
 5324.00    0.72479   0.80989    0.057
 5325.00    0.73519   0.80394    0.057
 5326.00    0.75318   0.79694    0.057
 5327.00    0.71454   0.78926    0.057
 5328.00    0.66556   0.78244    0.057
 5329.00    0.67698   0.77545    0.058
 5330.00    0.69686   0.76936    0.059
 5331.00    0.72876   0.76758    0.059
 5332.00    0.76188   0.76797    0.058
 5333.00    0.74463   0.76938    0.059
 5334.00    0.72416   0.77482    0.059
 5335.00    0.73939   0.78210    0.059
 5336.00    0.75569   0.78867    0.059
 5337.00    0.77386   0.79504    0.059
 5338.00    0.79140   0.80004    0.060
 5339.00    0.79105   0.80312    0.060
 5340.00    0.79139   0.80493    0.061
 5341.00    0.80157   0.80502    0.060
 5342.00    0.80862   0.80341    0.060
 5343.00    0.78626   0.80255    0.060
 5344.00    0.76609   0.80228    0.060
 5345.00    0.76093   0.80088    0.059
 5346.00    0.75372   0.80116    0.059
 5347.00    0.73569   0.80274    0.059
 5348.00    0.72624   0.80330    0.059
 5349.00    0.75318   0.80528    0.060
 5350.00    0.77294   0.80756    0.060
 5351.00    0.76747   0.80925    0.060
 5352.00    0.76599   0.81292    0.060
 5353.00    0.77625   0.81714    0.061
 5354.00    0.78138   0.82119    0.062
 5355.00    0.77360   0.82633    0.060
 5356.00    0.78744   0.83217    0.059
 5357.00    0.84807   0.83747    0.060
 5358.00    0.88848   0.84151    0.061
 5359.00    0.89087   0.84505    0.060
 5360.00    0.88166   0.84736    0.060
 5361.00    0.85340   0.84728    0.060
 5362.00    0.81729   0.84598    0.059
 5363.00    0.76990   0.84314    0.059
 5364.00    0.72892   0.83844    0.058
 5365.00    0.69606   0.83340    0.058
 5366.00    0.68298   0.82743    0.057
 5367.00    0.69196   0.82055    0.057
 5368.00    0.70485   0.81454   -2.000
 5369.00    0.72159   0.80848   -2.000
 5370.00    0.72368   0.80239   -2.000
 5371.00    0.71305   0.79805   -2.000
 5372.00    0.69087   0.79471   -2.000
 5373.00    0.65987   0.79247   -2.000
 5374.00    0.65033   0.79308   -2.000
 5375.00    0.65519   0.79576   -2.000
 5376.00    0.69662   0.79907   -2.000
 5377.00    0.75956   0.80457   -2.000
 5378.00    0.79304   0.81099   -2.000
 5379.00    0.81140   0.81581   -2.000
 5380.00    0.79460   0.82050   -2.000
 5381.00    0.76216   0.82414   -2.000
 5382.00    0.77611   0.82540   -2.000
 5383.00    0.80778   0.82615    0.058
 5384.00    0.78360   0.82631    0.058
 5385.00    0.74131   0.82493    0.058
 5386.00    0.75778   0.82377    0.058
 5387.00    0.79020   0.82302    0.059
 5388.00    0.79584   0.82116    0.059
 5389.00    0.79551   0.81937    0.058
 5390.00    0.75989   0.81772    0.058
 5391.00    0.71799   0.81480    0.058
 5392.00    0.69810   0.81139    0.058
 5393.00    0.68120   0.80780    0.059
 5394.00    0.73153   0.80356    0.060
 5395.00    0.78835   0.79906    0.060
 5396.00    0.75016   0.79458    0.060
 5397.00    0.70626   0.79109    0.059
 5398.00    0.67685   0.78789    0.058
 5399.00    0.64821   0.78444    0.058
 5400.00    0.68460   0.78340    0.059
 5401.00    0.71934   0.78308    0.060
 5402.00    0.71151   0.78125    0.059
 5403.00    0.70385   0.78072    0.058
 5404.00    0.69850   0.78067    0.059
 5405.00    0.69360   0.77840    0.060
 5406.00    0.69268   0.77583    0.059
 5407.00    0.69340   0.77372    0.058
 5408.00    0.70491   0.77106    0.059
 5409.00    0.71677   0.76946    0.060
 5410.00    0.73041   0.76940    0.060
 5411.00    0.74192   0.77006    0.060
 5412.00    0.74462   0.77260    0.059
 5413.00    0.74054   0.77737    0.059
 5414.00    0.71311   0.78250    0.058
 5415.00    0.70388   0.78818    0.057
 5416.00    0.74729   0.79467    0.059
 5417.00    0.78170   0.80046    0.060
 5418.00    0.79387   0.80596    0.059
 5419.00    0.79096   0.81059    0.058
 5420.00    0.75592   0.81354    0.057
 5421.00    0.73716   0.81605    0.057
 5422.00    0.74854   0.81728    0.057
 5423.00    0.74476   0.81700    0.057
 5424.00    0.71652   0.81699    0.056
 5425.00    0.71375   0.81581    0.056
 5426.00    0.74708   0.81341    0.056
 5427.00    0.75708   0.81214    0.056
 5428.00    0.73798   0.80976    0.056
 5429.00    0.72043   0.80658    0.056
 5430.00    0.70458   0.80425    0.056
 5431.00    0.69687   0.79985    0.056
 5432.00    0.69705   0.79593    0.056
 5433.00    0.69057   0.79386    0.056
 5434.00    0.67840   0.79002    0.056
 5435.00    0.68374   0.78769    0.056
 5436.00    0.70228   0.78795    0.055
 5437.00    0.72530   0.78851    0.056
 5438.00    0.75129   0.79117    0.056
 5439.00    0.76463   0.79541    0.056
 5440.00    0.77063   0.80044    0.056
 5441.00    0.76929   0.80617    0.056
 5442.00    0.76424   0.81130    0.056
 5443.00    0.77521   0.81533    0.056
 5444.00    0.79317   0.81772    0.057
 5445.00    0.78613   0.81809    0.058
 5446.00    0.76971   0.81636    0.057
 5447.00    0.74811   0.81328    0.058
 5448.00    0.72485   0.80883    0.059
 5449.00    0.72450   0.80402    0.059
 5450.00    0.73023   0.80085    0.059
 5451.00    0.73338   0.79776    0.059
 5452.00    0.73597   0.79509    0.058
 5453.00    0.69948   0.79416    0.058
 5454.00    0.65623   0.79299    0.058
 5455.00    0.67863   0.79198    0.059
 5456.00    0.70963   0.79139    0.060
 5457.00    0.69282   0.78971    0.059
 5458.00    0.67159   0.78898    0.058
 5459.00    0.70819   0.78951    0.059
 5460.00    0.74804   0.78937    0.059
 5461.00    0.75280   0.79000    0.059
 5462.00    0.75676   0.79118    0.059
 5463.00    0.75811   0.79226    0.059
 5464.00    0.75811   0.79344    0.059
 5465.00    0.72658   0.79371    0.058
 5466.00    0.69924   0.79468    0.057
 5467.00    0.72570   0.79595    0.057
 5468.00    0.75007   0.79598    0.057
 5469.00    0.75638   0.79662    0.057
 5470.00    0.75899   0.79748    0.056
 5471.00    0.73791   0.79720    0.056
 5472.00    0.71930   0.79620    0.056
 5473.00    0.71312   0.79477    0.056
 5474.00    0.71455   0.79282    0.056
 5475.00    0.74694   0.78922    0.056
 5476.00    0.76518   0.78561    0.056
 5477.00    0.73584   0.78297    0.056
 5478.00    0.70372   0.77896   -2.000
 5479.00    0.66373   0.77597   -2.000
 5480.00    0.68447   0.77549   -2.000
 5481.00    0.85266   0.77521   -2.000
 5482.00    0.98336   0.77569   -2.000
 5483.00    1.03553   0.77740   -2.000
 5484.00    1.00750   0.78010   -2.000
 5485.00    0.83338   0.78337   -2.000
 5486.00    0.58796   0.78637   -2.000
 5487.00    0.22901   0.78964   -2.000
 5488.00    0.02153   0.79271   -2.000
 5489.00    0.02564   0.79466   -2.000
 5490.00    0.18607   0.79655   -2.000
 5491.00    0.53869   0.79859   -2.000
 5492.00    0.83696   0.79927   -2.000
 5493.00    1.07634   0.79996   -2.000
 5494.00    1.12603   0.80113   -2.000
 5495.00    0.99440   0.80100   -2.000
 5496.00    0.88028   0.80088   -2.000
 5497.00    0.78092   0.80125   -2.000
 5498.00    0.74895   0.80084   -2.000
 5499.00    0.76700   0.79963   -2.000
 5500.00    0.75084   0.79872   -2.000
 5501.00    0.71236   0.79835   -2.000
 5502.00    0.71275   0.79691    0.058
 5503.00    0.73531   0.79490    0.058
 5504.00    0.72569   0.79368    0.058
 5505.00    0.70009   0.79221    0.058
 5506.00    0.71278   0.79059    0.057
 5507.00    0.74193   0.78939    0.057
 5508.00    0.72758   0.78741    0.057
 5509.00    0.69722   0.78612    0.057
 5510.00    0.71111   0.78596    0.058
 5511.00    0.73882   0.78442    0.058
 5512.00    0.72255   0.78345    0.058
 5513.00    0.69485   0.78325    0.058
 5514.00    0.71276   0.78221    0.057
 5515.00    0.74036   0.78237    0.057
 5516.00    0.74189   0.78324    0.057
 5517.00    0.73904   0.78460    0.057
 5518.00    0.72953   0.78734    0.057
 5519.00    0.71919   0.79036    0.057
 5520.00    0.74084   0.79418    0.057
 5521.00    0.76531   0.79819    0.056
 5522.00    0.75822   0.80127    0.056
 5523.00    0.74947   0.80395    0.056
 5524.00    0.74130   0.80545    0.055
 5525.00    0.73327   0.80558    0.055
 5526.00    0.73551   0.80470    0.055
 5527.00    0.73885   0.80244    0.055
 5528.00    0.76612   0.79978    0.055
 5529.00    0.78878   0.79696    0.055
 5530.00    0.75539   0.79367    0.054
 5531.00    0.72761   0.79184    0.054
 5532.00    0.74660   0.79119    0.055
 5533.00    0.76316   0.79067    0.055
 5534.00    0.76451   0.79107    0.055
 5535.00    0.76690   0.79240    0.055
 5536.00    0.77439   0.79401    0.056
 5537.00    0.77876   0.79543    0.056
 5538.00    0.77077   0.79747    0.057
 5539.00    0.76622   0.79959    0.058
 5540.00    0.77304   0.80111    0.057
 5541.00    0.77860   0.80308    0.057
 5542.00    0.78068   0.80481    0.058
 5543.00    0.78635   0.80622    0.059
 5544.00    0.80061   0.80756    0.059
 5545.00    0.80251   0.80808    0.059
 5546.00    0.77892   0.80890    0.059
 5547.00    0.77224   0.80988    0.058
 5548.00    0.79587   0.81014    0.059
 5549.00    0.80787   0.81082    0.059
 5550.00    0.80165   0.81190    0.059
 5551.00    0.80406   0.81252    0.059
 5552.00    0.81837   0.81305    0.059
 5553.00    0.83036   0.81332    0.059
 5554.00    0.83954   0.81312    0.059
 5555.00    0.80666   0.81257    0.059
 5556.00    0.72884   0.81131    0.057
 5557.00    0.70262   0.81001    0.056
 5558.00    0.72501   0.80887    0.057
 5559.00    0.75183   0.80716    0.057
 5560.00    0.78232   0.80557    0.056
 5561.00    0.78691   0.80421    0.056
 5562.00    0.77254   0.80258    0.058
 5563.00    0.75125   0.80098    0.058
 5564.00    0.72552   0.79907    0.056
 5565.00    0.70509   0.79684    0.055
 5566.00    0.68765   0.79501    0.055
 5567.00    0.70810   0.79289    0.055
 5568.00    0.74710   0.79060    0.054
 5569.00    0.76109   0.78890    0.055
 5570.00    0.76451   0.78761    0.055
 5571.00    0.76241   0.78615    0.055
 5572.00    0.75831   0.78529    0.054
 5573.00    0.75524   0.78567    0.054
 5574.00    0.75249   0.78552    0.055
 5575.00    0.75965   0.78567    0.055
 5576.00    0.76933   0.78745    0.055
 5577.00    0.76001   0.78871    0.055
 5578.00    0.74676   0.78983    0.055
 5579.00    0.76965   0.79179    0.056
 5580.00    0.79844   0.79285    0.057
 5581.00    0.80302   0.79362    0.057
 5582.00    0.80464   0.79431    0.057
 5583.00    0.80380   0.79318    0.058
 5584.00    0.80275   0.79144    0.060
 5585.00    0.76558   0.78922    0.059
 5586.00    0.72665   0.78531    0.057
 5587.00    0.71375   0.78105    0.058
 5588.00    0.70107   0.77624    0.059
 5589.00    0.67887   0.77104    0.058
 5590.00    0.65872   0.76702    0.058
 5591.00    0.67943   0.76353    0.059
 5592.00    0.69958   0.76131    0.059
 5593.00    0.71332   0.76078    0.060
 5594.00    0.72229   0.76098    0.060
 5595.00    0.69292   0.76248    0.060
 5596.00    0.67356   0.76412    0.059
 5597.00    0.71464   0.76601    0.060
 5598.00    0.74875   0.76865    0.060
 5599.00    0.74963   0.76988    0.060
 5600.00    0.74855   0.77014    0.060
 5601.00    0.73982   0.77083    0.060
 5602.00    0.73283   0.77122    0.059
 5603.00    0.73149   0.77171    0.059
 5604.00    0.73105   0.77264    0.059
 5605.00    0.73310   0.77422    0.059
 5606.00    0.73550   0.77773    0.058
 5607.00    0.73874   0.78194    0.057
 5608.00    0.74632   0.78623    0.055
 5609.00    0.76271   0.79101    0.055
 5610.00    0.77035   0.79541    0.055
 5611.00    0.76257   0.79907    0.055
 5612.00    0.74977   0.80123    0.055
 5613.00    0.72922   0.80188    0.054
 5614.00    0.72185   0.80102    0.054
 5615.00    0.73236   0.79897    0.054
 5616.00    0.74986   0.79587    0.055
 5617.00    0.77571   0.79122    0.055
 5618.00    0.77460   0.78755    0.055
 5619.00    0.74509   0.78505    0.055
 5620.00    0.72865   0.78246    0.054
 5621.00    0.72436   0.78085    0.053
 5622.00    0.72101   0.77992    0.053
 5623.00    0.71844   0.77985    0.054
 5624.00    0.71498   0.78070    0.054
 5625.00    0.71087   0.78116    0.054
 5626.00    0.71368   0.78122    0.055
 5627.00    0.72086   0.78199    0.056
 5628.00    0.72531   0.78353    0.057
 5629.00    0.72823   0.78486    0.057
 5630.00    0.73723   0.78640    0.057
 5631.00    0.74916   0.78845    0.057
 5632.00    0.76825   0.79043    0.057
 5633.00    0.79032   0.79250    0.058
 5634.00    0.76570   0.79393    0.058
 5635.00    0.72449   0.79443    0.058
 5636.00    0.74035   0.79462    0.059
 5637.00    0.77333   0.79392    0.059
 5638.00    0.76416   0.79248    0.059
 5639.00    0.74448   0.79077    0.059
 5640.00    0.73484   0.78877    0.058
 5641.00    0.72723   0.78728    0.057
 5642.00    0.71752   0.78593    0.057
 5643.00    0.70748   0.78457    0.058
 5644.00    0.73285   0.78427    0.058
 5645.00    0.76240   0.78442    0.057
 5646.00    0.75658   0.78487    0.057
 5647.00    0.74793   0.78597    0.057
 5648.00    0.74741   0.78690    0.057
 5649.00    0.74725   0.78833    0.056
 5650.00    0.75120   0.78990    0.057
 5651.00    0.75517   0.79081    0.057
 5652.00    0.75775   0.79161    0.056
 5653.00    0.76068   0.79210    0.055
 5654.00    0.77002   0.79195    0.055
 5655.00    0.77571   0.79112    0.054
 5656.00    0.74097   0.78924    0.054
 5657.00    0.70560   0.78656    0.053
 5658.00    0.66542   0.78405    0.054
 5659.00    0.63659   0.78101    0.054
 5660.00    0.67439   0.77699    0.054
 5661.00    0.70984   0.77400    0.054
 5662.00    0.73434   0.77234    0.054
 5663.00    0.75674   0.77117    0.055
 5664.00    0.77117   0.77054    0.055
 5665.00    0.77851   0.77069    0.055
 5666.00    0.76332   0.77215    0.055
 5667.00    0.74967   0.77459    0.056
 5668.00    0.74016   0.77674    0.056
 5669.00    0.73661   0.77855    0.056
 5670.00    0.74678   0.78087    0.056
 5671.00    0.74486   0.78343    0.057
 5672.00    0.71880   0.78581    0.057
 5673.00    0.71695   0.78797    0.058
 5674.00    0.75720   0.79024    0.058
 5675.00    0.76915   0.79264    0.058
 5676.00    0.73805   0.79483    0.057
 5677.00    0.72730   0.79649    0.058
 5678.00    0.74378   0.79783    0.059
 5679.00    0.74887   0.79882    0.059
 5680.00    0.74053   0.79893    0.059
 5681.00    0.73712   0.79821    0.059
 5682.00    0.73882   0.79691    0.058
 5683.00    0.73955   0.79531    0.058
 5684.00    0.73937   0.79304    0.057
 5685.00    0.73445   0.79061    0.056
 5686.00    0.72569   0.78836    0.055
 5687.00    0.72393   0.78657    0.055
 5688.00    0.72716   0.78524    0.055
 5689.00    0.71618   0.78405    0.055
 5690.00    0.69634   0.78383    0.055
 5691.00    0.71000   0.78456    0.055
 5692.00    0.74190   0.78604    0.055
 5693.00    0.75997   0.78771    0.055
 5694.00    0.77148   0.78956    0.055
 5695.00    0.78036   0.79146    0.055
 5696.00    0.78816   0.79289    0.056
 5697.00    0.77556   0.79389    0.057
 5698.00    0.75583   0.79401    0.057
 5699.00    0.75819   0.79340    0.057
 5700.00    0.76704   0.79162    0.057
 5701.00    0.76594   0.78945    0.056
 5702.00    0.76242   0.78694    0.055
 5703.00    0.76977   0.78382    0.056
 5704.00    0.77927   0.78096    0.056
 5705.00    0.76953   0.77770    0.056
 5706.00    0.75684   0.77489    0.055
 5707.00    0.74634   0.77228    0.055
 5708.00    0.73609   0.76901    0.055
 5709.00    0.73696   0.76653    0.055
 5710.00    0.73867   0.76438    0.056
 5711.00    0.70849   0.76249    0.056
 5712.00    0.67700   0.76202    0.055
 5713.00    0.70915   0.76196    0.056
 5714.00    0.74091   0.76308    0.056
 5715.00    0.73608   0.76608    0.057
 5716.00    0.73147   0.76941    0.059
 5717.00    0.73057   0.77380    0.057
 5718.00    0.73168   0.77887    0.056
 5719.00    0.75409   0.78339    0.057
 5720.00    0.77186   0.78830    0.057
 5721.00    0.75494   0.79286    0.057
 5722.00    0.74459   0.79625    0.056
 5723.00    0.77177   0.79934    0.056
 5724.00    0.79574   0.80157    0.055
 5725.00    0.80520   0.80283    0.055
 5726.00    0.81133   0.80365    0.055
 5727.00    0.80503   0.80371    0.055
 5728.00    0.78984   0.80305    0.055
 5729.00    0.74700   0.80197    0.055
 5730.00    0.71527   0.80092    0.054
 5731.00    0.71290   0.79999    0.054
 5732.00    0.71208   0.79929    0.054
 5733.00    0.71473   0.79846    0.053
 5734.00    0.71649   0.79802    0.052
 5735.00    0.71649   0.79847    0.053
 5736.00    0.72522   0.79911    0.053
 5737.00    0.74891   0.79989    0.053
 5738.00    0.77042   0.80017    0.053
 5739.00    0.78869   0.80064    0.053
 5740.00    0.79892   0.80141    0.000
 5741.00    0.79856   0.80168    0.000
 5742.00    0.79361   0.80190    0.000
 5743.00    0.78333   0.80186    0.000
 5744.00    0.78635   0.80170    0.000
 5745.00    0.80297   0.80159    0.000
 5746.00    0.80140   0.80139    0.000
 5747.00    0.78341   0.80118    0.000
 5748.00    0.76037   0.80094    0.000
 5749.00    0.73331   0.80029    0.000
 5750.00    0.72992   0.79923    0.000
 5751.00    0.74310   0.79833    0.000
 5752.00    0.76809   0.79746    0.000
 5753.00    0.80032   0.79641    0.000
 5754.00    0.79588   0.79509    0.000
 5755.00    0.77176   0.79366    0.000
 5756.00    0.75827   0.79276    0.000
 5757.00    0.74972   0.79264    0.000
 5758.00    0.74308   0.79263    0.000
 5759.00    0.73722   0.79254    0.000
 5760.00    0.73845   0.79262    0.000
 5761.00    0.74212   0.79270    0.000
 5762.00    0.75584   0.79299    0.000
 5763.00    0.77247   0.79326    0.000
 5764.00    0.75448   0.79316    0.000
 5765.00    0.72825   0.79320    0.000
 5766.00    0.74733   0.79384    0.000
 5767.00    0.77512   0.79461    0.000
 5768.00    0.79123   0.79568    0.000
 5769.00    0.80560   0.79684    0.000
 5770.00    0.80980   0.79800    0.000
 5771.00    0.81289   0.79928    0.000
 5772.00    0.79832   0.80015    0.000
 5773.00    0.78249   0.80043    0.000
 5774.00    0.80310   0.80009    0.000
 5775.00    0.82506   0.79956    0.000
 5776.00    0.79793   0.79842    0.000
 5777.00    0.77085   0.79679    0.000
 5778.00    0.75245   0.79492    0.000
 5779.00    0.73571   0.79233    0.000
 5780.00    0.74562   0.78955    0.000
 5781.00    0.75226   0.78640    0.000
 5782.00    0.72578   0.78264    0.000
 5783.00    0.70265   0.77899    0.000
 5784.00    0.70376   0.77565    0.000
 5785.00    0.70598   0.77287    0.000
 5786.00    0.71439   0.77102    0.000
 5787.00    0.72209   0.76963    0.000
 5788.00    0.72667   0.76945    0.000
 5789.00    0.73264   0.77064    0.000
 5790.00    0.74369   0.77246    0.000
 5791.00    0.74800   0.77524   -2.000
 5792.00    0.73172   0.77776   -2.000
 5793.00    0.71897   0.78053   -2.000
 5794.00    0.71539   0.78379   -2.000
 5795.00    0.70748   0.78644   -2.000
 5796.00    0.68993   0.78922   -2.000
 5797.00    0.69627   0.79155   -2.000
 5798.00    0.74880   0.79355   -2.000
 5799.00    0.78153   0.79554   -2.000
 5800.00    0.78085   0.79719   -2.000
 5801.00    0.77147   0.79896   -2.000
 5802.00    0.74924   0.80052   -2.000
 5803.00    0.75250   0.80181   -2.000
 5804.00    0.78889   0.80287   -2.000
 5805.00    0.80776   0.80347   -2.000
 5806.00    0.80657   0.80390   -2.000
 5807.00    0.80205   0.80413   -2.000
 5808.00    0.79416   0.80391   -2.000
 5809.00    0.77968   0.80376   -2.000
 5810.00    0.75933   0.80343   -2.000
 5811.00    0.76221   0.80296    0.000
 5812.00    0.78331   0.80273    0.000
 5813.00    0.78514   0.80236    0.000
 5814.00    0.77367   0.80211    0.000
 5815.00    0.75974   0.80188    0.000
 5816.00    0.74432   0.80150    0.000
 5817.00    0.75219   0.80124    0.000
 5818.00    0.77234   0.80100    0.000
 5819.00    0.76600   0.80105    0.000
 5820.00    0.74752   0.80153    0.000
 5821.00    0.75458   0.80219    0.000
 5822.00    0.77172   0.80313    0.000
 5823.00    0.79002   0.80413    0.000
 5824.00    0.80870   0.80526    0.000
 5825.00    0.82419   0.80641    0.000
 5826.00    0.83878   0.80740    0.000
 5827.00    0.82270   0.80831    0.000
 5828.00    0.79947   0.80887    0.000
 5829.00    0.79234   0.80938    0.000
 5830.00    0.78822   0.80965    0.000
 5831.00    0.76140   0.80980    0.000
 5832.00    0.73130   0.80991    0.000
 5833.00    0.75219   0.80974    0.000
 5834.00    0.77840   0.80957    0.000
 5835.00    0.76561   0.80922    0.000
 5836.00    0.75019   0.80882    0.000
 5837.00    0.76013   0.80839    0.000
 5838.00    0.77091   0.80810    0.000
 5839.00    0.78939   0.80783    0.000
 5840.00    0.80691   0.80760    0.000
 5841.00    0.79408   0.80753    0.000
 5842.00    0.78247   0.80743    0.000
 5843.00    0.78930   0.80753    0.000
 5844.00    0.79602   0.80735    0.000
 5845.00    0.80169   0.80700    0.000
 5846.00    0.80642   0.80626    0.000
 5847.00    0.80455   0.80515    0.000
 5848.00    0.79746   0.80373    0.000
 5849.00    0.76223   0.80159    0.000
 5850.00    0.73933   0.79925    0.000
 5851.00    0.76988   0.79648    0.000
 5852.00    0.78993   0.79351    0.000
 5853.00    0.77253   0.79042    0.000
 5854.00    0.75597   0.78685    0.000
 5855.00    0.74191   0.78332    0.000
 5856.00    0.73416   0.77999    0.000
 5857.00    0.74250   0.77695    0.000
 5858.00    0.74819   0.77439    0.000
 5859.00    0.74806   0.77189    0.000
 5860.00    0.74601   0.77014    0.000
 5861.00    0.74027   0.76925    0.000
 5862.00    0.73783   0.76909    0.000
 5863.00    0.74086   0.76983    0.000
 5864.00    0.74303   0.77058    0.000
 5865.00    0.74398   0.77195    0.000
 5866.00    0.73862   0.77364    0.000
 5867.00    0.72518   0.77548    0.000
 5868.00    0.71863   0.77739    0.000
 5869.00    0.71986   0.77898    0.000
 5870.00    0.72290   0.78068    0.000
 5871.00    0.72774   0.78221    0.000
 5872.00    0.73037   0.78376    0.000
 5873.00    0.73104   0.78497    0.000
 5874.00    0.72655   0.78575    0.000
 5875.00    0.71805   0.78621    0.000
 5876.00    0.71892   0.78620    0.000
 5877.00    0.72616   0.78578    0.000
 5878.00    0.73456   0.78485    0.000
 5879.00    0.74366   0.78343    0.000
 5880.00    0.73974   0.78146    0.000
 5881.00    0.72906   0.77910    0.000
 5882.00    0.73518   0.77622    0.000
 5883.00    0.74887   0.77300    0.000
 5884.00    0.73118   0.76914    0.000
 5885.00    0.70132   0.76427    0.000
 5886.00    0.68199   0.75801    0.000
 5887.00    0.66613   0.75028    0.000
 5888.00    0.64450   0.74159    0.000
 5889.00    0.62126   0.73157    0.000
 5890.00    0.61517   0.72068    0.000
 5891.00    0.61297   0.70878    0.000
 5892.00    0.60617   0.69649    0.000
 5893.00    0.59852   0.68626    0.000
 5894.00    0.60199   0.67786    0.000
 5895.00    0.60702   0.67231    0.000
 5896.00    0.60689   0.66940    0.000
 5897.00    0.60624   0.66781    0.000
 5898.00    0.62357   0.66925    0.000
 5899.00    0.64205   0.67376    0.000
 5900.00    0.64310   0.68044    0.000
 5901.00    0.64372   0.68949    0.050
 5902.00    0.67039   0.69904    0.050
 5903.00    0.69672   0.70869    0.050
 5904.00    0.71401   0.71883    0.049
 5905.00    0.73087   0.72845    0.049
 5906.00    0.74165   0.73747    0.049
 5907.00    0.75246   0.74527    0.049
 5908.00    0.76347   0.75133    0.050
 5909.00    0.77363   0.75610    0.050
 5910.00    0.77801   0.75973    0.049
 5911.00    0.77954   0.76209    0.048
 5912.00    0.76614   0.76367    0.048
 5913.00    0.75159   0.76433    0.048
 5914.00    0.73218   0.76445    0.047
 5915.00    0.71581   0.76420    0.046
 5916.00    0.71005   0.76343    0.046
 5917.00    0.70496   0.76294    0.047
 5918.00    0.70186   0.76218    0.046
 5919.00    0.70501   0.76205    0.046
 5920.00    0.72382   0.76224    0.047
 5921.00    0.73800   0.76264    0.048
 5922.00    0.74220   0.76355    0.048
 5923.00    0.74820   0.76433    0.048
 5924.00    0.75761   0.76545    0.048
 5925.00    0.76083   0.76655    0.048
 5926.00    0.75394   0.76740    0.049
 5927.00    0.74270   0.76815    0.049
 5928.00    0.72524   0.76871    0.049
 5929.00    0.72218   0.76897    0.049
 5930.00    0.73733   0.76908    0.049
 5931.00    0.74979   0.76886    0.049
 5932.00    0.75925   0.76851    0.050
 5933.00    0.75948   0.76849    0.050
 5934.00    0.75065   0.76833    0.050
 5935.00    0.75148   0.76843    0.049
 5936.00    0.76066   0.76856    0.050
 5937.00    0.77188   0.76854    0.050
 5938.00    0.78467   0.76879    0.049
 5939.00    0.78372   0.76897    0.049
 5940.00    0.77355   0.76944    0.049
 5941.00    0.75089   0.76984    0.048
 5942.00    0.72090   0.76993    0.047
 5943.00    0.72013   0.76990    0.047
 5944.00    0.73431   0.76985    0.047
 5945.00    0.73143   0.76976    0.047
 5946.00    0.72098   0.76968    0.046
 5947.00    0.71815   0.76959    0.046
 5948.00    0.71823   0.76934    0.047
 5949.00    0.72577   0.76889    0.047
 5950.00    0.73574   0.76812    0.047
 5951.00    0.74293   0.76736    0.047
 5952.00    0.74936   0.76662    0.047
 5953.00    0.75187   0.76579    0.047
 5954.00    0.75351   0.76503    0.047
 5955.00    0.75785   0.76440    0.047
 5956.00    0.76267   0.76393    0.047
 5957.00    0.75164   0.76368    0.047
 5958.00    0.73847   0.76387    0.047
 5959.00    0.74016   0.76454    0.047
 5960.00    0.74328   0.76541    0.047
 5961.00    0.74703   0.76644    0.048
 5962.00    0.75081   0.76782    0.049
 5963.00    0.75401   0.76940    0.049
 5964.00    0.75722   0.77119    0.050
 5965.00    0.76415   0.77257    0.049
 5966.00    0.77079   0.77390    0.048
 5967.00    0.77015   0.77510    0.048
 5968.00    0.76957   0.77603    0.048
 5969.00    0.76971   0.77695    0.048
 5970.00    0.76994   0.77744    0.048
 5971.00    0.77101   0.77804    0.048
 5972.00    0.77106   0.77823    0.048
 5973.00    0.76442   0.77819    0.048
 5974.00    0.75539   0.77783    0.048
 5975.00    0.73407   0.77708    0.047
 5976.00    0.71807   0.77616    0.046
 5977.00    0.72410   0.77485    0.046
 5978.00    0.72777   0.77330    0.045
 5979.00    0.72339   0.77156    0.045
 5980.00    0.72115   0.76981    0.045
 5981.00    0.72509   0.76814    0.045
 5982.00    0.73177   0.76688    0.045
 5983.00    0.74519   0.76577    0.046
 5984.00    0.75654   0.76490    0.046
 5985.00    0.76351   0.76404    0.046
 5986.00    0.76269   0.76336    0.046
 5987.00    0.74750   0.76311    0.046
 5988.00    0.73528   0.76295    0.045
 5989.00    0.72786   0.76343    0.046
 5990.00    0.72821   0.76420    0.047
 5991.00    0.73957   0.76516    0.048
 5992.00    0.74376   0.76629    0.048
 5993.00    0.73903   0.76738    0.048
 5994.00    0.73252   0.76874    0.049
 5995.00    0.72405   0.76993    0.049
 5996.00    0.71790   0.77090    0.049
 5997.00    0.71402   0.77160    0.049
 5998.00    0.72434   0.77197    0.049
 5999.00    0.74679   0.77176    0.049
 6000.00    0.75183   0.77117    0.048
 6001.00    0.74378   0.77041    0.048
 6002.00    0.73704   0.76952    0.048
 6003.00    0.73118   0.76852    0.048
 6004.00    0.72552   0.76720    0.047
 6005.00    0.71998   0.76575    0.047
 6006.00    0.71621   0.76443    0.047
 6007.00    0.71333   0.76313    0.046
 6008.00    0.71624   0.76211    0.046
 6009.00    0.72167   0.76121    0.046
 6010.00    0.72285   0.76010    0.046
 6011.00    0.72244   0.75954    0.046
 6012.00    0.72797   0.75902    0.046
 6013.00    0.73539   0.75899    0.046
 6014.00    0.73937   0.75925    0.045
 6015.00    0.74244   0.75919    0.045
 6016.00    0.73741   0.75918    0.046
 6017.00    0.73062   0.75891    0.046
 6018.00    0.72748   0.75881    0.047
 6019.00    0.72497   0.75883    0.047
 6020.00    0.71765   0.75848    0.047
 6021.00    0.70970   0.75802    0.048
 6022.00    0.71271   0.75786    0.047
 6023.00    0.71673   0.75779    0.047
 6024.00    0.71707   0.75794    0.046
 6025.00    0.71719   0.75855    0.046
 6026.00    0.72220   0.75950    0.047
 6027.00    0.72740   0.76108    0.048
 6028.00    0.74116   0.76271    0.049
 6029.00    0.75507   0.76475    0.050
 6030.00    0.77233   0.76715    0.049
 6031.00    0.78827   0.76934    0.048
 6032.00    0.78735   0.77179    0.048
 6033.00    0.78506   0.77393    0.048
 6034.00    0.77089   0.77592    0.048
 6035.00    0.75813   0.77758    0.048
 6036.00    0.75438   0.77886    0.047
 6037.00    0.75125   0.77996    0.046
 6038.00    0.75122   0.78066    0.046
 6039.00    0.75211   0.78102    0.045
 6040.00    0.75678   0.78122    0.045
 6041.00    0.75916   0.78125    0.045
 6042.00    0.75383   0.78121    0.044
 6043.00    0.75107   0.78119    0.044
 6044.00    0.75562   0.78115    0.045
 6045.00    0.76007   0.78149    0.045
 6046.00    0.76429   0.78172    0.046
 6047.00    0.76707   0.78231    0.046
 6048.00    0.76682   0.78286    0.046
 6049.00    0.76372   0.78333    0.046
 6050.00    0.75543   0.78377    0.046
 6051.00    0.75220   0.78391    0.046
 6052.00    0.75701   0.78399    0.045
 6053.00    0.76030   0.78355    0.046
 6054.00    0.76148   0.78307    0.047
 6055.00    0.75802   0.78223    0.047
 6056.00    0.74887   0.78125    0.047
 6057.00    0.73457   0.78005    0.047
 6058.00    0.71471   0.77887    0.047
 6059.00    0.70840   0.77774    0.048
 6060.00    0.71504   0.77656    0.048
 6061.00    0.73111   0.77566    0.048
 6062.00    0.75511   0.77457    0.049
 6063.00    0.76231   0.77385    0.048
 6064.00    0.75705   0.77305    0.047
 6065.00    0.75358   0.77233    0.047
 6066.00    0.75127   0.77183    0.048
 6067.00    0.75271   0.77131    0.047
 6068.00    0.75628   0.77154    0.047
 6069.00    0.76384   0.77188    0.046
 6070.00    0.77339   0.77307    0.046
 6071.00    0.78122   0.77487    0.045
 6072.00    0.78831   0.77666    0.045
 6073.00    0.79601   0.77848    0.045
 6074.00    0.80392   0.78004    0.046
 6075.00    0.80563   0.78129    0.046
 6076.00    0.80541   0.78204    0.046
 6077.00    0.79557   0.78221    0.045
 6078.00    0.78323   0.78156    0.045
 6079.00    0.77958   0.78043    0.045
 6080.00    0.77778   0.77857    0.044
 6081.00    0.77283   0.77654    0.045
 6082.00    0.76736   0.77422    0.045
 6083.00    0.75685   0.77198    0.046
 6084.00    0.74572   0.77014    0.047
 6085.00    0.73224   0.76841    0.047
 6086.00    0.71857   0.76695    0.048
 6087.00    0.72274   0.76586    0.048
 6088.00    0.72784   0.76529    0.047
 6089.00    0.72952   0.76477    0.047
 6090.00    0.73104   0.76460    0.046
 6091.00    0.72623   0.76463    0.047
 6092.00    0.72144   0.76486    0.048
 6093.00    0.71709   0.76503    0.047
 6094.00    0.71394   0.76521    0.046
 6095.00    0.72531   0.76572    0.047
 6096.00    0.73592   0.76636    0.047
 6097.00    0.74023   0.76689    0.047
 6098.00    0.74478   0.76730    0.046
 6099.00    0.75086   0.76741    0.046
 6100.00    0.75294   0.76697    0.046
 6101.00    0.73555   0.76628    0.046
 6102.00    0.72245   0.76522    0.045
 6103.00    0.72637   0.76398    0.045
 6104.00    0.73188   0.76236    0.045
 6105.00    0.74261   0.76083    0.045
 6106.00    0.74983   0.75937    0.044
 6107.00    0.74727   0.75845    0.044
 6108.00    0.74517   0.75900    0.044
 6109.00    0.74413   0.75987    0.044
 6110.00    0.74483   0.76112    0.045
 6111.00    0.74911   0.76262    0.045
 6112.00    0.74428   0.76418    0.045
 6113.00    0.72315   0.76599    0.046
 6114.00    0.70686   0.76761    0.046
 6115.00    0.69815   0.76886    0.045
 6116.00    0.70173   0.76961    0.045
 6117.00    0.72220   0.76984    0.046
 6118.00    0.73477   0.76940    0.047
 6119.00    0.73778   0.76821    0.047
 6120.00    0.73676   0.76660    0.047
 6121.00    0.73146   0.76457    0.047
 6122.00    0.72403   0.76244    0.048
 6123.00    0.71461   0.75994    0.048
 6124.00    0.71406   0.75754    0.047
 6125.00    0.72087   0.75573    0.047
 6126.00    0.73000   0.75410    0.046
 6127.00    0.74084   0.75381    0.046
 6128.00    0.74482   0.75437    0.045
 6129.00    0.74441   0.75499    0.045
 6130.00    0.72995   0.75587    0.045
 6131.00    0.70760   0.75670    0.044
 6132.00    0.69459   0.75739    0.044
 6133.00    0.68615   0.75752    0.045
 6134.00    0.67289   0.75710    0.045
 6135.00    0.65760   0.75622    0.045
 6136.00    0.64650   0.75424    0.045
 6137.00    0.63692   0.75188    0.045
 6138.00    0.65056   0.74902    0.045
 6139.00    0.67129   0.74616    0.045
 6140.00    0.69338   0.74386    0.046
 6141.00    0.71580   0.74209    0.046
 6142.00    0.72041   0.74221    0.046
 6143.00    0.72134   0.74345    0.045
 6144.00    0.72604   0.74532    0.046
 6145.00    0.73136   0.74731    0.047
 6146.00    0.73909   0.74969    0.047
 6147.00    0.74710   0.75269    0.047
 6148.00    0.75193   0.75533    0.047
 6149.00    0.75648   0.75755    0.048
 6150.00    0.73073   0.75913    0.048
 6151.00    0.70352   0.75994    0.047
 6152.00    0.71230   0.75983    0.047
 6153.00    0.72137   0.75939    0.047
 6154.00    0.71624   0.75845    0.047
 6155.00    0.71028   0.75734    0.047
 6156.00    0.68801   0.75556    0.047
 6157.00    0.66648   0.75343    0.046
 6158.00    0.65362   0.75021    0.046
 6159.00    0.64262   0.74627    0.046
 6160.00    0.64642   0.74214    0.046
 6161.00    0.65023   0.73717    0.046
 6162.00    0.65415   0.73195    0.046
 6163.00    0.65766   0.72640    0.045
 6164.00    0.65924   0.72106    0.045
 6165.00    0.66134   0.71564    0.044
 6166.00    0.66549   0.71108    0.044
 6167.00    0.67128   0.70831    0.044
 6168.00    0.68234   0.70688    0.044
 6169.00    0.69394   0.70659    0.044
 6170.00    0.70699   0.70686    0.045
 6171.00    0.71209   0.70807    0.045
 6172.00    0.69855   0.70980    0.045
 6173.00    0.68483   0.71145    0.046
 6174.00    0.67076   0.71388    0.045
 6175.00    0.66269   0.71712    0.045
 6176.00    0.66520   0.72042    0.046
 6177.00    0.67043   0.72320    0.046
 6178.00    0.67986   0.72623    0.046
 6179.00    0.68328   0.72906    0.046
 6180.00    0.67856   0.73169    0.046
 6181.00    0.67539   0.73392    0.046
 6182.00    0.67407   0.73622    0.046
 6183.00    0.67537   0.73791    0.046
 6184.00    0.67942   0.73879    0.047
 6185.00    0.67653   0.73945    0.047
 6186.00    0.66719   0.73929    0.047
 6187.00    0.66288   0.73855    0.047
 6188.00    0.66266   0.73696    0.048
 6189.00    0.65783   0.73511    0.047
 6190.00    0.64968   0.73266    0.046
 6191.00    0.64269   0.73016    0.045
 6192.00    0.63644   0.72782    0.045
 6193.00    0.63410   0.72577    0.045
 6194.00    0.63392   0.72441    0.045
 6195.00    0.61157   0.72316    0.047
 6196.00    0.57857   0.72306   -2.000
 6197.00    0.42969   0.72403   -2.000
 6198.00    0.23279   0.72528   -2.000
 6199.00    0.10814   0.72678   -2.000
 6200.00    0.00910   0.72844   -2.000
 6201.00    0.14613   0.73004   -2.000
 6202.00    0.35380   0.73157   -2.000
 6203.00    0.63326   0.73277   -2.000
 6204.00    0.93055   0.73402   -2.000
 6205.00    0.99483   0.73545   -2.000
 6206.00    1.01218   0.73673   -2.000
 6207.00    0.91369   0.73788   -2.000
 6208.00    0.79693   0.73855    0.048
 6209.00    0.75623   0.73900    0.048
 6210.00    0.72443   0.73881    0.048
 6211.00    0.72116   0.73809    0.048
 6212.00    0.72016   0.73669    0.048
 6213.00    0.71160   0.73465    0.047
 6214.00    0.70270   0.73208    0.047
 6215.00    0.71177   0.72890    0.046
 6216.00    0.72043   0.72575    0.046
 6217.00    0.70109   0.72219    0.046
 6218.00    0.68206   0.71916    0.046
 6219.00    0.66870   0.71661    0.045
 6220.00    0.65695   0.71462    0.045
 6221.00    0.66299   0.71341    0.044
 6222.00    0.66979   0.71272    0.043
 6223.00    0.68242   0.71224    0.044
 6224.00    0.69140   0.71223    0.045
 6225.00    0.67899   0.71248    0.045
 6226.00    0.66496   0.71277    0.046
 6227.00    0.64340   0.71298    0.046
 6228.00    0.62998   0.71277    0.046
 6229.00    0.64741   0.71254    0.047
 6230.00    0.66371   0.71191    0.047
 6231.00    0.67638   0.71116    0.047
 6232.00    0.68888   0.71033    0.047
 6233.00    0.70089   0.70951    0.046
 6234.00    0.70879   0.70878    0.046
 6235.00    0.70721   0.70846    0.047
 6236.00    0.70337   0.70891    0.048
 6237.00    0.69499   0.70937    0.047
 6238.00    0.68772   0.71035    0.047
 6239.00    0.68238   0.71114    0.047
 6240.00    0.67642   0.71144    0.047
 6241.00    0.66953   0.71152    0.046
 6242.00    0.66592   0.71093    0.045
 6243.00    0.66670   0.71024    0.045
 6244.00    0.67113   0.70906    0.045
 6245.00    0.67985   0.70822    0.046
 6246.00    0.68660   0.70734    0.045
 6247.00    0.69130   0.70637    0.045
 6248.00    0.69379   0.70604    0.044
 6249.00    0.69426   0.70573    0.045
 6250.00    0.69069   0.70563    0.045
 6251.00    0.68386   0.70563    0.044
 6252.00    0.68445   0.70559    0.044
 6253.00    0.69030   0.70511    0.044
 6254.00    0.69395   0.70423    0.044
 6255.00    0.69623   0.70297    0.045
 6256.00    0.69123   0.70107    0.045
 6257.00    0.68227   0.69948    0.046
 6258.00    0.65666   0.69786    0.047
 6259.00    0.62319   0.69690    0.048
 6260.00    0.54267   0.69625    0.050
 6261.00    0.44298   0.69646    0.052
 6262.00    0.41728   0.69724    0.054
 6263.00    0.41734   0.69887    0.056
 6264.00    0.51437   0.70137    0.057
 6265.00    0.63983   0.70395    0.058
 6266.00    0.73454   0.70702    0.055
 6267.00    0.82178   0.70996    0.052
 6268.00    0.81950   0.71267    0.051
 6269.00    0.79965   0.71490    0.049
 6270.00    0.75721   0.71697    0.048
 6271.00    0.71131   0.71869    0.047
 6272.00    0.68565   0.72012    0.045
 6273.00    0.66226   0.72132    0.044
 6274.00    0.67354   0.72225    0.044
 6275.00    0.68743   0.72302    0.045
 6276.00    0.69230   0.72362    0.044
 6277.00    0.69680   0.72406    0.043
 6278.00    0.69066   0.72416    0.043
 6279.00    0.68481   0.72417    0.044
 6280.00    0.69389   0.72394    0.000
 6281.00    0.70369   0.72366    0.000
 6282.00    0.72549   0.72330    0.000
 6283.00    0.74378   0.72310    0.000
 6284.00    0.72508   0.72300    0.000
 6285.00    0.70747   0.72328    0.000
 6286.00    0.69791   0.72400    0.000
 6287.00    0.69453   0.72494    0.000
 6288.00    0.72630   0.72633    0.000
 6289.00    0.75482   0.72757    0.000
 6290.00    0.76863   0.72899    0.000
 6291.00    0.77581   0.73010    0.000
 6292.00    0.75842   0.73089    0.000
 6293.00    0.74152   0.73129    0.000
 6294.00    0.72616   0.73108    0.000
 6295.00    0.70976   0.73039    0.000
 6296.00    0.69058   0.72928    0.000
 6297.00    0.67880   0.72776    0.000
 6298.00    0.68377   0.72613    0.000
 6299.00    0.68870   0.72436    0.000
 6300.00    0.69359   0.72259    0.000
 6301.00    0.69582   0.72102    0.000
 6302.00    0.69351   0.71979    0.000
 6303.00    0.69574   0.71906    0.000
 6304.00    0.70475   0.71884    0.000
 6305.00    0.71391   0.71910    0.000
 6306.00    0.72328   0.71986    0.000
 6307.00    0.73019   0.72106    0.000
 6308.00    0.73423   0.72264    0.000
 6309.00    0.73394   0.72433    0.000
 6310.00    0.72924   0.72593    0.000
 6311.00    0.72086   0.72735    0.000
 6312.00    0.70918   0.72827    0.000
 6313.00    0.70503   0.72872    0.000
 6314.00    0.70689   0.72858    0.000
 6315.00    0.70722   0.72791    0.000
 6316.00    0.70649   0.72686    0.000
 6317.00    0.69698   0.72565    0.000
 6318.00    0.68211   0.72436    0.000
 6319.00    0.67977   0.72316    0.000
 6320.00    0.68415   0.72236    0.000
 6321.00    0.69373   0.72191    0.047
 6322.00    0.70574   0.72188    0.047
 6323.00    0.69547   0.72262    0.047
 6324.00    0.67627   0.72366    0.047
 6325.00    0.67180   0.72520    0.047
 6326.00    0.67235   0.72711    0.046
 6327.00    0.68470   0.72896    0.046
 6328.00    0.70045   0.73096    0.046
 6329.00    0.71026   0.73256    0.046
 6330.00    0.71865   0.73412    0.045
 6331.00    0.72694   0.73504    0.045
 6332.00    0.73520   0.73568    0.045
 6333.00    0.73519   0.73589    0.045
 6334.00    0.73394   0.73550    0.045
 6335.00    0.71588   0.73501    0.044
 6336.00    0.69600   0.73398    0.044
 6337.00    0.69165   0.73293    0.044
 6338.00    0.68841   0.73175    0.045
 6339.00    0.69610   0.73048    0.045
 6340.00    0.70419   0.72946    0.045
 6341.00    0.72638   0.72855    0.046
 6342.00    0.74782   0.72814    0.047
 6343.00    0.74055   0.72796    0.047
 6344.00    0.73331   0.72815    0.047
 6345.00    0.72657   0.72830    0.047
 6346.00    0.72070   0.72854    0.047
 6347.00    0.72356   0.72893    0.047
 6348.00    0.72671   0.72908    0.047
 6349.00    0.73190   0.72956    0.048
 6350.00    0.73729   0.72974    0.048
 6351.00    0.74377   0.73027    0.049
 6352.00    0.74532   0.73057    0.049
 6353.00    0.72510   0.73067    0.048
 6354.00    0.70812   0.73042    0.047
 6355.00    0.70288   0.72978    0.046
 6356.00    0.69781   0.72866    0.045
 6357.00    0.69322   0.72697    0.045
 6358.00    0.69035   0.72497    0.045
 6359.00    0.69195   0.72258    0.046
 6360.00    0.69223   0.72019    0.046
 6361.00    0.68958   0.71779    0.045
 6362.00    0.68776   0.71574    0.045
 6363.00    0.68755   0.71411    0.046
 6364.00    0.68771   0.71293    0.046
 6365.00    0.68849   0.71242    0.046
 6366.00    0.69217   0.71272    0.046
 6367.00    0.70013   0.71372    0.047
 6368.00    0.70396   0.71526    0.048
 6369.00    0.70243   0.71742    0.048
 6370.00    0.70836   0.71998    0.049
 6371.00    0.72281   0.72274    0.049
 6372.00    0.73445   0.72555    0.049
 6373.00    0.74326   0.72818    0.048
 6374.00    0.74406   0.73065    0.048
 6375.00    0.73775   0.73269    0.048
 6376.00    0.74391   0.73434    0.048
 6377.00    0.75984   0.73559    0.049
 6378.00    0.76025   0.73646    0.049
 6379.00    0.74995   0.73688    0.048
 6380.00    0.74372   0.73690    0.048
 6381.00    0.73995   0.73660    0.048
 6382.00    0.73896   0.73617    0.047
 6383.00    0.73942   0.73561    0.046
 6384.00    0.73225   0.73506    0.045
 6385.00    0.72160   0.73450    0.044
 6386.00    0.70873   0.73421    0.044
 6387.00    0.69499   0.73390    0.044
 6388.00    0.68678   0.73365    0.044
 6389.00    0.68043   0.73342    0.044
 6390.00    0.68713   0.73297    0.045
 6391.00    0.69750   0.73248    0.046
 6392.00    0.70137   0.73182    0.046
 6393.00    0.70372   0.73106    0.046
 6394.00    0.69203   0.73006    0.047
 6395.00    0.67773   0.72901    0.048
 6396.00    0.69644   0.72811    0.049
 6397.00    0.71991   0.72721    0.050
 6398.00    0.73051   0.72659    0.050
 6399.00    0.73977   0.72600    0.050
 6400.00    0.73041   0.72592    0.050
 6401.00    0.71980   0.72630    0.050
 6402.00    0.73641   0.72674    0.050
 6403.00    0.75391   0.72738    0.049
 6404.00    0.75339   0.72809    0.049
 6405.00    0.75241   0.72895    0.049
 6406.00    0.73754   0.72958    0.049
 6407.00    0.72391   0.73077    0.049
 6408.00    0.72880   0.73185    0.048
 6409.00    0.73304   0.73246    0.048
 6410.00    0.73092   0.73280    0.047
 6411.00    0.72857   0.73284    0.046
 6412.00    0.72456   0.73263    0.045
 6413.00    0.72196   0.73224    0.044
 6414.00    0.72701   0.73174    0.045
 6415.00    0.73112   0.73140    0.046
 6416.00    0.73116   0.73115    0.046
 6417.00    0.72907   0.73059    0.046
 6418.00    0.71937   0.73029    0.047
 6419.00    0.70641   0.73014    0.047
 6420.00    0.68368   0.73002    0.047
 6421.00    0.67026   0.72986    0.047
 6422.00    0.68054   0.72994    0.047
 6423.00    0.69878   0.73005    0.048
 6424.00    0.73446   0.73041    0.049
 6425.00    0.75372   0.73088    0.050
 6426.00    0.74177   0.73149    0.050
 6427.00    0.72884   0.73226    0.050
 6428.00    0.71432   0.73322    0.050
 6429.00    0.70324   0.73420    0.050
 6430.00    0.69718   0.73471    0.050
 6431.00    0.70247   0.73495    0.050
 6432.00    0.72228   0.73491    0.050
 6433.00    0.73776   0.73468    0.049
 6434.00    0.74836   0.73425    0.049
 6435.00    0.74454   0.73376    0.048
 6436.00    0.72638   0.73325    0.048
 6437.00    0.71371   0.73286    0.047
 6438.00    0.70586   0.73291    0.046
 6439.00    0.70235   0.73312    0.046
 6440.00    0.70219   0.73350    0.047
 6441.00    0.70253   0.73409    0.047
 6442.00    0.70321   0.73478    0.046
 6443.00    0.70475   0.73566    0.047
 6444.00    0.70680   0.73641    0.048
 6445.00    0.70786   0.73714    0.048
 6446.00    0.70841   0.73800    0.048
 6447.00    0.69980   0.73855    0.049
 6448.00    0.68707   0.73852    0.049
 6449.00    0.68784   0.73796    0.050
 6450.00    0.69384   0.73683    0.051
 6451.00    0.69541   0.73529    0.050
 6452.00    0.69554   0.73360    0.050
 6453.00    0.71158   0.73188    0.050
 6454.00    0.73202   0.73035    0.050
 6455.00    0.74587   0.72914    0.050
 6456.00    0.75822   0.72835    0.050
 6457.00    0.75566   0.72844    0.049
 6458.00    0.75039   0.72884    0.048
 6459.00    0.72822   0.72952    0.047
 6460.00    0.70371   0.73018    0.047
 6461.00    0.69635   0.73070    0.047
 6462.00    0.69070   0.73101    0.048
 6463.00    0.68392   0.73138    0.047
 6464.00    0.67706   0.73145    0.047
 6465.00    0.68967   0.73160    0.047
 6466.00    0.70291   0.73154    0.047
 6467.00    0.73742   0.73168    0.047
 6468.00    0.77097   0.73170    0.047
 6469.00    0.77771   0.73204    0.049
 6470.00    0.78185   0.73271    0.050
 6471.00    0.74910   0.73324    0.049
 6472.00    0.71917   0.73387    0.048
 6473.00    0.71522   0.73410    0.049
 6474.00    0.71425   0.73421    0.049
 6475.00    0.73340   0.73388    0.051
 6476.00    0.75184   0.73346    0.052
 6477.00    0.76652   0.73273    0.052
 6478.00    0.77606   0.73192    0.052
 6479.00    0.76388   0.73110    0.051
 6480.00    0.75437   0.73008    0.050
 6481.00    0.75416   0.72902    0.050
 6482.00    0.75075   0.72789    0.050
 6483.00    0.73797   0.72680    0.048
 6484.00    0.72771   0.72565    0.047
 6485.00    0.72374   0.72456    0.048
 6486.00    0.72168   0.72347    0.049
 6487.00    0.72371   0.72232    0.048
 6488.00    0.72805   0.72108    0.047
 6489.00    0.73672   0.71973    0.047
 6490.00    0.73621   0.71805    0.047
 6491.00    0.72071   0.71592    0.047
 6492.00    0.70870   0.71313    0.048
 6493.00    0.70169   0.70968    0.048
 6494.00    0.70276   0.70551    0.048
 6495.00    0.71399   0.70098    0.048
 6496.00    0.71128   0.69617    0.049
 6497.00    0.69306   0.69173    0.049
 6498.00    0.67990   0.68778    0.050
 6499.00    0.67169   0.68494    0.050
 6500.00    0.66691   0.68325    0.050
 6501.00    0.66511   0.68312    0.050
 6502.00    0.66058   0.68451    0.050
 6503.00    0.65397   0.68712    0.050
 6504.00    0.65628   0.69111    0.050
 6505.00    0.66455   0.69541    0.050
 6506.00    0.68477   0.70033    0.050
 6507.00    0.71198   0.70493    0.050
 6508.00    0.71872   0.70931    0.051
 6509.00    0.71499   0.71309    0.051
 6510.00    0.72324   0.71616    0.050
 6511.00    0.73678   0.71850    0.049
 6512.00    0.73502   0.72011    0.049
 6513.00    0.72744   0.72108    0.048
 6514.00    0.71814   0.72146    0.048
 6515.00    0.70828   0.72139    0.048
 6516.00    0.71293   0.72096    0.049
 6517.00    0.72151   0.72034    0.049
 6518.00    0.70418   0.71959    0.049
 6519.00    0.68110   0.71889    0.048
 6520.00    0.69181   0.71821    0.049
 6521.00    0.70848   0.71780    0.049
 6522.00    0.72305   0.71757    0.050
 6523.00    0.73734   0.71767    0.050
 6524.00    0.73717   0.71795    0.051
 6525.00    0.73562   0.71846    0.052
 6526.00    0.75242   0.71907    0.052
 6527.00    0.77031   0.71964    0.053
 6528.00    0.78084   0.72022    0.000
 6529.00    0.79094   0.72061    0.000
 6530.00    0.76665   0.72085    0.000
 6531.00    0.74348   0.72095    0.000
 6532.00    0.74884   0.72095    0.000
 6533.00    0.75352   0.72092    0.000
 6534.00    0.74918   0.72084    0.000
 6535.00    0.74452   0.72078    0.000
 6536.00    0.73699   0.72081    0.000
 6537.00    0.73187   0.72085    0.000
 6538.00    0.74260   0.72089    0.000
 6539.00    0.75163   0.72079    0.000
 6540.00    0.75198   0.72062    0.000
 6541.00    0.75062   0.72020    0.000
 6542.00    0.74221   0.71957    0.000
 6543.00    0.73432   0.71852    0.000
 6544.00    0.72821   0.71709    0.000
 6545.00    0.72822   0.71518    0.000
 6546.00    0.74581   0.71293    0.000
 6547.00    0.75789   0.71036    0.000
 6548.00    0.75642   0.70756    0.000
 6549.00    0.75948   0.70460    0.000
 6550.00    0.77215   0.70149    0.000
 6551.00    0.77348   0.69839    0.000
 6552.00    0.75394   0.69515    0.000
 6553.00    0.74097   0.69180    0.000
 6554.00    0.73859   0.68804    0.000
 6555.00    0.74238   0.68394    0.000
 6556.00    0.75489   0.67926    0.000
 6557.00    0.75635   0.67378    0.000
 6558.00    0.74406   0.66739    0.000
 6559.00    0.72676   0.66009    0.000
 6560.00    0.70397   0.65197    0.000
 6561.00    0.68223   0.64329    0.000
 6562.00    0.66149   0.63429    0.000
 6563.00    0.64688   0.62566    0.000
 6564.00    0.63751   0.61786    0.000
 6565.00    0.64942   0.61173    0.000
 6566.00    0.67730   0.60756    0.000
 6567.00    0.69204   0.60593    0.000
 6568.00    0.69812   0.60687    0.000
 6569.00    0.70352   0.61034    0.000
 6570.00    0.70855   0.61578    0.000
 6571.00    0.70261   0.62287    0.000
 6572.00    0.69116   0.63147    0.000
 6573.00    0.69359   0.64022    0.000
 6574.00    0.70205   0.64847    0.000
 6575.00    0.70707   0.65608    0.000
 6576.00    0.71080   0.66282    0.000
 6577.00    0.70401   0.66871    0.000
 6578.00    0.69388   0.67399    0.000
 6579.00    0.69578   0.67866    0.000
 6580.00    0.70088   0.68289    0.000
 6581.00    0.73499   0.68667    0.000
 6582.00    0.77537   0.69020    0.000
 6583.00    0.79982   0.69332    0.000
 6584.00    0.82154   0.69623    0.000
 6585.00    0.81997   0.69866    0.000
 6586.00    0.81536   0.70077    0.000
 6587.00    0.79185   0.70238    0.000
 6588.00    0.76662   0.70364    0.000
 6589.00    0.73008   0.70442    0.000
 6590.00    0.69293   0.70485    0.000
 6591.00    0.71359   0.70488    0.000
 6592.00    0.73514   0.70453    0.000
 6593.00    0.72272   0.70389    0.000
 6594.00    0.71019   0.70305    0.000
 6595.00    0.69495   0.70215    0.000
 6596.00    0.68117   0.70140    0.000
 6597.00    0.68577   0.70079    0.000
 6598.00    0.69079   0.70062    0.000
 6599.00    0.69941   0.70075    0.000
 6600.00    0.70803   0.70130    0.000
 6601.00    0.71662   0.70217    0.000
 6602.00    0.72841   0.70330    0.000
 6603.00    0.75613   0.70458    0.000
 6604.00    0.77201   0.70574    0.000
 6605.00    0.74010   0.70677    0.000
 6606.00    0.71750   0.70743    0.000
 6607.00    0.72610   0.70781    0.000
 6608.00    0.73094   0.70793    0.000
 6609.00    0.72517   0.70785    0.054
 6610.00    0.72145   0.70771    0.053
 6611.00    0.72271   0.70758    0.052
 6612.00    0.72662   0.70758    0.052
 6613.00    0.73606   0.70777    0.052
 6614.00    0.74158   0.70826    0.053
 6615.00    0.73999   0.70897    0.052
 6616.00    0.73402   0.70989    0.052
 6617.00    0.72111   0.71094    0.052
 6618.00    0.71894   0.71199    0.052
 6619.00    0.73172   0.71304    0.053
 6620.00    0.74487   0.71383    0.054
 6621.00    0.75849   0.71451    0.056
 6622.00    0.76793   0.71474    0.057
 6623.00    0.77287   0.71478    0.057
 6624.00    0.76122   0.71439    0.057
 6625.00    0.73378   0.71384    0.056
 6626.00    0.72965   0.71299    0.056
 6627.00    0.74512   0.71196    0.057
 6628.00    0.73802   0.71085    0.058
 6629.00    0.71424   0.70963    0.057
 6630.00    0.72403   0.70849    0.057
 6631.00    0.75564   0.70729    0.056
 6632.00    0.74437   0.70627    0.056
 6633.00    0.70874   0.70523    0.057
 6634.00    0.68944   0.70442    0.056
 6635.00    0.67822   0.70368    0.054
 6636.00    0.67704   0.70322    0.054
 6637.00    0.68016   0.70287    0.053
 6638.00    0.68802   0.70272    0.054
 6639.00    0.69762   0.70272    0.056
 6640.00    0.71350   0.70285    0.056
 6641.00    0.73133   0.70306    0.055
 6642.00    0.72319   0.70328    0.055
 6643.00    0.70832   0.70348    0.055
 6644.00    0.70769   0.70360    0.056
 6645.00    0.71007   0.70367    0.057
 6646.00    0.69341   0.70369    0.058
 6647.00    0.67358   0.70359    0.058
 6648.00    0.65624   0.70353    0.058
 6649.00    0.63920   0.70341    0.057
 6650.00    0.67731   0.70339    0.058
 6651.00    0.72023   0.70334    0.059
 6652.00    0.71764   0.70338    0.059
 6653.00    0.71272   0.70332    0.059
 6654.00    0.70638   0.70328    0.059
 6655.00    0.70007   0.70319    0.059
 6656.00    0.69847   0.70300    0.058
 6657.00    0.69658   0.70268    0.057
 6658.00    0.68877   0.70223    0.056
 6659.00    0.68346   0.70167    0.056
 6660.00    0.70825   0.70094    0.056
 6661.00    0.73011   0.70012    0.057
 6662.00    0.72775   0.69918    0.057
 6663.00    0.72195   0.69821    0.057
 6664.00    0.69491   0.69724    0.056
 6665.00    0.67499   0.69633    0.056
 6666.00    0.68968   0.69561    0.056
 6667.00    0.70416   0.69505    0.057
 6668.00    0.71778   0.69484    0.058
 6669.00    0.73017   0.69483    0.059
 6670.00    0.73847   0.69517    0.059
 6671.00    0.73837   0.69567    0.060
 6672.00    0.71495   0.69629    0.060
 6673.00    0.70157   0.69691    0.060
 6674.00    0.71208   0.69737    0.061
 6675.00    0.71242   0.69767    0.061
 6676.00    0.69190   0.69757    0.060
 6677.00    0.67903   0.69725    0.060
 6678.00    0.67982   0.69652    0.060
 6679.00    0.68298   0.69564    0.060
 6680.00    0.68984   0.69460    0.059
 6681.00    0.68839   0.69364    0.058
 6682.00    0.67554   0.69282    0.057
 6683.00    0.66974   0.69225    0.057
 6684.00    0.67245   0.69203    0.058
 6685.00    0.67381   0.69211    0.058
 6686.00    0.67375   0.69253    0.057
 6687.00    0.68187   0.69311    0.058
 6688.00    0.69769   0.69386    0.060
 6689.00    0.71458   0.69459    0.061
 6690.00    0.73235   0.69529    0.061
 6691.00    0.72813   0.69585    0.061
 6692.00    0.70788   0.69626    0.061
 6693.00    0.68699   0.69644    0.062
 6694.00    0.66567   0.69638    0.063
 6695.00    0.67325   0.69622    0.063
 6696.00    0.69700   0.69584    0.000
 6697.00    0.71564   0.69545    0.000
 6698.00    0.73179   0.69493    0.000
 6699.00    0.73422   0.69452    0.000
 6700.00    0.73087   0.69408    0.000
 6701.00    0.72081   0.69381    0.000
 6702.00    0.70833   0.69359    0.000
 6703.00    0.71564   0.69351    0.000
 6704.00    0.72898   0.69348    0.000
 6705.00    0.73825   0.69352    0.000
 6706.00    0.74648   0.69357    0.000
 6707.00    0.72845   0.69361    0.000
 6708.00    0.70501   0.69356    0.000
 6709.00    0.69972   0.69345    0.000
 6710.00    0.69737   0.69316    0.000
 6711.00    0.71388   0.69274    0.000
 6712.00    0.73268   0.69205    0.000
 6713.00    0.73460   0.69118    0.000
 6714.00    0.73512   0.68999    0.000
 6715.00    0.72539   0.68864    0.000
 6716.00    0.71517   0.68705    0.000
 6717.00    0.74415   0.68538    0.000
 6718.00    0.77117   0.68370    0.000
 6719.00    0.65744   0.68211    0.000
 6720.00    0.55257   0.68078    0.000
 6721.00    0.62047   0.67972    0.000
 6722.00    0.68486   0.67911    0.000
 6723.00    0.70901   0.67886    0.000
 6724.00    0.72882   0.67906    0.000
 6725.00    0.71401   0.67956    0.000
 6726.00    0.69927   0.68035    0.000
 6727.00    0.68491   0.68130    0.000
 6728.00    0.68051   0.68232    0.000
 6729.00    0.72323   0.68337    0.000
 6730.00    0.76031   0.68432    0.000
 6731.00    0.77558   0.68522    0.000
 6732.00    0.77611   0.68593    0.000
 6733.00    0.72922   0.68654    0.000
 6734.00    0.70013   0.68694    0.000
 6735.00    0.71958   0.68719    0.000
 6736.00    0.74239   0.68725    0.000
 6737.00    0.77306   0.68712    0.000
 6738.00    0.78171   0.68687    0.000
 6739.00    0.74589   0.68640    0.000
 6740.00    0.71903   0.68586    0.000
 6741.00    0.70791   0.68515    0.000
 6742.00    0.70935   0.68444    0.000
 6743.00    0.73010   0.68362    0.000
 6744.00    0.73834   0.68285    0.000
 6745.00    0.72966   0.68205    0.000
 6746.00    0.70876   0.68133    0.000
 6747.00    0.67330   0.68061    0.000
 6748.00    0.66098   0.67998    0.000
 6749.00    0.67295   0.67940    0.000
 6750.00    0.67171   0.67892    0.000
 6751.00    0.65824   0.67854    0.000
 6752.00    0.65045   0.67830    0.000
 6753.00    0.64728   0.67825    0.065
 6754.00    0.63485   0.67840    0.065
 6755.00    0.61577   0.67882    0.066
 6756.00    0.64155   0.67947    0.067
 6757.00    0.69562   0.68037    0.068
 6758.00    0.74710   0.68148    0.069
 6759.00    0.79714   0.68272    0.071
 6760.00    0.82252   0.68404    0.072
 6761.00    0.83608   0.68529    0.074
 6762.00    0.81702   0.68645    0.076
 6763.00    0.78446   0.68737    0.077
 6764.00    0.83758   0.68804    0.079
 6765.00    0.92100   0.68840    0.082
 6766.00    0.90179   0.68844    0.080
 6767.00    0.85194   0.68823    0.078
 6768.00    0.84974   0.68777    0.077
 6769.00    0.85935   0.68724    0.077
 6770.00    0.81664   0.68662    0.074
 6771.00    0.76344   0.68613    0.072
 6772.00    0.71415   0.68574    0.070
 6773.00    0.66547   0.68564    0.068
 6774.00    0.67957   0.68575    0.068
 6775.00    0.70100   0.68617    0.069
 6776.00    0.74923   0.68677    0.068
 6777.00    0.79957   0.68755    0.067
 6778.00    0.77778   0.68834    0.068
 6779.00    0.75285   0.68907    0.068
 6780.00    0.71990   0.68960    0.069
 6781.00    0.68810   0.68986    0.069
 6782.00    0.71351   0.68977    0.069
 6783.00    0.73905   0.68932    0.070
 6784.00    0.76697   0.68853    0.071
 6785.00    0.78895   0.68749    0.072
 6786.00    0.74587   0.68625    0.071
 6787.00    0.71215   0.68499    0.070
 6788.00    0.75048   0.68374    0.072
 6789.00    0.77790   0.68267    0.073
 6790.00    0.74177   0.68177    0.073
 6791.00    0.70913   0.68115    0.073
 6792.00    0.69261   0.68072    0.073
 6793.00    0.68287   0.68053    0.072
 6794.00    0.69871   0.68050    0.071
 6795.00    0.70885   0.68061    0.071
 6796.00    0.70094   0.68080    0.069
 6797.00    0.70713   0.68109    0.069
 6798.00    0.75110   0.68141    0.068
 6799.00    0.77291   0.68179    0.068
 6800.00    0.74377   0.68219    0.069
 6801.00    0.70509   0.68263    0.069
 6802.00    0.64741   0.68306    0.067
 6803.00    0.64115   0.68348    0.066
 6804.00    0.72397   0.68383    0.067
 6805.00    0.77081   0.68414    0.068
 6806.00    0.76307   0.68432    0.068
 6807.00    0.73909   0.68443    0.068
 6808.00    0.69348   0.68440    0.067
 6809.00    0.68284   0.68431    0.068
 6810.00    0.71324   0.68413    0.072
 6811.00    0.70403   0.68392    0.073
 6812.00    0.65383   0.68368    0.072
 6813.00    0.65058   0.68346    0.072
 6814.00    0.69018   0.68327    0.071
 6815.00    0.72409   0.68313    0.072
 6816.00    0.75342   0.68304    0.073
 6817.00    0.76051   0.68304    0.072
 6818.00    0.75185   0.68309    0.070
 6819.00    0.74472   0.68325    0.069
 6820.00    0.73854   0.68345    0.068
 6821.00    0.72503   0.68373    0.067
 6822.00    0.70754   0.68406    0.065
 6823.00    0.71520   0.68442    0.065
 6824.00    0.73472   0.68479    0.065
 6825.00    0.72857   0.68512    0.066
 6826.00    0.71199   0.68543    0.067
 6827.00    0.68947   0.68565    0.067
 6828.00    0.66489   0.68582    0.067
 6829.00    0.67349   0.68589    0.068
 6830.00    0.69181   0.68592    0.071
 6831.00    0.75210   0.68586    0.072
 6832.00    0.82257   0.68580    0.072
 6833.00    0.79575   0.68568    0.072
 6834.00    0.74989   0.68556    0.072
 6835.00    0.73815   0.68538    0.072
 6836.00    0.73161   0.68513    0.071
 6837.00    0.71377   0.68477    0.072
 6838.00    0.69465   0.68427    0.073
 6839.00    0.70568   0.68360    0.074
 6840.00    0.71896   0.68279    0.074
 6841.00    0.71185   0.68185    0.072
 6842.00    0.70392   0.68088    0.070
 6843.00    0.74043   0.67991    0.069
 6844.00    0.77590   0.67909    0.068
 6845.00    0.75802   0.67843    0.067
 6846.00    0.73943   0.67806    0.066
 6847.00    0.70870   0.67791    0.067
 6848.00    0.68602   0.67804    0.067
 6849.00    0.74766   0.67833    0.068
 6850.00    0.80005   0.67874    0.068
 6851.00    0.78377   0.67913    0.069
 6852.00    0.76702   0.67945    0.069
 6853.00    0.74765   0.67958    0.069
 6854.00    0.72417   0.67952    0.069
 6855.00    0.68210   0.67923    0.069
 6856.00    0.65462   0.67874    0.070
 6857.00    0.68115   0.67809    0.072
 6858.00    0.69685   0.67737    0.072
 6859.00    0.67904   0.67663    0.072
 6860.00    0.67173   0.67596    0.071
 6861.00    0.69206   0.67540    0.070
 6862.00    0.70539   0.67501    0.069
 6863.00    0.70291   0.67480    0.068
 6864.00    0.70432   0.67477    0.067
 6865.00    0.71332   0.67487    0.067
 6866.00    0.71830   0.67509    0.067
 6867.00    0.71644   0.67536    0.069
 6868.00    0.72865   0.67565    0.070
 6869.00    0.76190   0.67591    0.070
 6870.00    0.78820   0.67614    0.070
 6871.00    0.80535   0.67632    0.069
 6872.00    0.79506   0.67649    0.069
 6873.00    0.75302   0.67665    0.068
 6874.00    0.73511   0.67685    0.068
 6875.00    0.74182   0.67712    0.069
 6876.00    0.75009   0.67747    0.070
 6877.00    0.75977   0.67791    0.070
 6878.00    0.73082   0.67841    0.070
 6879.00    0.67124   0.67895    0.070
 6880.00    0.66824   0.67950    0.071
 6881.00    0.70472   0.68000    0.072
 6882.00    0.72786   0.68045    0.073
 6883.00    0.74285   0.68081    0.073
 6884.00    0.75199   0.68112    0.072
 6885.00    0.75800   0.68138    0.071
 6886.00    0.76454   0.68165    0.071
 6887.00    0.77134   0.68196    0.072
 6888.00    0.75513   0.68235    0.070
 6889.00    0.72973   0.68286    0.068
 6890.00    0.72874   0.68347    0.068
 6891.00    0.73607   0.68418    0.069
 6892.00    0.72072   0.68493    0.069
 6893.00    0.69886   0.68568    0.068
 6894.00    0.70842   0.68637    0.071
 6895.00    0.72542   0.68696    0.075
 6896.00    0.25315   0.68741    0.045
 6897.00   -0.31238   0.68771    0.000
 6898.00    0.23099   0.68789    0.053
 6899.00    0.93821   0.68796    0.593
 6900.00    1.00096   0.68796   -1.000
 6901.00    0.99418   0.68795   -1.000
 6902.00    0.99421   0.68796   -1.000
 6903.00    0.99473   0.68804   -1.000
 6904.00    0.99885   0.68821   -1.000
 6905.00    1.00310   0.68846   -1.000
 6906.00    0.98727   0.68880   -1.000
 6907.00    0.97204   0.68918   -1.000
 6908.00    0.97996   0.68957   -1.000
 6909.00    0.98794   0.68991   -1.000
 6910.00    0.99693   0.69017   -1.000
 6911.00    1.00254   0.69028   -1.000
 6912.00    0.97444   0.69023   -1.000
 6913.00    0.94986   0.68999   -1.000
 6914.00    0.95057   0.68959   -1.000
 6915.00    0.95119   0.68905   -1.000
 6916.00    0.95139   0.68843   -1.000
 6917.00    0.95287   0.68778   -1.000
 6918.00    0.96000   0.68716   -1.000
 6919.00    0.96789   0.68662   -1.000
 6920.00    0.97847   0.68619   -1.000
 6921.00    0.98624   0.68588   -1.000
 6922.00    0.98544   0.68568   -1.000
 6923.00    0.98737   0.68557   -1.000
 6924.00    0.99635   0.68551   -1.000
 6925.00    0.99993   0.68547   -1.000
 6926.00    0.99149   0.68543   -1.000
 6927.00    0.98110   0.68540   -1.000
 6928.00    0.96694   0.68537   -1.000
 6929.00    0.96234   0.68535   -1.000
 6930.00    0.97380   0.68537   -1.000
 6931.00    0.97353   0.68544   -1.000
 6932.00    0.95597   0.68555   -1.000
 6933.00    0.95025   0.68572   -1.000
 6934.00    0.95988   0.68592   -1.000
 6935.00    0.95985   0.68615   -1.000
 6936.00    0.94879   0.68640   -1.000
 6937.00    0.94518   0.68665   -1.000
 6938.00    0.94909   0.68689   -1.000
 6939.00    0.94654   0.68712   -1.000
 6940.00    0.93828   0.68731   -1.000
 6941.00    0.93604   0.68746   -1.000
 6942.00    0.93851   0.68754   -1.000
 6943.00    0.95142   0.68756   -1.000
 6944.00    0.97149   0.68751   -1.000
 6945.00    0.97906   0.68738   -1.000
 6946.00    0.97909   0.68720   -1.000
 6947.00    0.97264   0.68699   -1.000
 6948.00    0.96280   0.68678   -1.000
 6949.00    0.95334   0.68660   -1.000
 6950.00    0.94406   0.68646   -1.000
 6951.00    0.95915   0.68638   -1.000
 6952.00    0.98381   0.68636   -1.000
 6953.00    0.97157   0.68641   -1.000
 6954.00    0.94699   0.68651   -1.000
 6955.00    0.95150   0.68669   -1.000
 6956.00    0.96417   0.68692   -1.000
 6957.00    0.96044   0.68724   -1.000
 6958.00    0.95291   0.68764   -1.000
 6959.00    0.95606   0.68815   -1.000
 6960.00    0.96119   0.68874   -1.000
 6961.00    0.96935   0.68941   -1.000
 6962.00    0.97795   0.69014   -1.000
 6963.00    0.97342   0.69090   -1.000
 6964.00    0.96753   0.69166   -1.000
 6965.00    0.97204   0.69237   -1.000
 6966.00    0.97725   0.69302   -1.000
 6967.00    0.97139   0.69357   -1.000
 6968.00    0.96519   0.69400   -1.000
 6969.00    0.97232   0.69430   -1.000
 6970.00    0.97954   0.69443   -1.000
 6971.00    0.98954   0.69439   -1.000
 6972.00    0.99837   0.69415   -1.000
 6973.00    0.98989   0.69369   -1.000
 6974.00    0.98128   0.69298   -1.000
 6975.00    0.97141   0.69204   -1.000
 6976.00    0.96290   0.69089   -1.000
 6977.00    0.96382   0.68958   -1.000
 6978.00    0.96489   0.68818   -1.000
 6979.00    0.96672   0.68681   -1.000
 6980.00    0.96779   0.68558   -1.000
 6981.00    0.96555   0.68462   -1.000
 6982.00    0.96050   0.68402   -1.000
 6983.00    0.94554   0.68385   -1.000
 6984.00    0.93679   0.68413   -1.000
 6985.00    0.94654   0.68481   -1.000
 6986.00    0.95820   0.68581   -1.000
 6987.00    0.97470   0.68703   -1.000
 6988.00    0.99042   0.68832   -1.000
 6989.00    1.00441   0.68958   -1.000
 6990.00    1.00209   0.69069   -1.000
 6991.00    0.96882   0.69161   -1.000
 6992.00    0.95331   0.69228   -1.000
 6993.00    0.96722   0.69274   -1.000
 6994.00    0.97148   0.69298   -1.000
 6995.00    0.96174   0.69304   -1.000
 6996.00    0.95192   0.69295   -1.000
 6997.00    0.94201   0.69275   -1.000
 6998.00    0.94990   0.69244   -1.000
 6999.00    0.97782   0.69204   -1.000
 7000.00    0.97263   0.69158   -1.000
 7001.00    0.93458   0.69104   -1.000
 7002.00    0.92528   0.69048   -1.000
 7003.00    0.94111   0.68991   -1.000
 7004.00    0.95102   0.68936   -1.000
 7005.00    0.95635   0.68885   -1.000
 7006.00    0.96205   0.68844   -1.000
 7007.00    0.96800   0.68810   -1.000
 7008.00    0.96018   0.68787   -1.000
 7009.00    0.94419   0.68771   -1.000
 7010.00    0.94414   0.68762   -1.000
 7011.00    0.95236   0.68754   -1.000
 7012.00    0.95799   0.68748   -1.000
 7013.00    0.96248   0.68734   -1.000
 7014.00    0.96374   0.68715   -1.000
 7015.00    0.96376   0.68686   -1.000
 7016.00    0.94863   0.68653   -1.000
 7017.00    0.92852   0.68614   -1.000
 7018.00    0.93405   0.68578   -1.000
 7019.00    0.94663   0.68547   -1.000
 7020.00    0.95110   0.68528   -1.000
 7021.00    0.95373   0.68524   -1.000
 7022.00    0.96385   0.68536   -1.000
 7023.00    0.97533   0.68565   -1.000
 7024.00    0.97400   0.68605   -1.000
 7025.00    0.97090   0.68658   -1.000
 7026.00    0.97462   0.68716   -1.000
 7027.00    0.97901   0.68782   -1.000
 7028.00    0.96402   0.68848   -1.000
 7029.00    0.94782   0.68919   -1.000
 7030.00    0.95400   0.68987   -1.000
 7031.00    0.96086   0.69059   -1.000
 7032.00    0.97949   0.69127   -1.000
 7033.00    0.99744   0.69193   -1.000
 7034.00    0.99657   0.69255   -1.000
 7035.00    0.99440   0.69310   -1.000
 7036.00    0.97384   0.69362   -1.000
 7037.00    0.95714   0.69409   -1.000
 7038.00    0.97596   0.69460   -1.000
 7039.00    0.99109   0.69513   -1.000
 7040.00    0.98139   0.69580   -1.000
 7041.00    0.97660   0.69660   -1.000
 7042.00    0.99750   0.69760   -1.000
 7043.00    1.01107   0.69876   -1.000
 7044.00    0.99382   0.70008   -1.000
 7045.00    0.98687   0.70146   -1.000
 7046.00    1.01580   0.70282   -1.000
 7047.00    1.02708   0.70406   -1.000
 7048.00    0.98671   0.70502   -1.000
 7049.00    0.96462   0.70563   -1.000
 7050.00    0.98811   0.70574   -2.000
 7051.00    1.01791   0.70532   -2.000
 7052.00    1.06127   0.70430   -2.000
 7053.00    1.08486   0.70270   -2.000
 7054.00    1.07154   0.70054   -2.000
 7055.00    1.06876   0.69791   -2.000
 7056.00    1.08318   0.69492   -2.000
 7057.00    1.07998   0.69172   -2.000
 7058.00    1.05158   0.68841   -2.000
 7059.00    1.04701   0.68517   -2.000
 7060.00    1.07243   0.68208   -2.000
 7061.00    1.09114   0.67927   -2.000
 7062.00    1.10242   0.67675   -2.000
 7063.00    1.11124   0.67462   -2.000
 7064.00    1.11765   0.67281   -2.000
 7065.00    1.11629   0.67138   -2.000
 7066.00    1.10822   0.67024   -2.000
 7067.00    1.08625   0.66944   -2.000
 7068.00    1.05372   0.66890   -2.000
 7069.00    1.03828   0.66866   -2.000
 7070.00    1.03427   0.66867   -2.000
 7071.00    1.06212   0.66893   -2.000
 7072.00    1.10861   0.66943   -2.000
 7073.00    1.12746   0.67013   -2.000
 7074.00    1.13222   0.67101   -2.000
 7075.00    1.12745   0.67197   -2.000
 7076.00    1.11848   0.67298   -2.000
 7077.00    1.09706   0.67391   -2.000
 7078.00    1.07093   0.67470   -2.000
 7079.00    1.08172   0.67523   -2.000
 7080.00    1.10439   0.67542   -2.000
 7081.00    1.09525   0.67521   -2.000
 7082.00    1.07754   0.67451   -2.000
 7083.00    1.02832   0.67332   -2.000
 7084.00    0.97215   0.67162   -2.000
 7085.00    1.02334   0.66944   -2.000
 7086.00    1.09340   0.66684   -2.000
 7087.00    1.00883   0.66389   -2.000
 7088.00    0.90355   0.66073   -2.000
 7089.00    0.95997   0.65743   -2.000
 7090.00    1.03176   0.65419   -2.000
 7091.00    1.01991   0.65109   -2.000
 7092.00    1.00316   0.64825   -2.000
 7093.00    0.98442   0.64581   -2.000
 7094.00    0.96596   0.64374   -2.000
 7095.00    0.99170   0.64223   -2.000
 7096.00    1.01541   0.64110   -2.000
 7097.00    0.98842   0.64059   -2.000
 7098.00    0.96299   0.64038   -2.000
 7099.00    0.95815   0.64073   -2.000
 7100.00    0.95283   0.64129   -2.000
 7101.00    0.94333   0.64221   -2.000
 7102.00    0.93480   0.64329   -2.000
 7103.00    0.93260   0.64446   -2.000
 7104.00    0.92935   0.64576   -2.000
 7105.00    0.92071   0.64689   -2.000
 7106.00    0.91419   0.64812   -2.000
 7107.00    0.91631   0.64901   -2.000
 7108.00    0.91432   0.64999   -2.000
 7109.00    0.89827   0.65057   -2.000
 7110.00    0.89780   0.65123   -2.000
 7111.00    0.94205   0.65157   -2.000
 7112.00    0.96904   0.65198   -2.000
 7113.00    0.95370   0.65221   -2.000
 7114.00    0.94115   0.65252   -2.000
 7115.00    0.93452   0.65278   -2.000
 7116.00    0.93838   0.65313   -2.000
 7117.00    0.96155   0.65348   -2.000
 7118.00    0.98837   0.65387   -2.000
 7119.00    1.02107   0.65425   -2.000
 7120.00    1.04648   0.65456   -2.000
 7121.00    1.06160   0.65476   -2.000
 7122.00    1.05484   0.65477   -2.000
 7123.00    1.02094   0.65458   -2.000
 7124.00    0.98972   0.65413   -2.000
 7125.00    0.96145   0.65341   -2.000
 7126.00    0.95226   0.65245   -2.000
 7127.00    0.96146   0.65126   -2.000
 7128.00    0.98434   0.64991   -2.000
 7129.00    1.01883   0.64845   -2.000
 7130.00    1.01035   0.64699   -2.000
 7131.00    0.96969   0.64561   -2.000
 7132.00    0.94642   0.64438   -2.000
 7133.00    0.93460   0.64344   -2.000
 7134.00    0.92659   0.64276   -2.000
 7135.00    0.92077   0.64250   -2.000
 7136.00    0.92971   0.64251   -2.000
 7137.00    0.94604   0.64295   -2.000
 7138.00    0.97267   0.64359   -2.000
 7139.00    1.00378   0.64453   -2.000
 7140.00    0.97570   0.64555   -2.000
 7141.00    0.92559   0.64667   -2.000
 7142.00    0.92674   0.64779   -2.000
 7143.00    0.94408   0.64880   -2.000
 7144.00    0.95116   0.64977   -2.000
 7145.00    0.95554   0.65054   -2.000
 7146.00    0.95482   0.65127   -2.000
 7147.00    0.95300   0.65183   -2.000
 7148.00    0.93912   0.65241   -2.000
 7149.00    0.92317   0.65293   -2.000
 7150.00    0.93790   0.65360   -2.000
 7151.00    0.95660   0.65435   -2.000
 7152.00    0.94961   0.65536   -2.000
 7153.00    0.94028   0.65654   -2.000
 7154.00    0.94740   0.65800   -2.000
 7155.00    0.95543   0.65958   -2.000
 7156.00    0.95677   0.66134   -2.000
 7157.00    0.95791   0.66298   -2.000
 7158.00    0.95492   0.66459   -2.000
 7159.00    0.95069   0.66574   -2.000
 7160.00    0.91872   0.66661   -2.000
 7161.00    0.88770   0.66676   -2.000
 7162.00    0.86862   0.66639   -2.000
 7163.00    0.86053   0.66531   -2.000
 7164.00    0.94624   0.66356   -2.000
 7165.00    1.03146   0.66148   -2.000
 7166.00    1.11364   0.65865   -2.000
 7167.00    1.17098   0.65618   -2.000
 7168.00    1.10501   0.65298   -2.000
 7169.00    1.05011   0.65081   -2.000
 7170.00    1.03975   0.64802   -2.000
 7171.00    1.03177   0.64662   -2.000
 7172.00    1.03178   0.64475   -2.000
 7173.00    1.03148   0.64418   -2.000
 7174.00    1.03033   0.64325   -2.000
 7175.00    1.02683   0.64320   -2.000
 7176.00    1.01766   0.64287   -2.000
 7177.00    1.00305   0.64293   -2.000
 7178.00    0.97711   0.64275   -2.000
 7179.00    0.96749   0.64260   -2.000
 7180.00    0.98742   0.64228   -2.000
 7181.00    0.99686   0.64184   -2.000
 7182.00    0.98970   0.64130   -2.000
 7183.00    0.97483   0.64065   -2.000
 7184.00    0.94925   0.63998   -2.000
 7185.00    0.94729   0.63924   -2.000
 7186.00    0.97421   0.63854   -2.000
 7187.00    0.98114   0.63784   -2.000
 7188.00    0.96651   0.63718   -2.000
 7189.00    0.97163   0.63660   -2.000
 7190.00    0.99551   0.63607   -2.000
 7191.00    0.99823   0.63568   -2.000
 7192.00    0.98322   0.63537   -2.000
 7193.00    0.96412   0.63524   -2.000
 7194.00    0.94202   0.63522   -2.000
 7195.00    0.93231   0.63535   -2.000
 7196.00    0.93064   0.63561   -2.000
 7197.00    0.92512   0.63589   -2.000
 7198.00    0.91743   0.63628   -2.000
 7199.00    0.89866   0.63658   -2.000
 7200.00    0.87442   0.63691   -2.000
 7201.00    0.87509   0.63707   -2.000
 7202.00    0.88638   0.63717   -2.000
 7203.00    0.92364   0.63712   -2.000
 7204.00    0.97039   0.63697   -2.000
 7205.00    0.98342   0.63671   -2.000
 7206.00    0.98601   0.63638   -2.000
 7207.00    0.95204   0.63601   -2.000
 7208.00    0.90862   0.63564   -2.000
 7209.00    0.90758   0.63533   -2.000
 7210.00    0.91544   0.63512   -2.000
 7211.00    0.90140   0.63508   -2.000
 7212.00    0.88371   0.63520   -2.000
 7213.00    0.88210   0.63555   -2.000
 7214.00    0.88250   0.63612   -2.000
 7215.00    0.89334   0.63687   -2.000
 7216.00    0.90508   0.63783   -2.000
 7217.00    0.92790   0.63887   -2.000
 7218.00    0.95129   0.64006   -2.000
