###################################################################
## OUTPUT of StarlightChains_v04.for    [Cid@UFSC - 01/Apr/2007] ##
###################################################################

## Some input info
KUG0210-078._35_41.txt                   [arq_obs]
Base.CB07.vall.4m                        [arq_base]
Masks.EmLines.NEW.gm                     [arq_masks]
StCv04.C11.config                        [arq_config]
   66                                    [N_base]
    0                                    [N_YAV_components = # of components with extra extinction!]
    0                                    [i_FitPowerLaw (1/0 = Yes/No)]
-9.99                                    [alpha_PowerLaw]
CCM                                      [red_law_option]
 1.458241                                [q_norm = A(l_norm)/A(V)]

## (Re)Sampling Parameters
 3741.00                                 [l_ini (A)]
 7218.00                                 [l_fin (A)]
    1.00                                 [dl    (A)]     (OBS: dl_cushion =    50.00 A)

## Normalization info
 4020.00                                 [l_norm (A) - for base]
 4010.00                                 [llow_norm (A) - window for f_obs]
 4060.00                                 [lupp_norm (A) - window for f_obs]
8.617975E-18                             [fobs_norm (in input units)]

## S/N
 3691.00                                 [llow_SN (A) - window for S/N]
 7268.00                                 [lupp_SN (A) - window for S/N]
   3.856                                 [S/N in S/N window]
   2.304                                 [S/N in norm. window]
   0.017                                 [S/N_err in S/N window]
   0.010                                 [S/N_err in norm. window]
  1.0000                                 [fscale_chi2]

## etc...
    -2007576                             [idum_orig]
  2427                                   [NOl_eff]
  2415                                   [Nl_eff]
    12    NSIGMA                         [Ntot_cliped & clip_method]
  1374590                                [Nglobal_steps]
   7                                     [N_chains]
  32                                     [NEX0s_base = N_base in EX0s-fits]
 0   0   1       12   2.0   1.232E+03    [Clip-Bug, RC-Crash & Burn-In warning-flags, n_censored_weights, wei_nsig_threshold & wei_limit]
    18     17.989     17.523      0.466  [idt_all, wdt_TotTime, wdt_UsrTime & wdt_SysTime (sec)]

## Synthesis Results - Best model ##

 5.93437E-06                             [chi2/Nl_eff]
    32.39794                             [adev (%)]

   129.61493                             [sum-of-x (%)]
 8.34280E-18                             [Flux_tot (units of input spectrum!)]
 1.10562E-12                             [Mini_tot (???)]
 5.53119E-13                             [Mcor_tot (???)]

-184.57                                  [v0_min  (km/s)]
 292.76                                  [vd_min  (km/s)]
-0.2173                                  [AV_min  (mag)]
 0.0000                                  [YAV_min (mag)]

# j     x_j(%)      Mini_j(%)     Mcor_j(%)     age_j(yr)     Z_j      (L/M)_j    YAV?  Mstars   component_j        a/Fe...       SSP_chi2r SSP_adev(%)   SSP_AV   SSP_x(%)
  1      0.5613     2.9872E-04    5.9710E-04    1.000000E+06  0.00400  1.094E-02    0   1.0000   age020_m42            0.0000     1.1675E-05    50.1299   4.0000   110.8807
  2      0.0000     0.0000E+00    0.0000E+00    3.160000E+06  0.00400  4.007E-02    0   0.9999   age045_m42            0.0000     1.0966E-05    46.8769   3.2956   117.6196
  3      0.0000     0.0000E+00    0.0000E+00    5.010000E+06  0.00400  2.539E-02    0   0.9488   age055_m42            0.0000     1.1319E-05    48.6149   3.6186   114.6416
  4      0.0000     0.0000E+00    0.0000E+00    6.610000E+06  0.00400  2.620E-02    0   0.9220   age061_m42            0.0000     1.1093E-05    47.3164   3.2203   117.9701
  5      0.3155     1.3894E-04    2.4613E-04    1.000000E+07  0.00400  1.322E-02    0   0.8862   age070_m42            0.0000     1.2463E-05    50.2948   2.9439   120.3583
  6      0.0000     0.0000E+00    0.0000E+00    1.445000E+07  0.00400  7.883E-03    0   0.8571   age078_m42            0.0000     1.2519E-05    50.8474   3.2705   117.3080
  7      0.0000     0.0000E+00    0.0000E+00    2.512000E+07  0.00400  5.251E-03    0   0.8174   age090_m42            0.0000     1.2755E-05    50.5941   2.8137   121.0718
  8      0.0000     0.0000E+00    0.0000E+00    4.000000E+07  0.00400  3.649E-03    0   0.7851   age104_m42            0.0000     1.2391E-05    49.7058   2.5853   122.1291
  9      0.0000     0.0000E+00    0.0000E+00    5.500000E+07  0.00400  3.098E-03    0   0.7629   age110_m42            0.0000     1.1706E-05    47.6629   2.7370   122.1677
 10      0.0000     0.0000E+00    0.0000E+00    1.015200E+08  0.00400  2.228E-03    0   0.7207   age116_m42            0.0000     1.1306E-05    46.2999   2.7553   122.4495
 11      3.0846     1.6430E-02    2.1833E-02    2.861200E+08  0.00400  1.093E-03    0   0.6648   age125_m42            0.0000     1.1682E-05    46.5160   2.1788   126.3176
 12      1.7512     1.5454E-02    1.9662E-02    5.088000E+08  0.00400  6.597E-04    0   0.6365   age130_m42            0.0000     1.0826E-05    44.0954   2.1678   127.4076
 13      0.0000     0.0000E+00    0.0000E+00    1.434000E+09  0.00400  2.132E-04    0   0.5798   age139_m42            0.0000     9.5090E-06    42.2436   1.2003   129.7946
 14      0.0000     0.0000E+00    0.0000E+00    4.250000E+09  0.00400  5.895E-05    0   0.5377   age158_m42            0.0000     8.0717E-06    41.7364   0.7596   124.6976
 15      0.4390     7.2806E-02    7.5851E-02    7.500000E+09  0.00400  3.510E-05    0   0.5212   age171_m42            0.0000     7.6010E-06    40.8660   0.5713   123.8085
 16      0.0000     0.0000E+00    0.0000E+00    1.300000E+10  0.00400  2.005E-05    0   0.5034   age193_m42            0.0000     7.2574E-06    40.0813   0.4043   123.1351
 17      0.0000     0.0000E+00    0.0000E+00    1.800000E+10  0.00400  1.525E-05    0   0.4967   age213_m42            0.0000     7.3698E-06    40.6197   0.3813   122.5976
 18      0.3545     1.6670E-04    3.3321E-04    1.000000E+06  0.00800  1.238E-02    0   1.0000   age020_m52            0.0000     1.1656E-05    50.1465   4.0000   110.9602
 19      0.0000     0.0000E+00    0.0000E+00    3.160000E+06  0.00800  3.074E-02    0   0.9966   age045_m52            0.0000     1.1554E-05    49.7306   3.9461   111.0932
 20      0.0000     0.0000E+00    0.0000E+00    5.010000E+06  0.00800  2.668E-02    0   0.9443   age055_m52            0.0000     1.1431E-05    49.2515   3.7014   113.6148
 21      0.4758     1.2968E-04    2.3789E-04    6.610000E+06  0.00800  2.136E-02    0   0.9177   age061_m52            0.0000     1.1603E-05    50.2726   2.4465   121.6203
 22      1.1833     5.6696E-04    1.0004E-03    1.000000E+07  0.00800  1.215E-02    0   0.8827   age070_m52            0.0000     1.3085E-05    51.8840   3.1208   120.1709
 23      0.0000     0.0000E+00    0.0000E+00    1.445000E+07  0.00800  8.717E-03    0   0.8552   age078_m52            0.0000     1.2472E-05    50.7328   3.2358   118.9548
 24      0.0000     0.0000E+00    0.0000E+00    2.512000E+07  0.00800  5.592E-03    0   0.8162   age090_m52            0.0000     1.2859E-05    50.7554   2.8758   122.5627
 25      0.5548     8.2895E-04    1.2992E-03    4.000000E+07  0.00800  3.896E-03    0   0.7841   age104_m52            0.0000     1.2390E-05    49.4533   2.7849   123.6101
 26      0.0000     0.0000E+00    0.0000E+00    1.015200E+08  0.00800  2.148E-03    0   0.7226   age116_m52            0.0000     1.1513E-05    47.3497   2.7228   123.4130
 27      0.0000     0.0000E+00    0.0000E+00    2.861200E+08  0.00800  9.925E-04    0   0.6683   age125_m52            0.0000     1.0806E-05    44.1956   2.2313   128.6669
 28      0.0000     0.0000E+00    0.0000E+00    9.047900E+08  0.00800  3.141E-04    0   0.6138   age135_m52            0.0000     9.0676E-06    40.2596   1.4301   134.0067
 29      0.0000     0.0000E+00    0.0000E+00    1.434000E+09  0.00800  1.719E-04    0   0.5853   age139_m52            0.0000     8.5169E-06    41.1104   0.8508   131.1420
 30      0.5965     4.4115E-02    4.9382E-02    2.500000E+09  0.00800  7.872E-05    0   0.5600   age150_m52            0.0000     7.3105E-06    39.1767   0.5858   127.4751
 31      0.0000     0.0000E+00    0.0000E+00    4.250000E+09  0.00800  4.336E-05    0   0.5426   age158_m52            0.0000     7.2456E-06    39.4989   0.5708   126.2634
 32      0.0000     0.0000E+00    0.0000E+00    6.250000E+09  0.00800  3.159E-05    0   0.5319   age166_m52            0.0000     6.7520E-06    37.8165   0.3663   126.2952
 33      0.0000     0.0000E+00    0.0000E+00    1.300000E+10  0.00800  1.361E-05    0   0.5073   age193_m52            0.0000     6.3007E-06    35.5929  -0.1024   125.4017
 34      0.0000     0.0000E+00    0.0000E+00    1.800000E+10  0.00800  9.886E-06    0   0.4990   age213_m52            0.0000     6.0531E-06    33.6470  -0.2136   124.8481
 35      0.0000     0.0000E+00    0.0000E+00    1.000000E+06  0.02000  1.544E-02    0   1.0000   age020_m62            0.0000     1.1672E-05    50.2144   4.0000   111.0688
 36      0.0000     0.0000E+00    0.0000E+00    3.160000E+06  0.02000  3.762E-02    0   0.9858   age045_m62            0.0000     1.1626E-05    50.0112   3.9569   111.3543
 37      0.0000     0.0000E+00    0.0000E+00    5.010000E+06  0.02000  3.296E-02    0   0.9342   age055_m62            0.0000     1.1022E-05    47.8727   3.5765   116.1403
 38      0.0000     0.0000E+00    0.0000E+00    8.710000E+06  0.02000  1.154E-02    0   0.8861   age067_m62            0.0000     1.7528E-05    58.8714   2.5743   123.4873
 39      0.0000     0.0000E+00    0.0000E+00    1.445000E+07  0.02000  7.663E-03    0   0.8472   age078_m62            0.0000     1.4114E-05    53.6196   2.7643   122.9892
 40      0.8477     1.0890E-03    1.7630E-03    2.512000E+07  0.02000  4.532E-03    0   0.8099   age090_m62            0.0000     1.4461E-05    53.8916   2.7561   122.6613
 41      0.3337     7.1087E-04    1.0792E-03    5.500000E+07  0.02000  2.733E-03    0   0.7595   age110_m62            0.0000     1.2313E-05    49.8363   2.7685   122.6837
 42      0.0000     0.0000E+00    0.0000E+00    1.609000E+08  0.02000  1.369E-03    0   0.6985   age120_m62            0.0000     1.1322E-05    46.0496   2.6017   126.2793
 43      0.0000     0.0000E+00    0.0000E+00    2.861200E+08  0.02000  9.013E-04    0   0.6714   age125_m62            0.0000     1.0778E-05    43.2274   2.3474   130.1004
 44      0.6054     7.0100E-03    9.0365E-03    5.088000E+08  0.02000  5.028E-04    0   0.6449   age130_m62            0.0000     9.4744E-06    39.1950   1.9668   133.5847
 45      0.0000     0.0000E+00    0.0000E+00    9.047900E+08  0.02000  2.428E-04    0   0.6179   age135_m62            0.0000     8.1505E-06    38.8864   1.3785   132.7981
 46      0.0000     0.0000E+00    0.0000E+00    1.434000E+09  0.02000  1.263E-04    0   0.5908   age139_m62            0.0000     7.5086E-06    39.1096   0.9358   130.7342
 47      0.3448     3.3539E-02    3.8033E-02    2.500000E+09  0.02000  5.985E-05    0   0.5673   age150_m62            0.0000     6.7418E-06    37.7940   0.5694   128.8608
 48      0.8471     1.5076E-01    1.6478E-01    4.250000E+09  0.02000  3.271E-05    0   0.5468   age158_m62            0.0000     6.2027E-06    35.4907   0.2625   127.7509
 49      2.2584     9.6673E-01    9.9847E-01    1.000000E+10  0.02000  1.360E-05    0   0.5167   age181_m62            0.0000     5.9231E-06    32.1878  -0.0895   127.2544
 50     93.2818     7.6229E+01    7.6385E+01    1.800000E+10  0.02000  7.124E-06    0   0.5013   age213_m62            0.0000     5.8859E-06    29.7059  -0.3038   126.3079
 51      1.8631     4.1846E-04    8.3628E-04    1.000000E+06  0.05000  2.592E-02    0   0.9998   age020_m72            0.0000     1.1804E-05    50.5328   4.0000   110.7866
 52      0.0000     0.0000E+00    0.0000E+00    3.160000E+06  0.05000  4.845E-02    0   0.9577   age045_m72            0.0000     1.1316E-05    49.1309   3.8374   112.9289
 53      0.0000     0.0000E+00    0.0000E+00    5.010000E+06  0.05000  3.072E-02    0   0.9147   age055_m72            0.0000     1.3209E-05    52.6145   3.3459   118.3076
 54      0.0000     0.0000E+00    0.0000E+00    6.610000E+06  0.05000  1.455E-02    0   0.8877   age061_m72            0.0000     2.1314E-05    62.8206   2.5935   125.1194
 55      0.0000     0.0000E+00    0.0000E+00    1.000000E+07  0.05000  9.074E-03    0   0.8524   age070_m72            0.0000     1.3994E-05    52.9599   3.5108   118.3311
 56      0.0000     0.0000E+00    0.0000E+00    2.512000E+07  0.05000  4.250E-03    0   0.7902   age090_m72            0.0000     1.3472E-05    51.6848   3.2203   120.4724
 57      0.0000     0.0000E+00    0.0000E+00    4.000000E+07  0.05000  3.087E-03    0   0.7618   age104_m72            0.0000     1.3734E-05    51.6651   2.9905   122.6015
 58      0.4277     1.4647E-03    2.0776E-03    1.015200E+08  0.05000  1.700E-03    0   0.7096   age116_m72            0.0000     1.2039E-05    47.3810   2.7420   125.8269
 59      0.7165     5.6492E-03    7.4901E-03    2.861200E+08  0.05000  7.384E-04    0   0.6633   age125_m72            0.0000     1.0073E-05    41.1347   2.2135   131.9219
 60      0.0000     0.0000E+00    0.0000E+00    5.088000E+08  0.05000  3.819E-04    0   0.6372   age130_m72            0.0000     8.5506E-06    38.9894   1.7206   134.0210
 61      0.3060     1.0628E-02    1.2980E-02    9.047900E+08  0.05000  1.676E-04    0   0.6110   age135_m72            0.0000     6.9016E-06    37.5267   1.0273   131.3904
 62      0.0000     0.0000E+00    0.0000E+00    1.434000E+09  0.05000  8.837E-05    0   0.5874   age139_m72            0.0000     6.6950E-06    37.4083   0.5659   130.8483
 63      0.9721     1.3370E-01    1.4961E-01    2.500000E+09  0.05000  4.233E-05    0   0.5598   age150_m72            0.0000     6.0745E-06    34.3792   0.2594   128.9300
 64      0.0000     0.0000E+00    0.0000E+00    6.250000E+09  0.05000  1.435E-05    0   0.5249   age166_m72            0.0000     5.8832E-06    31.2911  -0.1885   126.7663
 65      0.4825     4.3128E-01    4.3414E-01    1.300000E+10  0.05000  6.513E-06    0   0.5036   age193_m72            0.0000     5.9687E-06    28.5482  -0.4709   127.8632
 66     17.0115     2.1877E+01    2.1624E+01    1.800000E+10  0.05000  4.527E-06    0   0.4945   age213_m72            0.0000     6.1654E-06    27.4088  -0.6336   127.5051


## Synthesis Results - Average & Chains ##

# j      x_j: min, <> & last-chain-values for 1 ...  7 chains
  1      0.5613      0.5596      0.5285      0.2241      0.8640      0.3856      0.2654      0.5441      0.0227
  2      0.0000      0.4277      0.5534      0.2959      0.0690      0.8361      0.2938      0.1853      0.3788
  3      0.0000      0.5068      0.5419      0.1916      0.7834      0.7969      0.1005      0.0000      1.3386
  4      0.0000      0.3479      0.1709      0.0227      0.6670      0.1430      0.0000      0.6816      0.0112
  5      0.3155      0.5707      0.7631      1.0180      0.7414      0.0000      0.0000      0.3058      0.1080
  6      0.0000      0.3155      0.3436      0.0000      0.5383      0.0000      0.0444      0.1728      0.8866
  7      0.0000      0.2958      0.3003      0.3105      0.2346      0.3993      0.0000      0.1446      0.2149
  8      0.0000      0.3823      0.1039      0.0337      0.9629      0.0930      0.0000      0.0000      0.1398
  9      0.0000      0.4866      0.5919      0.0000      0.7259      1.2271      0.6929      0.6805      0.0000
 10      0.0000      0.4273      0.1591      0.0852      0.2815      0.0342      0.5771      0.1301      0.0000
 11      3.0846      0.4214      0.1057      0.4903      0.0393      0.1845      0.5494      0.3570      0.1192
 12      1.7512      0.7738      0.2383      0.7776      1.5137      0.5133      0.7244      1.6973      0.5148
 13      0.0000      0.5667      0.0000      0.3930      0.3227      0.4807      0.7495      0.0000      0.6973
 14      0.0000      0.4331      0.0000      0.0000      0.1726      0.5833      0.0000      0.0000      0.0483
 15      0.4390      0.4468      0.1795      0.6837      0.5638      0.9127      0.7203      0.4255      0.0000
 16      0.0000      0.5738      0.1900      0.2242      0.9618      0.6249      0.2553      0.0000      0.2728
 17      0.0000      0.3288      0.0000      0.8023      0.4563      0.1163      0.0159      0.2699      0.0000
 18      0.3545      0.3220      0.0253      0.0000      0.0000      0.8025      0.1383      0.3436      0.4408
 19      0.0000      0.4117      0.3884      0.3333      0.2042      0.0000      0.3321      0.0436      0.3981
 20      0.0000      0.4972      0.2857      0.2049      0.0000      0.3190      0.0000      0.0595      0.8014
 21      0.4758      0.4003      0.2611      0.6881      0.0000      0.1344      0.1350      0.4612      0.0813
 22      1.1833      0.6617      0.3156      0.3748      0.2220      0.1639      1.1259      1.1469      0.3461
 23      0.0000      0.4346      0.5425      0.2977      0.3286      0.9957      0.0833      0.2964      0.3735
 24      0.0000      0.6033      0.1754      0.6116      0.5496      0.4752      0.9345      0.0000      0.2287
 25      0.5548      0.3860      0.0000      0.2367      0.5988      0.3237      0.4871      0.5377      0.0000
 26      0.0000      0.5461      0.5173      0.1086      0.0963      0.1216      0.5114      0.8843      0.5891
 27      0.0000      0.4034      0.0152      1.5617      0.0899      0.0549      0.7972      0.0000      0.2226
 28      0.0000      0.4714      0.7481      0.1119      0.1411      0.0000      0.2724      0.0024      0.0459
 29      0.0000      0.3756      0.7115      0.5860      0.2754      0.0090      0.0000      0.0000      0.9459
 30      0.5965      0.3091      0.1552      0.0000      0.1454      0.4913      0.5146      0.5782      0.3334
 31      0.0000      0.5092      0.2228      0.2272      0.5819      0.4495      0.0013      0.2024      0.0000
 32      0.0000      0.4695      0.2431      0.3575      0.0887      0.2656      0.0000      0.0000      0.0693
 33      0.0000      0.3960      0.0789      0.5563      0.0000      0.0000      0.4490      0.0000      0.7338
 34      0.0000      0.5866      0.4825      0.3264      1.1769      0.3205      0.0049      0.0000      0.9517
 35      0.0000      0.3853      0.1810      0.5750      0.0672      0.2329      1.2535      0.0000      0.0853
 36      0.0000      0.8639      1.1508      0.7334      0.6697      1.1858      1.1322      0.1209      1.1779
 37      0.0000      0.5040      0.3004      0.2093      1.0124      0.4338      0.4739      0.0876      0.1851
 38      0.0000      0.4102      0.0000      0.0000      0.1795      0.0000      0.1119      0.0000      0.4641
 39      0.0000      0.3030      0.2476      0.3826      0.4259      0.0909      0.3609      0.0399      0.0752
 40      0.8477      0.3805      0.0331      0.0897      0.2947      0.0000      0.3338      0.8217      0.0949
 41      0.3337      0.8237      1.2546      0.9088      0.1452      0.6832      0.0000      0.3235      0.6844
 42      0.0000      0.4417      0.0000      0.1261      0.3739      0.0000      0.7995      0.0037      0.4981
 43      0.0000      0.5672      0.0675      0.8308      0.0000      0.2318      0.2067      0.1836      0.9539
 44      0.6054      0.5387      1.1012      0.6211      0.2586      0.1798      1.0157      0.5868      0.3820
 45      0.0000      0.4516      1.4749      0.4533      0.1825      0.3984      0.6893      0.4125      0.0569
 46      0.0000      0.4634      0.6912      0.7003      0.0000      0.9108      0.5099      0.0389      0.0467
 47      0.3448      0.4643      0.7593      0.2641      0.2469      0.0000      0.8195      0.3342      0.0000
 48      0.8471      0.5921      0.0000      0.3320      1.0897      0.1732      0.8972      0.8210      0.3924
 49      2.2584      2.9241      3.0023      2.2072      2.6812      2.9548      2.6864      2.1889      4.7576
 50     93.2818     82.0631     88.4378     89.6186     86.6105     89.8393     88.0506     90.4122     86.7388
 51      1.8631      0.3656      0.1074      0.0000      0.0969      0.2559      0.2356      0.4237      0.2456
 52      0.0000      0.4580      1.0919      0.1351      0.6562      0.3539      0.2748      0.0467      0.6980
 53      0.0000      0.4221      0.3697      0.6213      0.0000      0.0000      0.0000      0.2865      0.1248
 54      0.0000      0.4873      0.0751      0.0000      0.0000      0.0000      0.3840      0.4800      0.5195
 55      0.0000      0.4216      0.2909      0.7189      0.0930      0.2129      0.0304      0.0000      0.1489
 56      0.0000      0.6231      0.2373      0.4565      0.1897      1.1325      0.6623      1.2256      0.3255
 57      0.0000      0.4113      0.2611      0.0238      0.0000      0.2767      0.1998      0.7335      0.1019
 58      0.4277      0.5310      0.6697      0.7490      0.5641      0.0680      0.0000      0.4146      0.3584
 59      0.7165      0.4412      0.2598      0.2335      0.4668      0.0568      0.4282      0.6945      0.8055
 60      0.0000      0.4650      0.0000      0.1401      0.0346      0.1644      0.0000      0.4023      0.4022
 61      0.3060      0.6397      0.7896      0.1189      1.0923      0.7221      0.5588      0.2965      0.3975
 62      0.0000      0.3922      0.0000      0.0859      0.0000      0.3531      0.1905      0.0224      0.5858
 63      0.9721      0.7514      0.7543      0.0000      1.1270      0.7067      0.0146      0.9422      0.7826
 64      0.0000      0.4349      0.0900      0.4084      0.0884      0.0000      0.1289      0.1648      0.1091
 65      0.4825      0.5320      0.4693      0.6025      0.8785      0.0000      0.4726      0.4676      1.1392
 66     17.0115     14.6316     15.6438     15.2927     15.6552     15.6313     16.2531     16.4882     15.3474

# j      m_j: min, <> & last-chain-values for 1 ...  7 chains
  1  5.9710E-04  6.6603E-04  5.9181E-04  2.4884E-04  9.6999E-04  4.2793E-04  2.9620E-04  5.9575E-04  2.5440E-05
  2  0.0000E+00  1.3896E-04  1.6917E-04  8.9687E-05  2.1145E-05  2.5331E-04  8.9512E-05  5.5393E-05  1.1567E-04
  3  0.0000E+00  2.4662E-04  2.4808E-04  8.6972E-05  3.5957E-04  3.6156E-04  4.5853E-05  0.0000E+00  6.1216E-04
  4  0.0000E+00  1.5942E-04  7.3684E-05  9.7239E-06  2.8829E-04  6.1082E-05  0.0000E+00  2.8732E-04  4.8198E-06
  5  2.4613E-04  4.9812E-04  6.2668E-04  8.2897E-04  6.1038E-04  0.0000E+00  0.0000E+00  2.4557E-04  8.8582E-05
  6  0.0000E+00  4.4666E-04  4.5761E-04  0.0000E+00  7.1884E-04  0.0000E+00  5.8876E-05  2.2501E-04  1.1797E-03
  7  0.0000E+00  5.9963E-04  5.7260E-04  5.8706E-04  4.4844E-04  7.5467E-04  0.0000E+00  2.6955E-04  4.0941E-04
  8  0.0000E+00  1.0710E-03  2.7398E-04  8.8160E-05  2.5446E-03  2.4290E-04  0.0000E+00  0.0000E+00  3.6817E-04
  9  0.0000E+00  1.5604E-03  1.7855E-03  0.0000E+00  2.1955E-03  3.6689E-03  2.0831E-03  2.0074E-03  0.0000E+00
 10  0.0000E+00  1.7997E-03  6.3030E-04  3.3491E-04  1.1185E-03  1.3418E-04  2.2789E-03  5.0419E-04  0.0000E+00
 11  2.1833E-02  3.3378E-03  7.8752E-04  3.6223E-03  2.9389E-04  1.3628E-03  4.0793E-03  2.6009E-03  8.8722E-04
 12  1.9662E-02  9.7222E-03  2.8163E-03  9.1137E-03  1.7938E-02  6.0134E-03  8.5326E-03  1.9617E-02  6.0780E-03
 13  0.0000E+00  2.0068E-02  0.0000E+00  1.2983E-02  1.0780E-02  1.5872E-02  2.4884E-02  0.0000E+00  2.3204E-02
 14  0.0000E+00  5.1441E-02  0.0000E+00  0.0000E+00  1.9337E-02  6.4595E-02  0.0000E+00  0.0000E+00  5.3896E-03
 15  7.5851E-02  8.6383E-02  3.2660E-02  1.2332E-01  1.0282E-01  1.6455E-01  1.3058E-01  7.5679E-02  0.0000E+00
 16  0.0000E+00  1.8760E-01  5.8430E-02  6.8383E-02  2.9659E-01  1.9049E-01  7.8254E-02  0.0000E+00  8.3807E-02
 17  0.0000E+00  1.3945E-01  0.0000E+00  3.1744E-01  1.8252E-01  4.5973E-02  6.3153E-03  1.0529E-01  0.0000E+00
 18  3.3321E-04  3.3866E-04  2.5062E-05  0.0000E+00  0.0000E+00  7.8700E-04  1.3642E-04  3.3245E-04  4.3571E-04
 19  0.0000E+00  1.7381E-04  1.5425E-04  1.3128E-04  8.1294E-05  0.0000E+00  1.3144E-04  1.6929E-05  1.5795E-04
 20  0.0000E+00  2.2913E-04  1.2389E-04  8.8116E-05  0.0000E+00  1.3707E-04  0.0000E+00  2.5244E-05  3.4710E-04
 21  2.3789E-04  2.2397E-04  1.3744E-04  3.5912E-04  0.0000E+00  7.0110E-05  7.0825E-05  2.3735E-04  4.2769E-05
 22  1.0004E-03  6.2597E-04  2.8085E-04  3.3077E-04  1.9805E-04  1.4459E-04  9.9863E-04  9.9809E-04  3.0770E-04
 23  0.0000E+00  5.5525E-04  6.5198E-04  3.5478E-04  3.9594E-04  1.1860E-03  9.9812E-05  3.4833E-04  4.4844E-04
 24  0.0000E+00  1.1467E-03  3.1355E-04  1.0843E-03  9.8531E-04  8.4220E-04  1.6652E-03  0.0000E+00  4.0845E-04
 25  1.2992E-03  1.0115E-03  0.0000E+00  5.7866E-04  1.4801E-03  7.9097E-04  1.1968E-03  1.2963E-03  0.0000E+00
 26  0.0000E+00  2.3923E-03  2.1319E-03  4.4379E-04  3.9807E-04  4.9684E-04  2.1003E-03  3.5636E-03  2.4251E-03
 27  0.0000E+00  3.5372E-03  1.2501E-04  1.2774E-02  7.4344E-04  4.4923E-04  6.5530E-03  0.0000E+00  1.8341E-03
 28  0.0000E+00  1.1996E-02  1.7910E-02  2.6574E-03  3.3857E-03  0.0000E+00  6.4982E-03  5.5837E-05  1.0983E-03
 29  0.0000E+00  1.6651E-02  2.9678E-02  2.4238E-02  1.1516E-02  3.7411E-04  0.0000E+00  0.0000E+00  3.9413E-02
 30  4.9382E-02  2.8637E-02  1.3527E-02  0.0000E+00  1.2703E-02  4.2435E-02  4.4694E-02  4.9270E-02  2.9024E-02
 31  0.0000E+00  8.2973E-02  3.4160E-02  3.4543E-02  8.9434E-02  6.8299E-02  1.9557E-04  3.0348E-02  0.0000E+00
 32  0.0000E+00  1.0294E-01  5.0143E-02  7.3122E-02  1.8334E-02  5.4287E-02  0.0000E+00  0.0000E+00  1.4284E-02
 33  0.0000E+00  1.9223E-01  3.6012E-02  2.5188E-01  0.0000E+00  0.0000E+00  2.0431E-01  0.0000E+00  3.3469E-01
 34  0.0000E+00  3.8556E-01  2.9835E-01  2.0012E-01  7.2964E-01  1.9640E-01  3.0483E-03  0.0000E+00  5.8787E-01
 35  0.0000E+00  3.2491E-04  1.4362E-04  4.5237E-04  5.3469E-05  1.8313E-04  9.9118E-04  0.0000E+00  6.7630E-05
 36  0.0000E+00  2.9479E-04  3.6943E-04  2.3344E-04  2.1554E-04  3.7727E-04  3.6219E-04  3.7938E-05  3.7771E-04
 37  0.0000E+00  1.8600E-04  1.0431E-04  7.2054E-05  3.5245E-04  1.4928E-04  1.6398E-04  2.9732E-05  6.4200E-05
 38  0.0000E+00  4.1015E-04  0.0000E+00  0.0000E+00  1.6927E-04  0.0000E+00  1.0486E-04  0.0000E+00  4.3614E-04
 39  0.0000E+00  4.3615E-04  3.3541E-04  5.1383E-04  5.7830E-04  1.2197E-04  4.8716E-04  5.2880E-05  1.0180E-04
 40  1.7630E-03  8.8537E-04  7.2433E-05  1.9463E-04  6.4684E-04  0.0000E+00  7.2829E-04  1.7590E-03  2.0744E-04
 41  1.0792E-03  2.9808E-03  4.2712E-03  3.0679E-03  4.9563E-04  2.3050E-03  0.0000E+00  1.0768E-03  2.3274E-03
 42  0.0000E+00  2.9343E-03  0.0000E+00  7.8186E-04  2.3431E-03  0.0000E+00  4.9798E-03  2.2445E-05  3.1103E-03
 43  0.0000E+00  5.5017E-03  6.1643E-04  7.5174E-03  0.0000E+00  2.0961E-03  1.8794E-03  1.6386E-03  8.6957E-03
 44  9.0365E-03  8.9977E-03  1.7303E-02  9.6769E-03  4.0731E-03  2.7998E-03  1.5904E-02  9.0159E-03  5.9963E-03
 45  0.0000E+00  1.4965E-02  4.5983E-02  1.4013E-02  5.7053E-03  1.2311E-02  2.1416E-02  1.2576E-02  1.7705E-03
 46  0.0000E+00  2.8228E-02  3.9608E-02  3.9795E-02  0.0000E+00  5.1727E-02  2.9120E-02  2.1778E-03  2.6704E-03
 47  3.8033E-02  5.7313E-02  8.8172E-02  3.0414E-02  2.8749E-02  0.0000E+00  9.4832E-02  3.7946E-02  0.0000E+00
 48  1.6478E-01  1.2888E-01  0.0000E+00  6.7412E-02  2.2373E-01  3.5159E-02  1.8309E-01  1.6441E-01  8.0265E-02
 49  9.9847E-01  1.4466E+00  1.3973E+00  1.0186E+00  1.2511E+00  1.3630E+00  1.2460E+00  9.9620E-01  2.2119E+00
 50  7.6385E+01  7.5194E+01  7.6237E+01  7.6605E+01  7.4854E+01  7.6755E+01  7.5642E+01  7.6212E+01  7.4692E+01
 51  8.3628E-04  1.8363E-04  5.0751E-05  0.0000E+00  4.5888E-05  1.1987E-04  1.1093E-04  1.9576E-04  1.1592E-04
 52  0.0000E+00  1.1789E-04  2.6440E-04  3.2449E-05  1.5931E-04  8.4935E-05  6.6318E-05  1.1057E-05  1.6884E-04
 53  0.0000E+00  1.6364E-04  1.3486E-04  2.2472E-04  0.0000E+00  0.0000E+00  0.0000E+00  1.0220E-04  4.5458E-05
 54  0.0000E+00  3.8710E-04  5.6096E-05  0.0000E+00  0.0000E+00  0.0000E+00  2.8603E-04  3.5081E-04  3.8788E-04
 55  0.0000E+00  5.1572E-04  3.3474E-04  8.2036E-04  1.0732E-04  2.4284E-04  3.4894E-05  0.0000E+00  1.7116E-04
 56  0.0000E+00  1.5087E-03  5.4046E-04  1.0311E-03  4.3318E-04  2.5565E-03  1.5034E-03  2.7298E-03  7.4067E-04
 57  0.0000E+00  1.3216E-03  7.8932E-04  7.1251E-05  0.0000E+00  8.2911E-04  6.0184E-04  2.1682E-03  3.0772E-04
 58  2.0776E-03  2.8860E-03  3.4246E-03  3.7978E-03  2.8919E-03  3.4464E-04  0.0000E+00  2.0729E-03  1.8307E-03
 59  7.4901E-03  5.1608E-03  2.8586E-03  2.5478E-03  5.1504E-03  6.1946E-04  4.6957E-03  7.4731E-03  8.8544E-03
 60  0.0000E+00  1.0102E-02  0.0000E+00  2.8393E-03  7.0988E-04  3.3296E-03  0.0000E+00  8.0402E-03  8.2122E-03
 61  1.2980E-02  3.0368E-02  3.5265E-02  5.2646E-03  4.8910E-02  3.1962E-02  2.4869E-02  1.2950E-02  1.7734E-02
 62  0.0000E+00  3.3943E-02  0.0000E+00  6.9342E-03  0.0000E+00  2.8500E-02  1.5461E-02  1.7839E-03  4.7651E-02
 63  1.4961E-01  1.2940E-01  1.2221E-01  0.0000E+00  1.8306E-01  1.1347E-01  2.3570E-03  1.4927E-01  1.2666E-01
 64  0.0000E+00  2.0715E-01  4.0317E-02  1.8147E-01  3.9703E-02  0.0000E+00  5.7571E-02  7.2227E-02  4.8842E-02
 65  4.3414E-01  5.3563E-01  4.4450E-01  5.6590E-01  8.3431E-01  0.0000E+00  4.4612E-01  4.3316E-01  1.0780E+00
 66  2.1624E+01  2.0812E+01  2.0934E+01  2.0292E+01  2.1003E+01  2.0731E+01  2.1675E+01  2.1575E+01  2.0515E+01

# AV, chi2 & Mass for <> & i_chain = 1 ...  7 solutions
AV      -0.2173     -0.1401     -0.1477     -0.1610     -0.1510     -0.1623     -0.1524     -0.1729     -0.1600
chi2 5.9344E-06  6.3686E-06  5.9985E-06  5.9897E-06  5.9954E-06  5.9831E-06  6.0044E-06  5.9734E-06  6.0050E-06
Mass 5.5312E-13  5.4833E-13  5.7687E-13  5.7147E-13  5.7284E-13  5.7081E-13  5.7524E-13  5.7031E-13  5.6803E-13
-184.57                                  [v0_min (km/s) before EX0s...]
 292.76                                  [vd_min (km/s) before EX0s...]


## Synthetic spectrum (Best Model) ##l_obs f_obs f_syn wei
 3478    [Nl_obs]
 3741.00    0.55565   0.50540    0.000
 3742.00    0.76121   0.49161    0.000
 3743.00    0.66007   0.47944    0.000
 3744.00    0.58126   0.46898    0.000
 3745.00    0.51545   0.46695    0.020
 3746.00    0.70456   0.47639    0.019
 3747.00    1.02311   0.49261    0.019
 3748.00    1.04553   0.51520    0.019
 3749.00    0.93772   0.54397    0.019
 3750.00    0.87213   0.57211    0.019
 3751.00    0.82248   0.59467    0.019
 3752.00    0.66209   0.61086    0.019
 3753.00    0.46622   0.61908    0.018
 3754.00    0.49120   0.61965    0.018
 3755.00    0.57536   0.61464    0.018
 3756.00    0.68590   0.60566    0.018
 3757.00    0.80223   0.59749    0.017
 3758.00    0.79726   0.59172    0.017
 3759.00    0.77113   0.58618    0.017
 3760.00    0.54017   0.58528    0.019
 3761.00    0.28200   0.58942    0.023
 3762.00    0.31795   0.59300    0.020
 3763.00    0.38153   0.60119    0.017
 3764.00    0.58768   0.61647    0.017
 3765.00    0.80206   0.63102    0.017
 3766.00    0.85893   0.64757    0.017
 3767.00    0.91289   0.67047    0.017
 3768.00    1.06715   0.69215    0.017
 3769.00    1.20503   0.71074    0.017
 3770.00    0.94523   0.73029    0.017
 3771.00    0.68745   0.74830    0.017
 3772.00    0.45621   0.76285    0.016
 3773.00    0.28222   0.77547    0.016
 3774.00    0.61083   0.78708    0.016
 3775.00    0.89094   0.79821    0.017
 3776.00    0.85659   0.80693    0.017
 3777.00    0.86586   0.81213    0.017
 3778.00    1.09585   0.81456    0.017
 3779.00    1.20579   0.81212    0.017
 3780.00    0.82435   0.80280    0.017
 3781.00    0.47138   0.78652    0.017
 3782.00    0.21499   0.76513    0.017
 3783.00    0.09249   0.74092    0.017
 3784.00    0.35297   0.71342    0.017
 3785.00    0.56119   0.68552    0.017
 3786.00    0.64172   0.66217    0.017
 3787.00    0.59918   0.64155    0.017
 3788.00    0.29726   0.62229    0.017
 3789.00    0.08690   0.60744    0.017
 3790.00    0.04424   0.59519    0.017
 3791.00   -0.00763   0.58326    0.000
 3792.00   -0.07424   0.57453    0.000
 3793.00    0.00573   0.56892    0.016
 3794.00    0.29162   0.56643    0.016
 3795.00    0.51461   0.57082    0.016
 3796.00    0.65986   0.58100    0.016
 3797.00    0.71166   0.59496    0.016
 3798.00    0.66163   0.61451    0.016
 3799.00    0.52877   0.63653    0.016
 3800.00    0.31633   0.65656    0.016
 3801.00    0.20684   0.67529    0.016
 3802.00    0.18460   0.69029    0.016
 3803.00    0.29838   0.69991    0.017
 3804.00    0.51367   0.70622    0.017
 3805.00    0.51000   0.70702    0.017
 3806.00    0.36278   0.70292    0.016
 3807.00    0.18972   0.69631    0.016
 3808.00    0.00184   0.68367    0.016
 3809.00    0.07978   0.66624    0.016
 3810.00    0.29059   0.64742    0.016
 3811.00    0.45492   0.62434    0.016
 3812.00    0.59915   0.59943    0.017
 3813.00    0.76787   0.57706    0.017
 3814.00    0.94568   0.55468    0.017
 3815.00    0.90853   0.53338    0.017
 3816.00    0.80382   0.51610    0.017
 3817.00    0.85903   0.50070    0.017
 3818.00    0.95618   0.48653    0.017
 3819.00    0.88402   0.47430    0.017
 3820.00    0.77558   0.46360    0.016
 3821.00    0.79379   0.45428    0.016
 3822.00    0.83350   0.44577    0.016
 3823.00    0.74594   0.43836    0.016
 3824.00    0.64205   0.43245    0.016
 3825.00    0.29760   0.42746    0.016
 3826.00   -0.06844   0.42334    0.000
 3827.00   -0.00491   0.41935    0.000
 3828.00    0.08172   0.41584    0.016
 3829.00    0.12989   0.41336    0.016
 3830.00    0.17794   0.41045    0.016
 3831.00    0.28120   0.40904    0.016
 3832.00    0.39297   0.41032    0.016
 3833.00    0.69366   0.41221    0.016
 3834.00    0.95853   0.41772    0.016
 3835.00    0.77778   0.42794    0.016
 3836.00    0.62488   0.43957    0.016
 3837.00    0.70738   0.45571    0.017
 3838.00    0.79519   0.47644    0.018
 3839.00    0.91648   0.49671    0.017
 3840.00    0.96932   0.51837    0.016
 3841.00    0.68450   0.54003    0.016
 3842.00    0.45478   0.55659    0.016
 3843.00    0.44568   0.57032    0.016
 3844.00    0.44097   0.58085    0.017
 3845.00    0.45082   0.58488    0.017
 3846.00    0.45081   0.58592    0.017
 3847.00    0.42310   0.58580    0.000
 3848.00    0.39888   0.58123    0.000
 3849.00    0.38301   0.57426    0.000
 3850.00    0.39261   0.56818    0.000
 3851.00    0.45502   0.55950    0.000
 3852.00    0.47020   0.54864    0.000
 3853.00    0.40018   0.54031    0.000
 3854.00    0.49158   0.53274    0.000
 3855.00    0.83755   0.52620    0.000
 3856.00    0.96703   0.52461    0.000
 3857.00    0.79679   0.52682    0.000
 3858.00    0.71994   0.53181    0.000
 3859.00    0.75686   0.53977    0.000
 3860.00    0.79886   0.54860    0.000
 3861.00    0.84630   0.55651    0.000
 3862.00    0.89805   0.56243    0.000
 3863.00    0.95388   0.56516    0.000
 3864.00    0.89652   0.56510    0.000
 3865.00    0.74462   0.56303    0.000
 3866.00    0.80414   0.55964    0.000
 3867.00    1.01918   0.55699    0.000
 3868.00    1.16450   0.55548    0.000
 3869.00    1.26478   0.55574    0.000
 3870.00    1.19977   0.55839    0.000
 3871.00    1.04134   0.56095    0.000
 3872.00    1.02472   0.56385    0.000
 3873.00    1.07787   0.56662    0.000
 3874.00    0.99729   0.56604    0.000
 3875.00    0.85986   0.56453    0.000
 3876.00    0.69410   0.56360    0.000
 3877.00    0.51801   0.56079    0.000
 3878.00    0.58702   0.55738    0.000
 3879.00    0.73158   0.55718    0.000
 3880.00    0.80027   0.55883    0.000
 3881.00    0.84949   0.55891    0.015
 3882.00    0.78009   0.56272    0.015
 3883.00    0.68590   0.57250    0.015
 3884.00    0.45185   0.58242    0.015
 3885.00    0.19475   0.59626    0.015
 3886.00    0.26982   0.61758    0.015
 3887.00    0.38603   0.63999    0.015
 3888.00    0.24630   0.66219    0.015
 3889.00    0.08466   0.68636    0.016
 3890.00    0.18927   0.70822    0.016
 3891.00    0.30714   0.72373    0.016
 3892.00    0.36084   0.73628    0.016
 3893.00    0.41457   0.74619    0.016
 3894.00    0.53802   0.75065    0.016
 3895.00    0.66374   0.75172    0.016
 3896.00    0.83583   0.75270    0.016
 3897.00    0.99916   0.75414    0.016
 3898.00    1.05880   0.75177    0.015
 3899.00    1.13068   0.75068    0.015
 3900.00    1.30227   0.75550    0.015
 3901.00    1.44664   0.75767    0.015
 3902.00    1.42477   0.76275    0.014
 3903.00    1.40646   0.77543    0.014
 3904.00    1.40521   0.78804    0.013
 3905.00    1.33483   0.80327    0.013
 3906.00    0.99366   0.82091    0.013
 3907.00    0.74027   0.83696    0.013
 3908.00    0.77297   0.85124    0.013
 3909.00    0.80312   0.85968    0.014
 3910.00    0.82627   0.86316    0.014
 3911.00    0.88024   0.86183    0.014
 3912.00    1.00698   0.85140    0.014
 3913.00    1.07110   0.83597    0.015
 3914.00    1.00739   0.81763    0.015
 3915.00    0.88146   0.79377    0.015
 3916.00    0.64502   0.76812    0.015
 3917.00    0.54037   0.74394    0.015
 3918.00    0.64046   0.71881    0.015
 3919.00    0.68872   0.69370    0.015
 3920.00    0.66624   0.67088    0.015
 3921.00    0.56064   0.64619    0.015
 3922.00    0.35519   0.61956    0.015
 3923.00    0.28383   0.59218    0.015
 3924.00    0.35449   0.56107    0.015
 3925.00    0.45078   0.52852    0.015
 3926.00    0.57101   0.49650    0.016
 3927.00    0.54899   0.46553    0.016
 3928.00    0.40982   0.43892    0.016
 3929.00    0.21912   0.41906    0.016
 3930.00   -0.00894   0.40703    0.000
 3931.00    0.03582   0.40381    0.016
 3932.00    0.25421   0.41053    0.016
 3933.00    0.36841   0.42542    0.016
 3934.00    0.42463   0.44649    0.016
 3935.00    0.56632   0.47393    0.016
 3936.00    0.74939   0.50362    0.016
 3937.00    0.82137   0.53301    0.016
 3938.00    0.84692   0.56493    0.016
 3939.00    0.59440   0.59556    0.016
 3940.00    0.24240   0.62290    0.016
 3941.00    0.33463   0.65315    0.016
 3942.00    0.56112   0.68372    0.016
 3943.00    0.66625   0.71101    0.016
 3944.00    0.74090   0.73941    0.016
 3945.00    0.65485   0.76693    0.016
 3946.00    0.53603   0.79146    0.016
 3947.00    0.44804   0.81438    0.016
 3948.00    0.36498   0.83025    0.016
 3949.00    0.66414   0.84141    0.016
 3950.00    1.00894   0.85142    0.017
 3951.00    0.83822   0.85103    0.017
 3952.00    0.62553   0.84291    0.016
 3953.00    0.46027   0.83206    0.016
 3954.00    0.29718   0.81160    0.016
 3955.00    0.54279   0.78437    0.016
 3956.00    0.78794   0.75197    0.016
 3957.00    0.73728   0.71075    0.016
 3958.00    0.68581   0.66752    0.016
 3959.00    0.61916   0.62306    0.016
 3960.00    0.55460   0.57541    0.000
 3961.00    0.51354   0.53077    0.000
 3962.00    0.50362   0.49062    0.000
 3963.00    0.73844   0.45591    0.000
 3964.00    0.92898   0.43059    0.000
 3965.00    0.85671   0.41563    0.000
 3966.00    0.73686   0.41246    0.000
 3967.00    0.39351   0.42253    0.000
 3968.00    0.11621   0.44511    0.000
 3969.00    0.09195   0.47827    0.000
 3970.00    0.12948   0.52140    0.000
 3971.00    0.36449   0.57269    0.000
 3972.00    0.54844   0.62652    0.000
 3973.00    0.59414   0.68222    0.000
 3974.00    0.61472   0.73776    0.000
 3975.00    0.57698   0.78860    0.000
 3976.00    0.57994   0.83574    0.000
 3977.00    0.66467   0.87602    0.000
 3978.00    0.71016   0.90996    0.000
 3979.00    0.68702   0.94008    0.000
 3980.00    0.69871   0.96394    0.000
 3981.00    0.76374   0.98626    0.017
 3982.00    0.91529   1.00492    0.017
 3983.00    1.18320   1.02009    0.017
 3984.00    1.32733   1.03848    0.017
 3985.00    1.32489   1.05091    0.017
 3986.00    1.22100   1.06033    0.017
 3987.00    1.01117   1.07305    0.017
 3988.00    0.97410   1.08004    0.016
 3989.00    1.09617   1.08509    0.016
 3990.00    1.29784   1.09019    0.016
 3991.00    1.56416   1.09295    0.016
 3992.00    1.50657   1.09715    0.016
 3993.00    1.21757   1.10064    0.016
 3994.00    1.30112   1.10464    0.016
 3995.00    1.61825   1.11303    0.016
 3996.00    1.52974   1.12064    0.016
 3997.00    1.21895   1.12512    0.016
 3998.00    1.08000   1.13098    0.016
 3999.00    1.02290   1.13628    0.016
 4000.00    1.06660   1.13588    0.016
 4001.00    1.15171   1.13261    0.016
 4002.00    1.22053   1.13302    0.016
 4003.00    1.28363   1.13543    0.016
 4004.00    1.37009   1.13747    0.016
 4005.00    1.46348   1.14386    0.016
 4006.00    1.24850   1.15563    0.016
 4007.00    0.95778   1.16858    0.016
 4008.00    1.16647   1.18229    0.016
 4009.00    1.47446   1.19762    0.016
 4010.00    1.27530   1.21023    0.016
 4011.00    0.99733   1.22230    0.016
 4012.00    0.99447   1.23352    0.016
 4013.00    1.02325   1.23808    0.016
 4014.00    0.84820   1.24331    0.016
 4015.00    0.65739   1.24886    0.016
 4016.00    0.59243   1.24789    0.016
 4017.00    0.53277   1.24655    0.016
 4018.00    0.76168   1.24610    0.016
 4019.00    0.99083   1.24353    0.016
 4020.00    1.11502   1.23829    0.016
 4021.00    1.24447   1.23231    0.016
 4022.00    1.46647   1.22686    0.016
 4023.00    1.64736   1.21605    0.016
 4024.00    1.38594   1.20301    0.016
 4025.00    1.14283   1.18916    0.016
 4026.00    1.03872   1.16767    0.016
 4027.00    0.95907   1.14844    0.016
 4028.00    1.02056   1.13413    0.016
 4029.00    1.06624   1.11863    0.016
 4030.00    1.03949   1.11314    0.016
 4031.00    1.00086   1.11748    0.016
 4032.00    0.91764   1.12665    0.016
 4033.00    0.83584   1.14305    0.016
 4034.00    0.75849   1.15963    0.016
 4035.00    0.72227   1.17386    0.015
 4036.00    0.79545   1.18294    0.015
 4037.00    0.92576   1.18217    0.015
 4038.00    1.18652   1.17566    0.016
 4039.00    1.31029   1.16117    0.016
 4040.00    1.16325   1.14060    0.016
 4041.00    0.97796   1.12241    0.016
 4042.00    0.72678   1.10799    0.016
 4043.00    0.66397   1.10196    0.016
 4044.00    0.88532   1.10345    0.016
 4045.00    0.94327   1.11003    0.016
 4046.00    0.78463   1.12636    0.016
 4047.00    0.87506   1.14416    0.016
 4048.00    1.25629   1.15580    0.017
 4049.00    1.32407   1.16652    0.016
 4050.00    1.06914   1.17105    0.016
 4051.00    1.12335   1.16659    0.016
 4052.00    1.45829   1.16132    0.016
 4053.00    1.58832   1.14983    0.017
 4054.00    1.55436   1.13372    0.017
 4055.00    1.34051   1.12209    0.017
 4056.00    1.00000   1.10858    0.016
 4057.00    0.78417   1.09402    0.016
 4058.00    0.64535   1.08280    0.016
 4059.00    0.75779   1.07185    0.016
 4060.00    1.00581   1.06581    0.017
 4061.00    0.99515   1.06595    0.016
 4062.00    0.86326   1.06463    0.016
 4063.00    0.86023   1.06791    0.016
 4064.00    0.90925   1.07958    0.016
 4065.00    0.91285   1.08936    0.016
 4066.00    0.90078   1.09651    0.016
 4067.00    0.80912   1.10167    0.016
 4068.00    0.69435   1.10635    0.015
 4069.00    0.84403   1.11230    0.016
 4070.00    1.05722   1.11120    0.016
 4071.00    1.26736   1.10981    0.016
 4072.00    1.47691   1.11484    0.016
 4073.00    1.56829   1.11888    0.016
 4074.00    1.64187   1.12703    0.016
 4075.00    1.36985   1.13984    0.015
 4076.00    1.05960   1.15472    0.015
 4077.00    1.08632   1.17624    0.015
 4078.00    1.13773   1.19838    0.015
 4079.00    1.19445   1.21942    0.015
 4080.00    1.25137   1.24267    0.015
 4081.00    1.04780   1.26276    0.015
 4082.00    0.85210   1.28038    0.015
 4083.00    1.00720   1.29746    0.015
 4084.00    1.14920   1.31145    0.016
 4085.00    1.07518   1.32146    0.015
 4086.00    1.02463   1.32584    0.015
 4087.00    1.21555   1.32567    0.015
 4088.00    1.36475   1.31820    0.015
 4089.00    1.20781   1.30368    0.015
 4090.00    1.02200   1.28588    0.015
 4091.00    0.67422   1.25921    0.015
 4092.00    0.50452   1.23003    0.000
 4093.00    1.13176   1.20324    0.000
 4094.00    1.58165   1.17279    0.000
 4095.00    1.38024   1.14524    0.000
 4096.00    1.17813   1.12396    0.000
 4097.00    0.97393   1.10718    0.000
 4098.00    0.82798   1.09966    0.000
 4099.00    0.83430   1.09961    0.000
 4100.00    0.88297   1.10328    0.000
 4101.00    1.02678   1.11547    0.000
 4102.00    1.11791   1.13370    0.000
 4103.00    1.10656   1.14993    0.000
 4104.00    1.01260   1.16696    0.000
 4105.00    0.77847   1.18337    0.000
 4106.00    0.81690   1.19532    0.000
 4107.00    1.26049   1.20658    0.000
 4108.00    1.47414   1.21509    0.000
 4109.00    1.38733   1.22130    0.000
 4110.00    1.34253   1.22743    0.000
 4111.00    1.34608   1.23175    0.000
 4112.00    1.25609   1.23515    0.000
 4113.00    1.07116   1.23701    0.016
 4114.00    1.18147   1.23565    0.016
 4115.00    1.55612   1.23382    0.016
 4116.00    1.64522   1.23350    0.016
 4117.00    1.50903   1.22981    0.016
 4118.00    1.39559   1.22594    0.016
 4119.00    1.29793   1.22518    0.016
 4120.00    1.12294   1.22324    0.016
 4121.00    0.90089   1.22043    0.016
 4122.00    0.94972   1.21457    0.016
 4123.00    1.14246   1.20671    0.016
 4124.00    1.21229   1.19881    0.016
 4125.00    1.22545   1.18668    0.016
 4126.00    1.25411   1.17341    0.016
 4127.00    1.28892   1.16212    0.016
 4128.00    1.09722   1.15077    0.016
 4129.00    0.82885   1.14570    0.016
 4130.00    0.81251   1.14459    0.016
 4131.00    0.86787   1.14505    0.016
 4132.00    0.96381   1.15330    0.015
 4133.00    1.06926   1.15899    0.015
 4134.00    1.10846   1.16441    0.015
 4135.00    1.13514   1.17040    0.015
 4136.00    1.21466   1.16730    0.016
 4137.00    1.30189   1.16118    0.016
 4138.00    1.22222   1.15124    0.016
 4139.00    1.12482   1.13821    0.016
 4140.00    1.10206   1.12762    0.016
 4141.00    1.08447   1.11751    0.016
 4142.00    0.98677   1.10873    0.015
 4143.00    0.88631   1.10519    0.015
 4144.00    1.12883   1.10713    0.016
 4145.00    1.35878   1.10898    0.016
 4146.00    1.15085   1.11040    0.016
 4147.00    0.96824   1.11293    0.015
 4148.00    1.17718   1.11359    0.015
 4149.00    1.36156   1.11613    0.015
 4150.00    1.30393   1.11955    0.015
 4151.00    1.23330   1.12334    0.015
 4152.00    1.07031   1.13091    0.015
 4153.00    0.95621   1.14016    0.015
 4154.00    1.10899   1.15352    0.015
 4155.00    1.23768   1.16770    0.015
 4156.00    1.26104   1.18226    0.015
 4157.00    1.20758   1.19774    0.015
 4158.00    0.87783   1.20952    0.015
 4159.00    0.66473   1.21848    0.015
 4160.00    0.80368   1.22170    0.015
 4161.00    0.93885   1.22102    0.015
 4162.00    1.06433   1.21790    0.015
 4163.00    1.16779   1.20745    0.015
 4164.00    1.22262   1.19569    0.015
 4165.00    1.35073   1.18366    0.015
 4166.00    1.61920   1.16665    0.015
 4167.00    1.65010   1.15182    0.015
 4168.00    1.28394   1.13779    0.015
 4169.00    1.07113   1.12408    0.015
 4170.00    1.08295   1.11481    0.015
 4171.00    1.06483   1.10458    0.015
 4172.00    1.00817   1.09894    0.015
 4173.00    0.90215   1.09999    0.015
 4174.00    0.74010   1.10270    0.015
 4175.00    0.74809   1.10847    0.015
 4176.00    0.92625   1.11523    0.016
 4177.00    1.03541   1.12276    0.016
 4178.00    1.08367   1.13282    0.016
 4179.00    1.23057   1.14382    0.016
 4180.00    1.45420   1.15171    0.016
 4181.00    1.34635   1.15766    0.015
 4182.00    1.01184   1.16442    0.015
 4183.00    0.96008   1.17010    0.015
 4184.00    1.07783   1.17677    0.015
 4185.00    1.21603   1.17983    0.015
 4186.00    1.36493   1.17915    0.016
 4187.00    1.26834   1.18133    0.016
 4188.00    1.06041   1.18248    0.015
 4189.00    0.93600   1.17967    0.015
 4190.00    0.84419   1.17122    0.015
 4191.00    0.93943   1.16077    0.015
 4192.00    1.09678   1.15018    0.016
 4193.00    0.96573   1.13724    0.016
 4194.00    0.75430   1.12427    0.016
 4195.00    0.96993   1.11196    0.016
 4196.00    1.28354   1.10555    0.016
 4197.00    1.15598   1.10538    0.016
 4198.00    0.94734   1.10954    0.016
 4199.00    1.10375   1.12161    0.016
 4200.00    1.31178   1.13663    0.016
 4201.00    1.26550   1.15389    0.015
 4202.00    1.19328   1.17673    0.015
 4203.00    1.29839   1.19729    0.015
 4204.00    1.41506   1.21446    0.015
 4205.00    1.26215   1.22995    0.015
 4206.00    1.10157   1.23996    0.015
 4207.00    1.33089   1.24732    0.015
 4208.00    1.55145   1.25118    0.015
 4209.00    1.51445   1.24892    0.016
 4210.00    1.48334   1.24949    0.016
 4211.00    1.53803   1.25310    0.016
 4212.00    1.57248   1.25546    0.016
 4213.00    1.41558   1.25947    0.016
 4214.00    1.27770   1.26047    0.015
 4215.00    1.27052   1.26117    0.015
 4216.00    1.27228   1.26037    0.015
 4217.00    1.32149   1.24995    0.015
 4218.00    1.32246   1.23047    0.015
 4219.00    1.11734   1.20360    0.015
 4220.00    0.96379   1.17228    0.015
 4221.00    0.99191   1.13970    0.015
 4222.00    0.97285   1.11282    0.015
 4223.00    0.81410   1.09328    0.015
 4224.00    0.76646   1.08307    0.015
 4225.00    0.99920   1.08438    0.015
 4226.00    1.21503   1.09381    0.015
 4227.00    1.39411   1.11401    0.015
 4228.00    1.52252   1.13961    0.015
 4229.00    1.55536   1.16138    0.015
 4230.00    1.57237   1.18187    0.015
 4231.00    1.56333   1.19981    0.014
 4232.00    1.46899   1.21363    0.014
 4233.00    1.25152   1.22955    0.014
 4234.00    1.22856   1.24393    0.014
 4235.00    1.45256   1.25806    0.014
 4236.00    1.51006   1.27546    0.014
 4237.00    1.38130   1.29236    0.014
 4238.00    1.22562   1.31104    0.014
 4239.00    1.04336   1.32659    0.014
 4240.00    1.11294   1.33813    0.014
 4241.00    1.40169   1.34320    0.014
 4242.00    1.52068   1.33984    0.014
 4243.00    1.50952   1.33318    0.014
 4244.00    1.35608   1.31763    0.014
 4245.00    1.10674   1.29841    0.014
 4246.00    1.15811   1.27920    0.015
 4247.00    1.38702   1.25816    0.015
 4248.00    1.33011   1.24074    0.015
 4249.00    1.12606   1.22544    0.015
 4250.00    1.13518   1.21745    0.015
 4251.00    1.23940   1.21848    0.015
 4252.00    1.25088   1.21819    0.015
 4253.00    1.22680   1.21892    0.015
 4254.00    1.10289   1.22354    0.015
 4255.00    0.94645   1.23387    0.014
 4256.00    1.02623   1.25096    0.014
 4257.00    1.17050   1.26525    0.015
 4258.00    1.21153   1.27831    0.015
 4259.00    1.22943   1.29276    0.015
 4260.00    1.10800   1.30662    0.015
 4261.00    0.96165   1.31809    0.015
 4262.00    0.92052   1.32167    0.015
 4263.00    0.89379   1.31446    0.015
 4264.00    1.14180   1.29795    0.015
 4265.00    1.41666   1.27389    0.015
 4266.00    1.48859   1.24478    0.015
 4267.00    1.54813   1.21776    0.015
 4268.00    1.20647   1.19099    0.014
 4269.00    0.85472   1.16969    0.014
 4270.00    0.64419   1.15960    0.014
 4271.00    0.44984   1.15930    0.014
 4272.00    0.68304   1.17322    0.014
 4273.00    0.91890   1.18985    0.014
 4274.00    1.19136   1.20603    0.015
 4275.00    1.44249   1.22969    0.015
 4276.00    1.49996   1.24961    0.015
 4277.00    1.49141   1.26542    0.015
 4278.00    1.04315   1.27462    0.015
 4279.00    0.72604   1.27086    0.015
 4280.00    1.08790   1.26793    0.015
 4281.00    1.34454   1.26176    0.015
 4282.00    1.16191   1.25001   -2.000
 4283.00    0.94468   1.23460   -2.000
 4284.00    0.60802   1.21554   -2.000
 4285.00    0.35427   1.20162   -2.000
 4286.00    0.34154   1.19138   -2.000
 4287.00    0.46009   1.18282   -2.000
 4288.00    0.90425   1.16917   -2.000
 4289.00    1.30662   1.15909   -2.000
 4290.00    1.61967   1.15317   -2.000
 4291.00    1.61392   1.14319   -2.000
 4292.00    1.01625   1.13177   -2.000
 4293.00    0.57090   1.10922   -2.000
 4294.00    0.37259   1.08589   -2.000
 4295.00    0.47470   1.06540   -2.000
 4296.00    1.00420   1.03855   -2.000
 4297.00    1.20184   1.01271   -2.000
 4298.00    0.98413   0.98764    0.016
 4299.00    0.90233   0.96490    0.016
 4300.00    0.97043   0.95061    0.015
 4301.00    0.95560   0.93783    0.015
 4302.00    0.86006   0.92843    0.015
 4303.00    0.73904   0.92959    0.015
 4304.00    0.59614   0.93674    0.015
 4305.00    0.69944   0.95472    0.015
 4306.00    0.98880   0.98203    0.015
 4307.00    1.02245   1.01874    0.015
 4308.00    0.88630   1.06816    0.016
 4309.00    0.78539   1.12613    0.015
 4310.00    0.70499   1.19306    0.015
 4311.00    1.04726   1.25880    0.015
 4312.00    1.60373   1.32014    0.015
 4313.00    1.62933   1.37381    0.015
 4314.00    1.42197   1.41612    0.015
 4315.00    1.46875   1.44708    0.015
 4316.00    1.61124   1.46185    0.016
 4317.00    1.44288   1.45742    0.015
 4318.00    1.17513   1.44110    0.015
 4319.00    1.03912   1.41852    0.015
 4320.00    0.93833   1.39375    0.016
 4321.00    1.15450   1.37890    0.015
 4322.00    1.44003   1.36767    0.015
 4323.00    1.21455   1.36472    0.015
 4324.00    0.90018   1.37192    0.015
 4325.00    1.10474   1.38890    0.015
 4326.00    1.37793   1.41878    0.015
 4327.00    1.43801   1.44826    0.015
 4328.00    1.47818   1.47272    0.015
 4329.00    1.49294   1.48782    0.015
 4330.00    1.50624   1.49414    0.000
 4331.00    1.36535   1.49036    0.000
 4332.00    1.22271   1.47666    0.000
 4333.00    1.29184   1.45709    0.000
 4334.00    1.35937   1.43230    0.000
 4335.00    1.38836   1.40892    0.000
 4336.00    1.39419   1.38773    0.000
 4337.00    1.09841   1.37392    0.000
 4338.00    0.86374   1.37098    0.000
 4339.00    1.16291   1.37681    0.000
 4340.00    1.37583   1.39148    0.000
 4341.00    1.03172   1.41291    0.000
 4342.00    0.80112   1.43514    0.000
 4343.00    1.14322   1.45457    0.000
 4344.00    1.35054   1.47170    0.000
 4345.00    1.00773   1.48043    0.000
 4346.00    0.77653   1.48345    0.000
 4347.00    0.92294   1.48650    0.000
 4348.00    1.03341   1.48777    0.000
 4349.00    1.04133   1.48566    0.000
 4350.00    1.10192   1.48130    0.000
 4351.00    1.29093   1.48219    0.016
 4352.00    1.42609   1.49116    0.016
 4353.00    1.44799   1.50312    0.016
 4354.00    1.48009   1.51700    0.016
 4355.00    1.53081   1.53392    0.016
 4356.00    1.50872   1.55264    0.015
 4357.00    1.37028   1.56847    0.016
 4358.00    1.43185   1.58239    0.016
 4359.00    1.77386   1.59665    0.015
 4360.00    1.82420   1.60699    0.015
 4361.00    1.51469   1.61140    0.015
 4362.00    1.32523   1.60826    0.015
 4363.00    1.26633   1.60332    0.015
 4364.00    1.31083   1.59482    0.015
 4365.00    1.45453   1.57928    0.015
 4366.00    1.58107   1.56019    0.015
 4367.00    1.69310   1.53904    0.015
 4368.00    1.57847   1.52037    0.015
 4369.00    1.29501   1.50161    0.015
 4370.00    1.14195   1.48385    0.015
 4371.00    1.07420   1.46912    0.015
 4372.00    1.05567   1.45254    0.015
 4373.00    1.06534   1.43524    0.015
 4374.00    1.29412   1.41633    0.015
 4375.00    1.63219   1.39649    0.015
 4376.00    1.57748   1.37564    0.015
 4377.00    1.35329   1.34897    0.015
 4378.00    1.08493   1.32207    0.015
 4379.00    0.80024   1.29725    0.015
 4380.00    0.88077   1.27823    0.015
 4381.00    1.07583   1.26443    0.015
 4382.00    1.08129   1.25412    0.015
 4383.00    1.03716   1.25697    0.015
 4384.00    1.08265   1.27203    0.015
 4385.00    1.14729   1.29556    0.014
 4386.00    1.25151   1.32053    0.014
 4387.00    1.36242   1.34480    0.014
 4388.00    1.47795   1.37185    0.014
 4389.00    1.59406   1.39806    0.015
 4390.00    1.55001   1.42378    0.015
 4391.00    1.49167   1.44758    0.015
 4392.00    1.06459   1.46441    0.015
 4393.00    0.61788   1.47545    0.015
 4394.00    1.10340   1.48059    0.014
 4395.00    1.60262   1.48120    0.014
 4396.00    1.73270   1.47748    0.015
 4397.00    1.84592   1.46390    0.015
 4398.00    1.58883   1.44525    0.015
 4399.00    1.34409   1.42493    0.015
 4400.00    1.25194   1.40767    0.015
 4401.00    1.15253   1.39836    0.015
 4402.00    0.99207   1.39132    0.015
 4403.00    0.86565   1.38745    0.015
 4404.00    0.95255   1.39470    0.015
 4405.00    1.04212   1.41339    0.015
 4406.00    1.14489   1.43416    0.015
 4407.00    1.24401   1.45331    0.015
 4408.00    1.32859   1.47459    0.015
 4409.00    1.41457   1.49522    0.015
 4410.00    1.50519   1.51293    0.015
 4411.00    1.56917   1.52702    0.015
 4412.00    1.55856   1.53828    0.015
 4413.00    1.52216   1.54528    0.015
 4414.00    1.42398   1.54807    0.015
 4415.00    1.41163   1.55629    0.015
 4416.00    1.57692   1.56444    0.015
 4417.00    1.67385   1.56943    0.015
 4418.00    1.64772   1.57452    0.015
 4419.00    1.57463   1.57530    0.015
 4420.00    1.42763   1.57450    0.014
 4421.00    1.31512   1.57134    0.014
 4422.00    1.25027   1.56738    0.015
 4423.00    1.29976   1.56753    0.015
 4424.00    1.48831   1.56395    0.015
 4425.00    1.58768   1.55934    0.015
 4426.00    1.59141   1.55476    0.014
 4427.00    1.62017   1.54915    0.014
 4428.00    1.67260   1.54607    0.015
 4429.00    1.70975   1.54041    0.015
 4430.00    1.73416   1.53998    0.015
 4431.00    1.83043   1.54499    0.015
 4432.00    1.97946   1.54766    0.015
 4433.00    1.87085   1.55183    0.015
 4434.00    1.59614   1.55750    0.015
 4435.00    1.33058   1.56716    0.015
 4436.00    1.07019   1.58084    0.015
 4437.00    1.14183   1.59320    0.015
 4438.00    1.37647   1.60559    0.015
 4439.00    1.32701   1.61448    0.015
 4440.00    1.15700   1.62284    0.015
 4441.00    1.05379   1.63182    0.015
 4442.00    0.97486   1.64032    0.015
 4443.00    1.22979   1.65026    0.015
 4444.00    1.58739   1.65668    0.015
 4445.00    1.50050   1.65787    0.015
 4446.00    1.29981   1.64994    0.015
 4447.00    1.39960   1.63729    0.015
 4448.00    1.56202   1.62267    0.015
 4449.00    1.59661   1.59948    0.015
 4450.00    1.61020   1.57570    0.015
 4451.00    1.45286   1.55063    0.015
 4452.00    1.27445   1.52465    0.015
 4453.00    1.38070   1.50070    0.015
 4454.00    1.51117   1.47974    0.015
 4455.00    1.41084   1.47042    0.015
 4456.00    1.29912   1.46619    0.014
 4457.00    1.28296   1.46645    0.014
 4458.00    1.27241   1.47234    0.014
 4459.00    1.51802   1.48371    0.014
 4460.00    1.74669   1.49953    0.014
 4461.00    1.63230   1.51516    0.000
 4462.00    1.52162   1.53833    0.000
 4463.00    1.45472   1.56094    0.000
 4464.00    1.37485   1.58052    0.000
 4465.00    1.18990   1.60234    0.000
 4466.00    1.05683   1.62355    0.000
 4467.00    1.23954   1.64556    0.000
 4468.00    1.41925   1.66559    0.000
 4469.00    1.58461   1.68748    0.000
 4470.00    1.70565   1.70843    0.000
 4471.00    1.65365   1.72449    0.000
 4472.00    1.63659   1.73689    0.000
 4473.00    1.73316   1.74503    0.000
 4474.00    1.82801   1.74744    0.000
 4475.00    1.91813   1.74826    0.000
 4476.00    1.94039   1.74829    0.000
 4477.00    1.80273   1.74552    0.000
 4478.00    1.70335   1.74155    0.000
 4479.00    1.68194   1.73645    0.000
 4480.00    1.65477   1.73447    0.000
 4481.00    1.61739   1.73336    0.000
 4482.00    1.59723   1.73442    0.015
 4483.00    1.60377   1.73643    0.015
 4484.00    1.70005   1.73437    0.015
 4485.00    1.91855   1.73037    0.015
 4486.00    1.95669   1.72172    0.015
 4487.00    1.77857   1.71236    0.014
 4488.00    1.62071   1.70418    0.014
 4489.00    1.48429   1.69858    0.014
 4490.00    1.50262   1.69854    0.015
 4491.00    1.66528   1.70030    0.015
 4492.00    1.70380   1.70625    0.015
 4493.00    1.64027   1.71302    0.015
 4494.00    1.62250   1.72651    0.014
 4495.00    1.63784   1.74771    0.014
 4496.00    1.56159   1.77072    0.014
 4497.00    1.42715   1.79686    0.015
 4498.00    1.45513   1.82087    0.015
 4499.00    1.57331   1.84379    0.015
 4500.00    1.60287   1.86320    0.015
 4501.00    1.58962   1.87975    0.015
 4502.00    1.59203   1.89637    0.015
 4503.00    1.60096   1.90527    0.015
 4504.00    1.76099   1.90773    0.015
 4505.00    1.97493   1.90524    0.015
 4506.00    2.16075   1.89868    0.015
 4507.00    2.33808   1.88982    0.015
 4508.00    2.10429   1.87961    0.015
 4509.00    1.76752   1.86817    0.014
 4510.00    1.81096   1.85613    0.014
 4511.00    1.93168   1.84400    0.014
 4512.00    1.88657   1.83329    0.014
 4513.00    1.81500   1.82499    0.014
 4514.00    1.81028   1.81727    0.014
 4515.00    1.81350   1.80995    0.015
 4516.00    1.74989   1.80169    0.015
 4517.00    1.68087   1.78855    0.015
 4518.00    1.51055   1.77498    0.014
 4519.00    1.33562   1.75622    0.014
 4520.00    1.52441   1.73401    0.014
 4521.00    1.71535   1.70779    0.015
 4522.00    1.78741   1.67910    0.015
 4523.00    1.85591   1.65305    0.015
 4524.00    1.85755   1.62853    0.015
 4525.00    1.84070   1.60701    0.015
 4526.00    1.61660   1.59162    0.015
 4527.00    1.44098   1.58388    0.015
 4528.00    1.64479   1.58244    0.015
 4529.00    1.80225   1.59089    0.015
 4530.00    1.68561   1.60136    0.015
 4531.00    1.57789   1.61821    0.015
 4532.00    1.51184   1.63607    0.015
 4533.00    1.47641   1.65402    0.015
 4534.00    1.55796   1.67416    0.015
 4535.00    1.61390   1.69229    0.015
 4536.00    1.58820   1.71188    0.015
 4537.00    1.60581   1.72397    0.015
 4538.00    1.74047   1.73154    0.015
 4539.00    1.79378   1.73586    0.015
 4540.00    1.65859   1.73710    0.015
 4541.00    1.71763   1.73769    0.015
 4542.00    2.16599   1.73624    0.015
 4543.00    2.31135   1.73364    0.015
 4544.00    1.92770   1.72829    0.015
 4545.00    1.67230   1.72611    0.015
 4546.00    1.61285   1.72426    0.014
 4547.00    1.63820   1.72476    0.014
 4548.00    1.77738   1.72677    0.014
 4549.00    1.77248   1.73218    0.014
 4550.00    1.59725   1.74232    0.000
 4551.00    1.53511   1.75241    0.000
 4552.00    1.59084   1.76532    0.000
 4553.00    1.71586   1.77936    0.000
 4554.00    1.90459   1.79399    0.000
 4555.00    1.89562   1.80762    0.000
 4556.00    1.72642   1.82064    0.000
 4557.00    1.70631   1.82975    0.000
 4558.00    1.79253   1.83544    0.000
 4559.00    1.81352   1.83841    0.000
 4560.00    1.79369   1.83902    0.000
 4561.00    1.65686   1.83909    0.000
 4562.00    1.45605   1.83774    0.000
 4563.00    1.54767   1.83734    0.000
 4564.00    1.77832   1.83850    0.000
 4565.00    1.86755   1.84133    0.000
 4566.00    1.89878   1.84533    0.000
 4567.00    1.90434   1.84839    0.000
 4568.00    1.90090   1.84847    0.000
 4569.00    2.00428   1.84823    0.000
 4570.00    2.13922   1.84497    0.000
 4571.00    1.99632   1.83996    0.000
 4572.00    1.78535   1.83641    0.000
 4573.00    1.64873   1.82838    0.000
 4574.00    1.52684   1.81707    0.000
 4575.00    1.44937   1.80611    0.000
 4576.00    1.37876   1.79417    0.000
 4577.00    1.51894   1.78403    0.000
 4578.00    1.68324   1.77518    0.000
 4579.00    1.54579   1.77041    0.000
 4580.00    1.38517   1.76907    0.000
 4581.00    1.59142   1.77142    0.000
 4582.00    1.81294   1.77586    0.000
 4583.00    1.73419   1.78002    0.000
 4584.00    1.65312   1.78586    0.000
 4585.00    1.58441   1.78946    0.000
 4586.00    1.52389   1.79308    0.000
 4587.00    1.60663   1.79423    0.000
 4588.00    1.68673   1.79179    0.000
 4589.00    1.73864   1.78708    0.000
 4590.00    1.77472   1.77943    0.000
 4591.00    1.69114   1.77204    0.000
 4592.00    1.63332   1.76604    0.000
 4593.00    1.72361   1.76099    0.000
 4594.00    1.78935   1.75820    0.000
 4595.00    1.74297   1.75663    0.000
 4596.00    1.69346   1.75998    0.000
 4597.00    1.63227   1.76345    0.000
 4598.00    1.59796   1.77219    0.000
 4599.00    1.64770   1.78198    0.000
 4600.00    1.66119   1.79334    0.000
 4601.00    1.57846   1.80954    0.000
 4602.00    1.49653   1.82464    0.000
 4603.00    1.41642   1.84265    0.000
 4604.00    1.44847   1.85909    0.000
 4605.00    1.70184   1.87677    0.000
 4606.00    1.85401   1.89230    0.000
 4607.00    1.83214   1.90628    0.000
 4608.00    1.82150   1.91700    0.000
 4609.00    1.82773   1.92429    0.000
 4610.00    1.80093   1.92931    0.000
 4611.00    1.73040   1.93374    0.000
 4612.00    1.64161   1.93762    0.000
 4613.00    1.53153   1.93966    0.000
 4614.00    1.58380   1.94376    0.000
 4615.00    1.80291   1.94445    0.000
 4616.00    1.98100   1.94572    0.000
 4617.00    2.12190   1.94629    0.000
 4618.00    2.10450   1.94570    0.000
 4619.00    1.96063   1.94443    0.000
 4620.00    1.87497   1.94402    0.000
 4621.00    1.83022   1.94178    0.000
 4622.00    1.75677   1.93819    0.000
 4623.00    1.66561   1.93512    0.000
 4624.00    1.62272   1.93024    0.000
 4625.00    1.60582   1.92452    0.000
 4626.00    1.66373   1.91806    0.000
 4627.00    1.75663   1.91011    0.000
 4628.00    1.84882   1.90004    0.000
 4629.00    1.94073   1.88861    0.000
 4630.00    2.02058   1.87632    0.000
 4631.00    2.09626   1.86268    0.000
 4632.00    2.11957   1.84690    0.000
 4633.00    2.12770   1.83232    0.000
 4634.00    2.12941   1.81767    0.000
 4635.00    2.12958   1.80349    0.000
 4636.00    2.00133   1.79001    0.000
 4637.00    1.84828   1.77625    0.000
 4638.00    1.69330   1.76547    0.000
 4639.00    1.53803   1.75405    0.000
 4640.00    1.53947   1.74512    0.000
 4641.00    1.55815   1.73716    0.000
 4642.00    1.70964   1.73022    0.000
 4643.00    1.87080   1.72547    0.000
 4644.00    1.83435   1.72458    0.000
 4645.00    1.79043   1.72682    0.000
 4646.00    1.89591   1.73329    0.000
 4647.00    1.99537   1.74414    0.000
 4648.00    1.84349   1.75762    0.000
 4649.00    1.69658   1.77205    0.000
 4650.00    1.63062   1.78803    0.000
 4651.00    1.57587   1.80186    0.000
 4652.00    1.63579   1.81640    0.000
 4653.00    1.66561   1.82772    0.000
 4654.00    1.47553   1.83671    0.000
 4655.00    1.36727   1.84311    0.000
 4656.00    1.71651   1.84453    0.000
 4657.00    2.01143   1.84202    0.000
 4658.00    2.06404   1.83273    0.000
 4659.00    2.09613   1.81867    0.000
 4660.00    2.05312   1.79983    0.000
 4661.00    2.03565   1.77974    0.000
 4662.00    2.09650   1.76065    0.000
 4663.00    2.10588   1.74417    0.000
 4664.00    1.98100   1.73306    0.000
 4665.00    1.88999   1.72641    0.000
 4666.00    1.87489   1.72622    0.000
 4667.00    1.82929   1.73182    0.000
 4668.00    1.72445   1.74295    0.000
 4669.00    1.70023   1.75504    0.000
 4670.00    1.81254   1.76724    0.000
 4671.00    1.84924   1.77792    0.000
 4672.00    1.77375   1.78587    0.000
 4673.00    1.71839   1.79210    0.000
 4674.00    1.68927   1.79532    0.000
 4675.00    1.62484   1.79648    0.000
 4676.00    1.51981   1.79591    0.000
 4677.00    1.55240   1.79352    0.000
 4678.00    1.72443   1.79195    0.000
 4679.00    1.81405   1.79051    0.000
 4680.00    1.83000   1.79073    0.000
 4681.00    1.87571   1.79139    0.000
 4682.00    1.94484   1.79299    0.000
 4683.00    1.93433   1.79513    0.000
 4684.00    1.86867   1.79618    0.000
 4685.00    1.83258   1.79802    0.000
 4686.00    1.81445   1.79933    0.000
 4687.00    1.84879   1.80054    0.000
 4688.00    1.91095   1.80174    0.000
 4689.00    1.91309   1.80223    0.000
 4690.00    1.88762   1.80156    0.000
 4691.00    1.77031   1.79933    0.000
 4692.00    1.61662   1.79636    0.000
 4693.00    1.59088   1.79056    0.000
 4694.00    1.60835   1.78360    0.000
 4695.00    1.61532   1.77443    0.000
 4696.00    1.61931   1.76437    0.000
 4697.00    1.66620   1.75501    0.000
 4698.00    1.72313   1.74592    0.000
 4699.00    1.72529   1.74062    0.000
 4700.00    1.71714   1.73549    0.000
 4701.00    1.58123   1.73424    0.000
 4702.00    1.42673   1.73413    0.000
 4703.00    1.57897   1.73753    0.000
 4704.00    1.76363   1.74228    0.000
 4705.00    1.95156   1.74886    0.000
 4706.00    2.13971   1.75718    0.000
 4707.00    1.96916   1.76716    0.000
 4708.00    1.78642   1.78049    0.000
 4709.00    1.86300   1.79388    0.000
 4710.00    1.93373   1.81057    0.000
 4711.00    1.80105   1.82668    0.000
 4712.00    1.67877   1.84420    0.000
 4713.00    1.71593   1.86213    0.000
 4714.00    1.76150   1.87949    0.000
 4715.00    1.88947   1.89568    0.000
 4716.00    2.01321   1.90892    0.000
 4717.00    2.10696   1.91725    0.000
 4718.00    2.16822   1.92133    0.000
 4719.00    2.05275   1.91964    0.000
 4720.00    1.89688   1.91280    0.000
 4721.00    1.56495   1.90179    0.000
 4722.00    1.34040   1.88705    0.000
 4723.00    1.50102   1.87099    0.000
 4724.00    1.68932   1.85358    0.000
 4725.00    1.96095   1.83762    0.000
 4726.00    2.12916   1.82430    0.000
 4727.00    2.03234   1.81518    0.000
 4728.00    1.96107   1.81159    0.000
 4729.00    1.94611   1.81212    0.000
 4730.00    1.94572   1.81708    0.000
 4731.00    1.97318   1.82395    0.000
 4732.00    1.95013   1.83424    0.000
 4733.00    1.84281   1.84399    0.000
 4734.00    1.75168   1.85499    0.000
 4735.00    1.68423   1.86640    0.000
 4736.00    1.71084   1.87669    0.000
 4737.00    1.85836   1.88741    0.000
 4738.00    1.86414   1.89692    0.000
 4739.00    1.70934   1.90567    0.000
 4740.00    1.73222   1.91351    0.000
 4741.00    1.93262   1.92092    0.000
 4742.00    2.01171   1.92628    0.000
 4743.00    1.98393   1.93085    0.000
 4744.00    2.06868   1.93283    0.000
 4745.00    2.24080   1.93276    0.000
 4746.00    2.21965   1.93110    0.000
 4747.00    2.06656   1.92600    0.000
 4748.00    1.99258   1.92052    0.000
 4749.00    1.96591   1.91178    0.000
 4750.00    1.80838   1.90408    0.000
 4751.00    1.58254   1.89380    0.000
 4752.00    1.69395   1.88511    0.000
 4753.00    1.95802   1.87541    0.000
 4754.00    2.06608   1.86618    0.000
 4755.00    2.11339   1.85682    0.000
 4756.00    2.19236   1.84681    0.000
 4757.00    2.28181   1.83737    0.000
 4758.00    2.20591   1.82715    0.000
 4759.00    2.08404   1.81791    0.000
 4760.00    1.87757   1.81020    0.000
 4761.00    1.65173   1.80474    0.014
 4762.00    1.61654   1.80264    0.014
 4763.00    1.61626   1.80433    0.014
 4764.00    1.70215   1.80994    0.014
 4765.00    1.80018   1.81959    0.014
 4766.00    1.71380   1.83182    0.014
 4767.00    1.60871   1.84711    0.014
 4768.00    1.73212   1.86141    0.014
 4769.00    1.87030   1.87689    0.014
 4770.00    1.91711   1.89031    0.014
 4771.00    1.96108   1.90270    0.014
 4772.00    1.97295   1.91248    0.014
 4773.00    1.98148   1.91833    0.014
 4774.00    1.89304   1.92153    0.014
 4775.00    1.81251   1.92031    0.014
 4776.00    1.84629   1.91614    0.014
 4777.00    1.88190   1.90936    0.014
 4778.00    1.93483   1.90055    0.014
 4779.00    1.95399   1.89097    0.015
 4780.00    1.74191   1.88136    0.033
 4781.00    1.63529   1.87352   -1.000
 4782.00    2.08725   1.86834   -1.000
 4783.00    2.47136   1.86539   -1.000
 4784.00    2.56645   1.86646   -1.000
 4785.00    2.61841   1.87135   -1.000
 4786.00    2.51880   1.87814   -1.000
 4787.00    2.40552   1.88897   -1.000
 4788.00    2.25187   1.90037   -1.000
 4789.00    2.08096   1.91297    0.094
 4790.00    1.86656   1.92498    0.021
 4791.00    1.80165   1.93570    0.014
 4792.00    2.06092   1.94406    0.014
 4793.00    2.23948   1.94922    0.014
 4794.00    2.26614   1.95201    0.014
 4795.00    2.27761   1.95198    0.014
 4796.00    2.26412   1.95026    0.014
 4797.00    2.19176   1.94777    0.014
 4798.00    2.03458   1.94440    0.014
 4799.00    1.94025   1.94171    0.014
 4800.00    1.92559   1.93736    0.014
 4801.00    1.85356   1.93429    0.014
 4802.00    1.71746   1.92924    0.014
 4803.00    1.83341   1.92711    0.014
 4804.00    2.19763   1.92417    0.014
 4805.00    2.23373   1.92416    0.014
 4806.00    1.98480   1.92538    0.014
 4807.00    1.93124   1.92936    0.014
 4808.00    2.02719   1.93436    0.014
 4809.00    2.09155   1.94133    0.014
 4810.00    2.13463   1.94862    0.014
 4811.00    2.07849   1.95645    0.014
 4812.00    1.96385   1.96373    0.014
 4813.00    1.91788   1.96970    0.014
 4814.00    1.90717   1.97413    0.014
 4815.00    2.07687   1.97551    0.014
 4816.00    2.32688   1.97485    0.014
 4817.00    2.33164   1.97111    0.014
 4818.00    2.24256   1.96499    0.014
 4819.00    2.02879   1.95767    0.014
 4820.00    1.77448   1.94823    0.014
 4821.00    1.80126   1.93964    0.014
 4822.00    1.90456   1.93191    0.014
 4823.00    2.03606   1.92512    0.014
 4824.00    2.17386   1.91913    0.014
 4825.00    2.07581   1.91405    0.014
 4826.00    1.93573   1.91007    0.014
 4827.00    1.89080   1.90727    0.014
 4828.00    1.85883   1.90531    0.014
 4829.00    1.93997   1.90278    0.014
 4830.00    2.03210   1.90236    0.013
 4831.00    1.97997   1.90099    0.013
 4832.00    1.91909   1.90031    0.013
 4833.00    1.92577   1.89814    0.013
 4834.00    1.93384   1.89662    0.013
 4835.00    1.87016   1.89422    0.013
 4836.00    1.80943   1.89194    0.013
 4837.00    1.82586   1.89011    0.013
 4838.00    1.83984   1.88931    0.013
 4839.00    1.82046   1.88956    0.013
 4840.00    1.81600   1.88952    0.013
 4841.00    1.94627   1.89044    0.013
 4842.00    2.04460   1.89145    0.013
 4843.00    1.93102   1.89118    0.013
 4844.00    1.85279   1.88903    0.013
 4845.00    1.95691   1.88444    0.013
 4846.00    2.02475   1.87682    0.013
 4847.00    1.94154   1.86760    0.013
 4848.00    1.89875   1.85397    0.000
 4849.00    1.99510   1.83710    0.000
 4850.00    2.03748   1.81728    0.000
 4851.00    1.92338   1.79434    0.000
 4852.00    1.84747   1.76911    0.000
 4853.00    1.86610   1.74384    0.000
 4854.00    1.86800   1.72036    0.000
 4855.00    1.83424   1.69790    0.000
 4856.00    1.84012   1.67891    0.000
 4857.00    1.91948   1.66359    0.000
 4858.00    2.00717   1.65421    0.000
 4859.00    2.10835   1.65071    0.000
 4860.00    2.16601   1.65479    0.000
 4861.00    2.16188   1.66001    0.000
 4862.00    2.11117   1.66987    0.000
 4863.00    2.00226   1.67990    0.000
 4864.00    1.86590   1.69098    0.000
 4865.00    1.69932   1.70060    0.000
 4866.00    1.56052   1.71061    0.000
 4867.00    1.44872   1.71997    0.000
 4868.00    1.48168   1.72842    0.000
 4869.00    1.63863   1.73892    0.000
 4870.00    1.62999   1.75211    0.000
 4871.00    1.49643   1.76571    0.000
 4872.00    1.45664   1.77984    0.000
 4873.00    1.47900   1.79326    0.000
 4874.00    1.69407   1.80700    0.000
 4875.00    2.02101   1.81634    0.013
 4876.00    2.07172   1.82455    0.013
 4877.00    1.98271   1.82752    0.013
 4878.00    1.89367   1.82624    0.013
 4879.00    1.80461   1.82143    0.013
 4880.00    1.84081   1.81528    0.013
 4881.00    1.92409   1.80687    0.013
 4882.00    1.89191   1.79816    0.013
 4883.00    1.82291   1.79167    0.013
 4884.00    1.84409   1.78849    0.013
 4885.00    1.88931   1.79083    0.013
 4886.00    1.96429   1.79674    0.013
 4887.00    2.04576   1.80975    0.013
 4888.00    1.92167   1.82556    0.013
 4889.00    1.76194   1.84834    0.013
 4890.00    1.86467   1.87303    0.013
 4891.00    2.00198   1.89806    0.013
 4892.00    1.95412   1.92137    0.013
 4893.00    1.88905   1.94134    0.013
 4894.00    1.92389   1.95700    0.014
 4895.00    1.96439   1.96796    0.014
 4896.00    1.86217   1.97422    0.014
 4897.00    1.75864   1.97594    0.014
 4898.00    1.86809   1.97491    0.014
 4899.00    1.97455   1.97139    0.014
 4900.00    2.01018   1.96541    0.014
 4901.00    2.04750   1.95900    0.014
 4902.00    2.10665   1.95171    0.014
 4903.00    2.13649   1.94417    0.014
 4904.00    1.91139   1.93561    0.014
 4905.00    1.73983   1.92645    0.014
 4906.00    1.91276   1.91764    0.014
 4907.00    2.06624   1.90783    0.014
 4908.00    2.12191   1.89857    0.014
 4909.00    2.13316   1.88750    0.014
 4910.00    1.96359   1.87608    0.014
 4911.00    1.83261   1.86170    0.014
 4912.00    1.83185   1.84702    0.014
 4913.00    1.81181   1.83015    0.014
 4914.00    1.73686   1.81392    0.014
 4915.00    1.70029   1.79889    0.014
 4916.00    1.75710   1.78771    0.014
 4917.00    1.85022   1.78237    0.014
 4918.00    2.01957   1.78305    0.014
 4919.00    2.06219   1.79100    0.014
 4920.00    1.87362   1.80406    0.014
 4921.00    1.80538   1.82248    0.014
 4922.00    1.92906   1.84341    0.014
 4923.00    1.97544   1.86594    0.014
 4924.00    1.91364   1.88718    0.014
 4925.00    1.93290   1.90486    0.014
 4926.00    2.05201   1.91822    0.014
 4927.00    2.09448   1.92597    0.014
 4928.00    2.05375   1.92780    0.014
 4929.00    2.06319   1.92501    0.014
 4930.00    2.12067   1.91890    0.014
 4931.00    2.11903   1.91041    0.014
 4932.00    2.06747   1.90252    0.014
 4933.00    1.90765   1.89521    0.013
 4934.00    1.66733   1.89173    0.013
 4935.00    1.65645   1.89185    0.013
 4936.00    1.79543   1.89785    0.013
 4937.00    1.90914   1.90710    0.013
 4938.00    2.00842   1.92136    0.013
 4939.00    1.97858   1.93668    0.013
 4940.00    1.88445   1.95412    0.000
 4941.00    1.93434   1.97003    0.000
 4942.00    2.04623   1.98572    0.000
 4943.00    2.08914   1.99734    0.000
 4944.00    2.10657   2.00640    0.000
 4945.00    2.09190   2.01003    0.000
 4946.00    2.06719   2.00960    0.000
 4947.00    2.24352   2.00380    0.000
 4948.00    2.47230   1.99335    0.000
 4949.00    2.36599   1.97973    0.000
 4950.00    2.18832   1.96270    0.000
 4951.00    2.07025   1.94551    0.000
 4952.00    1.96222   1.92685    0.000
 4953.00    1.80231   1.91151    0.000
 4954.00    1.63581   1.89963    0.000
 4955.00    1.69913   1.89114    0.000
 4956.00    1.78284   1.88638    0.000
 4957.00    1.72059   1.88371    0.000
 4958.00    1.65064   1.88441    0.000
 4959.00    1.74137   1.88529    0.000
 4960.00    1.83571   1.88748    0.000
 4961.00    1.97268   1.88896    0.000
 4962.00    2.10468   1.89198    0.000
 4963.00    2.12849   1.89390    0.000
 4964.00    2.14857   1.89737    0.000
 4965.00    2.12290   1.90046    0.000
 4966.00    2.09639   1.90446    0.000
 4967.00    2.06290   1.90823    0.000
 4968.00    2.03088   1.91103    0.000
 4969.00    2.00813   1.91211    0.000
 4970.00    2.00577   1.91047    0.000
 4971.00    2.10341   1.90495    0.000
 4972.00    2.19568   1.89612    0.000
 4973.00    2.26660   1.88267    0.000
 4974.00    2.26053   1.86682    0.000
 4975.00    1.99975   1.84828    0.000
 4976.00    1.79548   1.82964    0.000
 4977.00    1.74921   1.81113    0.000
 4978.00    1.75480   1.79587    0.000
 4979.00    1.88441   1.78441    0.000
 4980.00    1.94760   1.77802    0.000
 4981.00    1.87361   1.77639    0.000
 4982.00    1.84892   1.77963    0.000
 4983.00    1.91282   1.78676    0.000
 4984.00    2.01748   1.79610    0.000
 4985.00    2.18617   1.80755    0.000
 4986.00    2.19369   1.81832    0.000
 4987.00    1.97889   1.82873    0.000
 4988.00    1.74095   1.83661    0.000
 4989.00    1.47491   1.84198    0.000
 4990.00    1.48400   1.84392    0.000
 4991.00    1.78756   1.84278    0.000
 4992.00    2.00897   1.83763    0.000
 4993.00    2.15282   1.82975    0.000
 4994.00    2.21992   1.81862    0.000
 4995.00    2.22312   1.80581    0.000
 4996.00    2.16497   1.79120    0.000
 4997.00    2.06186   1.77641    0.000
 4998.00    1.95596   1.76128    0.000
 4999.00    1.84828   1.74740    0.000
 5000.00    1.74259   1.73494    0.000
 5001.00    1.63802   1.72483    0.000
 5002.00    1.66214   1.71639    0.000
 5003.00    1.74931   1.70945    0.000
 5004.00    1.77923   1.70403    0.000
 5005.00    1.78490   1.69866    0.000
 5006.00    2.01334   1.69445    0.000
 5007.00    2.32256   1.68949    0.000
 5008.00    2.18922   1.68581    0.000
 5009.00    1.92011   1.68156    0.000
 5010.00    1.96058   1.67894    0.000
 5011.00    2.08010   1.67650    0.000
 5012.00    2.14308   1.67679    0.000
 5013.00    2.19432   1.67815    0.000
 5014.00    2.16144   1.68228    0.000
 5015.00    2.11479   1.68794    0.000
 5016.00    2.08041   1.69570    0.000
 5017.00    2.04754   1.70531    0.000
 5018.00    1.96088   1.71559    0.000
 5019.00    1.86968   1.72772    0.000
 5020.00    2.13280   1.73974    0.000
 5021.00    2.41325   1.75330    0.000
 5022.00    2.11561   1.76631    0.000
 5023.00    1.81707   1.78002    0.000
 5024.00    2.00893   1.79267    0.000
 5025.00    2.17633   1.80429    0.000
 5026.00    1.85319   1.81386    0.000
 5027.00    1.57645   1.82015    0.000
 5028.00    1.84163   1.82375    0.000
 5029.00    2.07302   1.82235    0.013
 5030.00    2.03158   1.81760    0.013
 5031.00    2.00910   1.80823    0.013
 5032.00    2.10150   1.79665    0.013
 5033.00    2.15631   1.78322    0.013
 5034.00    2.03132   1.77023    0.013
 5035.00    1.92516   1.75895    0.013
 5036.00    1.89234   1.75078    0.013
 5037.00    1.89223   1.74702    0.013
 5038.00    1.99823   1.74744    0.013
 5039.00    2.07452   1.75241    0.013
 5040.00    2.06928   1.76050    0.013
 5041.00    2.04894   1.77084    0.013
 5042.00    1.99307   1.78211    0.013
 5043.00    1.96904   1.79314    0.013
 5044.00    2.00971   1.80366    0.013
 5045.00    1.97896   1.81293    0.013
 5046.00    1.82187   1.82194    0.013
 5047.00    1.79446   1.83037    0.013
 5048.00    1.96780   1.83971    0.012
 5049.00    2.04269   1.84931    0.012
 5050.00    1.98374   1.86029    0.012
 5051.00    1.98164   1.87130    0.012
 5052.00    2.04759   1.88269    0.012
 5053.00    2.04410   1.89266    0.012
 5054.00    1.96734   1.90110    0.012
 5055.00    1.96461   1.90641    0.012
 5056.00    2.03081   1.90852    0.012
 5057.00    2.00144   1.90681    0.012
 5058.00    1.89367   1.90148    0.012
 5059.00    1.89739   1.89326    0.012
 5060.00    1.98164   1.88238    0.012
 5061.00    2.05775   1.87065    0.012
 5062.00    2.12868   1.85795    0.012
 5063.00    2.10252   1.84645    0.012
 5064.00    2.02253   1.83536    0.013
 5065.00    2.01732   1.82633    0.012
 5066.00    2.04817   1.81801    0.012
 5067.00    2.07277   1.81130    0.012
 5068.00    2.09477   1.80456    0.013
 5069.00    2.09610   1.79830    0.013
 5070.00    2.09008   1.79098    0.013
 5071.00    1.95351   1.78351    0.013
 5072.00    1.77768   1.77461    0.013
 5073.00    1.75026   1.76609    0.013
 5074.00    1.75990   1.75698    0.012
 5075.00    1.60898   1.74985    0.012
 5076.00    1.42554   1.74383    0.012
 5077.00    1.60369   1.74139    0.012
 5078.00    1.83931   1.74170    0.013
 5079.00    1.95458   1.74621    0.013
 5080.00    2.05561   1.75385    0.013
 5081.00    2.07131   1.76483    0.013
 5082.00    2.08015   1.77788    0.013
 5083.00    1.83167   1.79220    0.012
 5084.00    1.57161   1.80658    0.012
 5085.00    1.60653   1.81989    0.012
 5086.00    1.64680   1.83111    0.012
 5087.00    1.77969   1.83953    0.012
 5088.00    1.89730   1.84437    0.013
 5089.00    1.73061   1.84585    0.012
 5090.00    1.59819   1.84345    0.012
 5091.00    1.84748   1.83854    0.012
 5092.00    2.06348   1.83058    0.013
 5093.00    2.02011   1.82197    0.013
 5094.00    1.97222   1.81182    0.013
 5095.00    1.89765   1.80291    0.013
 5096.00    1.85332   1.79377    0.013
 5097.00    1.95011   1.78681    0.013
 5098.00    1.98012   1.78027    0.013
 5099.00    1.75560   1.77577    0.013
 5100.00    1.63870   1.77191    0.012
 5101.00    1.86410   1.76953    0.013
 5102.00    2.00033   1.76820    0.013
 5103.00    1.89612   1.76815    0.013
 5104.00    1.85233   1.76992    0.013
 5105.00    1.94822   1.77316    0.013
 5106.00    1.97837   1.77876    0.013
 5107.00    1.87698   1.78578    0.013
 5108.00    1.79796   1.79470    0.013
 5109.00    1.75794   1.80405    0.013
 5110.00    1.75669   1.81363    0.013
 5111.00    1.81457   1.82174    0.012
 5112.00    1.87664   1.82783    0.012
 5113.00    1.94431   1.83059    0.013
 5114.00    1.97437   1.82959    0.013
 5115.00    1.96006   1.82455    0.013
 5116.00    1.95168   1.81554    0.013
 5117.00    1.94946   1.80354    0.013
 5118.00    1.90744   1.78910    0.013
 5119.00    1.82890   1.77408    0.013
 5120.00    1.83844   1.75916    0.013
 5121.00    1.91923   1.74624    0.013
 5122.00    1.96697   1.73578    0.013
 5123.00    1.99118   1.72878    0.013
 5124.00    1.90584   1.72531    0.013
 5125.00    1.75207   1.72505    0.012
 5126.00    1.56944   1.72784    0.012
 5127.00    1.37106   1.73211    0.012
 5128.00    1.39105   1.73784    0.012
 5129.00    1.51463   1.74289    0.012
 5130.00    1.69004   1.74752    0.012
 5131.00    1.88664   1.74998    0.012
 5132.00    1.97615   1.75078    0.012
 5133.00    2.02822   1.74917    0.012
 5134.00    1.91900   1.74570    0.012
 5135.00    1.76224   1.74066    0.012
 5136.00    1.73795   1.73442    0.012
 5137.00    1.74601   1.72785    0.012
 5138.00    1.81885   1.72108    0.012
 5139.00    1.90448   1.71490    0.012
 5140.00    1.93739   1.70935    0.012
 5141.00    1.96217   1.70490    0.012
 5142.00    1.72885   1.70164    0.012
 5143.00    1.46613   1.69968    0.012
 5144.00    1.56876   1.69935    0.012
 5145.00    1.69925   1.70045    0.012
 5146.00    1.71190   1.70357    0.012
 5147.00    1.71971   1.70810    0.012
 5148.00    1.84423   1.71467    0.012
 5149.00    1.96520   1.72211    0.013
 5150.00    1.89642   1.73068    0.013
 5151.00    1.83000   1.73861    0.013
 5152.00    1.80452   1.74559    0.012
 5153.00    1.80575   1.74939    0.012
 5154.00    2.09102   1.74940    0.013
 5155.00    2.29527   1.74351    0.013
 5156.00    1.88960   1.73147    0.013
 5157.00    1.56315   1.71199    0.013
 5158.00    1.69047   1.68586    0.013
 5159.00    1.79044   1.65330    0.013
 5160.00    1.76587   1.61613    0.013
 5161.00    1.73659   1.57629    0.013
 5162.00    1.68975   1.53595    0.013
 5163.00    1.60875   1.49821    0.013
 5164.00    1.42115   1.46461    0.013
 5165.00    1.28443   1.43820    0.013
 5166.00    1.28249   1.41920    0.013
 5167.00    1.29991   1.40946    0.013
 5168.00    1.36140   1.40761    0.013
 5169.00    1.44881   1.41365    0.013
 5170.00    1.58729   1.42506    0.013
 5171.00    1.68491   1.44053    0.013
 5172.00    1.71238   1.45724    0.013
 5173.00    1.77444   1.47355    0.013
 5174.00    1.88847   1.48764    0.013
 5175.00    1.96272   1.49887    0.013
 5176.00    1.98442   1.50715    0.013
 5177.00    1.96973   1.51310    0.013
 5178.00    1.91272   1.51822    0.013
 5179.00    1.83377   1.52358    0.013
 5180.00    1.73232   1.53108    0.012
 5181.00    1.73862   1.54092    0.012
 5182.00    1.84243   1.55434    0.012
 5183.00    1.79236   1.57014    0.012
 5184.00    1.61958   1.58839    0.012
 5185.00    1.59272   1.60741    0.012
 5186.00    1.66824   1.62663    0.012
 5187.00    1.68536   1.64509    0.012
 5188.00    1.66653   1.66201    0.012
 5189.00    1.69046   1.67763    0.012
 5190.00    1.73738   1.69112    0.000
 5191.00    1.83334   1.70332    0.000
 5192.00    1.95220   1.71316    0.000
 5193.00    1.95004   1.72122    0.000
 5194.00    1.89920   1.72631    0.000
 5195.00    2.00558   1.72845    0.000
 5196.00    2.16591   1.72699    0.000
 5197.00    2.05353   1.72185    0.000
 5198.00    1.86236   1.71362    0.000
 5199.00    1.78262   1.70253    0.000
 5200.00    1.72949   1.69064    0.000
 5201.00    1.78533   1.67850    0.000
 5202.00    1.86214   1.66893    0.000
 5203.00    1.80643   1.66218    0.000
 5204.00    1.73090   1.66066    0.000
 5205.00    1.75926   1.66391    0.000
 5206.00    1.79898   1.67268    0.000
 5207.00    1.71898   1.68607    0.000
 5208.00    1.63033   1.70282    0.000
 5209.00    1.55317   1.72230    0.000
 5210.00    1.47644   1.74174    0.000
 5211.00    1.62422   1.76128    0.012
 5212.00    1.77714   1.77776    0.012
 5213.00    2.07921   1.79200    0.012
 5214.00    2.35152   1.80154    0.012
 5215.00    2.14130   1.80736    0.012
 5216.00    1.95439   1.80849    0.012
 5217.00    2.00474   1.80577    0.012
 5218.00    2.03868   1.79971    0.012
 5219.00    1.95315   1.79135    0.012
 5220.00    1.89866   1.78209    0.012
 5221.00    2.01707   1.77322    0.012
 5222.00    2.05761   1.76609    0.012
 5223.00    1.75179   1.76191    0.012
 5224.00    1.53559   1.76132    0.012
 5225.00    1.64687   1.76493    0.012
 5226.00    1.73011   1.77236    0.012
 5227.00    1.72755   1.78355    0.013
 5228.00    1.71054   1.79745    0.013
 5229.00    1.65590   1.81363    0.013
 5230.00    1.66233   1.83078    0.013
 5231.00    1.80535   1.84856    0.013
 5232.00    1.83889   1.86550    0.013
 5233.00    1.66025   1.88162    0.013
 5234.00    1.65978   1.89535    0.012
 5235.00    1.96047   1.90699    0.013
 5236.00    2.17725   1.91518    0.013
 5237.00    2.26976   1.92020    0.013
 5238.00    2.21675   1.92138    0.013
 5239.00    1.97429   1.91928    0.013
 5240.00    1.86850   1.91378    0.013
 5241.00    1.91947   1.90594    0.012
 5242.00    1.95273   1.89618    0.012
 5243.00    1.96809   1.88576    0.012
 5244.00    1.95106   1.87541    0.012
 5245.00    1.90515   1.86631    0.012
 5246.00    1.87824   1.85896    0.012
 5247.00    1.86626   1.85402    0.012
 5248.00    1.85053   1.85120    0.012
 5249.00    1.83219   1.85046    0.012
 5250.00    1.80606   1.85046    0.012
 5251.00    1.77520   1.85067    0.012
 5252.00    1.77942   1.84894    0.012
 5253.00    1.80219   1.84478    0.012
 5254.00    1.85197   1.83624    0.012
 5255.00    1.91415   1.82316    0.012
 5256.00    1.96856   1.80487    0.012
 5257.00    2.01989   1.78188    0.012
 5258.00    1.96020   1.75539    0.012
 5259.00    1.86312   1.72638    0.012
 5260.00    1.86271   1.69774    0.012
 5261.00    1.88967   1.67040    0.012
 5262.00    1.90087   1.64780    0.012
 5263.00    1.90839   1.63017    0.012
 5264.00    1.95136   1.62031    0.012
 5265.00    2.00099   1.61768    0.012
 5266.00    1.90878   1.62338    0.012
 5267.00    1.79603   1.63633    0.012
 5268.00    1.69539   1.65573    0.012
 5269.00    1.59602   1.68035    0.012
 5270.00    1.60167   1.70810    0.012
 5271.00    1.61449   1.73781    0.012
 5272.00    1.50614   1.76730    0.012
 5273.00    1.39373   1.79595    0.012
 5274.00    1.57408   1.82202    0.012
 5275.00    1.75401   1.84577    0.012
 5276.00    1.91001   1.86726    0.012
 5277.00    2.04349   1.88631    0.012
 5278.00    1.83413   1.90369    0.012
 5279.00    1.66548   1.91948    0.012
 5280.00    1.89385   1.93500    0.012
 5281.00    2.09325   1.94925    0.013
 5282.00    2.08868   1.96343    0.012
 5283.00    2.10022   1.97563    0.012
 5284.00    2.19905   1.98614    0.013
 5285.00    2.26298   1.99348    0.013
 5286.00    2.17530   1.99757    0.013
 5287.00    2.12432   1.99770    0.012
 5288.00    2.20468   1.99392    0.013
 5289.00    2.24892   1.98663    0.013
 5290.00    2.18465   1.97668    0.013
 5291.00    2.11885   1.96531    0.013
 5292.00    2.04910   1.95383    0.013
 5293.00    1.98291   1.94370    0.013
 5294.00    1.92456   1.93679    0.013
 5295.00    1.89171   1.93352    0.013
 5296.00    1.90753   1.93516    0.013
 5297.00    1.87729   1.94098    0.013
 5298.00    1.77036   1.95138    0.013
 5299.00    1.69682   1.96487    0.013
 5300.00    1.67201   1.98082    0.012
 5301.00    1.73096   1.99757    0.012
 5302.00    1.89739   2.01414    0.012
 5303.00    2.05648   2.02931    0.012
 5304.00    2.20726   2.04219    0.012
 5305.00    2.17502   2.05203    0.012
 5306.00    1.96025   2.05853    0.012
 5307.00    1.92606   2.06149    0.012
 5308.00    2.05072   2.06134    0.012
 5309.00    2.08570   2.05785    0.012
 5310.00    2.05119   2.05158    0.012
 5311.00    1.98627   2.04263    0.012
 5312.00    1.90064   2.03137    0.012
 5313.00    1.88086   2.01803    0.012
 5314.00    1.90040   2.00238    0.012
 5315.00    1.93051   1.98510    0.012
 5316.00    1.96613   1.96561    0.012
 5317.00    1.93104   1.94511    0.012
 5318.00    1.86400   1.92337    0.012
 5319.00    1.81324   1.90162    0.011
 5320.00    1.76880   1.88067    0.011
 5321.00    1.78736   1.86140    0.011
 5322.00    1.82674   1.84576    0.011
 5323.00    1.81936   1.83347    0.011
 5324.00    1.79902   1.82724    0.011
 5325.00    1.83542   1.82516    0.011
 5326.00    1.88476   1.82960    0.011
 5327.00    1.92103   1.83761    0.011
 5328.00    1.95491   1.85026    0.011
 5329.00    1.92760   1.86459    0.011
 5330.00    1.89171   1.87993    0.011
 5331.00    1.94561   1.89434    0.012
 5332.00    2.00857   1.90727    0.012
 5333.00    2.09469   1.91812    0.012
 5334.00    2.18229   1.92592    0.012
 5335.00    2.11309   1.93121    0.012
 5336.00    2.03925   1.93416    0.011
 5337.00    1.97698   1.93592    0.011
 5338.00    1.91557   1.93717    0.012
 5339.00    1.87885   1.93865    0.011
 5340.00    1.85271   1.94113    0.011
 5341.00    1.97834   1.94508    0.011
 5342.00    2.08407   1.95108    0.011
 5343.00    2.00363   1.95881    0.011
 5344.00    1.93796   1.96927    0.012
 5345.00    1.97308   1.98162    0.012
 5346.00    1.99697   1.99608    0.012
 5347.00    1.96153   2.01122    0.012
 5348.00    1.92292   2.02746    0.012
 5349.00    1.87087   2.04307    0.012
 5350.00    1.84542   2.05819    0.012
 5351.00    1.91324   2.07107    0.012
 5352.00    1.95291   2.08114    0.012
 5353.00    1.90965   2.08772    0.012
 5354.00    1.91446   2.09052    0.012
 5355.00    2.04006   2.08851    0.012
 5356.00    2.13376   2.08246    0.012
 5357.00    2.15841   2.07191    0.012
 5358.00    2.14394   2.05852    0.012
 5359.00    2.05598   2.04188    0.012
 5360.00    1.95485   2.02384    0.012
 5361.00    1.83213   2.00514    0.012
 5362.00    1.81304   1.98678    0.011
 5363.00    1.94298   1.97039    0.011
 5364.00    2.02138   1.95614    0.011
 5365.00    2.03459   1.94582    0.011
 5366.00    2.02550   1.93933    0.011
 5367.00    1.99154   1.93745    0.011
 5368.00    1.97492   1.93961   -2.000
 5369.00    1.97536   1.94552   -2.000
 5370.00    1.99901   1.95495   -2.000
 5371.00    2.04279   1.96558   -2.000
 5372.00    2.05324   1.97800   -2.000
 5373.00    2.03821   1.98919   -2.000
 5374.00    1.94569   1.99993   -2.000
 5375.00    1.80115   2.00869   -2.000
 5376.00    1.77171   2.01532   -2.000
 5377.00    1.80998   2.01897   -2.000
 5378.00    1.78055   2.01911   -2.000
 5379.00    1.71641   2.01711   -2.000
 5380.00    1.79855   2.01184   -2.000
 5381.00    1.94568   2.00505   -2.000
 5382.00    2.13668   1.99608   -2.000
 5383.00    2.34442   1.98535    0.011
 5384.00    2.29402   1.97324    0.011
 5385.00    2.15989   1.95992    0.011
 5386.00    2.12932   1.94633    0.011
 5387.00    2.12686   1.93192    0.011
 5388.00    2.06013   1.91853    0.011
 5389.00    1.97907   1.90475    0.011
 5390.00    1.99504   1.89240    0.011
 5391.00    2.02826   1.88101    0.011
 5392.00    1.98297   1.87088    0.011
 5393.00    1.92703   1.86220    0.011
 5394.00    1.83385   1.85416    0.011
 5395.00    1.73707   1.84798    0.011
 5396.00    1.71977   1.84131    0.011
 5397.00    1.70726   1.83640    0.011
 5398.00    1.75711   1.83082    0.011
 5399.00    1.80913   1.82719    0.011
 5400.00    1.95243   1.82347    0.011
 5401.00    2.08708   1.82278    0.011
 5402.00    1.99867   1.82431    0.011
 5403.00    1.91380   1.82797    0.012
 5404.00    1.87694   1.83493    0.011
 5405.00    1.84371   1.84496    0.011
 5406.00    1.84307   1.85850    0.011
 5407.00    1.84915   1.87356    0.011
 5408.00    1.89964   1.89136    0.011
 5409.00    1.93224   1.90975    0.011
 5410.00    1.87283   1.92870    0.011
 5411.00    1.85781   1.94612    0.011
 5412.00    2.02705   1.96132    0.011
 5413.00    2.13200   1.97383    0.011
 5414.00    2.01617   1.98382    0.011
 5415.00    1.93831   1.99071    0.011
 5416.00    1.97035   1.99419    0.011
 5417.00    1.98052   1.99469    0.011
 5418.00    1.93667   1.99273    0.011
 5419.00    1.91908   1.98838    0.011
 5420.00    1.95738   1.98246    0.011
 5421.00    2.00350   1.97448    0.010
 5422.00    2.06406   1.96566    0.011
 5423.00    2.05572   1.95622    0.011
 5424.00    1.93606   1.94696    0.010
 5425.00    1.87441   1.93834    0.010
 5426.00    1.89499   1.93105    0.010
 5427.00    1.95000   1.92506    0.010
 5428.00    2.04793   1.92247    0.010
 5429.00    2.13195   1.92241    0.010
 5430.00    2.20067   1.92575    0.010
 5431.00    2.17675   1.93102    0.010
 5432.00    2.06302   1.93953    0.011
 5433.00    1.99258   1.94905    0.011
 5434.00    1.95915   1.96101    0.011
 5435.00    1.93680   1.97164    0.011
 5436.00    1.92280   1.98062    0.011
 5437.00    1.91530   1.98761    0.010
 5438.00    1.91211   1.99181    0.010
 5439.00    1.96570   1.99309    0.010
 5440.00    2.05220   1.99146    0.010
 5441.00    2.11045   1.98689    0.011
 5442.00    2.15445   1.98066    0.011
 5443.00    2.04445   1.97318    0.011
 5444.00    1.86715   1.96519    0.011
 5445.00    1.93861   1.95809    0.011
 5446.00    2.10335   1.95077    0.011
 5447.00    2.10571   1.94579    0.011
 5448.00    2.05641   1.94019    0.011
 5449.00    2.02733   1.93785    0.011
 5450.00    2.00362   1.93490    0.011
 5451.00    1.95503   1.93507    0.011
 5452.00    1.90102   1.93445    0.011
 5453.00    1.99276   1.93531    0.011
 5454.00    2.10967   1.93588    0.011
 5455.00    2.12888   1.93739    0.011
 5456.00    2.13527   1.93904    0.011
 5457.00    2.06661   1.94080    0.011
 5458.00    1.99101   1.94298    0.011
 5459.00    1.95831   1.94431    0.011
 5460.00    1.92803   1.94602    0.011
 5461.00    1.93161   1.94589    0.011
 5462.00    1.93602   1.94471    0.011
 5463.00    1.94816   1.94216    0.011
 5464.00    1.96105   1.93826    0.011
 5465.00    1.99128   1.93342    0.011
 5466.00    2.01935   1.92764    0.010
 5467.00    2.01980   1.92079    0.010
 5468.00    2.02109   1.91337    0.010
 5469.00    2.02957   1.90522    0.010
 5470.00    2.04507   1.89743    0.010
 5471.00    2.10552   1.89066    0.010
 5472.00    2.14806   1.88531    0.010
 5473.00    2.10084   1.88183    0.010
 5474.00    2.06166   1.88017    0.010
 5475.00    2.05517   1.88102    0.010
 5476.00    2.07430   1.88358    0.011
 5477.00    2.17967   1.88855    0.010
 5478.00    2.26270   1.89421   -2.000
 5479.00    2.28227   1.90234   -2.000
 5480.00    2.30723   1.90968   -2.000
 5481.00    2.34528   1.91837   -2.000
 5482.00    2.39601   1.92565   -2.000
 5483.00    2.47330   1.93273   -2.000
 5484.00    2.45468   1.93886   -2.000
 5485.00    2.26141   1.94379   -2.000
 5486.00    1.99062   1.94890   -2.000
 5487.00    1.59643   1.95213   -2.000
 5488.00    1.28598   1.95498   -2.000
 5489.00    1.09252   1.95596   -2.000
 5490.00    1.04431   1.95702   -2.000
 5491.00    1.17467   1.95701   -2.000
 5492.00    1.23460   1.95673   -2.000
 5493.00    1.21818   1.95577   -2.000
 5494.00    1.41785   1.95298   -2.000
 5495.00    1.82406   1.95042   -2.000
 5496.00    2.03995   1.94701   -2.000
 5497.00    2.09542   1.94311   -2.000
 5498.00    2.12804   1.93864   -2.000
 5499.00    2.14369   1.93391   -2.000
 5500.00    2.11060   1.92904   -2.000
 5501.00    2.04572   1.92395   -2.000
 5502.00    2.05759   1.91952    0.011
 5503.00    2.11326   1.91506    0.010
 5504.00    2.07715   1.91166    0.010
 5505.00    1.99544   1.90885    0.011
 5506.00    1.99046   1.90814    0.010
 5507.00    2.01846   1.90791    0.010
 5508.00    2.06684   1.90981    0.010
 5509.00    2.12273   1.91306    0.011
 5510.00    2.01819   1.91812    0.010
 5511.00    1.86358   1.92436    0.010
 5512.00    1.93488   1.93193    0.010
 5513.00    2.06496   1.93941    0.010
 5514.00    2.04743   1.94750    0.010
 5515.00    1.99856   1.95501    0.010
 5516.00    1.97827   1.96114    0.010
 5517.00    1.96279   1.96649    0.010
 5518.00    2.07662   1.96944    0.010
 5519.00    2.20682   1.97113    0.010
 5520.00    2.22798   1.97067    0.010
 5521.00    2.23952   1.96885    0.010
 5522.00    2.03852   1.96603    0.010
 5523.00    1.82641   1.96260    0.010
 5524.00    1.75186   1.95977    0.010
 5525.00    1.68194   1.95727    0.010
 5526.00    1.76720   1.95605    0.010
 5527.00    1.85392   1.95586    0.010
 5528.00    1.97211   1.95695    0.010
 5529.00    2.08138   1.95934    0.010
 5530.00    2.08184   1.96285    0.010
 5531.00    2.09304   1.96790    0.010
 5532.00    2.19378   1.97278    0.010
 5533.00    2.25876   1.97854    0.010
 5534.00    2.10131   1.98378    0.010
 5535.00    1.97322   1.98944    0.010
 5536.00    1.98859   1.99480    0.010
 5537.00    1.98271   2.00017    0.010
 5538.00    1.89247   2.00604    0.010
 5539.00    1.84012   2.01078    0.010
 5540.00    1.91283   2.01611    0.010
 5541.00    2.00048   2.02033    0.012
 5542.00    2.12979   2.02449    0.028
 5543.00    2.21277   2.02757   -1.000
 5544.00    2.18519   2.02996   -1.000
 5545.00    2.16189   2.03161   -1.000
 5546.00    2.14741   2.03266   -1.000
 5547.00    2.13345   2.03243    0.057
 5548.00    2.12042   2.03121    0.015
 5549.00    2.09613   2.02942    0.010
 5550.00    2.05418   2.02590    0.010
 5551.00    1.99028   2.02180    0.010
 5552.00    1.89614   2.01636    0.010
 5553.00    1.85154   2.01029    0.010
 5554.00    1.86699   2.00371    0.010
 5555.00    1.79628   1.99668    0.010
 5556.00    1.63351   1.98952    0.010
 5557.00    1.63941   1.98237    0.010
 5558.00    1.80429   1.97566    0.010
 5559.00    1.89221   1.96873    0.010
 5560.00    1.91620   1.96255    0.010
 5561.00    1.89932   1.95742    0.010
 5562.00    1.85256   1.95242    0.010
 5563.00    1.87339   1.94852    0.010
 5564.00    1.93765   1.94623    0.010
 5565.00    1.98338   1.94539    0.010
 5566.00    2.01869   1.94527    0.010
 5567.00    2.05983   1.94633    0.010
 5568.00    2.10381   1.94871    0.009
 5569.00    2.12176   1.95100    0.009
 5570.00    2.12871   1.95423    0.010
 5571.00    2.06406   1.95664    0.010
 5572.00    1.97352   1.95877    0.009
 5573.00    1.99501   1.95959    0.010
 5574.00    2.05079   1.95820    0.010
 5575.00    2.12501   1.95599    0.010
 5576.00    2.20392   1.95053    0.010
 5577.00    2.19980   1.94284    0.010
 5578.00    2.17847   1.93372    0.010
 5579.00    2.01516   1.92281    0.010
 5580.00    1.82870   1.91110    0.010
 5581.00    1.79284   1.89963    0.010
 5582.00    1.77539   1.88806    0.010
 5583.00    1.89715   1.87772    0.010
 5584.00    2.03061   1.86896    0.010
 5585.00    1.90515   1.86308    0.010
 5586.00    1.76716   1.85985    0.010
 5587.00    1.84722   1.85886    0.010
 5588.00    1.92904   1.85902    0.010
 5589.00    1.92083   1.86209    0.010
 5590.00    1.90744   1.86696    0.010
 5591.00    1.79130   1.87201    0.010
 5592.00    1.69135   1.87883    0.010
 5593.00    1.77948   1.88436    0.010
 5594.00    1.85861   1.89219    0.010
 5595.00    1.86553   1.89897    0.010
 5596.00    1.85545   1.90752    0.010
 5597.00    1.74270   1.91647    0.010
 5598.00    1.66220   1.92578    0.010
 5599.00    1.73539   1.93541    0.010
 5600.00    1.78694   1.94518    0.010
 5601.00    1.75447   1.95609    0.010
 5602.00    1.74271   1.96524    0.010
 5603.00    1.79799   1.97459    0.010
 5604.00    1.85625   1.98060    0.010
 5605.00    1.92267   1.98424    0.010
 5606.00    1.95924   1.98570    0.010
 5607.00    1.92579   1.98419    0.010
 5608.00    1.90711   1.98038    0.009
 5609.00    1.91840   1.97380    0.009
 5610.00    1.90274   1.96597    0.009
 5611.00    1.83950   1.95759    0.009
 5612.00    1.75673   1.94910    0.009
 5613.00    1.64378   1.94154    0.009
 5614.00    1.59271   1.93382    0.009
 5615.00    1.62562   1.92777    0.009
 5616.00    1.68508   1.92278    0.009
 5617.00    1.77624   1.92040    0.009
 5618.00    1.87172   1.92115    0.009
 5619.00    1.97174   1.92298    0.009
 5620.00    2.01342   1.92613    0.010
 5621.00    2.00086   1.93027    0.010
 5622.00    1.90152   1.93519    0.010
 5623.00    1.73107   1.94084    0.010
 5624.00    1.71894   1.94585    0.010
 5625.00    1.82096   1.95056    0.010
 5626.00    1.94148   1.95441    0.010
 5627.00    2.07370   1.95816    0.010
 5628.00    2.17354   1.96081    0.010
 5629.00    2.25546   1.96160    0.010
 5630.00    2.21912   1.96177    0.010
 5631.00    2.12588   1.95977    0.010
 5632.00    2.02800   1.95728    0.010
 5633.00    1.92818   1.95367    0.010
 5634.00    1.90655   1.95008    0.010
 5635.00    1.91269   1.94717    0.010
 5636.00    1.97262   1.94435    0.010
 5637.00    2.04868   1.94323    0.010
 5638.00    2.01820   1.94229    0.010
 5639.00    1.96118   1.94293    0.010
 5640.00    1.92930   1.94432    0.010
 5641.00    1.90251   1.94605    0.010
 5642.00    1.89626   1.94809    0.010
 5643.00    1.89326   1.94993    0.009
 5644.00    1.96369   1.95200    0.009
 5645.00    2.04275   1.95240    0.009
 5646.00    2.03161   1.95234    0.009
 5647.00    2.01325   1.95065    0.009
 5648.00    1.94182   1.94740    0.009
 5649.00    1.86803   1.94367    0.009
 5650.00    1.94877   1.93748    0.009
 5651.00    2.03104   1.93187    0.010
 5652.00    2.10275   1.92669    0.009
 5653.00    2.16622   1.92152    0.009
 5654.00    2.07797   1.91688    0.009
 5655.00    1.99127   1.91294    0.009
 5656.00    1.92187   1.91159    0.009
 5657.00    1.85972   1.91151    0.009
 5658.00    1.85381   1.91398    0.009
 5659.00    1.84048   1.91596    0.009
 5660.00    1.78358   1.92122    0.010
 5661.00    1.74135   1.92881    0.010
 5662.00    1.76738   1.93680    0.010
 5663.00    1.78746   1.94547    0.010
 5664.00    1.78492   1.95454    0.010
 5665.00    1.78022   1.96487    0.010
 5666.00    1.76870   1.97390    0.010
 5667.00    1.75810   1.98272    0.010
 5668.00    1.74998   1.98988    0.010
 5669.00    1.74238   1.99686    0.010
 5670.00    1.73595   2.00207    0.009
 5671.00    1.74751   2.00579    0.009
 5672.00    1.79499   2.00791    0.009
 5673.00    1.83267   2.00856    0.010
 5674.00    1.85333   2.00718    0.010
 5675.00    1.89180   2.00421    0.010
 5676.00    1.95738   2.00050    0.010
 5677.00    2.00687   1.99603    0.010
 5678.00    2.03481   1.99147    0.010
 5679.00    2.03063   1.98602    0.010
 5680.00    1.98859   1.98213    0.010
 5681.00    1.98782   1.97887    0.010
 5682.00    2.02992   1.97804    0.009
 5683.00    2.02158   1.97679    0.009
 5684.00    1.96702   1.97771    0.009
 5685.00    1.92875   1.97954    0.009
 5686.00    1.90363   1.98137    0.009
 5687.00    1.91403   1.98331    0.009
 5688.00    1.94967   1.98391    0.009
 5689.00    1.97813   1.98502    0.009
 5690.00    2.00212   1.98300    0.009
 5691.00    2.01385   1.98125    0.009
 5692.00    2.01891   1.97694    0.009
 5693.00    2.09835   1.97077    0.009
 5694.00    2.21302   1.96330    0.009
 5695.00    2.19080   1.95433    0.010
 5696.00    2.11269   1.94533    0.010
 5697.00    2.01060   1.93513    0.010
 5698.00    1.90016   1.92453    0.009
 5699.00    1.88837   1.91372    0.010
 5700.00    1.90560   1.90437    0.010
 5701.00    1.96138   1.89574    0.010
 5702.00    2.02655   1.88988    0.010
 5703.00    1.99151   1.88561    0.010
 5704.00    1.93673   1.88385    0.010
 5705.00    1.90794   1.88633    0.010
 5706.00    1.88316   1.89066    0.010
 5707.00    1.93531   1.89716    0.010
 5708.00    1.99619   1.90632    0.010
 5709.00    1.96841   1.91817    0.010
 5710.00    1.93390   1.93088    0.010
 5711.00    2.01305   1.94652    0.010
 5712.00    2.09682   1.96246    0.010
 5713.00    2.01195   1.97739    0.010
 5714.00    1.92811   1.99346    0.009
 5715.00    1.94141   2.00740    0.009
 5716.00    1.95550   2.01914    0.010
 5717.00    1.98326   2.02917    0.009
 5718.00    2.01028   2.03673    0.009
 5719.00    2.02949   2.04114    0.009
 5720.00    2.04533   2.04544    0.009
 5721.00    2.03589   2.04855    0.009
 5722.00    2.02012   2.04956    0.009
 5723.00    1.96827   2.04889    0.009
 5724.00    1.91874   2.04795    0.009
 5725.00    1.87976   2.04765    0.009
 5726.00    1.86237   2.04684    0.009
 5727.00    1.92527   2.04630    0.009
 5728.00    1.97665   2.04526    0.009
 5729.00    1.99215   2.04529    0.009
 5730.00    1.97996   2.04614    0.009
 5731.00    1.89462   2.04662    0.009
 5732.00    1.84751   2.04664    0.009
 5733.00    1.88715   2.04710    0.009
 5734.00    1.94564   2.04798    0.009
 5735.00    2.04118   2.04804    0.009
 5736.00    2.09917   2.04806    0.009
 5737.00    2.09283   2.04794    0.009
 5738.00    2.08282   2.04699    0.009
 5739.00    2.06733   2.04545    0.010
 5740.00    2.01886   2.04259    0.000
 5741.00    1.92692   2.04078    0.000
 5742.00    1.86559   2.03866    0.000
 5743.00    1.83981   2.03611    0.000
 5744.00    1.87385   2.03236    0.000
 5745.00    1.96917   2.02834    0.000
 5746.00    2.06920   2.02460    0.000
 5747.00    2.17348   2.02144    0.000
 5748.00    2.20939   2.01918    0.000
 5749.00    2.19086   2.01625    0.000
 5750.00    2.11712   2.01553    0.000
 5751.00    2.00471   2.01464    0.000
 5752.00    1.96873   2.01396    0.000
 5753.00    1.97969   2.01273    0.000
 5754.00    2.00780   2.01230    0.000
 5755.00    2.04512   2.01264    0.000
 5756.00    2.05502   2.01625    0.000
 5757.00    2.05216   2.02048    0.000
 5758.00    2.01149   2.02439    0.000
 5759.00    1.95565   2.02893    0.000
 5760.00    1.94332   2.03261    0.000
 5761.00    1.94589   2.03671    0.000
 5762.00    1.98587   2.03992    0.000
 5763.00    2.03664   2.04382    0.000
 5764.00    2.14457   2.04564    0.000
 5765.00    2.26610   2.04877    0.000
 5766.00    2.28952   2.04903    0.000
 5767.00    2.29412   2.04702    0.000
 5768.00    2.19984   2.04406    0.000
 5769.00    2.09084   2.03832    0.000
 5770.00    2.02424   2.03165    0.000
 5771.00    1.96227   2.02245    0.000
 5772.00    1.92065   2.01251    0.000
 5773.00    1.88048   1.99962    0.000
 5774.00    1.93331   1.98805    0.000
 5775.00    1.98955   1.97609    0.000
 5776.00    2.02367   1.96466    0.000
 5777.00    2.05811   1.95471    0.000
 5778.00    2.10775   1.94658    0.000
 5779.00    2.14932   1.94118    0.000
 5780.00    2.06132   1.93733    0.000
 5781.00    1.97777   1.93752    0.000
 5782.00    1.93930   1.93797    0.000
 5783.00    1.90741   1.94239    0.000
 5784.00    1.92323   1.95020    0.000
 5785.00    1.94944   1.95877    0.000
 5786.00    2.03330   1.96906    0.000
 5787.00    2.08903   1.98036    0.000
 5788.00    2.02001   1.99286    0.000
 5789.00    1.94493   2.00336    0.000
 5790.00    1.84779   2.01320    0.000
 5791.00    1.78486   2.02287   -2.000
 5792.00    1.82640   2.03075   -2.000
 5793.00    1.87593   2.03951   -2.000
 5794.00    1.94624   2.04744   -2.000
 5795.00    2.00257   2.05272   -2.000
 5796.00    2.02768   2.05717   -2.000
 5797.00    2.07155   2.05983   -2.000
 5798.00    2.15171   2.06107   -2.000
 5799.00    2.16554   2.06176   -2.000
 5800.00    2.06746   2.06325   -2.000
 5801.00    1.99387   2.06434   -2.000
 5802.00    1.95652   2.06414   -2.000
 5803.00    1.94232   2.06421   -2.000
 5804.00    1.95822   2.06345   -2.000
 5805.00    2.01881   2.06272   -2.000
 5806.00    2.13059   2.06211   -2.000
 5807.00    2.19843   2.06241   -2.000
 5808.00    2.22192   2.06260   -2.000
 5809.00    2.21034   2.06348   -2.000
 5810.00    2.16754   2.06532   -2.000
 5811.00    2.13995   2.06739    0.000
 5812.00    2.12432   2.07107    0.000
 5813.00    2.12517   2.07393    0.000
 5814.00    2.13741   2.07730    0.000
 5815.00    2.12004   2.08080    0.000
 5816.00    2.08475   2.08372    0.000
 5817.00    2.08050   2.08738    0.000
 5818.00    2.09264   2.09076    0.000
 5819.00    2.15524   2.09515    0.000
 5820.00    2.24097   2.09777    0.000
 5821.00    2.28010   2.09992    0.000
 5822.00    2.30085   2.10139    0.000
 5823.00    2.31053   2.10163    0.000
 5824.00    2.31648   2.10200    0.000
 5825.00    2.24014   2.10126    0.000
 5826.00    2.14056   2.10092    0.000
 5827.00    2.15853   2.09972    0.000
 5828.00    2.20386   2.09856    0.000
 5829.00    2.22913   2.09717    0.000
 5830.00    2.25065   2.09601    0.000
 5831.00    2.19404   2.09543    0.000
 5832.00    2.12616   2.09356    0.000
 5833.00    2.13749   2.09296    0.000
 5834.00    2.15711   2.09244    0.000
 5835.00    2.13749   2.09160    0.000
 5836.00    2.11521   2.09016    0.000
 5837.00    2.13167   2.08843    0.000
 5838.00    2.14941   2.08608    0.000
 5839.00    2.14474   2.08128    0.000
 5840.00    2.13931   2.07667    0.000
 5841.00    2.11022   2.07102    0.000
 5842.00    2.08008   2.06436    0.000
 5843.00    2.03387   2.05671    0.000
 5844.00    1.99087   2.04778    0.000
 5845.00    1.97905   2.03808    0.000
 5846.00    1.96840   2.02773    0.000
 5847.00    1.96595   2.01746    0.000
 5848.00    1.96258   2.00769    0.000
 5849.00    1.95426   1.99901    0.000
 5850.00    1.96464   1.99095    0.000
 5851.00    2.05603   1.98362    0.000
 5852.00    2.13362   1.97747    0.000
 5853.00    2.16191   1.97440    0.000
 5854.00    2.15821   1.97152    0.000
 5855.00    2.05863   1.97199    0.000
 5856.00    1.98075   1.97326    0.000
 5857.00    1.95821   1.97552    0.000
 5858.00    1.94105   1.97849    0.000
 5859.00    1.93569   1.98243    0.000
 5860.00    1.94559   1.98849    0.000
 5861.00    1.98456   1.99364    0.000
 5862.00    2.02630   2.00084    0.000
 5863.00    2.07267   2.00580    0.000
 5864.00    2.11247   2.01078    0.000
 5865.00    2.14270   2.01448    0.000
 5866.00    2.16655   2.01771    0.000
 5867.00    2.18224   2.01867    0.000
 5868.00    2.18819   2.01859    0.000
 5869.00    2.18317   2.01876    0.000
 5870.00    2.15156   2.01567    0.000
 5871.00    2.09350   2.01116    0.000
 5872.00    2.06847   2.00351    0.000
 5873.00    2.07244   1.99441    0.000
 5874.00    2.07783   1.98152    0.000
 5875.00    2.08432   1.96698    0.000
 5876.00    2.08511   1.95076    0.000
 5877.00    2.08204   1.92997    0.000
 5878.00    2.04607   1.90751    0.000
 5879.00    1.99049   1.88284    0.000
 5880.00    1.89022   1.85565    0.000
 5881.00    1.76672   1.82507    0.000
 5882.00    1.74984   1.79224    0.000
 5883.00    1.78102   1.75962    0.000
 5884.00    1.76106   1.72771    0.000
 5885.00    1.72127   1.70368    0.000
 5886.00    1.69817   1.68514    0.000
 5887.00    1.68058   1.66788    0.000
 5888.00    1.66649   1.65656    0.000
 5889.00    1.65337   1.64769    0.000
 5890.00    1.63041   1.64381    0.000
 5891.00    1.60521   1.65167    0.000
 5892.00    1.63364   1.67076    0.000
 5893.00    1.67182   1.69375    0.000
 5894.00    1.68891   1.71768    0.000
 5895.00    1.70306   1.74451    0.000
 5896.00    1.76642   1.77047    0.000
 5897.00    1.83473   1.79550    0.000
 5898.00    1.84546   1.82548    0.000
 5899.00    1.85252   1.85458    0.000
 5900.00    1.78079   1.87807    0.000
 5901.00    1.70715   1.89924    0.008
 5902.00    1.77057   1.91771    0.008
 5903.00    1.83323   1.93178    0.008
 5904.00    1.87446   1.94295    0.008
 5905.00    1.91432   1.95249    0.009
 5906.00    1.93468   1.95925    0.009
 5907.00    1.95938   1.96333    0.009
 5908.00    2.02450   1.96522    0.008
 5909.00    2.07954   1.96790    0.008
 5910.00    2.06617   1.96898    0.009
 5911.00    2.05080   1.97060    0.009
 5912.00    2.02487   1.97294    0.009
 5913.00    2.00034   1.97428    0.009
 5914.00    1.98170   1.97642    0.009
 5915.00    1.94868   1.97716    0.009
 5916.00    1.86532   1.97920    0.009
 5917.00    1.80833   1.98146    0.009
 5918.00    1.82888   1.98490    0.009
 5919.00    1.84939   1.98772    0.009
 5920.00    1.86982   1.98992    0.009
 5921.00    1.90786   1.99123    0.009
 5922.00    1.98394   1.99118    0.009
 5923.00    2.04500   1.99146    0.009
 5924.00    2.07791   1.99055    0.009
 5925.00    2.06466   1.99240    0.009
 5926.00    1.97587   1.99305    0.009
 5927.00    1.93072   1.99317    0.009
 5928.00    1.94821   1.99205    0.009
 5929.00    1.96915   1.99031    0.008
 5930.00    1.99442   1.99181    0.008
 5931.00    1.99192   1.99178    0.008
 5932.00    1.95851   1.99330    0.008
 5933.00    1.94280   1.99528    0.008
 5934.00    1.94446   1.99553    0.008
 5935.00    1.94992   1.99400    0.008
 5936.00    1.95868   1.99316    0.008
 5937.00    1.95798   1.99502    0.008
 5938.00    1.95008   1.99582    0.008
 5939.00    1.94013   1.99598    0.008
 5940.00    1.92881   1.99562    0.008
 5941.00    1.95470   1.99486    0.009
 5942.00    2.00243   1.99197    0.009
 5943.00    2.02324   1.98936    0.009
 5944.00    2.03027   1.98925    0.009
 5945.00    2.00803   1.98900    0.009
 5946.00    1.97281   1.98762    0.009
 5947.00    1.97194   1.98545    0.009
 5948.00    1.98415   1.98565    0.009
 5949.00    2.01779   1.98602    0.009
 5950.00    2.05835   1.98516    0.009
 5951.00    2.02690   1.98670    0.009
 5952.00    1.97595   1.98953    0.009
 5953.00    1.97565   1.99215    0.009
 5954.00    1.98660   1.99567    0.009
 5955.00    1.98660   2.00048    0.009
 5956.00    1.98466   2.00613    0.009
 5957.00    1.97981   2.00958    0.009
 5958.00    1.97456   2.01397    0.009
 5959.00    1.97396   2.01846    0.008
 5960.00    1.97380   2.02203    0.008
 5961.00    1.96813   2.02709    0.008
 5962.00    1.96212   2.03037    0.008
 5963.00    1.97314   2.03265    0.008
 5964.00    1.98424   2.03369    0.008
 5965.00    1.94059   2.03398    0.008
 5966.00    1.89719   2.03349    0.008
 5967.00    1.85998   2.03184    0.008
 5968.00    1.82672   2.03019    0.008
 5969.00    1.84654   2.02701    0.008
 5970.00    1.86615   2.02176    0.008
 5971.00    1.88390   2.01665    0.008
 5972.00    1.90012   2.01188    0.008
 5973.00    1.90630   2.00714    0.008
 5974.00    1.91474   2.00333    0.008
 5975.00    1.93478   1.99922    0.009
 5976.00    1.96130   1.99488    0.009
 5977.00    2.01468   1.99056    0.009
 5978.00    2.04944   1.98596    0.009
 5979.00    2.02046   1.98483    0.008
 5980.00    1.99383   1.98568    0.008
 5981.00    1.97400   1.98642    0.009
 5982.00    1.94439   1.98812    0.009
 5983.00    1.89069   1.98916    0.009
 5984.00    1.85187   1.99100    0.009
 5985.00    1.84467   1.99145    0.009
 5986.00    1.86707   1.99334    0.009
 5987.00    1.94413   1.99806    0.009
 5988.00    1.99600   2.00031    0.009
 5989.00    2.00727   2.00154    0.008
 5990.00    2.02660   2.00159    0.008
 5991.00    2.05734   2.00039    0.008
 5992.00    2.07329   1.99856    0.008
 5993.00    2.07082   1.99660    0.008
 5994.00    2.07397   1.99567    0.008
 5995.00    2.08327   1.99348    0.008
 5996.00    2.08765   1.98947    0.008
 5997.00    2.08726   1.98492    0.008
 5998.00    2.05666   1.98170    0.008
 5999.00    2.00029   1.97862    0.008
 6000.00    1.97326   1.97512    0.008
 6001.00    1.96829   1.97228    0.008
 6002.00    1.99957   1.96807    0.008
 6003.00    2.05479   1.96549    0.008
 6004.00    2.07463   1.96414    0.008
 6005.00    2.07402   1.96302    0.008
 6006.00    2.04317   1.96180    0.008
 6007.00    1.99710   1.95834    0.008
 6008.00    2.00586   1.95683    0.008
 6009.00    2.03853   1.95569    0.009
 6010.00    2.04348   1.95484    0.009
 6011.00    2.03806   1.95591    0.008
 6012.00    2.00835   1.95676    0.009
 6013.00    1.97093   1.95645    0.009
 6014.00    1.94382   1.95591    0.009
 6015.00    1.91944   1.95836    0.009
 6016.00    1.88201   1.96186    0.009
 6017.00    1.84175   1.96628    0.009
 6018.00    1.87265   1.97003    0.009
 6019.00    1.91581   1.97710    0.008
 6020.00    1.86897   1.98389    0.008
 6021.00    1.81039   1.98906    0.008
 6022.00    1.80492   1.99799    0.008
 6023.00    1.80434   2.00571    0.008
 6024.00    1.90291   2.01453    0.008
 6025.00    2.00700   2.02124    0.008
 6026.00    1.99414   2.02905    0.008
 6027.00    1.97841   2.03661    0.008
 6028.00    1.93187   2.04145    0.008
 6029.00    1.88683   2.04721    0.008
 6030.00    1.87673   2.05204    0.008
 6031.00    1.86777   2.05608    0.008
 6032.00    1.87329   2.05902    0.008
 6033.00    1.87942   2.06189    0.008
 6034.00    1.89094   2.06402    0.008
 6035.00    1.89830   2.06606    0.008
 6036.00    1.87915   2.06697    0.008
 6037.00    1.87232   2.06907    0.008
 6038.00    1.92705   2.07076    0.008
 6039.00    1.97426   2.07198    0.009
 6040.00    1.99103   2.07310    0.008
 6041.00    2.01329   2.07308    0.008
 6042.00    2.05400   2.07362    0.009
 6043.00    2.08208   2.07245    0.009
 6044.00    2.07439   2.07239    0.009
 6045.00    2.07155   2.07109    0.009
 6046.00    2.08046   2.06886    0.009
 6047.00    2.09196   2.06573    0.009
 6048.00    2.10887   2.06232    0.009
 6049.00    2.09813   2.05919    0.008
 6050.00    2.03716   2.05430    0.008
 6051.00    1.98988   2.05129    0.008
 6052.00    1.96436   2.04705    0.008
 6053.00    1.94166   2.04419    0.008
 6054.00    1.92291   2.04069    0.008
 6055.00    1.92541   2.03837    0.008
 6056.00    1.95399   2.03788    0.008
 6057.00    1.96797   2.03591    0.008
 6058.00    1.96618   2.03660    0.008
 6059.00    1.97224   2.03588    0.008
 6060.00    1.98578   2.03849    0.008
 6061.00    1.98608   2.04242    0.008
 6062.00    1.97521   2.04591    0.008
 6063.00    1.96592   2.05052    0.008
 6064.00    1.95778   2.05337    0.008
 6065.00    1.96238   2.05707    0.008
 6066.00    1.97527   2.05919    0.008
 6067.00    1.98193   2.06133    0.008
 6068.00    1.98503   2.06403    0.008
 6069.00    1.98247   2.06440    0.008
 6070.00    1.97709   2.06228    0.008
 6071.00    1.94346   2.05832    0.008
 6072.00    1.89772   2.05341    0.008
 6073.00    1.89193   2.04783    0.008
 6074.00    1.90082   2.04253    0.008
 6075.00    1.93594   2.03578    0.008
 6076.00    1.97922   2.02888    0.009
 6077.00    1.97542   2.02300    0.008
 6078.00    1.95941   2.01677    0.008
 6079.00    1.95083   2.01067    0.008
 6080.00    1.94382   2.00572    0.008
 6081.00    1.96586   2.00328    0.008
 6082.00    1.99276   2.00092    0.008
 6083.00    1.98459   1.99788    0.008
 6084.00    1.97200   1.99645    0.008
 6085.00    1.93319   1.99596    0.008
 6086.00    1.89209   1.99500    0.008
 6087.00    1.89489   1.99428    0.008
 6088.00    1.89997   1.99553    0.008
 6089.00    1.93651   1.99695    0.008
 6090.00    1.97359   1.99651    0.008
 6091.00    2.00863   1.99410    0.008
 6092.00    2.04275   1.99233    0.008
 6093.00    2.05723   1.99353    0.008
 6094.00    2.06765   1.99335    0.008
 6095.00    2.02886   1.99289    0.008
 6096.00    1.99136   1.99096    0.008
 6097.00    1.96449   1.98773    0.008
 6098.00    1.93779   1.98793    0.008
 6099.00    1.91212   1.98848    0.008
 6100.00    1.88206   1.99123    0.008
 6101.00    1.83062   1.99367    0.008
 6102.00    1.79435   1.99503    0.008
 6103.00    1.81809   1.99668    0.008
 6104.00    1.83787   1.99798    0.008
 6105.00    1.84456   2.00253    0.008
 6106.00    1.85008   2.00680    0.008
 6107.00    1.85236   2.00884    0.008
 6108.00    1.86132   2.00934    0.008
 6109.00    1.88620   2.00830    0.008
 6110.00    1.91127   2.00698    0.008
 6111.00    1.93673   2.00404    0.008
 6112.00    1.96541   2.00077    0.008
 6113.00    1.99983   1.99717    0.008
 6114.00    2.01768   1.99329    0.008
 6115.00    2.00959   1.98882    0.008
 6116.00    1.96977   1.98168    0.008
 6117.00    1.88632   1.97708    0.008
 6118.00    1.83056   1.97391    0.008
 6119.00    1.80829   1.97248    0.008
 6120.00    1.81332   1.97187    0.008
 6121.00    1.84746   1.96806    0.008
 6122.00    1.88753   1.96669    0.008
 6123.00    1.93319   1.96416    0.008
 6124.00    1.94515   1.96324    0.008
 6125.00    1.92917   1.96365    0.008
 6126.00    1.92756   1.95888    0.008
 6127.00    1.93645   1.95685    0.008
 6128.00    1.94919   1.95462    0.008
 6129.00    1.96440   1.95146    0.008
 6130.00    1.95661   1.94733    0.008
 6131.00    1.93593   1.94129    0.008
 6132.00    1.89705   1.94087    0.008
 6133.00    1.84928   1.94080    0.008
 6134.00    1.82077   1.94304    0.008
 6135.00    1.80038   1.94635    0.008
 6136.00    1.80559   1.94749    0.008
 6137.00    1.82003   1.95098    0.008
 6138.00    1.85386   1.95341    0.009
 6139.00    1.89360   1.96049    0.009
 6140.00    1.96124   1.96970    0.009
 6141.00    2.03596   1.97453    0.009
 6142.00    1.99063   1.97688    0.009
 6143.00    1.92051   1.97605    0.009
 6144.00    1.87557   1.97695    0.008
 6145.00    1.83472   1.97741    0.008
 6146.00    1.85685   1.97436    0.008
 6147.00    1.88664   1.96987    0.008
 6148.00    1.91865   1.96318    0.008
 6149.00    1.95085   1.95475    0.008
 6150.00    1.94905   1.94282    0.008
 6151.00    1.94562   1.93009    0.008
 6152.00    1.93496   1.91848    0.008
 6153.00    1.92435   1.90721    0.008
 6154.00    1.92229   1.89514    0.008
 6155.00    1.92064   1.88024    0.008
 6156.00    1.92704   1.86714    0.008
 6157.00    1.93145   1.85562    0.008
 6158.00    1.91280   1.84535    0.008
 6159.00    1.89760   1.83857    0.008
 6160.00    1.90999   1.83513    0.008
 6161.00    1.91768   1.83430    0.008
 6162.00    1.89706   1.83184    0.008
 6163.00    1.87317   1.83143    0.008
 6164.00    1.83373   1.83605    0.008
 6165.00    1.80027   1.84269    0.008
 6166.00    1.79005   1.85069    0.008
 6167.00    1.78956   1.85939    0.008
 6168.00    1.82052   1.86888    0.008
 6169.00    1.86190   1.87757    0.008
 6170.00    1.93176   1.88461    0.008
 6171.00    1.97803   1.89236    0.008
 6172.00    1.96908   1.90252    0.008
 6173.00    1.95691   1.91115    0.008
 6174.00    1.93822   1.91657    0.008
 6175.00    1.92484   1.91984    0.008
 6176.00    1.92083   1.92239    0.008
 6177.00    1.90613   1.92442    0.008
 6178.00    1.87492   1.92477    0.008
 6179.00    1.85301   1.92472    0.008
 6180.00    1.84369   1.92055    0.008
 6181.00    1.86122   1.91640    0.008
 6182.00    1.91079   1.91293    0.008
 6183.00    1.92115   1.90871    0.008
 6184.00    1.89027   1.90637    0.008
 6185.00    1.88549   1.90142    0.008
 6186.00    1.90493   1.89974    0.008
 6187.00    1.94968   1.89804    0.008
 6188.00    2.01514   1.89592    0.008
 6189.00    2.03032   1.89942    0.008
 6190.00    2.00930   1.90170    0.008
 6191.00    1.98329   1.90551    0.008
 6192.00    1.95413   1.90870    0.008
 6193.00    1.84953   1.91127    0.008
 6194.00    1.70326   1.91817    0.008
 6195.00    1.39794   1.92253    0.008
 6196.00    1.01623   1.92591   -2.000
 6197.00    0.83993   1.93027   -2.000
 6198.00    0.74878   1.93310   -2.000
 6199.00    1.11033   1.93499   -2.000
 6200.00    1.63235   1.93408   -2.000
 6201.00    2.02325   1.93221   -2.000
 6202.00    2.37492   1.93067   -2.000
 6203.00    2.47075   1.92728   -2.000
 6204.00    2.50303   1.92122   -2.000
 6205.00    2.34892   1.91335   -2.000
 6206.00    2.15727   1.90585   -2.000
 6207.00    2.09337   1.89745   -2.000
 6208.00    2.04962   1.88858    0.008
 6209.00    2.04434   1.87863    0.008
 6210.00    2.04357   1.86870    0.008
 6211.00    2.00809   1.86170    0.008
 6212.00    1.96984   1.85523    0.008
 6213.00    1.87775   1.84997    0.008
 6214.00    1.78328   1.84475    0.008
 6215.00    1.75580   1.83903    0.008
 6216.00    1.73091   1.83669    0.008
 6217.00    1.79482   1.83616    0.008
 6218.00    1.85555   1.83620    0.008
 6219.00    1.85824   1.83597    0.008
 6220.00    1.86400   1.83337    0.008
 6221.00    1.90363   1.83199    0.008
 6222.00    1.94315   1.83264    0.008
 6223.00    1.98183   1.83386    0.008
 6224.00    2.00615   1.83388    0.008
 6225.00    1.94645   1.83269    0.008
 6226.00    1.89298   1.83154    0.007
 6227.00    1.86841   1.83105    0.008
 6228.00    1.85166   1.83315    0.008
 6229.00    1.86458   1.83328    0.008
 6230.00    1.86297   1.83388    0.008
 6231.00    1.81541   1.83317    0.008
 6232.00    1.77459   1.83107    0.008
 6233.00    1.75184   1.83250    0.008
 6234.00    1.75515   1.83064    0.008
 6235.00    1.81845   1.82979    0.008
 6236.00    1.84623   1.82872    0.008
 6237.00    1.80322   1.82553    0.008
 6238.00    1.74712   1.82497    0.008
 6239.00    1.66828   1.82186    0.008
 6240.00    1.64246   1.81933    0.008
 6241.00    1.69724   1.81785    0.008
 6242.00    1.75666   1.81481    0.008
 6243.00    1.82229   1.81344    0.008
 6244.00    1.84255   1.81081    0.008
 6245.00    1.80947   1.80741    0.008
 6246.00    1.78108   1.80541    0.008
 6247.00    1.75754   1.80112    0.008
 6248.00    1.74439   1.79736    0.008
 6249.00    1.74073   1.79586    0.008
 6250.00    1.73481   1.79354    0.008
 6251.00    1.72708   1.79385    0.008
 6252.00    1.73177   1.79323    0.008
 6253.00    1.74527   1.79284    0.008
 6254.00    1.79492   1.79593    0.008
 6255.00    1.86705   1.79995    0.008
 6256.00    1.86392   1.80756    0.008
 6257.00    1.81986   1.81392    0.008
 6258.00    1.71683   1.82027    0.008
 6259.00    1.58595   1.82818    0.008
 6260.00    1.54878   1.83547    0.009
 6261.00    1.54980   1.84418    0.009
 6262.00    1.65030   1.85181    0.010
 6263.00    1.78542   1.85903    0.010
 6264.00    1.88526   1.86603    0.010
 6265.00    1.97476   1.87057    0.010
 6266.00    1.95720   1.87423    0.009
 6267.00    1.91362   1.87898    0.009
 6268.00    1.86101   1.88349    0.008
 6269.00    1.80662   1.88681    0.008
 6270.00    1.74518   1.88841    0.008
 6271.00    1.68265   1.88916    0.008
 6272.00    1.67019   1.89188    0.008
 6273.00    1.66338   1.89489    0.008
 6274.00    1.73394   1.89660    0.008
 6275.00    1.81034   1.89880    0.008
 6276.00    1.83964   1.89926    0.008
 6277.00    1.86705   1.90171    0.008
 6278.00    1.84599   1.90607    0.007
 6279.00    1.82469   1.90806    0.007
 6280.00    1.80850   1.91166    0.000
 6281.00    1.79446   1.91195    0.000
 6282.00    1.81703   1.91245    0.000
 6283.00    1.84151   1.91567    0.000
 6284.00    1.88602   1.91577    0.000
 6285.00    1.92162   1.91623    0.000
 6286.00    1.89081   1.91361    0.000
 6287.00    1.86010   1.90899    0.000
 6288.00    1.82998   1.90702    0.000
 6289.00    1.81313   1.90391    0.000
 6290.00    1.85639   1.90062    0.000
 6291.00    1.89699   1.89664    0.000
 6292.00    1.92778   1.89005    0.000
 6293.00    1.93422   1.88644    0.000
 6294.00    1.86504   1.88486    0.000
 6295.00    1.81019   1.88395    0.000
 6296.00    1.79311   1.88362    0.000
 6297.00    1.80438   1.88079    0.000
 6298.00    1.87984   1.88080    0.000
 6299.00    1.92691   1.88348    0.000
 6300.00    1.91828   1.88627    0.000
 6301.00    1.90410   1.88818    0.000
 6302.00    1.88041   1.88753    0.000
 6303.00    1.86614   1.88896    0.000
 6304.00    1.86598   1.89083    0.000
 6305.00    1.84604   1.89158    0.000
 6306.00    1.80007   1.88993    0.000
 6307.00    1.76055   1.88723    0.000
 6308.00    1.72850   1.88652    0.000
 6309.00    1.71024   1.88473    0.000
 6310.00    1.70608   1.88348    0.000
 6311.00    1.69725   1.88062    0.000
 6312.00    1.68420   1.87948    0.000
 6313.00    1.68703   1.88057    0.000
 6314.00    1.70248   1.88027    0.000
 6315.00    1.71703   1.88346    0.000
 6316.00    1.73094   1.88562    0.000
 6317.00    1.73842   1.89016    0.000
 6318.00    1.74196   1.89511    0.000
 6319.00    1.75726   1.89795    0.000
 6320.00    1.77886   1.90482    0.000
 6321.00    1.78722   1.90844    0.008
 6322.00    1.78941   1.91318    0.008
 6323.00    1.85748   1.91664    0.008
 6324.00    1.95193   1.91777    0.008
 6325.00    2.02058   1.92130    0.008
 6326.00    2.08043   1.91968    0.007
 6327.00    2.06169   1.91892    0.007
 6328.00    2.02036   1.91857    0.007
 6329.00    1.93753   1.91695    0.007
 6330.00    1.84484   1.91548    0.007
 6331.00    1.82782   1.91110    0.007
 6332.00    1.82528   1.90838    0.007
 6333.00    1.84095   1.90755    0.007
 6334.00    1.85933   1.90742    0.007
 6335.00    1.80698   1.90536    0.007
 6336.00    1.74697   1.90413    0.007
 6337.00    1.72563   1.90509    0.007
 6338.00    1.70703   1.90570    0.007
 6339.00    1.75972   1.90778    0.008
 6340.00    1.81499   1.90716    0.008
 6341.00    1.81331   1.90828    0.008
 6342.00    1.81196   1.91124    0.008
 6343.00    1.82982   1.91095    0.008
 6344.00    1.84865   1.91050    0.008
 6345.00    1.88316   1.90788    0.008
 6346.00    1.91175   1.90553    0.008
 6347.00    1.88081   1.90427    0.008
 6348.00    1.85510   1.89985    0.008
 6349.00    1.86708   1.89338    0.008
 6350.00    1.88281   1.88622    0.007
 6351.00    1.91933   1.87973    0.007
 6352.00    1.93728   1.87460    0.007
 6353.00    1.87308   1.86905    0.007
 6354.00    1.81514   1.86255    0.007
 6355.00    1.77989   1.85748    0.007
 6356.00    1.75358   1.85543    0.007
 6357.00    1.75452   1.85554    0.007
 6358.00    1.75682   1.85697    0.007
 6359.00    1.76267   1.85977    0.007
 6360.00    1.76491   1.86428    0.007
 6361.00    1.75911   1.87116    0.007
 6362.00    1.76610   1.87954    0.008
 6363.00    1.79775   1.88855    0.008
 6364.00    1.82194   1.89822    0.008
 6365.00    1.83359   1.90731    0.008
 6366.00    1.83700   1.91582    0.008
 6367.00    1.82826   1.92424    0.008
 6368.00    1.83104   1.93269    0.008
 6369.00    1.84875   1.93926    0.008
 6370.00    1.84887   1.94365    0.008
 6371.00    1.82888   1.94717    0.008
 6372.00    1.82793   1.94997    0.008
 6373.00    1.84616   1.95351    0.008
 6374.00    1.85584   1.95441    0.008
 6375.00    1.85790   1.95337    0.008
 6376.00    1.86628   1.95350    0.007
 6377.00    1.87959   1.95326    0.007
 6378.00    1.89407   1.95374    0.007
 6379.00    1.90935   1.95196    0.007
 6380.00    1.89207   1.94901    0.007
 6381.00    1.85512   1.94815    0.007
 6382.00    1.83850   1.94718    0.007
 6383.00    1.83259   1.94583    0.007
 6384.00    1.85059   1.94171    0.007
 6385.00    1.87953   1.93780    0.007
 6386.00    1.87459   1.93604    0.007
 6387.00    1.85631   1.93475    0.007
 6388.00    1.81051   1.93297    0.007
 6389.00    1.75546   1.92806    0.008
 6390.00    1.75715   1.92493    0.008
 6391.00    1.77482   1.92313    0.008
 6392.00    1.81358   1.92407    0.008
 6393.00    1.85723   1.92538    0.008
 6394.00    1.87046   1.92252    0.008
 6395.00    1.87802   1.92275    0.008
 6396.00    1.84862   1.92175    0.008
 6397.00    1.81390   1.92428    0.008
 6398.00    1.83166   1.92840    0.008
 6399.00    1.85488   1.92643    0.008
 6400.00    1.87241   1.92842    0.008
 6401.00    1.88955   1.92833    0.008
 6402.00    1.84411   1.92804    0.007
 6403.00    1.79662   1.93049    0.007
 6404.00    1.75702   1.92876    0.007
 6405.00    1.71831   1.92951    0.007
 6406.00    1.70749   1.92966    0.007
 6407.00    1.69888   1.92717    0.007
 6408.00    1.72356   1.92721    0.007
 6409.00    1.74776   1.92791    0.007
 6410.00    1.76739   1.92796    0.007
 6411.00    1.78873   1.92742    0.007
 6412.00    1.82205   1.92657    0.007
 6413.00    1.85541   1.92765    0.007
 6414.00    1.88903   1.93139    0.007
 6415.00    1.90684   1.93248    0.008
 6416.00    1.85640   1.93131    0.008
 6417.00    1.80547   1.93242    0.008
 6418.00    1.75277   1.93601    0.008
 6419.00    1.70799   1.94088    0.008
 6420.00    1.68689   1.94234    0.008
 6421.00    1.67584   1.94028    0.008
 6422.00    1.69036   1.94057    0.007
 6423.00    1.71673   1.94468    0.007
 6424.00    1.76910   1.94761    0.007
 6425.00    1.81640   1.94722    0.007
 6426.00    1.85407   1.94521    0.007
 6427.00    1.86535   1.94462    0.007
 6428.00    1.83284   1.94841    0.007
 6429.00    1.80511   1.94968    0.007
 6430.00    1.78434   1.94766    0.007
 6431.00    1.78930   1.94885    0.007
 6432.00    1.82718   1.95104    0.007
 6433.00    1.87043   1.95430    0.007
 6434.00    1.91973   1.95571    0.007
 6435.00    1.96338   1.95278    0.007
 6436.00    2.00142   1.95453    0.007
 6437.00    2.02789   1.95850    0.007
 6438.00    2.04423   1.95893    0.007
 6439.00    2.03613   1.95868    0.008
 6440.00    2.00915   1.95324    0.008
 6441.00    1.98294   1.94925    0.008
 6442.00    1.95725   1.95174    0.008
 6443.00    1.92790   1.94994    0.008
 6444.00    1.89638   1.94790    0.008
 6445.00    1.84011   1.94297    0.008
 6446.00    1.77100   1.93613    0.008
 6447.00    1.76473   1.93864    0.008
 6448.00    1.78672   1.93947    0.008
 6449.00    1.82170   1.93946    0.008
 6450.00    1.86170   1.94008    0.008
 6451.00    1.85627   1.93743    0.007
 6452.00    1.83589   1.94071    0.007
 6453.00    1.83158   1.94275    0.007
 6454.00    1.83171   1.94383    0.007
 6455.00    1.84168   1.94803    0.007
 6456.00    1.85389   1.94890    0.007
 6457.00    1.85524   1.95061    0.007
 6458.00    1.85463   1.95057    0.007
 6459.00    1.83638   1.95083    0.007
 6460.00    1.81568   1.95498    0.007
 6461.00    1.82290   1.95661    0.007
 6462.00    1.83290   1.95650    0.008
 6463.00    1.84536   1.95618    0.008
 6464.00    1.85797   1.95762    0.008
 6465.00    1.85567   1.95917    0.008
 6466.00    1.85285   1.95935    0.008
 6467.00    1.82632   1.95821    0.008
 6468.00    1.80158   1.95730    0.008
 6469.00    1.82701   1.95852    0.008
 6470.00    1.85308   1.95723    0.008
 6471.00    1.88825   1.95489    0.007
 6472.00    1.92248   1.95210    0.007
 6473.00    1.94802   1.94924    0.007
 6474.00    1.96987   1.94744    0.007
 6475.00    1.96673   1.94428    0.007
 6476.00    1.96117   1.94063    0.007
 6477.00    1.94291   1.93519    0.007
 6478.00    1.92527   1.92898    0.007
 6479.00    1.91021   1.92395    0.007
 6480.00    1.89634   1.91787    0.007
 6481.00    1.88662   1.91060    0.007
 6482.00    1.87392   1.90120    0.007
 6483.00    1.85244   1.89179    0.007
 6484.00    1.85522   1.88301    0.007
 6485.00    1.91866   1.87057    0.007
 6486.00    1.95898   1.85895    0.007
 6487.00    1.94950   1.84854    0.007
 6488.00    1.91562   1.83979    0.007
 6489.00    1.83610   1.83319    0.007
 6490.00    1.76081   1.82141    0.007
 6491.00    1.69244   1.81544    0.007
 6492.00    1.64903   1.81571    0.007
 6493.00    1.64137   1.81646    0.007
 6494.00    1.64873   1.82158    0.007
 6495.00    1.67501   1.82295    0.007
 6496.00    1.68606   1.82968    0.007
 6497.00    1.68020   1.84225    0.007
 6498.00    1.70330   1.85189    0.007
 6499.00    1.75477   1.86342    0.007
 6500.00    1.80260   1.87270    0.007
 6501.00    1.84727   1.88308    0.007
 6502.00    1.86341   1.89527    0.007
 6503.00    1.85783   1.90346    0.007
 6504.00    1.86074   1.90998    0.007
 6505.00    1.86931   1.91560    0.007
 6506.00    1.90804   1.92076    0.007
 6507.00    1.96445   1.92542    0.007
 6508.00    1.97499   1.92796    0.007
 6509.00    1.96210   1.92848    0.007
 6510.00    1.93659   1.92937    0.007
 6511.00    1.90549   1.93085    0.008
 6512.00    1.87808   1.93118    0.008
 6513.00    1.85208   1.93189    0.008
 6514.00    1.84184   1.93106    0.007
 6515.00    1.83669   1.93072    0.007
 6516.00    1.84257   1.93359    0.007
 6517.00    1.85144   1.93418    0.007
 6518.00    1.86849   1.93409    0.007
 6519.00    1.88737   1.93470    0.007
 6520.00    1.90962   1.93513    0.007
 6521.00    1.93247   1.93841    0.007
 6522.00    1.92903   1.93915    0.007
 6523.00    1.92205   1.93734    0.007
 6524.00    1.92211   1.93873    0.007
 6525.00    1.92285   1.94014    0.007
 6526.00    1.94480   1.94230    0.007
 6527.00    1.96801   1.94333    0.007
 6528.00    1.93747   1.94113    0.000
 6529.00    1.90573   1.94145    0.000
 6530.00    1.89689   1.94307    0.000
 6531.00    1.88941   1.94441    0.000
 6532.00    1.91614   1.94439    0.000
 6533.00    1.94153   1.94131    0.000
 6534.00    1.94913   1.93883    0.000
 6535.00    1.95645   1.93835    0.000
 6536.00    1.96133   1.93687    0.000
 6537.00    1.96764   1.93186    0.000
 6538.00    1.98333   1.92630    0.000
 6539.00    1.99553   1.92097    0.000
 6540.00    1.98983   1.91619    0.000
 6541.00    1.98612   1.91061    0.000
 6542.00    1.99062   1.90035    0.000
 6543.00    2.00686   1.89243    0.000
 6544.00    2.06319   1.88579    0.000
 6545.00    2.09117   1.87600    0.000
 6546.00    2.03753   1.86577    0.000
 6547.00    1.98955   1.85326    0.000
 6548.00    1.95545   1.84189    0.000
 6549.00    1.94018   1.83164    0.000
 6550.00    1.96483   1.81725    0.000
 6551.00    1.96093   1.80275    0.000
 6552.00    1.90445   1.79131    0.000
 6553.00    1.86606   1.77735    0.000
 6554.00    1.85680   1.76387    0.000
 6555.00    1.91747   1.75496    0.000
 6556.00    2.07693   1.74705    0.000
 6557.00    2.25748   1.74292    0.000
 6558.00    2.46426   1.73513    0.000
 6559.00    2.59671   1.72754    0.000
 6560.00    2.64775   1.73510    0.000
 6561.00    2.61147   1.74384    0.000
 6562.00    2.49084   1.74940    0.000
 6563.00    2.33850   1.75566    0.000
 6564.00    2.15915   1.76163    0.000
 6565.00    2.03595   1.77483    0.000
 6566.00    1.95487   1.78882    0.000
 6567.00    1.91364   1.79979    0.000
 6568.00    1.89869   1.81099    0.000
 6569.00    1.88416   1.82041    0.000
 6570.00    1.86987   1.83052    0.000
 6571.00    1.84857   1.83970    0.000
 6572.00    1.82373   1.84869    0.000
 6573.00    1.83504   1.85805    0.000
 6574.00    1.86209   1.86413    0.000
 6575.00    1.92345   1.87044    0.000
 6576.00    1.99762   1.87526    0.000
 6577.00    2.08662   1.87814    0.000
 6578.00    2.18031   1.88378    0.000
 6579.00    2.26992   1.88697    0.000
 6580.00    2.35844   1.88815    0.000
 6581.00    2.38084   1.88885    0.000
 6582.00    2.38895   1.88727    0.000
 6583.00    2.29972   1.88778    0.000
 6584.00    2.19379   1.88711    0.000
 6585.00    2.10834   1.88456    0.000
 6586.00    2.02556   1.88328    0.000
 6587.00    1.99727   1.88154    0.000
 6588.00    1.97395   1.87956    0.000
 6589.00    1.97842   1.87613    0.000
 6590.00    1.98443   1.87490    0.000
 6591.00    1.97090   1.87712    0.000
 6592.00    1.95669   1.87741    0.000
 6593.00    1.91718   1.87699    0.000
 6594.00    1.87894   1.87609    0.000
 6595.00    1.86988   1.87662    0.000
 6596.00    1.86225   1.88016    0.000
 6597.00    1.87276   1.88117    0.000
 6598.00    1.88070   1.88187    0.000
 6599.00    1.86650   1.88320    0.000
 6600.00    1.85566   1.88284    0.000
 6601.00    1.86622   1.88430    0.000
 6602.00    1.87071   1.88579    0.000
 6603.00    1.84495   1.88742    0.000
 6604.00    1.81854   1.88944    0.000
 6605.00    1.78953   1.88881    0.000
 6606.00    1.76108   1.89146    0.000
 6607.00    1.73451   1.89580    0.000
 6608.00    1.71744   1.89826    0.000
 6609.00    1.72720   1.90060    0.007
 6610.00    1.73800   1.90118    0.007
 6611.00    1.75128   1.90475    0.007
 6612.00    1.76448   1.90850    0.007
 6613.00    1.77752   1.90807    0.007
 6614.00    1.80007   1.90870    0.007
 6615.00    1.83989   1.90816    0.007
 6616.00    1.85364   1.90723    0.007
 6617.00    1.82604   1.90674    0.007
 6618.00    1.79638   1.90294    0.007
 6619.00    1.76385   1.90028    0.007
 6620.00    1.76460   1.89668    0.007
 6621.00    1.80612   1.89113    0.007
 6622.00    1.84688   1.88853    0.007
 6623.00    1.88684   1.88482    0.007
 6624.00    1.89526   1.88062    0.007
 6625.00    1.87365   1.87687    0.007
 6626.00    1.83969   1.87240    0.007
 6627.00    1.79536   1.87046    0.007
 6628.00    1.78140   1.86880    0.007
 6629.00    1.78989   1.86664    0.007
 6630.00    1.77535   1.86479    0.007
 6631.00    1.74585   1.86367    0.007
 6632.00    1.73538   1.86473    0.007
 6633.00    1.73572   1.86550    0.007
 6634.00    1.78458   1.86553    0.007
 6635.00    1.85746   1.86522    0.007
 6636.00    1.89538   1.86536    0.007
 6637.00    1.91834   1.86857    0.007
 6638.00    1.88302   1.87060    0.007
 6639.00    1.82634   1.86949    0.007
 6640.00    1.79243   1.86985    0.007
 6641.00    1.76560   1.87168    0.007
 6642.00    1.77297   1.87368    0.007
 6643.00    1.78919   1.87439    0.007
 6644.00    1.81375   1.87295    0.007
 6645.00    1.84007   1.87340    0.007
 6646.00    1.85631   1.87499    0.007
 6647.00    1.87087   1.87419    0.007
 6648.00    1.81943   1.87275    0.007
 6649.00    1.75971   1.87153    0.007
 6650.00    1.74395   1.87040    0.007
 6651.00    1.73202   1.86859    0.007
 6652.00    1.78411   1.86583    0.007
 6653.00    1.83949   1.86341    0.007
 6654.00    1.87323   1.86083    0.007
 6655.00    1.90602   1.85839    0.007
 6656.00    1.89898   1.85527    0.007
 6657.00    1.89055   1.85283    0.007
 6658.00    1.85285   1.85188    0.007
 6659.00    1.81601   1.84896    0.007
 6660.00    1.78948   1.84766    0.007
 6661.00    1.76694   1.84808    0.007
 6662.00    1.77732   1.84750    0.007
 6663.00    1.78704   1.84820    0.007
 6664.00    1.79270   1.84804    0.007
 6665.00    1.79637   1.84779    0.007
 6666.00    1.79045   1.84900    0.007
 6667.00    1.78659   1.84995    0.007
 6668.00    1.79087   1.85047    0.007
 6669.00    1.80033   1.85005    0.007
 6670.00    1.82680   1.84983    0.007
 6671.00    1.84735   1.85003    0.007
 6672.00    1.85148   1.85089    0.007
 6673.00    1.84458   1.85065    0.007
 6674.00    1.81148   1.84838    0.007
 6675.00    1.78939   1.84990    0.007
 6676.00    1.78987   1.85231    0.007
 6677.00    1.79970   1.85286    0.007
 6678.00    1.82625   1.85351    0.007
 6679.00    1.83504   1.85356    0.007
 6680.00    1.81610   1.85594    0.007
 6681.00    1.80165   1.85833    0.007
 6682.00    1.79334   1.85879    0.007
 6683.00    1.79682   1.85937    0.007
 6684.00    1.81455   1.85914    0.007
 6685.00    1.83659   1.85990    0.007
 6686.00    1.86321   1.85958    0.007
 6687.00    1.87028   1.85809    0.007
 6688.00    1.85899   1.85770    0.007
 6689.00    1.82408   1.85550    0.007
 6690.00    1.76963   1.85448    0.007
 6691.00    1.75980   1.85327    0.007
 6692.00    1.78250   1.84945    0.007
 6693.00    1.80009   1.84874    0.007
 6694.00    1.81441   1.84795    0.007
 6695.00    1.77365   1.84589    0.007
 6696.00    1.70206   1.84553    0.000
 6697.00    1.67912   1.84302    0.000
 6698.00    1.67986   1.84116    0.000
 6699.00    1.73442   1.84089    0.000
 6700.00    1.81163   1.83815    0.000
 6701.00    1.83366   1.83611    0.000
 6702.00    1.83581   1.83499    0.000
 6703.00    1.81521   1.83173    0.000
 6704.00    1.78769   1.82903    0.000
 6705.00    1.79862   1.82548    0.000
 6706.00    1.81929   1.82074    0.000
 6707.00    1.81796   1.81955    0.000
 6708.00    1.81209   1.81686    0.000
 6709.00    1.84127   1.81274    0.000
 6710.00    1.87611   1.81057    0.000
 6711.00    1.93731   1.80820    0.000
 6712.00    2.00170   1.80826    0.000
 6713.00    2.04758   1.80749    0.000
 6714.00    2.09192   1.80586    0.000
 6715.00    2.08286   1.80875    0.000
 6716.00    2.07126   1.81110    0.000
 6717.00    1.97340   1.81277    0.000
 6718.00    1.87551   1.81471    0.000
 6719.00    1.84490   1.81693    0.000
 6720.00    1.81407   1.82177    0.000
 6721.00    1.77917   1.82457    0.000
 6722.00    1.74636   1.82562    0.000
 6723.00    1.73758   1.82850    0.000
 6724.00    1.73692   1.83128    0.000
 6725.00    1.80090   1.83286    0.000
 6726.00    1.87089   1.83298    0.000
 6727.00    1.97694   1.83262    0.000
 6728.00    2.06963   1.83323    0.000
 6729.00    2.09899   1.83324    0.000
 6730.00    2.10664   1.83134    0.000
 6731.00    2.03043   1.82906    0.000
 6732.00    1.96123   1.82805    0.000
 6733.00    1.91455   1.82621    0.000
 6734.00    1.86457   1.82330    0.000
 6735.00    1.80557   1.82032    0.000
 6736.00    1.75483   1.81785    0.000
 6737.00    1.72337   1.81705    0.000
 6738.00    1.71104   1.81443    0.000
 6739.00    1.73739   1.81169    0.000
 6740.00    1.74760   1.81086    0.000
 6741.00    1.72941   1.80957    0.000
 6742.00    1.72028   1.80985    0.000
 6743.00    1.72509   1.80906    0.000
 6744.00    1.71421   1.80905    0.000
 6745.00    1.68213   1.81179    0.000
 6746.00    1.66390   1.81196    0.000
 6747.00    1.66217   1.81456    0.000
 6748.00    1.67966   1.81791    0.000
 6749.00    1.71733   1.81923    0.000
 6750.00    1.72364   1.82379    0.000
 6751.00    1.70090   1.82655    0.000
 6752.00    1.70636   1.82920    0.000
 6753.00    1.73485   1.83362    0.008
 6754.00    1.74596   1.83501    0.008
 6755.00    1.74460   1.83692    0.008
 6756.00    1.69865   1.83932    0.008
 6757.00    1.62459   1.84027    0.008
 6758.00    1.55519   1.84104    0.008
 6759.00    1.48835   1.84108    0.008
 6760.00    1.58045   1.84059    0.008
 6761.00    1.74872   1.84084    0.009
 6762.00    1.88843   1.84111    0.009
 6763.00    2.01632   1.83985    0.009
 6764.00    2.03684   1.83949    0.009
 6765.00    2.01938   1.84054    0.008
 6766.00    1.99928   1.84106    0.008
 6767.00    1.97840   1.84160    0.008
 6768.00    1.96619   1.84159    0.008
 6769.00    1.95613   1.84277    0.008
 6770.00    1.97882   1.84431    0.008
 6771.00    2.00808   1.84380    0.008
 6772.00    1.96941   1.84398    0.008
 6773.00    1.92007   1.84378    0.008
 6774.00    1.87504   1.84284    0.008
 6775.00    1.83052   1.84239    0.007
 6776.00    1.80492   1.84016    0.008
 6777.00    1.78081   1.83789    0.008
 6778.00    1.85065   1.83620    0.008
 6779.00    1.92459   1.83331    0.008
 6780.00    1.87997   1.83135    0.008
 6781.00    1.83349   1.82995    0.008
 6782.00    1.75785   1.82779    0.008
 6783.00    1.68453   1.82660    0.008
 6784.00    1.65337   1.82612    0.008
 6785.00    1.62925   1.82540    0.008
 6786.00    1.68210   1.82481    0.007
 6787.00    1.73560   1.82513    0.007
 6788.00    1.79413   1.82617    0.008
 6789.00    1.85716   1.82656    0.008
 6790.00    1.94642   1.82770    0.008
 6791.00    2.01705   1.82872    0.008
 6792.00    2.00151   1.82913    0.008
 6793.00    1.99667   1.83135    0.008
 6794.00    2.03230   1.83192    0.008
 6795.00    2.04719   1.83208    0.008
 6796.00    1.99658   1.83431    0.008
 6797.00    1.95894   1.83407    0.008
 6798.00    1.95601   1.83508    0.008
 6799.00    1.95338   1.83647    0.008
 6800.00    1.95142   1.83462    0.008
 6801.00    1.92741   1.83673    0.008
 6802.00    1.85955   1.83754    0.008
 6803.00    1.81023   1.83533    0.008
 6804.00    1.79303   1.83744    0.008
 6805.00    1.78637   1.83718    0.007
 6806.00    1.79573   1.83706    0.007
 6807.00    1.77982   1.83876    0.007
 6808.00    1.73026   1.83692    0.007
 6809.00    1.72072   1.83902    0.007
 6810.00    1.75816   1.84116    0.007
 6811.00    1.80912   1.83995    0.007
 6812.00    1.87407   1.84221    0.008
 6813.00    1.89766   1.84314    0.008
 6814.00    1.88349   1.84405    0.008
 6815.00    1.84797   1.84632    0.008
 6816.00    1.79528   1.84592    0.008
 6817.00    1.78431   1.84735    0.008
 6818.00    1.80289   1.84911    0.008
 6819.00    1.85236   1.84932    0.008
 6820.00    1.92102   1.85011    0.008
 6821.00    1.93384   1.84899    0.008
 6822.00    1.91635   1.84888    0.007
 6823.00    1.90072   1.84965    0.007
 6824.00    1.88597   1.84791    0.007
 6825.00    1.87918   1.84650    0.007
 6826.00    1.87564   1.84495    0.007
 6827.00    1.86890   1.84320    0.007
 6828.00    1.86105   1.84170    0.007
 6829.00    1.85308   1.83790    0.008
 6830.00    1.84508   1.83517    0.007
 6831.00    1.83804   1.83352    0.008
 6832.00    1.83124   1.83005    0.008
 6833.00    1.81875   1.82732    0.007
 6834.00    1.80515   1.82443    0.007
 6835.00    1.79457   1.82187    0.008
 6836.00    1.78446   1.82084    0.008
 6837.00    1.84063   1.81901    0.008
 6838.00    1.90424   1.81830    0.008
 6839.00    1.85047   1.81798    0.008
 6840.00    1.78792   1.81699    0.008
 6841.00    1.70642   1.81794    0.008
 6842.00    1.62418   1.81769    0.008
 6843.00    1.64019   1.81683    0.008
 6844.00    1.65963   1.81781    0.007
 6845.00    1.78862   1.81733    0.007
 6846.00    1.90930   1.81702    0.007
 6847.00    1.88952   1.81640    0.007
 6848.00    1.86908   1.81368    0.007
 6849.00    1.84179   1.81363    0.007
 6850.00    1.81324   1.81267    0.007
 6851.00    1.77531   1.80911    0.007
 6852.00    1.74976   1.80868    0.007
 6853.00    1.79431   1.80752    0.007
 6854.00    1.82906   1.80493    0.007
 6855.00    1.81952   1.80447    0.007
 6856.00    1.81284   1.80338    0.007
 6857.00    1.81672   1.80287    0.007
 6858.00    1.81902   1.80295    0.008
 6859.00    1.81643   1.80237    0.008
 6860.00    1.82329   1.80269    0.008
 6861.00    1.85499   1.80232    0.008
 6862.00    1.87330   1.80243    0.008
 6863.00    1.86136   1.80405    0.008
 6864.00    1.85613   1.80423    0.008
 6865.00    1.86400   1.80451    0.007
 6866.00    1.87756   1.80591    0.007
 6867.00    1.90080   1.80732    0.007
 6868.00    1.90739   1.80798    0.007
 6869.00    1.88908   1.80852    0.007
 6870.00    1.84755   1.81101    0.007
 6871.00    1.77551   1.81319    0.007
 6872.00    1.75518   1.81414    0.007
 6873.00    1.79469   1.81625    0.007
 6874.00    1.82112   1.81860    0.007
 6875.00    1.83422   1.82067    0.007
 6876.00    1.85916   1.82246    0.007
 6877.00    1.89475   1.82523    0.007
 6878.00    1.86743   1.82893    0.007
 6879.00    1.79023   1.83088    0.007
 6880.00    1.75655   1.83377    0.007
 6881.00    1.75325   1.83817    0.007
 6882.00    1.76642   1.84050    0.007
 6883.00    1.78967   1.84338    0.007
 6884.00    1.78503   1.84742    0.007
 6885.00    1.76548   1.84968    0.007
 6886.00    1.80238   1.85231    0.007
 6887.00    1.86548   1.85574    0.007
 6888.00    1.86465   1.85731    0.007
 6889.00    1.83828   1.85944    0.007
 6890.00    1.79089   1.86149    0.007
 6891.00    1.73635   1.86283    0.007
 6892.00    1.73401   1.86523    0.007
 6893.00    1.74664   1.86517    0.007
 6894.00    1.78471   1.86575    0.007
 6895.00    1.82882   1.86891    0.007
 6896.00    1.81278   1.86835    0.007
 6897.00    1.78527   1.86833    0.007
 6898.00    1.81389   1.86977    0.007
 6899.00    1.85081   1.86941    0.007
 6900.00    1.82638   1.87051    0.008
 6901.00    1.79534   1.86962    0.008
 6902.00    1.80378   1.86850    0.008
 6903.00    1.81501   1.86992    0.008
 6904.00    1.73977   1.86766    0.007
 6905.00    1.66144   1.86602    0.007
 6906.00    1.71058   1.86612    0.007
 6907.00    1.75880   1.86278    0.007
 6908.00    1.76038   1.86206    0.007
 6909.00    1.76129   1.86152    0.007
 6910.00    1.75148   1.85785    0.007
 6911.00    1.73580   1.85752    0.007
 6912.00    1.66137   1.85673    0.007
 6913.00    1.58987   1.85460    0.007
 6914.00    1.53945   1.85418    0.007
 6915.00    1.51881   1.85257    0.007
 6916.00    1.66231   1.85179    0.007
 6917.00    1.77573   1.85138    0.007
 6918.00    1.75650   1.84894    0.007
 6919.00    1.73690   1.84857    0.007
 6920.00    1.71597   1.84963    0.007
 6921.00    1.70621   1.84886    0.007
 6922.00    1.73038   1.84837    0.007
 6923.00    1.75884   1.84864    0.007
 6924.00    1.79840   1.84919    0.007
 6925.00    1.82501   1.84971    0.007
 6926.00    1.82289   1.84871    0.008
 6927.00    1.80914   1.84928    0.008
 6928.00    1.77300   1.85196    0.007
 6929.00    1.76323   1.85175    0.007
 6930.00    1.79777   1.85152    0.007
 6931.00    1.81008   1.85315    0.007
 6932.00    1.78964   1.85362    0.007
 6933.00    1.76796   1.85374    0.007
 6934.00    1.74467   1.85396    0.007
 6935.00    1.75075   1.85311    0.007
 6936.00    1.79033   1.85311    0.008
 6937.00    1.81759   1.85276    0.008
 6938.00    1.83245   1.85024    0.008
 6939.00    1.84347   1.85017    0.008
 6940.00    1.85107   1.85121    0.008
 6941.00    1.83956   1.84876    0.008
 6942.00    1.81311   1.84877    0.008
 6943.00    1.83438   1.84967    0.008
 6944.00    1.88846   1.84730    0.008
 6945.00    1.85789   1.84802    0.008
 6946.00    1.77629   1.84948    0.007
 6947.00    1.74534   1.84877    0.007
 6948.00    1.74105   1.85086    0.007
 6949.00    1.76434   1.85315    0.007
 6950.00    1.80023   1.85447    0.007
 6951.00    1.79860   1.85717    0.007
 6952.00    1.78223   1.85937    0.007
 6953.00    1.80095   1.86106    0.007
 6954.00    1.83140   1.86478    0.007
 6955.00    1.83247   1.86695    0.007
 6956.00    1.82529   1.86789    0.008
 6957.00    1.78683   1.87166    0.008
 6958.00    1.74113   1.87352    0.008
 6959.00    1.77321   1.87279    0.008
 6960.00    1.81972   1.87472    0.008
 6961.00    1.81743   1.87534    0.008
 6962.00    1.80816   1.87427    0.008
 6963.00    1.82349   1.87374    0.008
 6964.00    1.84138   1.87059    0.008
 6965.00    1.83284   1.86849    0.008
 6966.00    1.82254   1.86761    0.008
 6967.00    1.85551   1.86336    0.008
 6968.00    1.88985   1.85908    0.008
 6969.00    1.80730   1.85674    0.008
 6970.00    1.72507   1.85430    0.008
 6971.00    1.65285   1.84990    0.007
 6972.00    1.58700   1.84649    0.007
 6973.00    1.61581   1.84748    0.007
 6974.00    1.64956   1.84756    0.008
 6975.00    1.73067   1.84666    0.008
 6976.00    1.79804   1.84822    0.008
 6977.00    1.76980   1.85024    0.008
 6978.00    1.74942   1.85314    0.008
 6979.00    1.77120   1.85510    0.008
 6980.00    1.79843   1.85742    0.008
 6981.00    1.84911   1.86237    0.008
 6982.00    1.87721   1.86446    0.008
 6983.00    1.82510   1.86625    0.008
 6984.00    1.77587   1.87040    0.008
 6985.00    1.73522   1.87225    0.008
 6986.00    1.71629   1.87343    0.008
 6987.00    1.75249   1.87398    0.008
 6988.00    1.76721   1.87384    0.008
 6989.00    1.73497   1.87405    0.007
 6990.00    1.72855   1.87237    0.007
 6991.00    1.77112   1.87144    0.008
 6992.00    1.79877   1.87043    0.008
 6993.00    1.80175   1.86698    0.008
 6994.00    1.78919   1.86553    0.008
 6995.00    1.75408   1.86455    0.008
 6996.00    1.73493   1.86206    0.008
 6997.00    1.73613   1.85974    0.008
 6998.00    1.73400   1.85723    0.008
 6999.00    1.72813   1.85595    0.008
 7000.00    1.72256   1.85471    0.008
 7001.00    1.71729   1.85184    0.008
 7002.00    1.72991   1.85139    0.008
 7003.00    1.75819   1.85086    0.008
 7004.00    1.74875   1.84835    0.008
 7005.00    1.71025   1.84744    0.008
 7006.00    1.71008   1.84614    0.008
 7007.00    1.73589   1.84548    0.008
 7008.00    1.75050   1.84560    0.008
 7009.00    1.75846   1.84215    0.008
 7010.00    1.79018   1.84168    0.008
 7011.00    1.83420   1.84426    0.008
 7012.00    1.80816   1.84269    0.008
 7013.00    1.75067   1.84236    0.008
 7014.00    1.71172   1.84383    0.008
 7015.00    1.67994   1.84406    0.008
 7016.00    1.74394   1.84509    0.008
 7017.00    1.83939   1.84479    0.008
 7018.00    1.78578   1.84634    0.008
 7019.00    1.69117   1.85029    0.008
 7020.00    1.71053   1.85059    0.008
 7021.00    1.75566   1.85204    0.008
 7022.00    1.80483   1.85586    0.008
 7023.00    1.85472   1.85812    0.008
 7024.00    1.79942   1.86047    0.008
 7025.00    1.72955   1.86240    0.008
 7026.00    1.75183   1.86573    0.008
 7027.00    1.78326   1.86975    0.008
 7028.00    1.76628   1.87054    0.008
 7029.00    1.74626   1.87459    0.008
 7030.00    1.71410   1.88051    0.008
 7031.00    1.68179   1.88145    0.008
 7032.00    1.70278   1.88471    0.008
 7033.00    1.72261   1.89102    0.008
 7034.00    1.71076   1.89371    0.008
 7035.00    1.70004   1.89655    0.008
 7036.00    1.70508   1.90056    0.008
 7037.00    1.71115   1.90274    0.008
 7038.00    1.72671   1.90478    0.008
 7039.00    1.74680   1.90553    0.008
 7040.00    1.79746   1.90518    0.008
 7041.00    1.83738   1.90606    0.008
 7042.00    1.82118   1.90315    0.008
 7043.00    1.82665   1.89784    0.008
 7044.00    1.92338   1.89533    0.008
 7045.00    1.98351   1.88933    0.008
 7046.00    1.91640   1.88056    0.008
 7047.00    1.87649   1.87411    0.008
 7048.00    1.91619   1.86608    0.008
 7049.00    1.92646   1.85676    0.008
 7050.00    1.86322   1.84799   -2.000
 7051.00    1.80600   1.83962   -2.000
 7052.00    1.76171   1.83171   -2.000
 7053.00    1.75946   1.82227   -2.000
 7054.00    1.83574   1.81504   -2.000
 7055.00    1.89679   1.80966   -2.000
 7056.00    1.93299   1.80230   -2.000
 7057.00    1.93482   1.79786   -2.000
 7058.00    1.88749   1.79426   -2.000
 7059.00    1.84004   1.79005   -2.000
 7060.00    1.79245   1.78932   -2.000
 7061.00    1.80951   1.78743   -2.000
 7062.00    1.89827   1.78601   -2.000
 7063.00    1.98774   1.78812   -2.000
 7064.00    2.07791   1.78819   -2.000
 7065.00    2.09137   1.78888   -2.000
 7066.00    2.03867   1.79155   -2.000
 7067.00    1.99563   1.79240   -2.000
 7068.00    1.95994   1.79412   -2.000
 7069.00    1.93848   1.79529   -2.000
 7070.00    1.92654   1.79508   -2.000
 7071.00    1.94229   1.79588   -2.000
 7072.00    1.97424   1.79449   -2.000
 7073.00    2.01181   1.79202   -2.000
 7074.00    2.05224   1.78912   -2.000
 7075.00    2.05565   1.78456   -2.000
 7076.00    2.04272   1.78058   -2.000
 7077.00    2.03026   1.77343   -2.000
 7078.00    2.01797   1.76580   -2.000
 7079.00    1.95351   1.76122   -2.000
 7080.00    1.87225   1.75234   -2.000
 7081.00    1.89564   1.74441   -2.000
 7082.00    1.94722   1.73962   -2.000
 7083.00    1.96513   1.73106   -2.000
 7084.00    1.97560   1.72579   -2.000
 7085.00    1.92135   1.72163   -2.000
 7086.00    1.85573   1.71551   -2.000
 7087.00    1.83028   1.71408   -2.000
 7088.00    1.81021   1.71119   -2.000
 7089.00    1.77191   1.70889   -2.000
 7090.00    1.73188   1.71029   -2.000
 7091.00    1.79170   1.70942   -2.000
 7092.00    1.85737   1.71038   -2.000
 7093.00    1.86573   1.71226   -2.000
 7094.00    1.87215   1.71281   -2.000
 7095.00    1.80851   1.71565   -2.000
 7096.00    1.74820   1.71724   -2.000
 7097.00    1.77064   1.71818   -2.000
 7098.00    1.79087   1.72075   -2.000
 7099.00    1.78158   1.72201   -2.000
 7100.00    1.76378   1.72315   -2.000
 7101.00    1.67046   1.72376   -2.000
 7102.00    1.59046   1.72444   -2.000
 7103.00    1.59738   1.72610   -2.000
 7104.00    1.60776   1.72566   -2.000
 7105.00    1.63571   1.72563   -2.000
 7106.00    1.67021   1.72688   -2.000
 7107.00    1.73173   1.72642   -2.000
 7108.00    1.77627   1.72606   -2.000
 7109.00    1.76298   1.72617   -2.000
 7110.00    1.75350   1.72581   -2.000
 7111.00    1.75500   1.72567   -2.000
 7112.00    1.74662   1.72337   -2.000
 7113.00    1.71399   1.72249   -2.000
 7114.00    1.71887   1.72299   -2.000
 7115.00    1.80312   1.71924   -2.000
 7116.00    1.85508   1.71690   -2.000
 7117.00    1.84770   1.71608   -2.000
 7118.00    1.82788   1.71271   -2.000
 7119.00    1.78810   1.71068   -2.000
 7120.00    1.72324   1.70756   -2.000
 7121.00    1.62304   1.70432   -2.000
 7122.00    1.62724   1.70404   -2.000
 7123.00    1.76094   1.70066   -2.000
 7124.00    1.82907   1.69914   -2.000
 7125.00    1.82553   1.70042   -2.000
 7126.00    1.79536   1.69763   -2.000
 7127.00    1.73952   1.69853   -2.000
 7128.00    1.70252   1.70103   -2.000
 7129.00    1.68153   1.69932   -2.000
 7130.00    1.72846   1.70165   -2.000
 7131.00    1.82626   1.70471   -2.000
 7132.00    1.89794   1.70413   -2.000
 7133.00    1.95244   1.70726   -2.000
 7134.00    1.86192   1.70978   -2.000
 7135.00    1.68787   1.70897   -2.000
 7136.00    1.62755   1.71230   -2.000
 7137.00    1.62431   1.71417   -2.000
 7138.00    1.68936   1.71248   -2.000
 7139.00    1.78408   1.71556   -2.000
 7140.00    1.89564   1.71696   -2.000
 7141.00    2.01346   1.71546   -2.000
 7142.00    1.93840   1.71849   -2.000
 7143.00    1.80242   1.71982   -2.000
 7144.00    1.76668   1.71962   -2.000
 7145.00    1.75736   1.72192   -2.000
 7146.00    1.72542   1.72264   -2.000
 7147.00    1.68860   1.72488   -2.000
 7148.00    1.73468   1.72701   -2.000
 7149.00    1.79493   1.72675   -2.000
 7150.00    1.83778   1.72909   -2.000
 7151.00    1.87837   1.73082   -2.000
 7152.00    1.93590   1.73088   -2.000
 7153.00    1.99497   1.73281   -2.000
 7154.00    1.91232   1.73311   -2.000
 7155.00    1.82191   1.73324   -2.000
 7156.00    1.74058   1.73470   -2.000
 7157.00    1.65911   1.73494   -2.000
 7158.00    1.54757   1.73650   -2.000
 7159.00    1.44956   1.73744   -2.000
 7160.00    1.65828   1.73684   -2.000
 7161.00    1.85698   1.73940   -2.000
 7162.00    1.92945   1.74147   -2.000
 7163.00    1.99718   1.74119   -2.000
 7164.00    2.02450   1.74361   -2.000
 7165.00    2.00606   1.74559   -2.000
 7166.00    1.69760   1.74492   -2.000
 7167.00    1.47912   1.74708   -2.000
 7168.00    1.70740   1.74848   -2.000
 7169.00    1.88142   1.74695   -2.000
 7170.00    1.83708   1.74767   -2.000
 7171.00    1.81494   1.74679   -2.000
 7172.00    1.86696   1.74489   -2.000
 7173.00    1.85915   1.74534   -2.000
 7174.00    1.68261   1.74211   -2.000
 7175.00    1.57140   1.73907   -2.000
 7176.00    1.61780   1.73908   -2.000
 7177.00    1.70382   1.73450   -2.000
 7178.00    1.87233   1.73153   -2.000
 7179.00    1.94774   1.73129   -2.000
 7180.00    1.85458   1.72687   -2.000
 7181.00    1.76540   1.72543   -2.000
 7182.00    1.68249   1.72555   -2.000
 7183.00    1.60300   1.72232   -2.000
 7184.00    1.52824   1.72200   -2.000
 7185.00    1.46948   1.72244   -2.000
 7186.00    1.43025   1.72127   -2.000
 7187.00    1.48985   1.72247   -2.000
 7188.00    1.65600   1.72362   -2.000
 7189.00    1.74728   1.72403   -2.000
 7190.00    1.76740   1.72585   -2.000
 7191.00    1.74319   1.72690   -2.000
 7192.00    1.68184   1.72801   -2.000
 7193.00    1.65987   1.73017   -2.000
 7194.00    1.66699   1.73105   -2.000
 7195.00    1.69194   1.73266   -2.000
 7196.00    1.72845   1.73454   -2.000
 7197.00    1.61191   1.73384   -2.000
 7198.00    1.40855   1.73496   -2.000
 7199.00    1.49256   1.73699   -2.000
 7200.00    1.71850   1.73643   -2.000
 7201.00    1.88733   1.73789   -2.000
 7202.00    2.03177   1.73915   -2.000
 7203.00    1.97712   1.73886   -2.000
 7204.00    1.84962   1.74150   -2.000
 7205.00    1.63308   1.74289   -2.000
 7206.00    1.38895   1.74356   -2.000
 7207.00    1.44071   1.74708   -2.000
 7208.00    1.56885   1.74912   -2.000
 7209.00    1.57584   1.75177   -2.000
 7210.00    1.55736   1.75534   -2.000
 7211.00    1.59515   1.75718   -2.000
 7212.00    1.64229   1.76133   -2.000
 7213.00    1.70158   1.76514   -2.000
 7214.00    1.76239   1.76801   -2.000
 7215.00    1.75979   1.77300   -2.000
 7216.00    1.75169   1.77610   -2.000
 7217.00    1.60703   1.77948   -2.000
 7218.00    1.45542   1.78411   -2.000
