###################################################################
## OUTPUT of StarlightChains_v04.for    [Cid@UFSC - 01/Apr/2007] ##
###################################################################

## Some input info
KUG0210-078._31_31.txt                   [arq_obs]
Base.CB07.vall.4m                        [arq_base]
Masks.EmLines.NEW.gm                     [arq_masks]
StCv04.C11.config                        [arq_config]
   66                                    [N_base]
    0                                    [N_YAV_components = # of components with extra extinction!]
    0                                    [i_FitPowerLaw (1/0 = Yes/No)]
-9.99                                    [alpha_PowerLaw]
CCM                                      [red_law_option]
 1.458241                                [q_norm = A(l_norm)/A(V)]

## (Re)Sampling Parameters
 3741.00                                 [l_ini (A)]
 7218.00                                 [l_fin (A)]
    1.00                                 [dl    (A)]     (OBS: dl_cushion =    50.00 A)

## Normalization info
 4020.00                                 [l_norm (A) - for base]
 4010.00                                 [llow_norm (A) - window for f_obs]
 4060.00                                 [lupp_norm (A) - window for f_obs]
9.002706E-17                             [fobs_norm (in input units)]

## S/N
 3691.00                                 [llow_SN (A) - window for S/N]
 7268.00                                 [lupp_SN (A) - window for S/N]
   4.587                                 [S/N in S/N window]
   3.536                                 [S/N in norm. window]
   0.207                                 [S/N_err in S/N window]
   0.160                                 [S/N_err in norm. window]
  1.0000                                 [fscale_chi2]

## etc...
    -2007456                             [idum_orig]
  2432                                   [NOl_eff]
  2403                                   [Nl_eff]
    29    NSIGMA                         [Ntot_cliped & clip_method]
 11485320                                [Nglobal_steps]
   7                                     [N_chains]
  37                                     [NEX0s_base = N_base in EX0s-fits]
 0   0   1       29   2.0   2.030E+04    [Clip-Bug, RC-Crash & Burn-In warning-flags, n_censored_weights, wei_nsig_threshold & wei_limit]
    80     79.182     78.326      0.856  [idt_all, wdt_TotTime, wdt_UsrTime & wdt_SysTime (sec)]

## Synthesis Results - Best model ##

 3.64736E-05                             [chi2/Nl_eff]
     2.11800                             [adev (%)]

   102.82275                             [sum-of-x (%)]
 9.65989E-17                             [Flux_tot (units of input spectrum!)]
 7.99654E-12                             [Mini_tot (???)]
 4.04512E-12                             [Mcor_tot (???)]

  16.61                                  [v0_min  (km/s)]
 206.29                                  [vd_min  (km/s)]
 0.0317                                  [AV_min  (mag)]
 0.0000                                  [YAV_min (mag)]

# j     x_j(%)      Mini_j(%)     Mcor_j(%)     age_j(yr)     Z_j      (L/M)_j    YAV?  Mstars   component_j        a/Fe...       SSP_chi2r SSP_adev(%)   SSP_AV   SSP_x(%)
  1      0.0000     0.0000E+00    0.0000E+00    1.000000E+06  0.00400  1.094E-02    0   1.0000   age020_m42            0.0000     5.2290E-04     8.4162   3.9091    87.2288
  2      0.0000     0.0000E+00    0.0000E+00    3.160000E+06  0.00400  4.007E-02    0   0.9999   age045_m42            0.0000     4.2344E-04     7.6414   3.1752    93.5496
  3      0.0000     0.0000E+00    0.0000E+00    5.010000E+06  0.00400  2.539E-02    0   0.9488   age055_m42            0.0000     4.6492E-04     7.9644   3.4989    91.1222
  4      2.3834     1.0687E-03    1.9479E-03    6.610000E+06  0.00400  2.620E-02    0   0.9220   age061_m42            0.0000     4.2764E-04     7.6924   3.1007    93.7798
  5      0.9155     8.1360E-04    1.4253E-03    1.000000E+07  0.00400  1.322E-02    0   0.8862   age070_m42            0.0000     5.1552E-04     8.9062   2.8137    95.8685
  6      0.8315     1.2393E-03    2.0998E-03    1.445000E+07  0.00400  7.883E-03    0   0.8571   age078_m42            0.0000     5.3389E-04     8.9759   3.1420    93.3853
  7      0.0000     0.0000E+00    0.0000E+00    2.512000E+07  0.00400  5.251E-03    0   0.8174   age090_m42            0.0000     5.3415E-04     9.1603   2.6836    96.4093
  8      0.0000     0.0000E+00    0.0000E+00    4.000000E+07  0.00400  3.649E-03    0   0.7851   age104_m42            0.0000     4.9754E-04     8.8486   2.4552    97.2930
  9      0.0000     0.0000E+00    0.0000E+00    5.500000E+07  0.00400  3.098E-03    0   0.7629   age110_m42            0.0000     4.5069E-04     8.1906   2.6091    97.3262
 10      0.0000     0.0000E+00    0.0000E+00    1.015200E+08  0.00400  2.228E-03    0   0.7207   age116_m42            0.0000     4.2515E-04     7.8400   2.6297    97.5108
 11      0.3401     3.6559E-03    4.8045E-03    2.861200E+08  0.00400  1.093E-03    0   0.6648   age125_m42            0.0000     4.4839E-04     8.3694   2.0495   100.6753
 12      0.0000     0.0000E+00    0.0000E+00    5.088000E+08  0.00400  6.597E-04    0   0.6365   age130_m42            0.0000     3.8304E-04     7.6408   2.0422   101.5187
 13      0.0000     0.0000E+00    0.0000E+00    1.434000E+09  0.00400  2.132E-04    0   0.5798   age139_m42            0.0000     2.3644E-04     6.0553   1.0792   103.4034
 14      0.0000     0.0000E+00    0.0000E+00    4.250000E+09  0.00400  5.895E-05    0   0.5377   age158_m42            0.0000     1.2927E-04     4.2882   0.6476    99.1970
 15      3.5463     1.1870E+00    1.2230E+00    7.500000E+09  0.00400  3.510E-05    0   0.5212   age171_m42            0.0000     1.0045E-04     3.6581   0.4604    98.5341
 16      0.0000     0.0000E+00    0.0000E+00    1.300000E+10  0.00400  2.005E-05    0   0.5034   age193_m42            0.0000     8.3616E-05     3.2383   0.2952    98.0031
 17      0.0000     0.0000E+00    0.0000E+00    1.800000E+10  0.00400  1.525E-05    0   0.4967   age213_m42            0.0000     8.8029E-05     3.3438   0.2718    97.5809
 18      0.0000     0.0000E+00    0.0000E+00    1.000000E+06  0.00800  1.238E-02    0   1.0000   age020_m52            0.0000     5.2198E-04     8.4065   3.9054    87.4037
 19      0.0000     0.0000E+00    0.0000E+00    3.160000E+06  0.00800  3.074E-02    0   0.9966   age045_m52            0.0000     5.0949E-04     8.2738   3.8278    88.2482
 20      0.0000     0.0000E+00    0.0000E+00    5.010000E+06  0.00800  2.668E-02    0   0.9443   age055_m52            0.0000     4.7608E-04     8.0499   3.5802    90.3542
 21      0.0000     0.0000E+00    0.0000E+00    6.610000E+06  0.00800  2.136E-02    0   0.9177   age061_m52            0.0000     4.3495E-04     8.3279   2.3200    96.8496
 22      0.2610     2.5239E-04    4.4041E-04    1.000000E+07  0.00800  1.215E-02    0   0.8827   age070_m52            0.0000     5.6803E-04     9.4577   2.9896    95.7024
 23      0.0000     0.0000E+00    0.0000E+00    1.445000E+07  0.00800  8.717E-03    0   0.8552   age078_m52            0.0000     5.2268E-04     8.9073   3.1065    94.7358
 24      0.0000     0.0000E+00    0.0000E+00    2.512000E+07  0.00800  5.592E-03    0   0.8162   age090_m52            0.0000     5.3607E-04     9.1991   2.7443    97.6478
 25      0.0000     0.0000E+00    0.0000E+00    4.000000E+07  0.00800  3.896E-03    0   0.7841   age104_m52            0.0000     4.9676E-04     8.8085   2.6534    98.5361
 26      0.0000     0.0000E+00    0.0000E+00    1.015200E+08  0.00800  2.148E-03    0   0.7226   age116_m52            0.0000     4.3205E-04     8.0587   2.5949    98.3250
 27      0.0000     0.0000E+00    0.0000E+00    2.861200E+08  0.00800  9.925E-04    0   0.6683   age125_m52            0.0000     3.7687E-04     7.5650   2.1057   102.5026
 28      0.0000     0.0000E+00    0.0000E+00    9.047900E+08  0.00800  3.141E-04    0   0.6138   age135_m52            0.0000     2.2134E-04     5.7802   1.3073   106.9409
 29      0.0000     0.0000E+00    0.0000E+00    1.434000E+09  0.00800  1.719E-04    0   0.5853   age139_m52            0.0000     1.5507E-04     4.8356   0.7300   104.6593
 30      0.0000     0.0000E+00    0.0000E+00    2.500000E+09  0.00800  7.872E-05    0   0.5600   age150_m52            0.0000     7.9761E-05     3.2791   0.4745   101.5778
 31      2.0890     5.6602E-01    6.0713E-01    4.250000E+09  0.00800  4.336E-05    0   0.5426   age158_m52            0.0000     7.8165E-05     3.2268   0.4604   100.5834
 32      0.0000     0.0000E+00    0.0000E+00    6.250000E+09  0.00800  3.159E-05    0   0.5319   age166_m52            0.0000     5.6869E-05     2.6306   0.2598   100.5703
 33      0.0000     0.0000E+00    0.0000E+00    1.300000E+10  0.00800  1.361E-05    0   0.5073   age193_m52            0.0000     4.7765E-05     2.3718  -0.2059    99.9023
 34      4.2822     5.0889E+00    5.0199E+00    1.800000E+10  0.00800  9.886E-06    0   0.4990   age213_m52            0.0000     5.8500E-05     2.6687  -0.3134    99.4430
 35      0.0000     0.0000E+00    0.0000E+00    1.000000E+06  0.02000  1.544E-02    0   1.0000   age020_m62            0.0000     5.2513E-04     8.4230   3.9009    87.6295
 36      0.0000     0.0000E+00    0.0000E+00    3.160000E+06  0.02000  3.762E-02    0   0.9858   age045_m62            0.0000     5.2119E-04     8.3560   3.8374    88.5085
 37      0.0000     0.0000E+00    0.0000E+00    5.010000E+06  0.02000  3.296E-02    0   0.9342   age055_m62            0.0000     4.3781E-04     7.6368   3.4560    92.3788
 38      0.0000     0.0000E+00    0.0000E+00    8.710000E+06  0.02000  1.154E-02    0   0.8861   age067_m62            0.0000     9.6114E-04    12.9405   2.4273    98.5436
 39      0.0000     0.0000E+00    0.0000E+00    1.445000E+07  0.02000  7.663E-03    0   0.8472   age078_m62            0.0000     6.5154E-04    10.4439   2.6269    98.0970
 40      0.0000     0.0000E+00    0.0000E+00    2.512000E+07  0.02000  4.532E-03    0   0.8099   age090_m62            0.0000     6.8120E-04    10.6724   2.6164    97.8742
 41      0.0000     0.0000E+00    0.0000E+00    5.500000E+07  0.02000  2.733E-03    0   0.7595   age110_m62            0.0000     4.9201E-04     8.7542   2.6393    97.7207
 42      0.0000     0.0000E+00    0.0000E+00    1.609000E+08  0.02000  1.369E-03    0   0.6985   age120_m62            0.0000     4.2115E-04     7.9638   2.4752   100.5864
 43      0.0000     0.0000E+00    0.0000E+00    2.861200E+08  0.02000  9.013E-04    0   0.6714   age125_m62            0.0000     3.8322E-04     7.5833   2.2240   103.6053
 44      0.0000     0.0000E+00    0.0000E+00    5.088000E+08  0.02000  5.028E-04    0   0.6449   age130_m62            0.0000     2.8530E-04     6.4508   1.8449   106.5701
 45      0.0000     0.0000E+00    0.0000E+00    9.047900E+08  0.02000  2.428E-04    0   0.6179   age135_m62            0.0000     1.5257E-04     4.7368   1.2616   105.9032
 46      0.0000     0.0000E+00    0.0000E+00    1.434000E+09  0.02000  1.263E-04    0   0.5908   age139_m62            0.0000     9.5896E-05     3.7035   0.8217   104.2408
 47      9.2310     1.8120E+00    2.0321E+00    2.500000E+09  0.02000  5.985E-05    0   0.5673   age150_m62            0.0000     5.5608E-05     2.7071   0.4609   102.7318
 48      0.0000     0.0000E+00    0.0000E+00    4.250000E+09  0.02000  3.271E-05    0   0.5468   age158_m62            0.0000     4.4527E-05     2.3415   0.1595   101.7920
 49     19.7714     1.7080E+01    1.7446E+01    1.000000E+10  0.02000  1.360E-05    0   0.5167   age181_m62            0.0000     7.2550E-05     3.0882  -0.1883   101.4521
 50     13.4810     2.2232E+01    2.2032E+01    1.800000E+10  0.02000  7.124E-06    0   0.5013   age213_m62            0.0000     1.1863E-04     4.0338  -0.3994   100.7455
 51      1.4005     6.3478E-04    1.2546E-03    1.000000E+06  0.05000  2.592E-02    0   0.9998   age020_m72            0.0000     5.3886E-04     8.5352   3.8922    87.6643
 52      3.9454     9.5670E-04    1.8112E-03    3.160000E+06  0.05000  4.845E-02    0   0.9577   age045_m72            0.0000     4.8288E-04     8.0042   3.7200    89.7304
 53      0.4851     1.8552E-04    3.3546E-04    5.010000E+06  0.05000  3.072E-02    0   0.9147   age055_m72            0.0000     6.0994E-04     9.7205   3.2107    94.3677
 54      1.5108     1.2199E-03    2.1407E-03    6.610000E+06  0.05000  1.455E-02    0   0.8877   age061_m72            0.0000     1.4306E-03    15.9340   2.4323   100.0690
 55      0.0000     0.0000E+00    0.0000E+00    1.000000E+07  0.05000  9.074E-03    0   0.8524   age070_m72            0.0000     7.2999E-04    10.4687   3.3651    94.6430
 56      1.0354     2.8621E-03    4.4709E-03    2.512000E+07  0.05000  4.250E-03    0   0.7902   age090_m72            0.0000     6.3083E-04     9.8775   3.0817    96.1598
 57      0.0000     0.0000E+00    0.0000E+00    4.000000E+07  0.05000  3.087E-03    0   0.7618   age104_m72            0.0000     6.4297E-04    10.0479   2.8521    97.8333
 58      0.0000     0.0000E+00    0.0000E+00    1.015200E+08  0.05000  1.700E-03    0   0.7096   age116_m72            0.0000     4.7930E-04     8.5471   2.6127   100.2330
 59      0.0000     0.0000E+00    0.0000E+00    2.861200E+08  0.05000  7.384E-04    0   0.6633   age125_m72            0.0000     3.2936E-04     6.9760   2.0910   105.1419
 60      1.4448     4.4446E-02    5.5986E-02    5.088000E+08  0.05000  3.819E-04    0   0.6372   age130_m72            0.0000     1.9722E-04     5.3343   1.6023   106.9228
 61      3.9397     2.7616E-01    3.3356E-01    9.047900E+08  0.05000  1.676E-04    0   0.6110   age135_m72            0.0000     8.1361E-05     3.3417   0.9158   104.8648
 62      7.6757     1.0204E+00    1.1849E+00    1.434000E+09  0.05000  8.837E-05    0   0.5874   age139_m72            0.0000     5.4137E-05     2.6526   0.4556   104.4355
 63      0.0000     0.0000E+00    0.0000E+00    2.500000E+09  0.05000  4.233E-05    0   0.5598   age150_m72            0.0000     4.6153E-05     2.4308   0.1561   102.8456
 64      0.0000     0.0000E+00    0.0000E+00    6.250000E+09  0.05000  1.435E-05    0   0.5249   age166_m72            0.0000     8.3263E-05     3.2893  -0.2869   101.1403
 65     15.4942     2.7949E+01    2.7824E+01    1.300000E+10  0.05000  6.513E-06    0   0.5036   age193_m72            0.0000     1.5167E-04     4.6412  -0.5675   102.1652
 66      8.7590     2.2731E+01    2.2221E+01    1.800000E+10  0.05000  4.527E-06    0   0.4945   age213_m72            0.0000     2.0887E-04     5.5448  -0.7290   101.9778


## Synthesis Results - Average & Chains ##

# j      x_j: min, <> & last-chain-values for 1 ...  7 chains
  1      0.0000      0.3158      0.0731      0.0000      0.1574      0.0396      0.2187      0.1442      0.0514
  2      0.0000      0.2648      0.1669      0.0820      0.1925      0.0145      0.0362      0.0248      0.0755
  3      0.0000      0.3468      0.2986      0.0010      0.0475      0.5581      0.2759      0.0403      0.0498
  4      2.3834      0.4000      0.3007      0.0663      0.0000      0.0114      0.0924      0.1742      0.3187
  5      0.9155      0.2673      0.1758      0.0729      0.1493      0.0011      0.1045      0.0260      0.4073
  6      0.8315      0.2291      0.3205      0.0000      0.0768      0.2213      0.3661      0.0000      0.0969
  7      0.0000      0.3872      0.1752      0.0000      0.0000      0.1385      0.1820      0.0547      0.1727
  8      0.0000      0.3176      0.0178      0.0238      0.1161      0.1581      0.3922      0.0000      0.1305
  9      0.0000      0.2627      0.0286      0.0000      0.0568      0.3296      0.0797      0.1236      0.2673
 10      0.0000      0.2734      0.0000      0.1111      0.2724      0.0582      0.0000      0.2159      0.1450
 11      0.3401      0.3090      0.1750      0.0000      0.1851      0.0784      0.0000      0.0346      0.0332
 12      0.0000      0.2517      0.0000      0.0000      0.1673      0.0608      0.1674      0.3679      0.0000
 13      0.0000      0.2258      0.1748      0.0223      0.0842      0.0471      0.1612      0.1167      0.2338
 14      0.0000      0.2359      0.1652      0.0099      0.0000      0.0529      0.0000      0.2136      0.2112
 15      3.5463      0.1766      0.1764      0.0047      0.0365      0.0000      0.0439      0.1844      0.1371
 16      0.0000      0.2536      0.1301      0.1530      0.0551      0.2143      0.2295      0.0494      0.2238
 17      0.0000      0.2708      0.4957      0.1725      0.2991      0.2599      0.0370      0.2683      0.0251
 18      0.0000      0.2117      0.0938      0.0000      0.0000      0.3751      0.0147      0.0711      0.0369
 19      0.0000      0.2735      0.3156      0.0774      0.0212      0.0775      0.0336      0.0722      0.0363
 20      0.0000      0.3048      0.4286      0.1823      0.0000      0.1275      0.3506      0.0000      0.1601
 21      0.0000      0.2728      0.0000      0.2052      0.1216      0.1109      0.0996      0.0000      0.1571
 22      0.2610      0.3199      0.2252      0.0000      0.1062      0.0000      0.1137      0.2124      0.0312
 23      0.0000      0.3366      0.0928      0.0748      0.0136      0.1530      0.0000      0.0846      0.2415
 24      0.0000      0.2702      0.6416      0.2050      0.1515      0.0100      0.0000      0.1823      0.1099
 25      0.0000      0.2478      0.0833      0.0928      0.0063      0.0710      0.2251      0.2791      0.2284
 26      0.0000      0.2828      0.2803      0.1736      0.1987      0.0000      0.0064      0.0255      0.0529
 27      0.0000      0.3124      0.0661      0.0696      0.1162      0.0000      0.0173      0.2885      0.1940
 28      0.0000      0.3153      0.1796      0.6996      0.2284      0.2750      0.0000      0.2179      0.0574
 29      0.0000      0.3331      0.4955      0.1881      0.1438      0.2970      0.0635      0.0763      0.0219
 30      0.0000      0.3725      0.1283      0.2748      0.1072      0.1849      0.0041      0.0494      0.0582
 31      2.0890      0.2690      0.3421      0.0000      0.1849      0.0343      0.0000      0.0867      0.0000
 32      0.0000      0.2256      0.0237      0.0000      0.0248      0.0460      0.0000      0.5605      0.0497
 33      0.0000      0.3073      0.0000      0.1380      0.0966      0.0294      0.1021      0.0544      0.0000
 34      4.2822      0.2954      0.2769      0.1429      0.1373      0.1636      0.0000      0.2666      0.1571
 35      0.0000      0.3119      0.0674      0.3539      0.0640      0.0578      0.2439      0.0119      0.1644
 36      0.0000      0.4140      0.1054      0.0401      0.0621      0.1002      0.4280      0.0000      0.0539
 37      0.0000      0.3302      0.1878      0.1595      0.0000      0.2774      0.0357      0.0000      0.4763
 38      0.0000      0.2619      0.1769      0.0103      0.0000      0.1134      0.1152      0.0000      0.2892
 39      0.0000      0.3018      0.2039      0.3628      0.2368      0.0262      0.0593      0.1742      0.1896
 40      0.0000      0.2554      0.1900      0.0000      0.0000      0.1425      0.0932      0.0591      0.1352
 41      0.0000      0.3131      0.0608      0.0000      0.0000      0.0000      0.2363      0.2216      0.2875
 42      0.0000      0.2616      0.0747      0.0000      0.1702      0.1726      0.0958      0.0015      0.0439
 43      0.0000      0.2647      0.0534      0.1168      0.0831      0.0000      0.0517      0.0000      0.0686
 44      0.0000      1.3068      1.1684      1.0176      1.3985      1.2598      1.6418      1.4015      1.4213
 45      0.0000      0.2243      0.1185      0.1626      0.0483      0.2076      0.0454      0.1088      0.0414
 46      0.0000      0.2316      0.1713      0.0112      0.0718      0.0517      0.0630      0.1891      0.1777
 47      9.2310      0.2300      0.2773      0.0000      0.0000      0.0024      0.1059      0.0000      0.1162
 48      0.0000      0.3234      0.0040      0.0748      0.0000      0.0422      0.0678      0.0672      0.0000
 49     19.7714      0.2788      0.4122      0.1573      0.0578      0.0815      0.2449      0.2468      0.0000
 50     13.4810      0.3221      0.2292      0.0000      0.1384      0.2441      0.0000      0.2210      0.0209
 51      1.4005      0.2724      0.5935      0.0898      0.0000      0.0243      0.2119      0.0000      0.1751
 52      3.9454      0.3132      0.2510      0.0841      0.0718      0.3382      0.2175      0.0814      0.1065
 53      0.4851      0.3478      0.2532      0.0000      0.2607      0.0000      0.1116      0.1972      0.0044
 54      1.5108      0.2236      0.2495      0.0592      0.0000      0.0779      0.1196      0.0000      0.0215
 55      0.0000      0.2509      0.0000      0.0000      0.0000      0.1286      0.0000      0.0645      0.1122
 56      1.0354      0.2115      0.1997      0.0000      0.0000      0.0822      0.0587      0.1065      0.0000
 57      0.0000      0.2282      0.2281      0.0832      0.0784      0.0589      0.0000      0.1837      0.0000
 58      0.0000      0.2958      0.0000      0.1413      0.0900      0.0020      0.1584      0.0000      0.2168
 59      0.0000      0.2592      0.0000      0.0585      0.2103      0.1178      0.1608      0.1438      0.2919
 60      1.4448      2.4443      2.7416      2.6723      2.8537      2.9400      2.7535      2.7259      2.7839
 61      3.9397     24.6322     28.3212     24.4721     31.4851     28.9438     28.6146     28.9318     28.7466
 62      7.6757     30.3558     26.4366     41.4380     31.9615     32.0515     31.0745     31.6883     31.3837
 63      0.0000      0.2430      0.1520      0.0000      0.2763      0.0000      0.0707      0.4926      0.1070
 64      0.0000      0.2639      0.1649      0.1022      0.0652      0.1683      0.2336      0.1248      0.2073
 65     15.4942      5.6821      6.0377      6.1565      6.1393      6.1494      6.6375      6.7546      6.5318
 66      8.7590     21.9625     27.6773     22.2467     24.0324     25.3407     25.9822     24.5869     25.0832

# j      m_j: min, <> & last-chain-values for 1 ...  7 chains
  1  0.0000E+00  8.8774E-04  1.7286E-04  0.0000E+00  4.1348E-04  9.9838E-05  5.3978E-04  3.6492E-04  1.3062E-04
  2  0.0000E+00  2.0320E-04  1.0778E-04  6.1768E-05  1.3804E-04  9.9484E-06  2.4413E-05  1.7121E-05  5.2358E-05
  3  0.0000E+00  3.9848E-04  2.8867E-04  1.1324E-06  5.0957E-05  5.7533E-04  2.7842E-04  4.1730E-05  5.1696E-05
  4  1.9479E-03  4.3282E-04  2.7380E-04  7.0445E-05  0.0000E+00  1.1111E-05  8.7797E-05  1.6974E-04  3.1165E-04
  5  1.4253E-03  5.5093E-04  3.0481E-04  1.4735E-04  2.8758E-04  2.0535E-06  1.8915E-04  4.8231E-05  7.5865E-04
  6  2.0998E-03  7.6610E-04  9.0160E-04  0.0000E+00  2.3995E-04  6.6382E-04  1.0750E-03  0.0000E+00  2.9288E-04
  7  0.0000E+00  1.8537E-03  7.0576E-04  0.0000E+00  0.0000E+00  5.9467E-04  7.6521E-04  2.3571E-04  7.4709E-04
  8  0.0000E+00  2.1014E-03  9.8971E-05  1.5447E-04  7.1788E-04  9.3816E-04  2.2786E-03  0.0000E+00  7.7999E-04
  9  0.0000E+00  1.9890E-03  1.8237E-04  0.0000E+00  4.0181E-04  2.2389E-03  5.2966E-04  8.4249E-04  1.8290E-03
 10  0.0000E+00  2.7195E-03  0.0000E+00  1.0847E-03  2.5319E-03  5.1931E-04  0.0000E+00  1.9338E-03  1.3029E-03
 11  4.8045E-03  5.7792E-03  2.7542E-03  0.0000E+00  3.2353E-03  1.3155E-03  0.0000E+00  5.8243E-04  5.6155E-04
 12  0.0000E+00  7.4679E-03  0.0000E+00  0.0000E+00  4.6395E-03  1.6178E-03  4.3623E-03  9.8271E-03  0.0000E+00
 13  0.0000E+00  1.8886E-02  1.2301E-02  1.8321E-03  6.5782E-03  3.5331E-03  1.1837E-02  8.7867E-03  1.7671E-02
 14  0.0000E+00  6.6161E-02  3.8983E-02  2.7107E-03  0.0000E+00  1.3320E-02  0.0000E+00  5.3940E-02  5.3516E-02
 15  1.2230E+00  8.0615E-02  6.7762E-02  2.1215E-03  1.5579E-02  0.0000E+00  1.7590E-02  7.5799E-02  5.6566E-02
 16  0.0000E+00  1.9582E-01  8.4499E-02  1.1586E-01  3.9770E-02  1.4845E-01  1.5561E-01  3.4309E-02  1.5615E-01
 17  0.0000E+00  2.7123E-01  4.1773E-01  1.6954E-01  2.7998E-01  2.3352E-01  3.2511E-02  2.4194E-01  2.2707E-02
 18  0.0000E+00  5.2596E-04  1.9595E-04  0.0000E+00  0.0000E+00  8.3589E-04  3.2039E-05  1.5893E-04  8.2867E-05
 19  0.0000E+00  2.7265E-04  2.6474E-04  7.5721E-05  1.9752E-05  6.9303E-05  2.9396E-05  6.4796E-05  3.2711E-05
 20  0.0000E+00  3.3170E-04  3.9243E-04  1.9471E-04  0.0000E+00  1.2452E-04  3.3507E-04  0.0000E+00  1.5744E-04
 21  0.0000E+00  3.6041E-04  0.0000E+00  2.6594E-04  1.5014E-04  1.3147E-04  1.1550E-04  0.0000E+00  1.8760E-04
 22  4.4041E-04  7.1474E-04  4.2329E-04  0.0000E+00  2.2181E-04  0.0000E+00  2.2308E-04  4.2713E-04  6.3020E-05
 23  0.0000E+00  1.0153E-03  2.3543E-04  2.2132E-04  3.8271E-05  4.1403E-04  0.0000E+00  2.2966E-04  6.5833E-04
 24  0.0000E+00  1.2127E-03  2.4229E-03  9.0265E-04  6.3525E-04  4.0365E-05  0.0000E+00  7.3671E-04  4.4579E-04
 25  0.0000E+00  1.5334E-03  4.3366E-04  5.6321E-04  3.6265E-05  3.9391E-04  1.2233E-03  1.5552E-03  1.2772E-03
 26  0.0000E+00  2.9255E-03  2.4395E-03  1.7616E-03  1.9211E-03  0.0000E+00  5.8368E-05  2.3733E-04  4.9475E-04
 27  0.0000E+00  6.4684E-03  1.1507E-03  1.4144E-03  2.2480E-03  0.0000E+00  3.1434E-04  5.3775E-03  3.6298E-03
 28  0.0000E+00  1.8945E-02  9.0805E-03  4.1245E-02  1.2826E-02  1.4823E-02  0.0000E+00  1.1790E-02  3.1182E-03
 29  0.0000E+00  3.4872E-02  4.3650E-02  1.9325E-02  1.4068E-02  2.7898E-02  5.8353E-03  7.1883E-03  2.0743E-03
 30  0.0000E+00  8.1489E-02  2.3604E-02  5.8982E-02  2.1908E-02  3.6280E-02  7.8809E-04  9.7210E-03  1.1495E-02
 31  6.0713E-01  1.0350E-01  1.1077E-01  0.0000E+00  6.6484E-02  1.1845E-02  0.0000E+00  3.0026E-02  0.0000E+00
 32  0.0000E+00  1.1679E-01  1.0331E-02  0.0000E+00  1.1979E-02  2.1367E-02  0.0000E+00  2.6131E-01  2.3246E-02
 33  0.0000E+00  3.5221E-01  0.0000E+00  1.5524E-01  1.0351E-01  3.0252E-02  1.0274E-01  5.6119E-02  0.0000E+00
 34  5.0199E+00  4.5858E-01  3.6153E-01  2.1758E-01  1.9913E-01  2.2780E-01  0.0000E+00  3.7262E-01  2.2035E-01
 35  0.0000E+00  6.2121E-04  1.1286E-04  6.9152E-04  1.1905E-04  1.0335E-04  4.2662E-04  2.1264E-05  2.9579E-04
 36  0.0000E+00  3.3358E-04  7.1436E-05  3.1713E-05  4.6758E-05  7.2460E-05  3.0288E-04  0.0000E+00  3.9219E-05
 37  0.0000E+00  2.8776E-04  1.3773E-04  1.3642E-04  0.0000E+00  2.1685E-04  2.7357E-05  0.0000E+00  3.7515E-04
 38  0.0000E+00  6.1828E-04  3.5148E-04  2.3899E-05  0.0000E+00  2.4013E-04  2.3878E-04  0.0000E+00  6.1701E-04
 39  0.0000E+00  1.0260E-03  5.8319E-04  1.2101E-03  7.5226E-04  7.9912E-05  1.7699E-04  5.3328E-04  5.8237E-04
 40  0.0000E+00  1.4033E-03  8.7856E-04  0.0000E+00  0.0000E+00  7.0254E-04  4.4984E-04  2.9227E-04  6.7119E-04
 41  0.0000E+00  2.6756E-03  4.3740E-04  0.0000E+00  0.0000E+00  0.0000E+00  1.7730E-03  1.7047E-03  2.2201E-03
 42  0.0000E+00  4.1048E-03  9.8553E-04  0.0000E+00  2.4948E-03  2.4300E-03  1.3193E-03  2.1345E-05  6.2255E-04
 43  0.0000E+00  6.0644E-03  1.0289E-03  2.6250E-03  1.7784E-03  0.0000E+00  1.0399E-03  0.0000E+00  1.4191E-03
 44  0.0000E+00  5.1541E-02  3.8772E-02  3.9378E-02  5.1546E-02  4.4575E-02  5.6863E-02  4.9768E-02  5.0653E-02
 45  0.0000E+00  1.7554E-02  7.8043E-03  1.2485E-02  3.5342E-03  1.4574E-02  3.1176E-03  7.6641E-03  2.9291E-03
 46  0.0000E+00  3.3311E-02  2.0725E-02  1.5774E-03  9.6524E-03  6.6652E-03  7.9580E-03  2.4493E-02  2.3100E-02
 47  2.0321E+00  6.7036E-02  6.8011E-02  0.0000E+00  0.0000E+00  6.2541E-04  2.7110E-02  0.0000E+00  3.0594E-02
 48  0.0000E+00  1.6623E-01  1.7315E-03  3.7731E-02  0.0000E+00  1.9460E-02  3.0608E-02  3.1098E-02  0.0000E+00
 49  1.7446E+01  3.2574E-01  4.0512E-01  1.8026E-01  6.3058E-02  8.5425E-02  2.5129E-01  2.5958E-01  0.0000E+00
 50  2.2032E+01  6.9694E-01  4.1733E-01  0.0000E+00  2.7983E-01  4.7374E-01  0.0000E+00  4.3054E-01  4.0926E-02
 51  1.2546E-03  3.2304E-04  5.9226E-04  1.0449E-04  0.0000E+00  2.5839E-05  2.2076E-04  0.0000E+00  1.8770E-04
 52  1.8112E-03  1.9038E-04  1.2835E-04  5.0142E-05  4.0790E-05  1.8440E-04  1.1609E-04  4.4533E-05  5.8520E-05
 53  3.3546E-04  3.1847E-04  1.9507E-04  0.0000E+00  2.2308E-04  0.0000E+00  8.9746E-05  1.6259E-04  3.6784E-06
 54  2.1407E-03  4.1950E-04  3.9381E-04  1.0894E-04  0.0000E+00  1.3115E-04  1.9703E-04  0.0000E+00  3.6461E-05
 55  0.0000E+00  7.2464E-04  0.0000E+00  0.0000E+00  0.0000E+00  3.3319E-04  0.0000E+00  1.6772E-04  2.9276E-04
 56  4.4709E-03  1.2094E-03  9.6081E-04  0.0000E+00  0.0000E+00  4.2160E-04  2.9464E-04  5.4817E-04  0.0000E+00
 57  0.0000E+00  1.7318E-03  1.4562E-03  6.1934E-04  5.5592E-04  4.0069E-04  0.0000E+00  1.2550E-03  0.0000E+00
 58  0.0000E+00  3.7972E-03  0.0000E+00  1.7800E-03  1.0792E-03  2.3459E-05  1.7849E-03  0.0000E+00  2.5149E-03
 59  0.0000E+00  7.1605E-03  0.0000E+00  1.5862E-03  5.4274E-03  2.9202E-03  3.9016E-03  3.5759E-03  7.2865E-03
 60  5.5986E-02  1.2541E-01  1.1834E-01  1.3452E-01  1.3682E-01  1.3532E-01  1.2406E-01  1.2592E-01  1.2907E-01
 61  3.3356E-01  2.7614E+00  2.6711E+00  2.6917E+00  3.2983E+00  2.9107E+00  2.8169E+00  2.9202E+00  2.9120E+00
 62  1.1849E+00  6.2047E+00  4.5462E+00  8.3102E+00  6.1049E+00  5.8770E+00  5.5776E+00  5.8317E+00  5.7965E+00
 63  0.0000E+00  9.8817E-02  5.2014E-02  0.0000E+00  1.0499E-01  0.0000E+00  2.5240E-02  1.8036E-01  3.9317E-02
 64  0.0000E+00  2.9683E-01  1.5609E-01  1.1276E-01  6.8515E-02  1.6983E-01  2.3073E-01  1.2636E-01  2.1065E-01
 65  2.7824E+01  1.3510E+01  1.2078E+01  1.4362E+01  1.3641E+01  1.3116E+01  1.3859E+01  1.4460E+01  1.4034E+01
 66  2.2221E+01  7.3772E+01  7.8216E+01  7.3317E+01  7.5436E+01  7.6358E+01  7.6638E+01  7.4358E+01  7.6133E+01

# AV, chi2 & Mass for <> & i_chain = 1 ...  7 solutions
AV       0.0317      0.2005      0.1966      0.2199      0.2214      0.2060      0.2016      0.1944      0.2191
chi2 3.6474E-05  1.5816E-04  4.3837E-05  4.5449E-05  4.5954E-05  4.4673E-05  4.4604E-05  4.5133E-05  4.4966E-05
Mass 4.0451E-12  3.8322E-12  4.5314E-12  4.0092E-12  4.2176E-12  4.3038E-12  4.3704E-12  4.2218E-12  4.3487E-12
  16.61                                  [v0_min (km/s) before EX0s...]
 206.29                                  [vd_min (km/s) before EX0s...]


## Synthetic spectrum (Best Model) ##l_obs f_obs f_syn wei
 3478    [Nl_obs]
 3741.00    0.45559   0.52202    0.000
 3742.00    0.45925   0.52057    0.000
 3743.00    0.45417   0.50646    0.000
 3744.00    0.43024   0.48383    0.000
 3745.00    0.39532   0.45778    0.261
 3746.00    0.41574   0.43331    0.265
 3747.00    0.46425   0.41496    0.270
 3748.00    0.47649   0.40681    0.266
 3749.00    0.47277   0.41189    0.257
 3750.00    0.46971   0.43112    0.250
 3751.00    0.46691   0.46224    0.242
 3752.00    0.48877   0.49971    0.241
 3753.00    0.51853   0.53592    0.241
 3754.00    0.53854   0.56334    0.239
 3755.00    0.55594   0.57705    0.235
 3756.00    0.53463   0.57652    0.232
 3757.00    0.50483   0.56574    0.230
 3758.00    0.49677   0.55127    0.230
 3759.00    0.49250   0.53920    0.231
 3760.00    0.49932   0.53274    0.233
 3761.00    0.50761   0.53160    0.234
 3762.00    0.52255   0.53332    0.232
 3763.00    0.53811   0.53527    0.228
 3764.00    0.56335   0.53594    0.230
 3765.00    0.58916   0.53542    0.233
 3766.00    0.57969   0.53500    0.241
 3767.00    0.56947   0.53651    0.250
 3768.00    0.57080   0.54151    0.247
 3769.00    0.57362   0.55078    0.244
 3770.00    0.61255   0.56412    0.245
 3771.00    0.64716   0.58035    0.246
 3772.00    0.62499   0.59772    0.244
 3773.00    0.60302   0.61449    0.241
 3774.00    0.58276   0.62962    0.236
 3775.00    0.56945   0.64312    0.233
 3776.00    0.60120   0.65578    0.240
 3777.00    0.62872   0.66857    0.246
 3778.00    0.63482   0.68193    0.248
 3779.00    0.64338   0.69530    0.252
 3780.00    0.66205   0.70708    0.263
 3781.00    0.67525   0.71500    0.269
 3782.00    0.66989   0.71674    0.252
 3783.00    0.66145   0.71041    0.243
 3784.00    0.64418   0.69526    0.250
 3785.00    0.63345   0.67249    0.255
 3786.00    0.63867   0.64533    0.249
 3787.00    0.64132   0.61813    0.243
 3788.00    0.63858   0.59485    0.239
 3789.00    0.61674   0.57749    0.237
 3790.00    0.55991   0.56544    0.238
 3791.00    0.51931   0.55606    0.239
 3792.00    0.50469   0.54610    0.239
 3793.00    0.50666   0.53333    0.236
 3794.00    0.53193   0.51757    0.230
 3795.00    0.53237   0.50080    0.227
 3796.00    0.50214   0.48646    0.227
 3797.00    0.48621   0.47852    0.230
 3798.00    0.48584   0.48032    0.236
 3799.00    0.49878   0.49341    0.239
 3800.00    0.52451   0.51661    0.239
 3801.00    0.56139   0.54609    0.240
 3802.00    0.60772   0.57642    0.241
 3803.00    0.64466   0.60250    0.243
 3804.00    0.67461   0.62127    0.245
 3805.00    0.68845   0.63258    0.241
 3806.00    0.69173   0.63861    0.233
 3807.00    0.69341   0.64230    0.231
 3808.00    0.69417   0.64531    0.231
 3809.00    0.66061   0.64702    0.234
 3810.00    0.60990   0.64503    0.239
 3811.00    0.55965   0.63681    0.235
 3812.00    0.50959   0.62160    0.228
 3813.00    0.48488   0.60117    0.225
 3814.00    0.46957   0.57883    0.223
 3815.00    0.46157   0.55778    0.225
 3816.00    0.45587   0.53984    0.228
 3817.00    0.48446   0.52528    0.231
 3818.00    0.52203   0.51337    0.233
 3819.00    0.50540   0.50329    0.230
 3820.00    0.47716   0.49463    0.225
 3821.00    0.46859   0.48712    0.223
 3822.00    0.46335   0.48009    0.222
 3823.00    0.47511   0.47260    0.220
 3824.00    0.48906   0.46418    0.218
 3825.00    0.45134   0.45539    0.224
 3826.00    0.40897   0.44740    0.231
 3827.00    0.42187   0.44089    0.227
 3828.00    0.43775   0.43543    0.223
 3829.00    0.43549   0.42965    0.219
 3830.00    0.43275   0.42210    0.216
 3831.00    0.42044   0.41229    0.219
 3832.00    0.40973   0.40125    0.223
 3833.00    0.43475   0.39102    0.224
 3834.00    0.45614   0.38364    0.224
 3835.00    0.43241   0.38043    0.218
 3836.00    0.40924   0.38176    0.213
 3837.00    0.39076   0.38755    0.212
 3838.00    0.37830   0.39807    0.211
 3839.00    0.40372   0.41381    0.214
 3840.00    0.42095   0.43488    0.217
 3841.00    0.39777   0.46037    0.220
 3842.00    0.38897   0.48806    0.225
 3843.00    0.43777   0.51494    0.232
 3844.00    0.48106   0.53814    0.236
 3845.00    0.50608   0.55560    0.232
 3846.00    0.52458   0.56662    0.230
 3847.00    0.52479   0.57204    0.000
 3848.00    0.52528   0.57360    0.000
 3849.00    0.52643   0.57311    0.000
 3850.00    0.51963   0.57188    0.000
 3851.00    0.49634   0.57039    0.000
 3852.00    0.47969   0.56810    0.000
 3853.00    0.47504   0.56397    0.000
 3854.00    0.49031   0.55724    0.000
 3855.00    0.53699   0.54778    0.000
 3856.00    0.54403   0.53655    0.000
 3857.00    0.49617   0.52578    0.000
 3858.00    0.46553   0.51829    0.000
 3859.00    0.45588   0.51651    0.000
 3860.00    0.46146   0.52150    0.000
 3861.00    0.48343   0.53232    0.000
 3862.00    0.49493   0.54633    0.000
 3863.00    0.49653   0.56000    0.000
 3864.00    0.50766   0.57032    0.000
 3865.00    0.52675   0.57555    0.000
 3866.00    0.55819   0.57541    0.000
 3867.00    0.59869   0.57057    0.000
 3868.00    0.60041   0.56238    0.000
 3869.00    0.57709   0.55278    0.000
 3870.00    0.55196   0.54435    0.000
 3871.00    0.52582   0.53964    0.000
 3872.00    0.52500   0.53998    0.000
 3873.00    0.53662   0.54465    0.000
 3874.00    0.53633   0.55103    0.000
 3875.00    0.53096   0.55592    0.000
 3876.00    0.53169   0.55726    0.000
 3877.00    0.53464   0.55459    0.000
 3878.00    0.52033   0.54887    0.000
 3879.00    0.50070   0.54220    0.000
 3880.00    0.49550   0.53673    0.000
 3881.00    0.49400   0.53294    0.210
 3882.00    0.52782   0.52930    0.212
 3883.00    0.56903   0.52407    0.215
 3884.00    0.56737   0.51659    0.216
 3885.00    0.55864   0.50745    0.217
 3886.00    0.53768   0.49910    0.216
 3887.00    0.51520   0.49558    0.215
 3888.00    0.49593   0.50044    0.211
 3889.00    0.47694   0.51492    0.207
 3890.00    0.52890   0.53738    0.211
 3891.00    0.58440   0.56388    0.216
 3892.00    0.60936   0.58975    0.218
 3893.00    0.63347   0.61166    0.220
 3894.00    0.63479   0.62811    0.222
 3895.00    0.63564   0.63897    0.225
 3896.00    0.62688   0.64547    0.219
 3897.00    0.62353   0.64956    0.214
 3898.00    0.68412   0.65281    0.217
 3899.00    0.73936   0.65544    0.219
 3900.00    0.75105   0.65719    0.219
 3901.00    0.75183   0.65781    0.217
 3902.00    0.68594   0.65686    0.208
 3903.00    0.62705   0.65490    0.201
 3904.00    0.60191   0.65414    0.197
 3905.00    0.59006   0.65707    0.194
 3906.00    0.63028   0.66533    0.196
 3907.00    0.66582   0.67909    0.199
 3908.00    0.68611   0.69697    0.206
 3909.00    0.70150   0.71628    0.211
 3910.00    0.70333   0.73380    0.209
 3911.00    0.70804   0.74695    0.209
 3912.00    0.71957   0.75433    0.215
 3913.00    0.73421   0.75534    0.220
 3914.00    0.75517   0.75024    0.223
 3915.00    0.76379   0.73971    0.226
 3916.00    0.75047   0.72439    0.228
 3917.00    0.73430   0.70515    0.230
 3918.00    0.71369   0.68364    0.230
 3919.00    0.67869   0.66211    0.226
 3920.00    0.62406   0.64272    0.218
 3921.00    0.58929   0.62681    0.214
 3922.00    0.57839   0.61408    0.216
 3923.00    0.57423   0.60243    0.218
 3924.00    0.57721   0.58887    0.220
 3925.00    0.57289   0.57052    0.218
 3926.00    0.56173   0.54570    0.214
 3927.00    0.53867   0.51455    0.214
 3928.00    0.50581   0.47881    0.220
 3929.00    0.45617   0.44129    0.218
 3930.00    0.39438   0.40527    0.213
 3931.00    0.35622   0.37407    0.209
 3932.00    0.33310   0.35081    0.205
 3933.00    0.31219   0.33803    0.202
 3934.00    0.29250   0.33733    0.198
 3935.00    0.28954   0.34897    0.197
 3936.00    0.29468   0.37158    0.196
 3937.00    0.33709   0.40217    0.200
 3938.00    0.39510   0.43659    0.206
 3939.00    0.46109   0.47064    0.210
 3940.00    0.52995   0.50112    0.214
 3941.00    0.53674   0.52668    0.211
 3942.00    0.52477   0.54846    0.207
 3943.00    0.54417   0.56894    0.210
 3944.00    0.57145   0.58981    0.215
 3945.00    0.59336   0.61143    0.216
 3946.00    0.61417   0.63373    0.216
 3947.00    0.64612   0.65624    0.220
 3948.00    0.67985   0.67767    0.225
 3949.00    0.67125   0.69633    0.222
 3950.00    0.65759   0.71133    0.217
 3951.00    0.72398   0.72299    0.221
 3952.00    0.79690   0.73133    0.226
 3953.00    0.78196   0.73548    0.225
 3954.00    0.76299   0.73505    0.224
 3955.00    0.73566   0.73052    0.225
 3956.00    0.70869   0.72196    0.225
 3957.00    0.70616   0.70834    0.223
 3958.00    0.70135   0.68799    0.221
 3959.00    0.65343   0.66013    0.220
 3960.00    0.60535   0.62572    0.000
 3961.00    0.55549   0.58650    0.000
 3962.00    0.51089   0.54416    0.000
 3963.00    0.50771   0.50031    0.000
 3964.00    0.49884   0.45652    0.000
 3965.00    0.45628   0.41461    0.000
 3966.00    0.41428   0.37699    0.000
 3967.00    0.37489   0.34695    0.000
 3968.00    0.34451   0.32813    0.000
 3969.00    0.34866   0.32347    0.000
 3970.00    0.36274   0.33420    0.000
 3971.00    0.40858   0.35961    0.000
 3972.00    0.44344   0.39742    0.000
 3973.00    0.44856   0.44412    0.000
 3974.00    0.47816   0.49574    0.000
 3975.00    0.56458   0.54890    0.000
 3976.00    0.64468   0.60099    0.000
 3977.00    0.71207   0.64969    0.000
 3978.00    0.75467   0.69274    0.000
 3979.00    0.75392   0.72815    0.000
 3980.00    0.76788   0.75535    0.000
 3981.00    0.80437   0.77536    0.227
 3982.00    0.83409   0.79021    0.229
 3983.00    0.85471   0.80230    0.232
 3984.00    0.87468   0.81350    0.232
 3985.00    0.89387   0.82522    0.230
 3986.00    0.90719   0.83767    0.228
 3987.00    0.91437   0.84951    0.228
 3988.00    0.92100   0.85993    0.229
 3989.00    0.92711   0.86911    0.231
 3990.00    0.93787   0.87685    0.229
 3991.00    0.95240   0.88261    0.224
 3992.00    0.96222   0.88575    0.223
 3993.00    0.96867   0.88603    0.224
 3994.00    0.96996   0.88384    0.225
 3995.00    0.96801   0.88057    0.226
 3996.00    0.96358   0.87908    0.228
 3997.00    0.95779   0.88212    0.229
 3998.00    0.94516   0.89000    0.227
 3999.00    0.92927   0.90095    0.223
 4000.00    0.92433   0.91256    0.223
 4001.00    0.92388   0.92109    0.224
 4002.00    0.92222   0.92248    0.228
 4003.00    0.92012   0.91597    0.231
 4004.00    0.92759   0.90564    0.230
 4005.00    0.93789   0.89680    0.228
 4006.00    0.92331   0.89287    0.226
 4007.00    0.90262   0.89540    0.223
 4008.00    0.92768   0.90426    0.225
 4009.00    0.96184   0.91748    0.227
 4010.00    0.99335   0.93236    0.227
 4011.00    1.02445   0.94670    0.227
 4012.00    1.03646   0.95917    0.229
 4013.00    1.04628   0.96954    0.232
 4014.00    1.06322   0.97747    0.234
 4015.00    1.08071   0.98274    0.235
 4016.00    1.06332   0.98667    0.230
 4017.00    1.04446   0.99021    0.225
 4018.00    1.06763   0.99245    0.227
 4019.00    1.09014   0.99270    0.228
 4020.00    1.06726   0.99114    0.229
 4021.00    1.04568   0.98779    0.230
 4022.00    1.04685   0.98282    0.229
 4023.00    1.04965   0.97788    0.229
 4024.00    1.06989   0.97485    0.229
 4025.00    1.08308   0.97370    0.229
 4026.00    1.04277   0.97248    0.231
 4027.00    1.00186   0.96721    0.232
 4028.00    0.95746   0.95409    0.235
 4029.00    0.92389   0.93349    0.238
 4030.00    0.93999   0.90897    0.241
 4031.00    0.93532   0.88515    0.240
 4032.00    0.85272   0.86822    0.228
 4033.00    0.79798   0.86359    0.225
 4034.00    0.83057   0.87357    0.251
 4035.00    0.89020   0.89609    0.274
 4036.00    1.02176   0.92512    0.279
 4037.00    1.10109   0.95334    0.280
 4038.00    1.06111   0.97450    0.275
 4039.00    1.03953   0.98528    0.264
 4040.00    1.05431   0.98470    0.246
 4041.00    1.04941   0.97179    0.233
 4042.00    1.01058   0.94697    0.228
 4043.00    0.97460   0.91506    0.225
 4044.00    0.94293   0.88520    0.226
 4045.00    0.92452   0.86651    0.226
 4046.00    0.92369   0.86276    0.225
 4047.00    0.93148   0.87316    0.224
 4048.00    0.94933   0.89442    0.223
 4049.00    0.97384   0.92013    0.223
 4050.00    1.00520   0.94289    0.224
 4051.00    1.00000   0.95761    0.225
 4052.00    0.96159   0.96207    0.226
 4053.00    0.95199   0.95725    0.228
 4054.00    0.96543   0.94647    0.233
 4055.00    0.93772   0.93263    0.230
 4056.00    0.88104   0.91892    0.222
 4057.00    0.85291   0.90872    0.219
 4058.00    0.84241   0.90254    0.218
 4059.00    0.87034   0.89749    0.220
 4060.00    0.91900   0.88964    0.222
 4061.00    0.90097   0.87773    0.222
 4062.00    0.85167   0.86536    0.222
 4063.00    0.82242   0.85726    0.219
 4064.00    0.80127   0.85474    0.215
 4065.00    0.84050   0.85805    0.217
 4066.00    0.90055   0.86789    0.221
 4067.00    0.91065   0.88210    0.221
 4068.00    0.90623   0.89497    0.219
 4069.00    0.90277   0.90191    0.219
 4070.00    0.89953   0.90379    0.219
 4071.00    0.90123   0.90386    0.219
 4072.00    0.90389   0.90242    0.219
 4073.00    0.94460   0.89803    0.220
 4074.00    0.99104   0.89060    0.221
 4075.00    0.97873   0.88228    0.220
 4076.00    0.95993   0.87726    0.218
 4077.00    0.93097   0.87932    0.217
 4078.00    0.90126   0.89006    0.216
 4079.00    0.90623   0.90822    0.218
 4080.00    0.91252   0.92954    0.220
 4081.00    0.91079   0.94948    0.219
 4082.00    0.91062   0.96586    0.219
 4083.00    0.97093   0.97863    0.220
 4084.00    1.02642   0.98952    0.221
 4085.00    1.00260   1.00103    0.222
 4086.00    0.98284   1.01413    0.222
 4087.00    1.00499   1.02743    0.223
 4088.00    1.02604   1.03849    0.223
 4089.00    1.03894   1.04503    0.225
 4090.00    1.04948   1.04542    0.227
 4091.00    1.04676   1.03948    0.227
 4092.00    1.03958   1.02727    0.000
 4093.00    1.01245   1.00799    0.000
 4094.00    0.97688   0.98255    0.000
 4095.00    0.91027   0.95373    0.000
 4096.00    0.86438   0.92365    0.000
 4097.00    0.88223   0.89328    0.000
 4098.00    0.89342   0.86299    0.000
 4099.00    0.88719   0.83452    0.000
 4100.00    0.89127   0.81247    0.000
 4101.00    0.91851   0.80140    0.000
 4102.00    0.92469   0.80274    0.000
 4103.00    0.88993   0.81587    0.000
 4104.00    0.87228   0.83832    0.000
 4105.00    0.88369   0.86521    0.000
 4106.00    0.89640   0.89122    0.000
 4107.00    0.91104   0.91251    0.000
 4108.00    0.92523   0.92744    0.000
 4109.00    0.93883   0.93692    0.000
 4110.00    0.96455   0.94351    0.000
 4111.00    1.00420   0.95006    0.000
 4112.00    1.02243   0.95800    0.000
 4113.00    1.01893   0.96692    0.222
 4114.00    1.00283   0.97553    0.220
 4115.00    0.97547   0.98170    0.214
 4116.00    0.95748   0.98301    0.212
 4117.00    0.94689   0.97948    0.212
 4118.00    0.96775   0.97383    0.216
 4119.00    1.01044   0.96818    0.221
 4120.00    0.98748   0.96346    0.326
 4121.00    0.92456   0.96088    1.266
 4122.00    0.90422   0.96158   -1.000
 4123.00    0.90651   0.96480   -1.000
 4124.00    0.91470   0.96764   -1.000
 4125.00    0.92561   0.96750   -1.000
 4126.00    0.94551   0.96333   -1.000
 4127.00    0.96897   0.95526   -1.000
 4128.00    0.95494   0.94374    0.566
 4129.00    0.92822   0.92949    0.242
 4130.00    0.89699   0.91419    0.213
 4131.00    0.86449   0.90136    0.210
 4132.00    0.85824   0.89478    0.209
 4133.00    0.85816   0.89686    0.208
 4134.00    0.88820   0.90758    0.209
 4135.00    0.92392   0.92374    0.211
 4136.00    0.92772   0.94146    0.211
 4137.00    0.92686   0.95727    0.210
 4138.00    0.92164   0.96724    0.214
 4139.00    0.91595   0.96794    0.218
 4140.00    0.91995   0.95746    0.219
 4141.00    0.92463   0.93752    0.219
 4142.00    0.90984   0.91504    0.218
 4143.00    0.89437   0.89789    0.217
 4144.00    0.92506   0.88962    0.217
 4145.00    0.95375   0.88933    0.217
 4146.00    0.91329   0.89452    0.215
 4147.00    0.87382   0.90176    0.214
 4148.00    0.84961   0.90798    0.213
 4149.00    0.83032   0.91171    0.213
 4150.00    0.85946   0.91240    0.211
 4151.00    0.88371   0.91008    0.211
 4152.00    0.87319   0.90585    0.214
 4153.00    0.87021   0.90189    0.217
 4154.00    0.90833   0.90029    0.219
 4155.00    0.94085   0.90248    0.220
 4156.00    0.94892   0.90974    0.219
 4157.00    0.95177   0.92206    0.218
 4158.00    0.93587   0.93740    0.217
 4159.00    0.91195   0.95355    0.215
 4160.00    0.86383   0.96924    0.213
 4161.00    0.84839   0.98282    0.213
 4162.00    0.91688   0.99154    0.216
 4163.00    0.96014   0.99417    0.218
 4164.00    0.94770   0.99135    0.217
 4165.00    0.94337   0.98393    0.216
 4166.00    0.95458   0.97384    0.217
 4167.00    0.95364   0.96359    0.217
 4168.00    0.93238   0.95334    0.217
 4169.00    0.91395   0.94109    0.217
 4170.00    0.89967   0.92553    0.218
 4171.00    0.86607   0.90840    0.216
 4172.00    0.80759   0.89325    0.211
 4173.00    0.79798   0.88236    0.209
 4174.00    0.84382   0.87604    0.213
 4175.00    0.85438   0.87378    0.215
 4176.00    0.82963   0.87524    0.214
 4177.00    0.82834   0.88065    0.212
 4178.00    0.84777   0.88912    0.209
 4179.00    0.85800   0.89830    0.208
 4180.00    0.86108   0.90656    0.209
 4181.00    0.86076   0.91431    0.210
 4182.00    0.85812   0.92246    0.210
 4183.00    0.85323   0.93061    0.210
 4184.00    0.84700   0.93666    0.210
 4185.00    0.85502   0.93865    0.210
 4186.00    0.87050   0.93840    0.211
 4187.00    0.90580   0.93981    0.208
 4188.00    0.95007   0.94356    0.204
 4189.00    0.97762   0.94801    0.203
 4190.00    0.99865   0.95302    0.203
 4191.00    0.97893   0.95894    0.203
 4192.00    0.94567   0.96289    0.203
 4193.00    0.93643   0.96064    0.204
 4194.00    0.93389   0.95116    0.207
 4195.00    0.93436   0.93619    0.206
 4196.00    0.93552   0.91818    0.206
 4197.00    0.92808   0.90034    0.205
 4198.00    0.91906   0.88639    0.204
 4199.00    0.92458   0.87766    0.203
 4200.00    0.93215   0.87411    0.203
 4201.00    0.93808   0.87748    0.200
 4202.00    0.94384   0.88853    0.197
 4203.00    0.94269   0.90508    0.199
 4204.00    0.94109   0.92492    0.201
 4205.00    0.95462   0.94643    0.201
 4206.00    0.96859   0.96715    0.202
 4207.00    0.96605   0.98423    0.202
 4208.00    0.96474   0.99589    0.202
 4209.00    0.99936   1.00241    0.203
 4210.00    1.03253   1.00487    0.204
 4211.00    1.04455   1.00326    0.205
 4212.00    1.05159   0.99737    0.205
 4213.00    1.01149   0.98865    0.201
 4214.00    0.97497   0.98149    0.197
 4215.00    0.96308   0.98166    0.195
 4216.00    0.95646   0.99060    0.193
 4217.00    0.97789   1.00429    0.194
 4218.00    0.99639   1.01785    0.195
 4219.00    1.00243   1.02706    0.194
 4220.00    1.00884   1.02668    0.194
 4221.00    1.01659   1.01232    0.195
 4222.00    1.00771   0.98351    0.196
 4223.00    0.94957   0.94305    0.197
 4224.00    0.89299   0.89683    0.197
 4225.00    0.84035   0.85511    0.194
 4226.00    0.81046   0.83000    0.192
 4227.00    0.82999   0.82746    0.192
 4228.00    0.84632   0.84416    0.191
 4229.00    0.85662   0.87296    0.189
 4230.00    0.88154   0.90570    0.189
 4231.00    0.93054   0.93411    0.191
 4232.00    0.96886   0.95440    0.192
 4233.00    0.99178   0.96654    0.192
 4234.00    1.00519   0.97033    0.192
 4235.00    1.00652   0.96885    0.192
 4236.00    0.99889   0.96806    0.191
 4237.00    0.98125   0.97092    0.189
 4238.00    0.97683   0.97870    0.188
 4239.00    0.98545   0.99270    0.186
 4240.00    0.99423   1.01138    0.186
 4241.00    1.00316   1.03112    0.185
 4242.00    1.01773   1.05016    0.189
 4243.00    1.03663   1.06628    0.195
 4244.00    1.03864   1.07445    0.197
 4245.00    1.02926   1.07161    0.197
 4246.00    1.03156   1.05905    0.200
 4247.00    1.04076   1.03974    0.204
 4248.00    1.03431   1.01644    0.205
 4249.00    1.01981   0.99327    0.204
 4250.00    0.99104   0.97549    0.203
 4251.00    0.95590   0.96439    0.202
 4252.00    0.95320   0.95730    0.201
 4253.00    0.96292   0.95395    0.200
 4254.00    0.95517   0.95655    0.199
 4255.00    0.94173   0.96435    0.197
 4256.00    0.92580   0.97224    0.194
 4257.00    0.90919   0.97562    0.191
 4258.00    0.94277   0.97506    0.193
 4259.00    0.98760   0.97547    0.197
 4260.00    0.99488   0.98278    0.199
 4261.00    0.99546   0.99909    0.201
 4262.00    1.00296   1.02058    0.203
 4263.00    1.01141   1.04229    0.205
 4264.00    1.02328   1.06091    0.206
 4265.00    1.03550   1.07180    0.207
 4266.00    1.02088   1.07001    0.205
 4267.00    1.00463   1.05439    0.203
 4268.00    1.00922   1.02610    0.227
 4269.00    1.01421   0.98773    0.258
 4270.00    0.98567   0.94645    0.257
 4271.00    0.95521   0.91250    0.256
 4272.00    0.87393   0.89141    0.252
 4273.00    0.79968   0.88370    0.247
 4274.00    0.82197   0.89088    0.218
 4275.00    0.84959   0.91249    0.197
 4276.00    0.92549   0.94254    0.199
 4277.00    0.99263   0.97320    0.200
 4278.00    1.00142   0.99753    0.202
 4279.00    1.00911   1.01268    0.203
 4280.00    1.01108   1.02107    0.201
 4281.00    1.00849   1.02410    0.199
 4282.00    0.98679   1.02167   -2.000
 4283.00    0.97126   1.01400   -2.000
 4284.00    0.97701   1.00180   -2.000
 4285.00    0.97888   0.98780   -2.000
 4286.00    0.96950   0.97338   -2.000
 4287.00    0.96653   0.95650   -2.000
 4288.00    0.97945   0.93772   -2.000
 4289.00    0.98360   0.92289   -2.000
 4290.00    0.96900   0.91679   -2.000
 4291.00    0.94886   0.91871   -2.000
 4292.00    0.91844   0.92345   -2.000
 4293.00    0.90739   0.92611   -2.000
 4294.00    0.92777   0.92576   -2.000
 4295.00    0.92987   0.92056   -2.000
 4296.00    0.90597   0.90691   -2.000
 4297.00    0.87702   0.88376   -2.000
 4298.00    0.84173   0.85408    0.194
 4299.00    0.81372   0.82499    0.191
 4300.00    0.79372   0.80177    0.190
 4301.00    0.78893   0.78385    0.190
 4302.00    0.79894   0.77066    0.192
 4303.00    0.78473   0.76218    0.191
 4304.00    0.74975   0.75582    0.187
 4305.00    0.73230   0.75003    0.186
 4306.00    0.72810   0.74468    0.187
 4307.00    0.72425   0.74171    0.186
 4308.00    0.72062   0.74639    0.182
 4309.00    0.72152   0.76212    0.181
 4310.00    0.72506   0.78906    0.182
 4311.00    0.76842   0.82681    0.182
 4312.00    0.83195   0.87411    0.183
 4313.00    0.90393   0.92889    0.185
 4314.00    0.97960   0.98988    0.188
 4315.00    1.02516   1.05220    0.191
 4316.00    1.05938   1.10609    0.194
 4317.00    1.09104   1.14510    0.197
 4318.00    1.12188   1.16738    0.200
 4319.00    1.14777   1.17195    0.203
 4320.00    1.17234   1.15984    0.205
 4321.00    1.16026   1.13347    0.202
 4322.00    1.14017   1.09473    0.198
 4323.00    1.09155   1.05092    0.196
 4324.00    1.03797   1.01378    0.194
 4325.00    1.00920   0.99421    0.193
 4326.00    0.98372   0.99752    0.192
 4327.00    0.99957   1.01914    0.192
 4328.00    1.01927   1.04950    0.191
 4329.00    1.08070   1.08232    0.192
 4330.00    1.14452   1.11518    0.000
 4331.00    1.14455   1.14413    0.000
 4332.00    1.14306   1.16309    0.000
 4333.00    1.13637   1.16824    0.000
 4334.00    1.13064   1.15853    0.000
 4335.00    1.14782   1.13301    0.000
 4336.00    1.15880   1.09400    0.000
 4337.00    1.08913   1.04958    0.000
 4338.00    1.02400   1.00720    0.000
 4339.00    0.99864   0.97308    0.000
 4340.00    0.97934   0.95530    0.000
 4341.00    0.99913   0.95661    0.000
 4342.00    1.02045   0.97251    0.000
 4343.00    1.04942   0.99991    0.000
 4344.00    1.07758   1.03532    0.000
 4345.00    1.10249   1.07083    0.000
 4346.00    1.11801   1.10121    0.000
 4347.00    1.10176   1.12493    0.000
 4348.00    1.09309   1.13845    0.000
 4349.00    1.10601   1.13773    0.000
 4350.00    1.10414   1.12504    0.000
 4351.00    1.06619   1.11055   -1.000
 4352.00    1.04035   1.10283   -1.000
 4353.00    1.03998   1.10213   -1.000
 4354.00    1.04581   1.10639   -1.000
 4355.00    1.06299   1.11634   -1.000
 4356.00    1.09398   1.13087   -1.000
 4357.00    1.14703   1.14617   -1.000
 4358.00    1.19015   1.16089   -1.000
 4359.00    1.21934   1.17685   -1.000
 4360.00    1.24675   1.19407   -1.000
 4361.00    1.27196   1.20960   -1.000
 4362.00    1.28014   1.22203    0.814
 4363.00    1.26980   1.23287    0.264
 4364.00    1.24689   1.24072    0.199
 4365.00    1.21191   1.24072    0.200
 4366.00    1.19929   1.23168    0.201
 4367.00    1.20559   1.21784    0.201
 4368.00    1.19184   1.20307    0.200
 4369.00    1.16316   1.18750    0.200
 4370.00    1.14322   1.17120    0.200
 4371.00    1.12900   1.15485    0.200
 4372.00    1.12453   1.13831    0.199
 4373.00    1.12567   1.12277    0.198
 4374.00    1.11026   1.11189    0.198
 4375.00    1.08661   1.10850    0.197
 4376.00    1.07187   1.11049    0.198
 4377.00    1.06097   1.11121    0.199
 4378.00    1.04816   1.10543    0.198
 4379.00    1.03464   1.09212    0.197
 4380.00    1.04951   1.07075    0.198
 4381.00    1.07329   1.03884    0.199
 4382.00    1.03566   0.99928    0.199
 4383.00    0.98195   0.96503    0.199
 4384.00    0.97300   0.94786    0.195
 4385.00    0.97361   0.94796    0.190
 4386.00    0.98951   0.95838    0.191
 4387.00    1.00800   0.97513    0.194
 4388.00    1.01880   0.99750    0.193
 4389.00    1.02862   1.02298    0.192
 4390.00    1.05168   1.04832    0.194
 4391.00    1.07591   1.07084    0.196
 4392.00    1.07527   1.08881    0.196
 4393.00    1.07331   1.10296    0.196
 4394.00    1.09739   1.11696    0.198
 4395.00    1.12161   1.13410    0.200
 4396.00    1.11570   1.15101    0.198
 4397.00    1.11007   1.16026    0.196
 4398.00    1.11060   1.15905    0.195
 4399.00    1.11282   1.14988    0.195
 4400.00    1.13583   1.13812    0.199
 4401.00    1.15002   1.12444    0.203
 4402.00    1.08994   1.10244    0.201
 4403.00    1.04040   1.07342    0.200
 4404.00    1.05692   1.05096    0.199
 4405.00    1.06912   1.04341    0.198
 4406.00    1.06009   1.04644    0.197
 4407.00    1.05522   1.05577    0.196
 4408.00    1.06701   1.07411    0.194
 4409.00    1.08134   1.10174    0.192
 4410.00    1.10412   1.13160    0.195
 4411.00    1.13004   1.15586    0.197
 4412.00    1.16474   1.16964    0.199
 4413.00    1.19085   1.17159    0.201
 4414.00    1.19636   1.16740    0.201
 4415.00    1.19858   1.16552    0.201
 4416.00    1.19400   1.16791    0.204
 4417.00    1.18869   1.17395    0.204
 4418.00    1.18210   1.18315    0.200
 4419.00    1.17892   1.19268    0.198
 4420.00    1.18110   1.19931    0.199
 4421.00    1.19578   1.20150    0.200
 4422.00    1.22775   1.20147    0.201
 4423.00    1.23179   1.20099    0.200
 4424.00    1.20183   1.19821    0.198
 4425.00    1.18543   1.19375    0.198
 4426.00    1.18356   1.19106    0.199
 4427.00    1.17810   1.19153    0.199
 4428.00    1.16922   1.19108    0.198
 4429.00    1.15796   1.18602    0.196
 4430.00    1.14471   1.18071    0.195
 4431.00    1.14631   1.17703    0.196
 4432.00    1.15881   1.17096    0.200
 4433.00    1.17153   1.16218    0.203
 4434.00    1.18439   1.15605    0.207
 4435.00    1.17577   1.15938    0.206
 4436.00    1.15502   1.17183    0.203
 4437.00    1.15853   1.18680    0.201
 4438.00    1.17394   1.19995    0.200
 4439.00    1.18049   1.20886    0.199
 4440.00    1.18327   1.21270    0.199
 4441.00    1.17815   1.21332    0.199
 4442.00    1.17014   1.21407    0.200
 4443.00    1.17155   1.21887    0.201
 4444.00    1.17585   1.22848    0.202
 4445.00    1.19681   1.23938    0.203
 4446.00    1.22205   1.24968    0.204
 4447.00    1.27447   1.26091    0.204
 4448.00    1.33257   1.26934    0.205
 4449.00    1.32101   1.26931    0.205
 4450.00    1.29800   1.26155    0.204
 4451.00    1.27968   1.24733    0.202
 4452.00    1.26194   1.22618    0.199
 4453.00    1.21889   1.19882    0.198
 4454.00    1.17369   1.16964    0.197
 4455.00    1.12463   1.14559    0.195
 4456.00    1.07537   1.12711    0.194
 4457.00    1.09794   1.11142    0.195
 4458.00    1.12084   1.10013    0.197
 4459.00    1.09317   1.09584    0.194
 4460.00    1.06746   1.09764    0.192
 4461.00    1.08146   1.10574    0.000
 4462.00    1.09567   1.12146    0.000
 4463.00    1.11222   1.13961    0.000
 4464.00    1.13012   1.15548    0.000
 4465.00    1.15897   1.16979    0.000
 4466.00    1.18665   1.18378    0.000
 4467.00    1.20714   1.19643    0.000
 4468.00    1.22373   1.20569    0.000
 4469.00    1.22157   1.21484    0.000
 4470.00    1.22812   1.22822    0.000
 4471.00    1.26870   1.24642    0.000
 4472.00    1.29573   1.26771    0.000
 4473.00    1.27873   1.28831    0.000
 4474.00    1.26438   1.30567    0.000
 4475.00    1.25733   1.32022    0.000
 4476.00    1.26248   1.33084    0.000
 4477.00    1.29635   1.33313    0.000
 4478.00    1.30921   1.32432    0.000
 4479.00    1.27925   1.30826    0.000
 4480.00    1.25630   1.29317    0.000
 4481.00    1.24578   1.28452    0.000
 4482.00    1.24473   1.28374    0.192
 4483.00    1.25837   1.28860    0.193
 4484.00    1.27441   1.29655    0.195
 4485.00    1.29372   1.30590    0.195
 4486.00    1.29812   1.31234    0.195
 4487.00    1.28465   1.31185    0.196
 4488.00    1.27680   1.30423    0.196
 4489.00    1.27489   1.29375    0.196
 4490.00    1.27333   1.28484    0.196
 4491.00    1.27210   1.27724    0.195
 4492.00    1.27290   1.26852    0.195
 4493.00    1.27537   1.25942    0.196
 4494.00    1.27398   1.25564    0.196
 4495.00    1.26977   1.25964    0.195
 4496.00    1.27360   1.26950    0.195
 4497.00    1.28252   1.28356    0.194
 4498.00    1.28641   1.30030    0.193
 4499.00    1.28751   1.31888    0.192
 4500.00    1.32021   1.33797    0.194
 4501.00    1.36817   1.35981    0.199
 4502.00    1.38543   1.38479    0.199
 4503.00    1.38987   1.40627    0.197
 4504.00    1.39882   1.42053    0.196
 4505.00    1.40938   1.42888    0.195
 4506.00    1.39371   1.43382    0.195
 4507.00    1.37013   1.43592    0.195
 4508.00    1.37154   1.43372    0.194
 4509.00    1.37920   1.42756    0.192
 4510.00    1.36976   1.41800    0.192
 4511.00    1.35684   1.40493    0.191
 4512.00    1.32432   1.39059    0.191
 4513.00    1.28868   1.37753    0.192
 4514.00    1.29638   1.36753    0.193
 4515.00    1.30922   1.36071    0.194
 4516.00    1.33231   1.35454    0.194
 4517.00    1.35624   1.35039    0.194
 4518.00    1.32350   1.35161    0.193
 4519.00    1.28819   1.35565    0.191
 4520.00    1.31536   1.35684    0.193
 4521.00    1.34254   1.34929    0.194
 4522.00    1.33147   1.33459    0.194
 4523.00    1.32009   1.31733    0.193
 4524.00    1.30278   1.29463    0.193
 4525.00    1.28430   1.26564    0.193
 4526.00    1.25281   1.23487    0.193
 4527.00    1.22068   1.20783    0.192
 4528.00    1.18360   1.18846    0.189
 4529.00    1.15380   1.17640    0.187
 4530.00    1.16697   1.17155    0.188
 4531.00    1.17955   1.17542    0.189
 4532.00    1.18934   1.18370    0.190
 4533.00    1.19628   1.19331    0.191
 4534.00    1.19237   1.20630    0.191
 4535.00    1.19957   1.22625    0.192
 4536.00    1.24222   1.25261    0.194
 4537.00    1.27525   1.27526    0.195
 4538.00    1.28233   1.29003    0.191
 4539.00    1.29223   1.30048    0.189
 4540.00    1.30866   1.30987    0.188
 4541.00    1.31989   1.31855    0.189
 4542.00    1.32070   1.32147    0.190
 4543.00    1.31548   1.31616    0.191
 4544.00    1.29975   1.30810    0.192
 4545.00    1.29382   1.30361    0.192
 4546.00    1.30283   1.30141    0.191
 4547.00    1.30316   1.29621    0.191
 4548.00    1.29183   1.28698    0.193
 4549.00    1.27565   1.28102    0.193
 4550.00    1.25375   1.28120    0.000
 4551.00    1.24648   1.28127    0.000
 4552.00    1.25446   1.28048    0.000
 4553.00    1.26851   1.28233    0.000
 4554.00    1.28814   1.29010    0.000
 4555.00    1.31099   1.30484    0.000
 4556.00    1.33645   1.32347    0.000
 4557.00    1.34685   1.34204    0.000
 4558.00    1.34653   1.35805    0.000
 4559.00    1.36448   1.37048    0.000
 4560.00    1.39388   1.37992    0.000
 4561.00    1.39858   1.38467    0.000
 4562.00    1.38977   1.38091    0.000
 4563.00    1.36906   1.37173    0.000
 4564.00    1.34269   1.36412    0.000
 4565.00    1.34877   1.36231    0.000
 4566.00    1.36816   1.36568    0.000
 4567.00    1.37174   1.36972    0.000
 4568.00    1.36979   1.37364    0.000
 4569.00    1.36656   1.37764    0.000
 4570.00    1.36294   1.37917    0.000
 4571.00    1.36805   1.38160    0.000
 4572.00    1.37529   1.38706    0.000
 4573.00    1.35910   1.38913    0.000
 4574.00    1.33826   1.38562    0.000
 4575.00    1.35169   1.38076    0.000
 4576.00    1.37041   1.37650    0.000
 4577.00    1.36414   1.36890    0.000
 4578.00    1.35500   1.35382    0.000
 4579.00    1.34218   1.33569    0.000
 4580.00    1.32909   1.32183    0.000
 4581.00    1.33129   1.31379    0.000
 4582.00    1.33412   1.30862    0.000
 4583.00    1.33010   1.30604    0.000
 4584.00    1.32574   1.30830    0.000
 4585.00    1.30937   1.31552    0.000
 4586.00    1.29538   1.32698    0.000
 4587.00    1.32295   1.33952    0.000
 4588.00    1.34768   1.34940    0.000
 4589.00    1.34195   1.35408    0.000
 4590.00    1.33810   1.35297    0.000
 4591.00    1.34842   1.34860    0.000
 4592.00    1.35108   1.34277    0.000
 4593.00    1.30968   1.33453    0.000
 4594.00    1.28199   1.32432    0.000
 4595.00    1.31694   1.31596    0.000
 4596.00    1.34086   1.31183    0.000
 4597.00    1.32351   1.31149    0.000
 4598.00    1.30812   1.31313    0.000
 4599.00    1.29887   1.31353    0.000
 4600.00    1.30172   1.31508    0.000
 4601.00    1.33674   1.32038    0.000
 4602.00    1.35864   1.32732    0.000
 4603.00    1.35066   1.33502    0.000
 4604.00    1.35059   1.34368    0.000
 4605.00    1.36614   1.35650    0.000
 4606.00    1.38095   1.37424    0.000
 4607.00    1.39450   1.39385    0.000
 4608.00    1.39850   1.41150    0.000
 4609.00    1.38811   1.42398    0.000
 4610.00    1.38320   1.43201    0.000
 4611.00    1.38552   1.43731    0.000
 4612.00    1.38860   1.43949    0.000
 4613.00    1.39258   1.43973    0.000
 4614.00    1.39551   1.43954    0.000
 4615.00    1.39738   1.43892    0.000
 4616.00    1.40161   1.44032    0.000
 4617.00    1.40797   1.44242    0.000
 4618.00    1.40648   1.44290    0.000
 4619.00    1.39869   1.44446    0.000
 4620.00    1.42369   1.44743    0.000
 4621.00    1.47171   1.44820    0.000
 4622.00    1.48202   1.44720    0.000
 4623.00    1.46907   1.44651    0.000
 4624.00    1.44153   1.44500    0.000
 4625.00    1.40614   1.44239    0.000
 4626.00    1.41444   1.44060    0.000
 4627.00    1.44319   1.43870    0.000
 4628.00    1.46009   1.43409    0.000
 4629.00    1.47223   1.42980    0.000
 4630.00    1.44947   1.42860    0.000
 4631.00    1.41471   1.42484    0.000
 4632.00    1.41758   1.41479    0.000
 4633.00    1.43134   1.40349    0.000
 4634.00    1.39562   1.39409    0.000
 4635.00    1.34805   1.38366    0.000
 4636.00    1.35577   1.37019    0.000
 4637.00    1.37418   1.35737    0.000
 4638.00    1.35952   1.34799    0.000
 4639.00    1.33990   1.34080    0.000
 4640.00    1.32390   1.33625    0.000
 4641.00    1.30830   1.33215    0.000
 4642.00    1.29390   1.32519    0.000
 4643.00    1.27958   1.31630    0.000
 4644.00    1.26900   1.30668    0.000
 4645.00    1.25856   1.29552    0.000
 4646.00    1.26352   1.28537    0.000
 4647.00    1.26847   1.28098    0.000
 4648.00    1.27016   1.28357    0.000
 4649.00    1.27356   1.29102    0.000
 4650.00    1.30474   1.30155    0.000
 4651.00    1.33152   1.31514    0.000
 4652.00    1.31337   1.32975    0.000
 4653.00    1.29894   1.34105    0.000
 4654.00    1.31174   1.34987    0.000
 4655.00    1.32537   1.35937    0.000
 4656.00    1.34363   1.37075    0.000
 4657.00    1.35332   1.38388    0.000
 4658.00    1.32476   1.39631    0.000
 4659.00    1.31319   1.40518    0.000
 4660.00    1.36389   1.40718    0.000
 4661.00    1.40147   1.40015    0.000
 4662.00    1.39881   1.38450    0.000
 4663.00    1.38738   1.36345    0.000
 4664.00    1.35307   1.33887    0.000
 4665.00    1.32146   1.31029    0.000
 4666.00    1.29591   1.28280    0.000
 4667.00    1.27605   1.26625    0.000
 4668.00    1.26728   1.26358    0.000
 4669.00    1.26542   1.26972    0.000
 4670.00    1.27531   1.28120    0.000
 4671.00    1.28274   1.29742    0.000
 4672.00    1.28653   1.31609    0.000
 4673.00    1.30385   1.33342    0.000
 4674.00    1.33882   1.34736    0.000
 4675.00    1.34922   1.35740    0.000
 4676.00    1.33138   1.36092    0.000
 4677.00    1.31182   1.35793    0.000
 4678.00    1.29052   1.35285    0.000
 4679.00    1.28885   1.34802    0.000
 4680.00    1.30470   1.34273    0.000
 4681.00    1.31398   1.33846    0.000
 4682.00    1.31809   1.33828    0.000
 4683.00    1.31535   1.34098    0.000
 4684.00    1.30788   1.34423    0.000
 4685.00    1.32110   1.34785    0.000
 4686.00    1.34689   1.35067    0.000
 4687.00    1.34757   1.35206    0.000
 4688.00    1.33494   1.35304    0.000
 4689.00    1.33638   1.35335    0.000
 4690.00    1.34429   1.35300    0.000
 4691.00    1.32852   1.35433    0.000
 4692.00    1.30337   1.35762    0.000
 4693.00    1.30910   1.36056    0.000
 4694.00    1.32524   1.36285    0.000
 4695.00    1.34059   1.36412    0.000
 4696.00    1.35570   1.36082    0.000
 4697.00    1.33965   1.35079    0.000
 4698.00    1.31630   1.33868    0.000
 4699.00    1.30881   1.32896    0.000
 4700.00    1.30430   1.31899    0.000
 4701.00    1.28329   1.30707    0.000
 4702.00    1.25988   1.29764    0.000
 4703.00    1.30331   1.29560    0.000
 4704.00    1.35381   1.29767    0.000
 4705.00    1.30651   1.29866    0.000
 4706.00    1.25250   1.29935    0.000
 4707.00    1.25587   1.30276    0.000
 4708.00    1.26120   1.30803    0.000
 4709.00    1.28254   1.31391    0.000
 4710.00    1.30307   1.32181    0.000
 4711.00    1.29619   1.33070    0.000
 4712.00    1.29087   1.33871    0.000
 4713.00    1.30950   1.34660    0.000
 4714.00    1.32792   1.35849    0.000
 4715.00    1.34433   1.37526    0.000
 4716.00    1.36340   1.39203    0.000
 4717.00    1.40130   1.40701    0.000
 4718.00    1.43218   1.42353    0.000
 4719.00    1.42485   1.44122    0.000
 4720.00    1.41959   1.45433    0.000
 4721.00    1.42341   1.45942    0.000
 4722.00    1.42128   1.45877    0.000
 4723.00    1.39785   1.45494    0.000
 4724.00    1.38152   1.44630    0.000
 4725.00    1.38654   1.42998    0.000
 4726.00    1.38399   1.40706    0.000
 4727.00    1.36204   1.38422    0.000
 4728.00    1.34360   1.36608    0.000
 4729.00    1.33288   1.35186    0.000
 4730.00    1.32337   1.34176    0.000
 4731.00    1.31615   1.33848    0.000
 4732.00    1.32051   1.34236    0.000
 4733.00    1.34416   1.35157    0.000
 4734.00    1.34564   1.36339    0.000
 4735.00    1.31471   1.37275    0.000
 4736.00    1.31942   1.38041    0.000
 4737.00    1.36997   1.39153    0.000
 4738.00    1.40949   1.40304    0.000
 4739.00    1.43652   1.40875    0.000
 4740.00    1.44558   1.41216    0.000
 4741.00    1.43670   1.42001    0.000
 4742.00    1.44507   1.42967    0.000
 4743.00    1.46864   1.43508    0.000
 4744.00    1.49135   1.43831    0.000
 4745.00    1.51339   1.44502    0.000
 4746.00    1.52313   1.45275    0.000
 4747.00    1.52449   1.45567    0.000
 4748.00    1.49803   1.45522    0.000
 4749.00    1.45492   1.45458    0.000
 4750.00    1.44172   1.45161    0.000
 4751.00    1.44412   1.44371    0.000
 4752.00    1.44479   1.43402    0.000
 4753.00    1.44467   1.42503    0.000
 4754.00    1.43128   1.41714    0.000
 4755.00    1.41272   1.41035    0.000
 4756.00    1.40313   1.40486    0.000
 4757.00    1.39652   1.40028    0.000
 4758.00    1.41292   1.39683    0.000
 4759.00    1.43572   1.39307    0.000
 4760.00    1.42947   1.38487    0.000
 4761.00    1.41656   1.37233    0.185
 4762.00    1.39898   1.36059    0.185
 4763.00    1.38053   1.35062    0.184
 4764.00    1.37206   1.34041    0.185
 4765.00    1.36499   1.33299    0.186
 4766.00    1.35138   1.33314    0.185
 4767.00    1.33712   1.33999    0.184
 4768.00    1.36140   1.35123    0.185
 4769.00    1.38817   1.36568    0.185
 4770.00    1.40739   1.38010    0.187
 4771.00    1.42638   1.39353    0.188
 4772.00    1.44126   1.40879    0.187
 4773.00    1.45530   1.42496    0.185
 4774.00    1.44464   1.43642    0.183
 4775.00    1.43457   1.44318    0.180
 4776.00    1.43294   1.45062    0.181
 4777.00    1.43188   1.45656    0.181
 4778.00    1.43616   1.45505    0.181
 4779.00    1.44134   1.44870    0.181
 4780.00    1.45270   1.44218    0.183
 4781.00    1.45970   1.43213    0.184
 4782.00    1.44364   1.41778    0.181
 4783.00    1.42617   1.40632    0.178
 4784.00    1.40270   1.39859    0.177
 4785.00    1.38533   1.38944    0.177
 4786.00    1.38942   1.38268    0.179
 4787.00    1.39759   1.38341    0.181
 4788.00    1.41779   1.38768    0.181
 4789.00    1.43037   1.39358    0.180
 4790.00    1.42377   1.40455    0.178
 4791.00    1.42343   1.41941    0.176
 4792.00    1.43663   1.43487    0.178
 4793.00    1.44890   1.45029    0.179
 4794.00    1.45939   1.46310    0.181
 4795.00    1.46281   1.47004    0.182
 4796.00    1.45461   1.47246    0.182
 4797.00    1.44744   1.47174    0.182
 4798.00    1.44176   1.46728    0.183
 4799.00    1.44550   1.46094    0.185
 4800.00    1.46118   1.45674    0.186
 4801.00    1.47354   1.45548    0.185
 4802.00    1.48220   1.45380    0.183
 4803.00    1.47409   1.44993    0.182
 4804.00    1.44947   1.44572    0.183
 4805.00    1.43018   1.44293    0.182
 4806.00    1.41553   1.43853    0.181
 4807.00    1.40806   1.43207    0.180
 4808.00    1.40608   1.42848    0.179
 4809.00    1.41614   1.42997    0.179
 4810.00    1.43432   1.43301    0.180
 4811.00    1.44689   1.43698    0.181
 4812.00    1.45615   1.44401    0.182
 4813.00    1.46553   1.45331    0.183
 4814.00    1.47495   1.46260    0.183
 4815.00    1.47619   1.47167    0.182
 4816.00    1.47380   1.48038    0.181
 4817.00    1.47760   1.48718    0.182
 4818.00    1.48377   1.49037    0.185
 4819.00    1.47765   1.48947    0.185
 4820.00    1.46755   1.48557    0.185
 4821.00    1.47835   1.47826    0.184
 4822.00    1.49485   1.46607    0.183
 4823.00    1.48251   1.45327    0.182
 4824.00    1.46372   1.44560    0.181
 4825.00    1.44099   1.44095    0.180
 4826.00    1.41757   1.43447    0.180
 4827.00    1.43283   1.42839    0.181
 4828.00    1.45337   1.42713    0.183
 4829.00    1.45442   1.42861    0.183
 4830.00    1.45357   1.42677    0.183
 4831.00    1.43216   1.42226    0.184
 4832.00    1.40950   1.42230    0.184
 4833.00    1.41993   1.42651    0.185
 4834.00    1.43112   1.42748    0.185
 4835.00    1.42274   1.42513    0.183
 4836.00    1.41445   1.42551    0.181
 4837.00    1.40869   1.42597    0.181
 4838.00    1.40502   1.42073    0.181
 4839.00    1.42998   1.41365    0.183
 4840.00    1.44947   1.41141    0.184
 4841.00    1.41955   1.41104    0.180
 4842.00    1.39714   1.40822    0.178
 4843.00    1.42461   1.40758    0.181
 4844.00    1.44620   1.41273    0.184
 4845.00    1.43749   1.41837    0.184
 4846.00    1.43142   1.41933    0.184
 4847.00    1.43637   1.41736    0.185
 4848.00    1.44203   1.41647    0.000
 4849.00    1.45015   1.41535    0.000
 4850.00    1.45300   1.40811    0.000
 4851.00    1.44056   1.39548    0.000
 4852.00    1.42840   1.38348    0.000
 4853.00    1.41692   1.36907    0.000
 4854.00    1.39678   1.34598    0.000
 4855.00    1.35817   1.31950    0.000
 4856.00    1.32619   1.29481    0.000
 4857.00    1.30650   1.26760    0.000
 4858.00    1.27697   1.23740    0.000
 4859.00    1.23150   1.20963    0.000
 4860.00    1.21578   1.18811    0.000
 4861.00    1.24228   1.17765    0.000
 4862.00    1.27210   1.17895    0.000
 4863.00    1.30604   1.18590    0.000
 4864.00    1.30649   1.19959    0.000
 4865.00    1.27003   1.22274    0.000
 4866.00    1.26111   1.24575    0.000
 4867.00    1.27893   1.26061    0.000
 4868.00    1.27920   1.27291    0.000
 4869.00    1.26445   1.28179    0.000
 4870.00    1.27515   1.28150    0.000
 4871.00    1.30506   1.28049    0.000
 4872.00    1.31873   1.28836    0.000
 4873.00    1.32163   1.29831    0.000
 4874.00    1.32956   1.30683    0.000
 4875.00    1.34041   1.32245    0.188
 4876.00    1.35042   1.34363    0.188
 4877.00    1.35999   1.36077    0.188
 4878.00    1.37872   1.37551    0.189
 4879.00    1.40147   1.38819    0.190
 4880.00    1.41053   1.39140    0.190
 4881.00    1.41445   1.38770    0.189
 4882.00    1.39536   1.38479    0.190
 4883.00    1.36894   1.37717    0.190
 4884.00    1.34129   1.36092    0.188
 4885.00    1.31332   1.34501    0.186
 4886.00    1.33575   1.33436    0.189
 4887.00    1.36917   1.32573    0.192
 4888.00    1.34940   1.31970    0.189
 4889.00    1.32039   1.31881    0.186
 4890.00    1.34358   1.32446    0.185
 4891.00    1.37364   1.34132    0.184
 4892.00    1.36704   1.36771    0.184
 4893.00    1.35703   1.39567    0.184
 4894.00    1.38860   1.42301    0.185
 4895.00    1.42253   1.45116    0.187
 4896.00    1.41654   1.47549    0.187
 4897.00    1.41021   1.49109    0.187
 4898.00    1.46581   1.49620    0.189
 4899.00    1.51750   1.49344    0.191
 4900.00    1.47663   1.48988    0.186
 4901.00    1.44035   1.48603    0.182
 4902.00    1.46338   1.47758    0.184
 4903.00    1.48312   1.46935    0.187
 4904.00    1.47419   1.46763    0.187
 4905.00    1.46484   1.46639    0.187
 4906.00    1.45284   1.45953    0.186
 4907.00    1.44010   1.45168    0.185
 4908.00    1.42367   1.44569    0.183
 4909.00    1.41151   1.43827    0.182
 4910.00    1.41668   1.43067    0.182
 4911.00    1.42225   1.42690    0.183
 4912.00    1.42915   1.42473    0.183
 4913.00    1.43611   1.42091    0.184
 4914.00    1.44322   1.41638    0.182
 4915.00    1.44122   1.40858    0.181
 4916.00    1.41705   1.39295    0.181
 4917.00    1.38915   1.37080    0.180
 4918.00    1.35340   1.34708    0.179
 4919.00    1.32414   1.32471    0.178
 4920.00    1.30671   1.30828    0.178
 4921.00    1.29942   1.30320    0.178
 4922.00    1.30832   1.30816    0.175
 4923.00    1.33093   1.32008    0.174
 4924.00    1.37274   1.34188    0.176
 4925.00    1.40376   1.37326    0.178
 4926.00    1.42151   1.40335    0.179
 4927.00    1.43650   1.42780    0.179
 4928.00    1.44848   1.45012    0.178
 4929.00    1.46470   1.46717    0.177
 4930.00    1.48495   1.47507    0.178
 4931.00    1.48897   1.47546    0.179
 4932.00    1.47930   1.46697    0.179
 4933.00    1.44835   1.45118    0.178
 4934.00    1.40159   1.43661    0.176
 4935.00    1.37751   1.42311    0.175
 4936.00    1.36823   1.40658    0.176
 4937.00    1.37194   1.39336    0.175
 4938.00    1.38308   1.39090    0.174
 4939.00    1.38380   1.39785    0.174
 4940.00    1.37935   1.40924    0.000
 4941.00    1.40111   1.42212    0.000
 4942.00    1.43416   1.44034    0.000
 4943.00    1.45442   1.46418    0.000
 4944.00    1.46996   1.48382    0.000
 4945.00    1.48055   1.49615    0.000
 4946.00    1.48960   1.50909    0.000
 4947.00    1.51497   1.52130    0.000
 4948.00    1.54460   1.52565    0.000
 4949.00    1.54771   1.52527    0.000
 4950.00    1.54517   1.52524    0.000
 4951.00    1.54286   1.51995    0.000
 4952.00    1.54059   1.50451    0.000
 4953.00    1.53834   1.48389    0.000
 4954.00    1.53610   1.46487    0.000
 4955.00    1.47801   1.44460    0.000
 4956.00    1.41498   1.41936    0.000
 4957.00    1.40437   1.40108    0.000
 4958.00    1.39653   1.39946    0.000
 4959.00    1.41317   1.40366    0.000
 4960.00    1.43019   1.40411    0.000
 4961.00    1.43976   1.40990    0.000
 4962.00    1.44847   1.42388    0.000
 4963.00    1.43845   1.43189    0.000
 4964.00    1.42931   1.42890    0.000
 4965.00    1.43084   1.42451    0.000
 4966.00    1.43192   1.42364    0.000
 4967.00    1.42924   1.42183    0.000
 4968.00    1.42652   1.41983    0.000
 4969.00    1.42346   1.42298    0.000
 4970.00    1.42351   1.43117    0.000
 4971.00    1.43884   1.44047    0.000
 4972.00    1.45150   1.44913    0.000
 4973.00    1.45353   1.45574    0.000
 4974.00    1.46130   1.45776    0.000
 4975.00    1.48805   1.45442    0.000
 4976.00    1.50100   1.44536    0.000
 4977.00    1.47539   1.42888    0.000
 4978.00    1.44709   1.40633    0.000
 4979.00    1.41239   1.38357    0.000
 4980.00    1.38956   1.36123    0.000
 4981.00    1.39128   1.33682    0.000
 4982.00    1.38157   1.31831    0.000
 4983.00    1.35133   1.31212    0.000
 4984.00    1.34085   1.31215    0.000
 4985.00    1.36139   1.31587    0.000
 4986.00    1.38044   1.32830    0.000
 4987.00    1.39742   1.34645    0.000
 4988.00    1.40857   1.36288    0.000
 4989.00    1.41265   1.37622    0.000
 4990.00    1.41763   1.38794    0.000
 4991.00    1.42358   1.39809    0.000
 4992.00    1.41435   1.40384    0.000
 4993.00    1.39081   1.40463    0.000
 4994.00    1.39650   1.40488    0.000
 4995.00    1.42653   1.40441    0.000
 4996.00    1.43559   1.39850    0.000
 4997.00    1.42929   1.38871    0.000
 4998.00    1.42066   1.37734    0.000
 4999.00    1.41054   1.36298    0.000
 5000.00    1.38470   1.34743    0.000
 5001.00    1.35002   1.33188    0.000
 5002.00    1.36035   1.31652    0.000
 5003.00    1.39273   1.30515    0.000
 5004.00    1.40953   1.29728    0.000
 5005.00    1.41973   1.29028    0.000
 5006.00    1.40976   1.28840    0.000
 5007.00    1.39247   1.29198    0.000
 5008.00    1.38682   1.29302    0.000
 5009.00    1.38475   1.29051    0.000
 5010.00    1.35353   1.28900    0.000
 5011.00    1.31488   1.28616    0.000
 5012.00    1.31806   1.27842    0.000
 5013.00    1.32994   1.26862    0.000
 5014.00    1.31455   1.26205    0.000
 5015.00    1.29469   1.25973    0.000
 5016.00    1.29347   1.25912    0.000
 5017.00    1.29454   1.25995    0.000
 5018.00    1.30438   1.26630    0.000
 5019.00    1.31497   1.27701    0.000
 5020.00    1.32037   1.28561    0.000
 5021.00    1.32553   1.29244    0.000
 5022.00    1.33093   1.30270    0.000
 5023.00    1.33581   1.31402    0.000
 5024.00    1.30818   1.32302    0.000
 5025.00    1.28266   1.33234    0.000
 5026.00    1.29952   1.34222    0.000
 5027.00    1.31830   1.35253    0.000
 5028.00    1.35944   1.36555    0.000
 5029.00    1.39478   1.37901    0.176
 5030.00    1.38344   1.38838    0.175
 5031.00    1.37510   1.39590    0.175
 5032.00    1.38502   1.40266    0.175
 5033.00    1.39371   1.40287    0.176
 5034.00    1.39655   1.39289    0.174
 5035.00    1.39261   1.37640    0.173
 5036.00    1.36227   1.35860    0.173
 5037.00    1.33794   1.33807    0.173
 5038.00    1.33306   1.31578    0.173
 5039.00    1.32551   1.29833    0.174
 5040.00    1.31058   1.28911    0.174
 5041.00    1.30592   1.29047    0.174
 5042.00    1.32543   1.30220    0.175
 5043.00    1.34234   1.31739    0.176
 5044.00    1.35397   1.33383    0.175
 5045.00    1.35713   1.35460    0.175
 5046.00    1.34531   1.37169    0.174
 5047.00    1.34896   1.37703    0.173
 5048.00    1.37656   1.37742    0.174
 5049.00    1.38859   1.37856    0.174
 5050.00    1.37943   1.37748    0.176
 5051.00    1.37262   1.37534    0.177
 5052.00    1.36860   1.37917    0.178
 5053.00    1.37337   1.39017    0.178
 5054.00    1.38741   1.40355    0.177
 5055.00    1.39983   1.41705    0.177
 5056.00    1.41073   1.43201    0.179
 5057.00    1.43116   1.44694    0.181
 5058.00    1.45942   1.45750    0.183
 5059.00    1.46393   1.46235    0.182
 5060.00    1.45128   1.46242    0.179
 5061.00    1.43393   1.45826    0.178
 5062.00    1.41360   1.44966    0.180
 5063.00    1.39403   1.43481    0.180
 5064.00    1.37486   1.41685    0.180
 5065.00    1.37613   1.40313    0.180
 5066.00    1.38725   1.39226    0.180
 5067.00    1.38646   1.37884    0.180
 5068.00    1.38070   1.36943    0.181
 5069.00    1.36403   1.37034    0.179
 5070.00    1.34346   1.37127    0.177
 5071.00    1.34354   1.36665    0.178
 5072.00    1.34983   1.36583    0.180
 5073.00    1.33925   1.36916    0.182
 5074.00    1.32446   1.36492    0.183
 5075.00    1.33117   1.35332    0.181
 5076.00    1.34225   1.34531    0.180
 5077.00    1.32293   1.33791    0.178
 5078.00    1.29880   1.32235    0.175
 5079.00    1.30211   1.30687    0.176
 5080.00    1.30868   1.30153    0.176
 5081.00    1.30397   1.30059    0.177
 5082.00    1.29835   1.29906    0.178
 5083.00    1.30050   1.30496    0.176
 5084.00    1.30300   1.32049    0.173
 5085.00    1.32346   1.33712    0.173
 5086.00    1.34419   1.35180    0.173
 5087.00    1.36746   1.36800    0.175
 5088.00    1.38911   1.38535    0.176
 5089.00    1.38067   1.39922    0.173
 5090.00    1.37473   1.40822    0.171
 5091.00    1.39665   1.41478    0.172
 5092.00    1.41599   1.41893    0.173
 5093.00    1.41538   1.41717    0.174
 5094.00    1.41371   1.40876    0.175
 5095.00    1.40579   1.39729    0.172
 5096.00    1.39514   1.38546    0.169
 5097.00    1.37175   1.37193    0.170
 5098.00    1.35369   1.35787    0.171
 5099.00    1.35599   1.34906    0.170
 5100.00    1.35753   1.34602    0.169
 5101.00    1.35665   1.34442    0.170
 5102.00    1.35401   1.34335    0.170
 5103.00    1.34660   1.34397    0.170
 5104.00    1.33836   1.34496    0.171
 5105.00    1.32818   1.34344    0.170
 5106.00    1.32346   1.33840    0.170
 5107.00    1.32965   1.33506    0.171
 5108.00    1.34160   1.33538    0.171
 5109.00    1.36357   1.33551    0.170
 5110.00    1.37157   1.33915    0.169
 5111.00    1.35827   1.34960    0.171
 5112.00    1.35688   1.36157    0.173
 5113.00    1.37145   1.37422    0.175
 5114.00    1.38729   1.38931    0.176
 5115.00    1.40463   1.40209    0.175
 5116.00    1.40999   1.41020    0.175
 5117.00    1.40290   1.41483    0.174
 5118.00    1.39602   1.41333    0.174
 5119.00    1.38932   1.40394    0.174
 5120.00    1.38550   1.38989    0.176
 5121.00    1.38402   1.37312    0.178
 5122.00    1.37752   1.35264    0.178
 5123.00    1.36746   1.33135    0.178
 5124.00    1.35169   1.31461    0.178
 5125.00    1.33237   1.30233    0.178
 5126.00    1.33512   1.29291    0.178
 5127.00    1.34994   1.28992    0.180
 5128.00    1.34483   1.29329    0.178
 5129.00    1.33026   1.29892    0.175
 5130.00    1.33611   1.30776    0.176
 5131.00    1.35031   1.31995    0.178
 5132.00    1.35234   1.32969    0.178
 5133.00    1.35012   1.33703    0.176
 5134.00    1.33886   1.34446    0.176
 5135.00    1.32494   1.34602    0.175
 5136.00    1.33963   1.34283    0.177
 5137.00    1.36131   1.33941    0.178
 5138.00    1.37408   1.33104    0.179
 5139.00    1.38508   1.32155    0.180
 5140.00    1.36527   1.31701    0.179
 5141.00    1.34071   1.30953    0.177
 5142.00    1.33785   1.30053    0.177
 5143.00    1.33747   1.29931    0.178
 5144.00    1.31274   1.29839    0.177
 5145.00    1.28615   1.29303    0.175
 5146.00    1.29344   1.29118    0.175
 5147.00    1.30213   1.29193    0.174
 5148.00    1.28966   1.29094    0.174
 5149.00    1.27741   1.29033    0.173
 5150.00    1.28250   1.29127    0.174
 5151.00    1.28811   1.29464    0.175
 5152.00    1.30285   1.30083    0.176
 5153.00    1.31454   1.30867    0.177
 5154.00    1.29374   1.31923    0.174
 5155.00    1.27996   1.33231    0.172
 5156.00    1.31909   1.34620    0.174
 5157.00    1.35083   1.35824    0.175
 5158.00    1.34027   1.36450    0.174
 5159.00    1.32926   1.36553    0.173
 5160.00    1.31619   1.35990    0.171
 5161.00    1.30508   1.34164    0.170
 5162.00    1.30135   1.31294    0.171
 5163.00    1.28877   1.27838    0.172
 5164.00    1.24858   1.23646    0.169
 5165.00    1.19861   1.19028    0.167
 5166.00    1.12278   1.14729    0.166
 5167.00    1.06529   1.10807    0.165
 5168.00    1.04954   1.07417    0.164
 5169.00    1.03418   1.05334    0.163
 5170.00    1.01960   1.04515    0.163
 5171.00    1.01992   1.04424    0.163
 5172.00    1.04580   1.05390    0.163
 5173.00    1.06529   1.07738    0.163
 5174.00    1.07515   1.10607    0.165
 5175.00    1.09262   1.13263    0.166
 5176.00    1.12013   1.16002    0.166
 5177.00    1.15549   1.18511    0.166
 5178.00    1.20000   1.19697    0.166
 5179.00    1.21208   1.19451    0.166
 5180.00    1.19087   1.18744    0.165
 5181.00    1.17077   1.17801    0.164
 5182.00    1.15166   1.16309    0.164
 5183.00    1.13951   1.15215    0.165
 5184.00    1.13291   1.15426    0.166
 5185.00    1.14233   1.16591    0.165
 5186.00    1.16297   1.18412    0.162
 5187.00    1.19711   1.20624    0.164
 5188.00    1.23955   1.22930    0.168
 5189.00    1.26478   1.25243    0.168
 5190.00    1.28076   1.26849    0.000
 5191.00    1.28079   1.27419    0.000
 5192.00    1.27337   1.28111    0.000
 5193.00    1.27134   1.29035    0.000
 5194.00    1.27148   1.29304    0.000
 5195.00    1.28822   1.29824    0.000
 5196.00    1.31066   1.31231    0.000
 5197.00    1.31460   1.32366    0.000
 5198.00    1.31320   1.33035    0.000
 5199.00    1.32935   1.33834    0.000
 5200.00    1.34970   1.34027    0.000
 5201.00    1.35547   1.33103    0.000
 5202.00    1.35844   1.31856    0.000
 5203.00    1.33617   1.30258    0.000
 5204.00    1.31013   1.27849    0.000
 5205.00    1.28967   1.25691    0.000
 5206.00    1.26981   1.24417    0.000
 5207.00    1.22870   1.23391    0.000
 5208.00    1.18606   1.23103    0.000
 5209.00    1.25133   1.24223    0.000
 5210.00    1.32062   1.25952    0.000
 5211.00    1.29931   1.27820    0.179
 5212.00    1.27893   1.30183    0.177
 5213.00    1.30764   1.32624    0.176
 5214.00    1.33666   1.34566    0.175
 5215.00    1.37080   1.36210    0.176
 5216.00    1.40201   1.37630    0.177
 5217.00    1.40347   1.38721    0.178
 5218.00    1.40452   1.39465    0.178
 5219.00    1.40262   1.39767    0.177
 5220.00    1.40425   1.39629    0.176
 5221.00    1.42560   1.39043    0.178
 5222.00    1.43511   1.37756    0.179
 5223.00    1.39196   1.35933    0.177
 5224.00    1.35047   1.34302    0.175
 5225.00    1.31499   1.32748    0.172
 5226.00    1.29825   1.31251    0.170
 5227.00    1.33885   1.30847    0.174
 5228.00    1.37200   1.31296    0.176
 5229.00    1.38575   1.31831    0.174
 5230.00    1.38782   1.33074    0.173
 5231.00    1.36374   1.34827    0.173
 5232.00    1.35944   1.36204    0.173
 5233.00    1.39346   1.37627    0.174
 5234.00    1.41855   1.39306    0.174
 5235.00    1.42857   1.40720    0.173
 5236.00    1.43586   1.42105    0.171
 5237.00    1.43909   1.43677    0.170
 5238.00    1.45159   1.44965    0.170
 5239.00    1.47615   1.45925    0.171
 5240.00    1.49724   1.46802    0.171
 5241.00    1.51437   1.47329    0.171
 5242.00    1.50633   1.47159    0.170
 5243.00    1.47285   1.46578    0.170
 5244.00    1.45149   1.45973    0.170
 5245.00    1.44093   1.44864    0.171
 5246.00    1.43021   1.43129    0.170
 5247.00    1.41936   1.41744    0.167
 5248.00    1.40966   1.40710    0.167
 5249.00    1.40074   1.39433    0.168
 5250.00    1.40281   1.38560    0.170
 5251.00    1.41154   1.38528    0.172
 5252.00    1.42568   1.38854    0.172
 5253.00    1.44270   1.39392    0.172
 5254.00    1.44537   1.40264    0.173
 5255.00    1.44145   1.41369    0.174
 5256.00    1.45014   1.42335    0.175
 5257.00    1.46383   1.42740    0.176
 5258.00    1.46082   1.42473    0.176
 5259.00    1.45220   1.41509    0.176
 5260.00    1.42550   1.39661    0.176
 5261.00    1.39368   1.36854    0.176
 5262.00    1.35301   1.33366    0.177
 5263.00    1.31028   1.29902    0.178
 5264.00    1.26735   1.26608    0.177
 5265.00    1.22439   1.23202    0.175
 5266.00    1.22473   1.20683    0.177
 5267.00    1.23134   1.19635    0.180
 5268.00    1.23327   1.18875    0.178
 5269.00    1.23471   1.18723    0.176
 5270.00    1.22661   1.20366    0.177
 5271.00    1.21786   1.22556    0.178
 5272.00    1.25849   1.24619    0.178
 5273.00    1.30077   1.27723    0.179
 5274.00    1.36711   1.31179    0.179
 5275.00    1.43119   1.33931    0.180
 5276.00    1.42201   1.36631    0.180
 5277.00    1.41582   1.39153    0.180
 5278.00    1.45511   1.40842    0.180
 5279.00    1.48911   1.42001    0.179
 5280.00    1.47160   1.42844    0.179
 5281.00    1.45564   1.43434    0.178
 5282.00    1.45066   1.44009    0.176
 5283.00    1.44734   1.44671    0.175
 5284.00    1.45304   1.45716    0.176
 5285.00    1.46398   1.47245    0.177
 5286.00    1.49774   1.48855    0.176
 5287.00    1.52697   1.50450    0.176
 5288.00    1.53998   1.52015    0.174
 5289.00    1.55575   1.53140    0.172
 5290.00    1.57979   1.53608    0.174
 5291.00    1.59607   1.53488    0.175
 5292.00    1.59247   1.52734    0.175
 5293.00    1.58468   1.51327    0.174
 5294.00    1.56768   1.49479    0.174
 5295.00    1.54554   1.47526    0.174
 5296.00    1.51357   1.45575    0.174
 5297.00    1.48429   1.43818    0.173
 5298.00    1.45946   1.42829    0.171
 5299.00    1.44444   1.42658    0.169
 5300.00    1.44372   1.42978    0.168
 5301.00    1.44785   1.44069    0.168
 5302.00    1.45819   1.45927    0.168
 5303.00    1.47804   1.47883    0.168
 5304.00    1.50863   1.49837    0.168
 5305.00    1.53319   1.51875    0.169
 5306.00    1.55172   1.53553    0.169
 5307.00    1.57140   1.54796    0.169
 5308.00    1.59208   1.55806    0.168
 5309.00    1.60310   1.56366    0.170
 5310.00    1.60663   1.56506    0.174
 5311.00    1.59790   1.56470    0.175
 5312.00    1.58081   1.56082    0.173
 5313.00    1.56713   1.55414    0.173
 5314.00    1.55549   1.54750    0.175
 5315.00    1.55152   1.53908    0.174
 5316.00    1.55156   1.52914    0.173
 5317.00    1.57089   1.52033    0.173
 5318.00    1.59893   1.51084    0.173
 5319.00    1.56832   1.49912    0.172
 5320.00    1.51492   1.48545    0.169
 5321.00    1.49632   1.46983    0.170
 5322.00    1.48922   1.45205    0.170
 5323.00    1.49701   1.42987    0.173
 5324.00    1.50893   1.40520    0.175
 5325.00    1.47495   1.38426    0.174
 5326.00    1.43050   1.36564    0.172
 5327.00    1.39355   1.34877    0.172
 5328.00    1.35796   1.34246    0.173
 5329.00    1.36025   1.34749    0.171
 5330.00    1.36786   1.35783    0.168
 5331.00    1.40580   1.37514    0.169
 5332.00    1.44679   1.39860    0.171
 5333.00    1.44848   1.42186    0.171
 5334.00    1.44764   1.44245    0.170
 5335.00    1.48191   1.45825    0.171
 5336.00    1.51710   1.46675    0.172
 5337.00    1.49616   1.47066    0.172
 5338.00    1.47626   1.47081    0.171
 5339.00    1.48610   1.46518    0.169
 5340.00    1.49485   1.45962    0.166
 5341.00    1.48776   1.45764    0.166
 5342.00    1.48132   1.45467    0.167
 5343.00    1.48087   1.45361    0.167
 5344.00    1.48150   1.45669    0.167
 5345.00    1.48950   1.45886    0.168
 5346.00    1.49224   1.46255    0.168
 5347.00    1.46717   1.46938    0.165
 5348.00    1.45072   1.47574    0.163
 5349.00    1.47087   1.48489    0.164
 5350.00    1.48963   1.49912    0.164
 5351.00    1.50346   1.51462    0.165
 5352.00    1.52104   1.53081    0.166
 5353.00    1.54967   1.54945    0.166
 5354.00    1.57482   1.56761    0.167
 5355.00    1.59123   1.58143    0.166
 5356.00    1.60898   1.59200    0.166
 5357.00    1.62960   1.59882    0.166
 5358.00    1.63667   1.59898    0.166
 5359.00    1.61829   1.59437    0.166
 5360.00    1.60534   1.58567    0.166
 5361.00    1.60126   1.57161    0.168
 5362.00    1.58909   1.55577    0.168
 5363.00    1.56526   1.53851    0.167
 5364.00    1.54453   1.51826    0.166
 5365.00    1.52772   1.49921    0.165
 5366.00    1.50766   1.48127    0.165
 5367.00    1.48398   1.46266    0.166
 5368.00    1.46901   1.44829   -2.000
 5369.00    1.46261   1.43890   -2.000
 5370.00    1.45300   1.43259   -2.000
 5371.00    1.44061   1.43401   -2.000
 5372.00    1.45103   1.44357   -2.000
 5373.00    1.47887   1.45591   -2.000
 5374.00    1.48803   1.47229   -2.000
 5375.00    1.48466   1.49197   -2.000
 5376.00    1.50202   1.50780   -2.000
 5377.00    1.53159   1.52042   -2.000
 5378.00    1.54525   1.53130   -2.000
 5379.00    1.55074   1.53576   -2.000
 5380.00    1.54288   1.53639   -2.000
 5381.00    1.52908   1.53693   -2.000
 5382.00    1.55136   1.53386   -2.000
 5383.00    1.58740   1.52906    0.169
 5384.00    1.56803   1.52607    0.168
 5385.00    1.53068   1.52078    0.167
 5386.00    1.52867   1.51305    0.165
 5387.00    1.53627   1.50576    0.163
 5388.00    1.52208   1.49622    0.163
 5389.00    1.50305   1.48378    0.164
 5390.00    1.48648   1.47097    0.164
 5391.00    1.47035   1.45833    0.163
 5392.00    1.47214   1.44530    0.163
 5393.00    1.47637   1.43198    0.164
 5394.00    1.47825   1.42196    0.162
 5395.00    1.47991   1.41526    0.161
 5396.00    1.46424   1.40760    0.162
 5397.00    1.44752   1.40364    0.163
 5398.00    1.44598   1.40473    0.162
 5399.00    1.44474   1.40274    0.161
 5400.00    1.42916   1.39966    0.162
 5401.00    1.41441   1.39870    0.162
 5402.00    1.42127   1.39331    0.160
 5403.00    1.42593   1.38423    0.158
 5404.00    1.40097   1.37695    0.157
 5405.00    1.37844   1.36994    0.156
 5406.00    1.37781   1.36449    0.156
 5407.00    1.37907   1.36527    0.156
 5408.00    1.39282   1.37097    0.157
 5409.00    1.40784   1.38073    0.157
 5410.00    1.42938   1.39664    0.157
 5411.00    1.44925   1.41578    0.156
 5412.00    1.46214   1.43536    0.157
 5413.00    1.47399   1.45593    0.158
 5414.00    1.48224   1.47510    0.158
 5415.00    1.49386   1.49130    0.159
 5416.00    1.51519   1.50437    0.160
 5417.00    1.53547   1.51270    0.161
 5418.00    1.55314   1.51801    0.161
 5419.00    1.55808   1.52021    0.161
 5420.00    1.53592   1.51776    0.160
 5421.00    1.51904   1.51520    0.160
 5422.00    1.51193   1.51201    0.160
 5423.00    1.51767   1.50552    0.161
 5424.00    1.54416   1.50086    0.162
 5425.00    1.55195   1.49569    0.162
 5426.00    1.53323   1.48670    0.163
 5427.00    1.50804   1.47955    0.162
 5428.00    1.47477   1.47006    0.160
 5429.00    1.45418   1.45718    0.159
 5430.00    1.44753   1.44882    0.159
 5431.00    1.44550   1.44036    0.160
 5432.00    1.44797   1.43221    0.160
 5433.00    1.44879   1.43218    0.160
 5434.00    1.44821   1.43643    0.162
 5435.00    1.46205   1.44414    0.162
 5436.00    1.48676   1.45848    0.162
 5437.00    1.50762   1.47623    0.161
 5438.00    1.52594   1.49453    0.160
 5439.00    1.53155   1.51177    0.160
 5440.00    1.52981   1.52517    0.160
 5441.00    1.54008   1.53287    0.160
 5442.00    1.55641   1.53383    0.160
 5443.00    1.53612   1.52789    0.159
 5444.00    1.49983   1.51798    0.157
 5445.00    1.48945   1.50574    0.156
 5446.00    1.48881   1.49212    0.156
 5447.00    1.49131   1.48219    0.157
 5448.00    1.49482   1.47547    0.158
 5449.00    1.49162   1.46972    0.157
 5450.00    1.48663   1.46781    0.157
 5451.00    1.48411   1.46656    0.156
 5452.00    1.48213   1.46355    0.156
 5453.00    1.48816   1.46199    0.155
 5454.00    1.49558   1.45975    0.155
 5455.00    1.48382   1.45731    0.155
 5456.00    1.46955   1.45823    0.155
 5457.00    1.47208   1.45989    0.155
 5458.00    1.47617   1.46233    0.155
 5459.00    1.49794   1.46609    0.155
 5460.00    1.52071   1.46911    0.155
 5461.00    1.52895   1.47195    0.156
 5462.00    1.53656   1.47304    0.156
 5463.00    1.51329   1.47352    0.155
 5464.00    1.49126   1.47584    0.155
 5465.00    1.49867   1.47648    0.153
 5466.00    1.50536   1.47631    0.151
 5467.00    1.50273   1.47771    0.154
 5468.00    1.49931   1.47701    0.157
 5469.00    1.48908   1.47265    0.157
 5470.00    1.47986   1.46703    0.158
 5471.00    1.47710   1.46061    0.157
 5472.00    1.47492   1.45014    0.156
 5473.00    1.47565   1.43801    0.157
 5474.00    1.47424   1.42940    0.159
 5475.00    1.46418   1.42027    0.159
 5476.00    1.45871   1.41142    0.160
 5477.00    1.46870   1.40907    0.160
 5478.00    1.46999   1.40958   -2.000
 5479.00    1.44652   1.41129   -2.000
 5480.00    1.43491   1.41722   -2.000
 5481.00    1.45212   1.42595   -2.000
 5482.00    1.47284   1.43520   -2.000
 5483.00    1.50091   1.44382   -2.000
 5484.00    1.50645   1.45296   -2.000
 5485.00    1.47097   1.46200   -2.000
 5486.00    1.45388   1.46744   -2.000
 5487.00    1.46606   1.47159   -2.000
 5488.00    1.48048   1.47669   -2.000
 5489.00    1.49804   1.47855   -2.000
 5490.00    1.51014   1.47906   -2.000
 5491.00    1.51555   1.48206   -2.000
 5492.00    1.52375   1.48320   -2.000
 5493.00    1.53497   1.48264   -2.000
 5494.00    1.54263   1.48418   -2.000
 5495.00    1.54688   1.48503   -2.000
 5496.00    1.54334   1.48359   -2.000
 5497.00    1.53325   1.48261   -2.000
 5498.00    1.52908   1.48209   -2.000
 5499.00    1.52933   1.47913   -2.000
 5500.00    1.52607   1.47472   -2.000
 5501.00    1.52052   1.47165   -2.000
 5502.00    1.52110   1.46708    0.153
 5503.00    1.52516   1.46078    0.154
 5504.00    1.50954   1.45717    0.152
 5505.00    1.48414   1.45322    0.149
 5506.00    1.46741   1.44824    0.148
 5507.00    1.45441   1.44655    0.148
 5508.00    1.45377   1.44372    0.149
 5509.00    1.45768   1.43984    0.151
 5510.00    1.46396   1.43908    0.152
 5511.00    1.47098   1.43711    0.153
 5512.00    1.45464   1.43595    0.152
 5513.00    1.43221   1.43892    0.152
 5514.00    1.43954   1.44318    0.152
 5515.00    1.45319   1.45050    0.153
 5516.00    1.45528   1.46090    0.152
 5517.00    1.45544   1.47231    0.151
 5518.00    1.46130   1.48441    0.151
 5519.00    1.46788   1.49461    0.151
 5520.00    1.49833   1.50258    0.153
 5521.00    1.53087   1.50742    0.154
 5522.00    1.53027   1.50740    0.155
 5523.00    1.52794   1.50461    0.156
 5524.00    1.51170   1.49881    0.155
 5525.00    1.49535   1.49053    0.153
 5526.00    1.48986   1.48308    0.154
 5527.00    1.48441   1.47583    0.155
 5528.00    1.47971   1.47017    0.155
 5529.00    1.47584   1.46835    0.154
 5530.00    1.48206   1.46811    0.154
 5531.00    1.48960   1.46943    0.154
 5532.00    1.50812   1.47341    0.154
 5533.00    1.52441   1.47790    0.153
 5534.00    1.52689   1.48153    0.152
 5535.00    1.52716   1.48645    0.152
 5536.00    1.51661   1.49213    0.152
 5537.00    1.50933   1.49615    0.152
 5538.00    1.51506   1.50140    0.152
 5539.00    1.51947   1.50726    0.152
 5540.00    1.51957   1.51096    0.154
 5541.00    1.52207   1.51529    0.157
 5542.00    1.53127   1.51909    0.162
 5543.00    1.53949   1.52135    0.167
 5544.00    1.54540   1.52483    0.169
 5545.00    1.54951   1.52785    0.170
 5546.00    1.54994   1.53076    0.169
 5547.00    1.55250   1.53548    0.167
 5548.00    1.55889   1.53891    0.160
 5549.00    1.56394   1.54134    0.155
 5550.00    1.56687   1.54397    0.151
 5551.00    1.57023   1.54385    0.150
 5552.00    1.57416   1.54186    0.151
 5553.00    1.57716   1.53929    0.151
 5554.00    1.57903   1.53493    0.149
 5555.00    1.57400   1.53033    0.149
 5556.00    1.56158   1.52556    0.150
 5557.00    1.55346   1.52030    0.151
 5558.00    1.54939   1.51604    0.152
 5559.00    1.53989   1.51078    0.151
 5560.00    1.52588   1.50483    0.150
 5561.00    1.51631   1.49997    0.150
 5562.00    1.51000   1.49352    0.150
 5563.00    1.50324   1.48685    0.149
 5564.00    1.49620   1.48177    0.148
 5565.00    1.48896   1.47614    0.149
 5566.00    1.48161   1.47127    0.150
 5567.00    1.47388   1.46890    0.151
 5568.00    1.46597   1.46711    0.150
 5569.00    1.46803   1.46563    0.150
 5570.00    1.47431   1.46757    0.149
 5571.00    1.48886   1.47033    0.150
 5572.00    1.50640   1.47173    0.152
 5573.00    1.49860   1.47728    0.152
 5574.00    1.48304   1.48321    0.151
 5575.00    1.48669   1.48561    0.151
 5576.00    1.49523   1.49160    0.151
 5577.00    1.50884   1.49685    0.150
 5578.00    1.52349   1.49632    0.149
 5579.00    1.51511   1.49717    0.149
 5580.00    1.50299   1.49559    0.149
 5581.00    1.49437   1.48720    0.148
 5582.00    1.48618   1.47852    0.147
 5583.00    1.46847   1.46685    0.147
 5584.00    1.44996   1.45068    0.147
 5585.00    1.42583   1.43576    0.146
 5586.00    1.40142   1.42078    0.145
 5587.00    1.40082   1.40740    0.145
 5588.00    1.40055   1.39841    0.145
 5589.00    1.39867   1.39313    0.146
 5590.00    1.39726   1.39335    0.147
 5591.00    1.40511   1.39693    0.147
 5592.00    1.41335   1.40337    0.147
 5593.00    1.42607   1.41277    0.149
 5594.00    1.43836   1.42055    0.151
 5595.00    1.44717   1.42795    0.151
 5596.00    1.45607   1.43410    0.152
 5597.00    1.46553   1.43603    0.151
 5598.00    1.47130   1.43813    0.151
 5599.00    1.45946   1.43943    0.150
 5600.00    1.44651   1.43917    0.149
 5601.00    1.42927   1.44330    0.150
 5602.00    1.42309   1.45017    0.151
 5603.00    1.45269   1.45876    0.151
 5604.00    1.47733   1.47185    0.152
 5605.00    1.48835   1.48634    0.152
 5606.00    1.50027   1.50066    0.152
 5607.00    1.51426   1.51387    0.151
 5608.00    1.52913   1.52334    0.150
 5609.00    1.54578   1.52832    0.150
 5610.00    1.55749   1.52886    0.150
 5611.00    1.56046   1.52403    0.150
 5612.00    1.55202   1.51441    0.150
 5613.00    1.52593   1.50299    0.150
 5614.00    1.50400   1.48968    0.150
 5615.00    1.48772   1.47649    0.150
 5616.00    1.47302   1.46682    0.150
 5617.00    1.46023   1.45821    0.151
 5618.00    1.44991   1.45270    0.150
 5619.00    1.44218   1.45184    0.149
 5620.00    1.44078   1.45077    0.148
 5621.00    1.44524   1.45019    0.146
 5622.00    1.44448   1.45209    0.144
 5623.00    1.43945   1.45364    0.144
 5624.00    1.43469   1.45490    0.144
 5625.00    1.43012   1.45875    0.144
 5626.00    1.43443   1.46391    0.144
 5627.00    1.44436   1.46994    0.144
 5628.00    1.45797   1.47855    0.143
 5629.00    1.47362   1.48667    0.141
 5630.00    1.48014   1.49283    0.141
 5631.00    1.48227   1.49846    0.141
 5632.00    1.48017   1.50116    0.141
 5633.00    1.47631   1.49987    0.141
 5634.00    1.46937   1.49654    0.141
 5635.00    1.46133   1.49141    0.141
 5636.00    1.46073   1.48492    0.231
 5637.00    1.46238   1.47845    1.390
 5638.00    1.46846   1.47277   -1.000
 5639.00    1.47566   1.46859   -1.000
 5640.00    1.47920   1.46572   -1.000
 5641.00    1.48201   1.46504   -1.000
 5642.00    1.48297   1.46645   -1.000
 5643.00    1.48364   1.46799   -1.000
 5644.00    1.48909   1.47175   -1.000
 5645.00    1.49510   1.47674   -1.000
 5646.00    1.49636   1.48031   -1.000
 5647.00    1.49723   1.48488   -1.000
 5648.00    1.49767   1.48889   -1.000
 5649.00    1.49810   1.49081   -1.000
 5650.00    1.50659   1.49260    0.293
 5651.00    1.51512   1.49175    0.147
 5652.00    1.52112   1.48785    0.147
 5653.00    1.52641   1.48354    0.147
 5654.00    1.51857   1.47650    0.148
 5655.00    1.50904   1.46699    0.148
 5656.00    1.48087   1.45815    0.146
 5657.00    1.45334   1.44891    0.145
 5658.00    1.43075   1.44148    0.145
 5659.00    1.41138   1.43736    0.145
 5660.00    1.41083   1.43389    0.143
 5661.00    1.41339   1.43453    0.142
 5662.00    1.43044   1.44014    0.144
 5663.00    1.44820   1.44512    0.145
 5664.00    1.46866   1.45081    0.146
 5665.00    1.48312   1.45976    0.146
 5666.00    1.47850   1.46810    0.144
 5667.00    1.47155   1.47501    0.142
 5668.00    1.45833   1.48274    0.141
 5669.00    1.45189   1.49065    0.140
 5670.00    1.46108   1.49880    0.140
 5671.00    1.46701   1.50733    0.140
 5672.00    1.46646   1.51501    0.140
 5673.00    1.47195   1.52218    0.140
 5674.00    1.48796   1.52867    0.141
 5675.00    1.49773   1.53317    0.142
 5676.00    1.49802   1.53475    0.145
 5677.00    1.49383   1.53375    0.145
 5678.00    1.48364   1.53108    0.144
 5679.00    1.48295   1.52605    0.144
 5680.00    1.49343   1.51873    0.146
 5681.00    1.49669   1.51073    0.147
 5682.00    1.49245   1.50346    0.147
 5683.00    1.48874   1.49686    0.147
 5684.00    1.48551   1.49054    0.146
 5685.00    1.48166   1.48655    0.146
 5686.00    1.47732   1.48588    0.145
 5687.00    1.47166   1.48678    0.145
 5688.00    1.46506   1.48922    0.144
 5689.00    1.46306   1.49455    0.144
 5690.00    1.46393   1.50114    0.143
 5691.00    1.46992   1.50738    0.144
 5692.00    1.47871   1.51290    0.145
 5693.00    1.49369   1.51683    0.146
 5694.00    1.51159   1.51878    0.146
 5695.00    1.51631   1.51745    0.145
 5696.00    1.51564   1.51331    0.144
 5697.00    1.50398   1.50691    0.144
 5698.00    1.48848   1.49860    0.145
 5699.00    1.47397   1.48965    0.145
 5700.00    1.45976   1.47891    0.144
 5701.00    1.45670   1.46933    0.142
 5702.00    1.45635   1.46092    0.139
 5703.00    1.44954   1.45054    0.140
 5704.00    1.44145   1.44222    0.141
 5705.00    1.44288   1.43460    0.140
 5706.00    1.44577   1.42624    0.139
 5707.00    1.43829   1.42104    0.138
 5708.00    1.42963   1.41640    0.138
 5709.00    1.42140   1.41488    0.136
 5710.00    1.41319   1.41884    0.135
 5711.00    1.42087   1.42369    0.136
 5712.00    1.42920   1.43408    0.136
 5713.00    1.44514   1.44882    0.137
 5714.00    1.46111   1.46237    0.137
 5715.00    1.47603   1.47969    0.137
 5716.00    1.49080   1.49739    0.137
 5717.00    1.50291   1.51121    0.139
 5718.00    1.51463   1.52576    0.140
 5719.00    1.52230   1.53853    0.138
 5720.00    1.52973   1.54710    0.138
 5721.00    1.53545   1.55449    0.141
 5722.00    1.54147   1.55976    0.144
 5723.00    1.54924   1.56184    0.143
 5724.00    1.55445   1.56217    0.143
 5725.00    1.54803   1.56062    0.143
 5726.00    1.54245   1.55753    0.144
 5727.00    1.53996   1.55459    0.144
 5728.00    1.53689   1.55129    0.144
 5729.00    1.53196   1.54784    0.144
 5730.00    1.53157   1.54629    0.144
 5731.00    1.54318   1.54614    0.144
 5732.00    1.55246   1.54652    0.144
 5733.00    1.55643   1.54710    0.144
 5734.00    1.56188   1.54881    0.143
 5735.00    1.57020   1.55146    0.143
 5736.00    1.57397   1.55232    0.142
 5737.00    1.56991   1.55278    0.141
 5738.00    1.56685   1.55387    0.141
 5739.00    1.56528   1.55377    0.141
 5740.00    1.56980   1.55343    0.000
 5741.00    1.58233   1.55308    0.000
 5742.00    1.58621   1.55205    0.000
 5743.00    1.58004   1.55185    0.000
 5744.00    1.58221   1.55123    0.000
 5745.00    1.59294   1.54911    0.000
 5746.00    1.59784   1.54739    0.000
 5747.00    1.59749   1.54480    0.000
 5748.00    1.58985   1.54102    0.000
 5749.00    1.57642   1.53722    0.000
 5750.00    1.56245   1.53249    0.000
 5751.00    1.54811   1.52839    0.000
 5752.00    1.53921   1.52594    0.000
 5753.00    1.53366   1.52335    0.000
 5754.00    1.53054   1.52182    0.000
 5755.00    1.52874   1.52220    0.000
 5756.00    1.53120   1.52226    0.000
 5757.00    1.53564   1.52294    0.000
 5758.00    1.54048   1.52447    0.000
 5759.00    1.54548   1.52421    0.000
 5760.00    1.54497   1.52429    0.000
 5761.00    1.54257   1.52599    0.000
 5762.00    1.53482   1.52752    0.000
 5763.00    1.52552   1.53073    0.000
 5764.00    1.52717   1.53597    0.000
 5765.00    1.53143   1.54144    0.000
 5766.00    1.55557   1.54837    0.000
 5767.00    1.58353   1.55496    0.000
 5768.00    1.60448   1.55880    0.000
 5769.00    1.62439   1.56155    0.000
 5770.00    1.61360   1.56309    0.000
 5771.00    1.59947   1.56129    0.000
 5772.00    1.59365   1.55822    0.000
 5773.00    1.58842   1.55460    0.000
 5774.00    1.58417   1.54826    0.000
 5775.00    1.57995   1.54124    0.000
 5776.00    1.56764   1.53318    0.000
 5777.00    1.55535   1.52235    0.000
 5778.00    1.54524   1.51048    0.000
 5779.00    1.53505   1.49741    0.000
 5780.00    1.52369   1.48390    0.000
 5781.00    1.51219   1.47190    0.000
 5782.00    1.49922   1.46077    0.000
 5783.00    1.48710   1.45288    0.000
 5784.00    1.48117   1.44987    0.000
 5785.00    1.47754   1.45056    0.000
 5786.00    1.48664   1.45574    0.000
 5787.00    1.49809   1.46258    0.000
 5788.00    1.51996   1.47219    0.000
 5789.00    1.53491   1.48515    0.000
 5790.00    1.52462   1.49569    0.000
 5791.00    1.51486   1.50655   -2.000
 5792.00    1.50670   1.51755   -2.000
 5793.00    1.50304   1.52580   -2.000
 5794.00    1.51109   1.53431   -2.000
 5795.00    1.52100   1.54140   -2.000
 5796.00    1.53506   1.54730   -2.000
 5797.00    1.54748   1.55347   -2.000
 5798.00    1.55670   1.55822   -2.000
 5799.00    1.56273   1.56213   -2.000
 5800.00    1.56338   1.56494   -2.000
 5801.00    1.56837   1.56738   -2.000
 5802.00    1.57978   1.56896   -2.000
 5803.00    1.59600   1.56800   -2.000
 5804.00    1.61848   1.56719   -2.000
 5805.00    1.63072   1.56615   -2.000
 5806.00    1.63125   1.56351   -2.000
 5807.00    1.61715   1.56228   -2.000
 5808.00    1.58827   1.56187   -2.000
 5809.00    1.57597   1.56110   -2.000
 5810.00    1.57844   1.56111   -2.000
 5811.00    1.57800   1.56108    0.000
 5812.00    1.57527   1.56103    0.000
 5813.00    1.57237   1.56093    0.000
 5814.00    1.56935   1.56079    0.000
 5815.00    1.56273   1.56186    0.000
 5816.00    1.55394   1.56353    0.000
 5817.00    1.55637   1.56601    0.000
 5818.00    1.56474   1.56940    0.000
 5819.00    1.57377   1.57374    0.000
 5820.00    1.58310   1.57898    0.000
 5821.00    1.59012   1.58325    0.000
 5822.00    1.59622   1.58701    0.000
 5823.00    1.59629   1.59042    0.000
 5824.00    1.59433   1.59263    0.000
 5825.00    1.60364   1.59393    0.000
 5826.00    1.61614   1.59492    0.000
 5827.00    1.61986   1.59560    0.000
 5828.00    1.62155   1.59517    0.000
 5829.00    1.61731   1.59438    0.000
 5830.00    1.61196   1.59343    0.000
 5831.00    1.61643   1.59170    0.000
 5832.00    1.62232   1.58954    0.000
 5833.00    1.61726   1.58748    0.000
 5834.00    1.61105   1.58570    0.000
 5835.00    1.60514   1.58427    0.000
 5836.00    1.59925   1.58336    0.000
 5837.00    1.59611   1.58326    0.000
 5838.00    1.59306   1.58461    0.000
 5839.00    1.60436   1.58630    0.000
 5840.00    1.61530   1.58704    0.000
 5841.00    1.61475   1.58779    0.000
 5842.00    1.61361   1.58822    0.000
 5843.00    1.60364   1.58667    0.000
 5844.00    1.59440   1.58321    0.000
 5845.00    1.59219   1.57857    0.000
 5846.00    1.58719   1.57234    0.000
 5847.00    1.56268   1.56475    0.000
 5848.00    1.54154   1.55663    0.000
 5849.00    1.53864   1.54747    0.000
 5850.00    1.53506   1.53772    0.000
 5851.00    1.52852   1.52847    0.000
 5852.00    1.52231   1.51938    0.000
 5853.00    1.51729   1.51052    0.000
 5854.00    1.51336   1.50167    0.000
 5855.00    1.51269   1.49385    0.000
 5856.00    1.51076   1.48875    0.000
 5857.00    1.50564   1.48586    0.000
 5858.00    1.50183   1.48498    0.000
 5859.00    1.50089   1.48484    0.000
 5860.00    1.49632   1.48712    0.000
 5861.00    1.48484   1.49255    0.000
 5862.00    1.48186   1.49806    0.000
 5863.00    1.49300   1.50376    0.000
 5864.00    1.50108   1.50926    0.000
 5865.00    1.50468   1.51498    0.000
 5866.00    1.50714   1.52119    0.000
 5867.00    1.50814   1.52676    0.000
 5868.00    1.51360   1.53113    0.000
 5869.00    1.52409   1.53502    0.000
 5870.00    1.53168   1.53883    0.000
 5871.00    1.53638   1.54164    0.000
 5872.00    1.53960   1.54278    0.000
 5873.00    1.54152   1.54217    0.000
 5874.00    1.53926   1.54011    0.000
 5875.00    1.53378   1.53641    0.000
 5876.00    1.52613   1.53168    0.000
 5877.00    1.51699   1.52542    0.000
 5878.00    1.50503   1.51767    0.000
 5879.00    1.49139   1.50941    0.000
 5880.00    1.47838   1.49949    0.000
 5881.00    1.46571   1.48721    0.000
 5882.00    1.44911   1.47217    0.000
 5883.00    1.43075   1.45383    0.000
 5884.00    1.40792   1.43192    0.000
 5885.00    1.38336   1.40542    0.000
 5886.00    1.35434   1.37288    0.000
 5887.00    1.32385   1.33787    0.000
 5888.00    1.28470   1.30577    0.000
 5889.00    1.24316   1.27447    0.000
 5890.00    1.21044   1.24650    0.000
 5891.00    1.17973   1.22553    0.000
 5892.00    1.16979   1.20899    0.000
 5893.00    1.16362   1.20454    0.000
 5894.00    1.17331   1.21200    0.000
 5895.00    1.18522   1.22293    0.000
 5896.00    1.20108   1.24160    0.000
 5897.00    1.21733   1.26499    0.000
 5898.00    1.24446   1.29016    0.000
 5899.00    1.27228   1.32263    0.000
 5900.00    1.30745   1.35559    0.000
 5901.00    1.34283   1.38406    0.134
 5902.00    1.37244   1.41125    0.135
 5903.00    1.40168   1.43524    0.136
 5904.00    1.42041   1.45467    0.135
 5905.00    1.43963   1.47035    0.133
 5906.00    1.46583   1.48199    0.134
 5907.00    1.48941   1.48989    0.135
 5908.00    1.48844   1.49527    0.135
 5909.00    1.48783   1.49895    0.135
 5910.00    1.48967   1.50011    0.135
 5911.00    1.49086   1.49910    0.134
 5912.00    1.48856   1.49763    0.135
 5913.00    1.48409   1.49553    0.134
 5914.00    1.47042   1.49414    0.133
 5915.00    1.46073   1.49290    0.131
 5916.00    1.46498   1.49153    0.130
 5917.00    1.47383   1.49324    0.130
 5918.00    1.49624   1.49556    0.130
 5919.00    1.51317   1.49841    0.130
 5920.00    1.51637   1.50272    0.131
 5921.00    1.51633   1.50602    0.131
 5922.00    1.50926   1.50947    0.130
 5923.00    1.50435   1.51263    0.130
 5924.00    1.50348   1.51360    0.132
 5925.00    1.50221   1.51453    0.133
 5926.00    1.50028   1.51472    0.132
 5927.00    1.49895   1.51300    0.132
 5928.00    1.49846   1.51252    0.132
 5929.00    1.49439   1.51142    0.132
 5930.00    1.48577   1.50988    0.133
 5931.00    1.48190   1.50887    0.133
 5932.00    1.48331   1.50744    0.132
 5933.00    1.48524   1.50874    0.133
 5934.00    1.48766   1.51034    0.134
 5935.00    1.49296   1.51100    0.134
 5936.00    1.50074   1.51241    0.134
 5937.00    1.50958   1.51320    0.133
 5938.00    1.51922   1.51479    0.133
 5939.00    1.52317   1.51633    0.135
 5940.00    1.52330   1.51664    0.136
 5941.00    1.51905   1.51762    0.136
 5942.00    1.51223   1.51822    0.135
 5943.00    1.50862   1.51772    0.134
 5944.00    1.50665   1.51781    0.133
 5945.00    1.50326   1.51730    0.133
 5946.00    1.49922   1.51587    0.132
 5947.00    1.49390   1.51495    0.132
 5948.00    1.48808   1.51352    0.132
 5949.00    1.48485   1.51081    0.131
 5950.00    1.48247   1.50739    0.129
 5951.00    1.48874   1.50495    0.129
 5952.00    1.49735   1.50400    0.129
 5953.00    1.50197   1.50334    0.129
 5954.00    1.50570   1.50236    0.128
 5955.00    1.50068   1.50216    0.129
 5956.00    1.49411   1.50481    0.130
 5957.00    1.49698   1.50874    0.130
 5958.00    1.50113   1.51225    0.130
 5959.00    1.50811   1.51648    0.130
 5960.00    1.51537   1.52139    0.130
 5961.00    1.51890   1.52701    0.132
 5962.00    1.52219   1.53206    0.134
 5963.00    1.52851   1.53599    0.134
 5964.00    1.53482   1.54022    0.134
 5965.00    1.52770   1.54335    0.134
 5966.00    1.52059   1.54626    0.134
 5967.00    1.51371   1.54872    0.135
 5968.00    1.50747   1.54998    0.136
 5969.00    1.51004   1.55164    0.134
 5970.00    1.51369   1.55207    0.132
 5971.00    1.52694   1.55096    0.133
 5972.00    1.53936   1.54867    0.133
 5973.00    1.54625   1.54475    0.133
 5974.00    1.54964   1.54004    0.133
 5975.00    1.53510   1.53466    0.133
 5976.00    1.51916   1.52894    0.132
 5977.00    1.49741   1.52367    0.130
 5978.00    1.48125   1.51828    0.128
 5979.00    1.48427   1.51388    0.129
 5980.00    1.48875   1.51010    0.130
 5981.00    1.49743   1.50612    0.129
 5982.00    1.50289   1.50428    0.128
 5983.00    1.50040   1.50314    0.128
 5984.00    1.49598   1.50192    0.128
 5985.00    1.48747   1.50213    0.127
 5986.00    1.48219   1.50286    0.127
 5987.00    1.48290   1.50604    0.127
 5988.00    1.48677   1.51043    0.128
 5989.00    1.49575   1.51389    0.130
 5990.00    1.50076   1.51841    0.131
 5991.00    1.50017   1.52258    0.131
 5992.00    1.50150   1.52588    0.131
 5993.00    1.50523   1.52764    0.132
 5994.00    1.50842   1.52727    0.132
 5995.00    1.51099   1.52714    0.133
 5996.00    1.50570   1.52622    0.133
 5997.00    1.49279   1.52375    0.133
 5998.00    1.48737   1.52100    0.133
 5999.00    1.48832   1.51687    0.133
 6000.00    1.50040   1.51272    0.133
 6001.00    1.52083   1.51057    0.133
 6002.00    1.52699   1.50767    0.133
 6003.00    1.52374   1.50459    0.133
 6004.00    1.51808   1.50111    0.133
 6005.00    1.51104   1.49634    0.133
 6006.00    1.50105   1.49504    0.132
 6007.00    1.48958   1.49456    0.131
 6008.00    1.48558   1.49267    0.130
 6009.00    1.48483   1.49147    0.129
 6010.00    1.48376   1.48929    0.129
 6011.00    1.48257   1.48955    0.130
 6012.00    1.48217   1.49141    0.129
 6013.00    1.48203   1.49031    0.127
 6014.00    1.48177   1.48860    0.127
 6015.00    1.48149   1.48714    0.128
 6016.00    1.48322   1.48589    0.128
 6017.00    1.48539   1.48566    0.129
 6018.00    1.48190   1.48463    0.129
 6019.00    1.47742   1.48392    0.129
 6020.00    1.46776   1.48586    0.130
 6021.00    1.45742   1.48785    0.130
 6022.00    1.45803   1.49126    0.130
 6023.00    1.45964   1.49645    0.129
 6024.00    1.47584   1.50187    0.130
 6025.00    1.49286   1.50959    0.130
 6026.00    1.50509   1.51694    0.130
 6027.00    1.51725   1.52470    0.131
 6028.00    1.53216   1.53264    0.132
 6029.00    1.54655   1.53928    0.133
 6030.00    1.54879   1.54649    0.134
 6031.00    1.55124   1.55260    0.135
 6032.00    1.55646   1.55730    0.132
 6033.00    1.56150   1.56112    0.129
 6034.00    1.56496   1.56401    0.130
 6035.00    1.56707   1.56656    0.132
 6036.00    1.56063   1.56777    0.132
 6037.00    1.55459   1.56799    0.131
 6038.00    1.55054   1.56849    0.130
 6039.00    1.54529   1.56847    0.129
 6040.00    1.53519   1.56929    0.128
 6041.00    1.52991   1.57023    0.128
 6042.00    1.54082   1.57099    0.127
 6043.00    1.54989   1.57311    0.127
 6044.00    1.55376   1.57491    0.128
 6045.00    1.55606   1.57710    0.129
 6046.00    1.55457   1.57899    0.128
 6047.00    1.56099   1.58005    0.127
 6048.00    1.58399   1.58037    0.128
 6049.00    1.60108   1.57943    0.128
 6050.00    1.60745   1.57721    0.128
 6051.00    1.60472   1.57399    0.128
 6052.00    1.58754   1.57066    0.128
 6053.00    1.57417   1.56626    0.129
 6054.00    1.56611   1.56184    0.131
 6055.00    1.55610   1.55751    0.132
 6056.00    1.54370   1.55403    0.132
 6057.00    1.53569   1.55129    0.133
 6058.00    1.53241   1.54844    0.133
 6059.00    1.52857   1.54640    0.133
 6060.00    1.52418   1.54442    0.133
 6061.00    1.52413   1.54335    0.133
 6062.00    1.52773   1.54159    0.133
 6063.00    1.53062   1.54118    0.133
 6064.00    1.53297   1.54306    0.133
 6065.00    1.53123   1.54522    0.131
 6066.00    1.52682   1.54945    0.130
 6067.00    1.52861   1.55389    0.129
 6068.00    1.53391   1.56017    0.129
 6069.00    1.54529   1.56848    0.128
 6070.00    1.55968   1.57479    0.128
 6071.00    1.56856   1.57959    0.127
 6072.00    1.57508   1.58249    0.127
 6073.00    1.57386   1.58293    0.127
 6074.00    1.56979   1.58172    0.127
 6075.00    1.56256   1.57746    0.127
 6076.00    1.55436   1.57116    0.126
 6077.00    1.55129   1.56468    0.127
 6078.00    1.54955   1.55648    0.128
 6079.00    1.54950   1.54805    0.127
 6080.00    1.54980   1.54058    0.126
 6081.00    1.54302   1.53408    0.127
 6082.00    1.53505   1.52938    0.129
 6083.00    1.53085   1.52535    0.130
 6084.00    1.52712   1.52189    0.131
 6085.00    1.52482   1.52051    0.132
 6086.00    1.52264   1.51987    0.132
 6087.00    1.52430   1.51850    0.133
 6088.00    1.52616   1.51816    0.133
 6089.00    1.52801   1.51843    0.131
 6090.00    1.52972   1.51905    0.130
 6091.00    1.52124   1.52019    0.131
 6092.00    1.51315   1.52128    0.131
 6093.00    1.51316   1.52278    0.130
 6094.00    1.51374   1.52434    0.129
 6095.00    1.52110   1.52535    0.129
 6096.00    1.52748   1.52637    0.128
 6097.00    1.52560   1.52669    0.127
 6098.00    1.52287   1.52477    0.126
 6099.00    1.51487   1.51994    0.127
 6100.00    1.50711   1.51480    0.126
 6101.00    1.50044   1.51276    0.125
 6102.00    1.49537   1.51066    0.124
 6103.00    1.49662   1.50878    0.126
 6104.00    1.50029   1.50700    0.127
 6105.00    1.51193   1.50692    0.127
 6106.00    1.52240   1.51313    0.126
 6107.00    1.52961   1.51967    0.127
 6108.00    1.53594   1.52456    0.128
 6109.00    1.54016   1.52968    0.129
 6110.00    1.54535   1.53430    0.130
 6111.00    1.55256   1.53955    0.129
 6112.00    1.55722   1.54323    0.129
 6113.00    1.55735   1.54289    0.131
 6114.00    1.55791   1.54154    0.132
 6115.00    1.55915   1.53998    0.131
 6116.00    1.55644   1.53593    0.130
 6117.00    1.54831   1.52986    0.130
 6118.00    1.54043   1.52207    0.130
 6119.00    1.53286   1.51348    0.130
 6120.00    1.52441   1.50793    0.131
 6121.00    1.51503   1.50342    0.131
 6122.00    1.50434   1.49866    0.130
 6123.00    1.49240   1.49644    0.129
 6124.00    1.48941   1.49511    0.128
 6125.00    1.49382   1.49715    0.129
 6126.00    1.49855   1.50171    0.128
 6127.00    1.50350   1.50476    0.127
 6128.00    1.51000   1.50734    0.126
 6129.00    1.51749   1.50826    0.126
 6130.00    1.52319   1.50794    0.126
 6131.00    1.52789   1.50582    0.125
 6132.00    1.52045   1.50087    0.125
 6133.00    1.50709   1.49352    0.124
 6134.00    1.49107   1.48393    0.125
 6135.00    1.47393   1.47665    0.126
 6136.00    1.46460   1.47144    0.127
 6137.00    1.45809   1.46711    0.129
 6138.00    1.46216   1.46479    0.129
 6139.00    1.46947   1.46477    0.130
 6140.00    1.47344   1.47162    0.130
 6141.00    1.47658   1.48220    0.131
 6142.00    1.49690   1.49191    0.132
 6143.00    1.52076   1.50031    0.132
 6144.00    1.53346   1.50722    0.132
 6145.00    1.54433   1.51444    0.132
 6146.00    1.54025   1.51990    0.130
 6147.00    1.53435   1.52196    0.127
 6148.00    1.52720   1.52227    0.129
 6149.00    1.51995   1.52074    0.130
 6150.00    1.51813   1.51826    0.130
 6151.00    1.51658   1.51428    0.129
 6152.00    1.51384   1.50892    0.128
 6153.00    1.51098   1.50363    0.127
 6154.00    1.50121   1.49667    0.127
 6155.00    1.49154   1.48821    0.127
 6156.00    1.48355   1.47729    0.126
 6157.00    1.47426   1.46399    0.126
 6158.00    1.45003   1.44921    0.126
 6159.00    1.42622   1.43367    0.126
 6160.00    1.40568   1.41917    0.126
 6161.00    1.38714   1.40650    0.125
 6162.00    1.38057   1.39599    0.125
 6163.00    1.37499   1.38676    0.125
 6164.00    1.37413   1.38163    0.125
 6165.00    1.37354   1.38127    0.124
 6166.00    1.37402   1.38321    0.125
 6167.00    1.37554   1.38778    0.126
 6168.00    1.38040   1.39406    0.127
 6169.00    1.38807   1.40176    0.127
 6170.00    1.40343   1.40954    0.127
 6171.00    1.41503   1.41646    0.127
 6172.00    1.41785   1.42433    0.129
 6173.00    1.41808   1.43394    0.129
 6174.00    1.41307   1.44334    0.128
 6175.00    1.40550   1.45148    0.127
 6176.00    1.39340   1.45928    0.126
 6177.00    1.38595   1.46602    0.126
 6178.00    1.38569   1.47222    0.126
 6179.00    1.38575   1.47737    0.125
 6180.00    1.38626   1.48120    0.125
 6181.00    1.39214   1.48345    0.125
 6182.00    1.40440   1.48320    0.124
 6183.00    1.41681   1.48097    0.124
 6184.00    1.42937   1.47730    0.124
 6185.00    1.43522   1.47179    0.124
 6186.00    1.43484   1.46475    0.125
 6187.00    1.42819   1.45763    0.125
 6188.00    1.41640   1.44899    0.125
 6189.00    1.40302   1.44209    0.126
 6190.00    1.38851   1.43869    0.127
 6191.00    1.37958   1.43650    0.125
 6192.00    1.37418   1.43715    0.123
 6193.00    1.36897   1.43851    0.123
 6194.00    1.36386   1.44228    0.125
 6195.00    1.36558   1.44913    0.128
 6196.00    1.37059   1.45456   -2.000
 6197.00    1.39218   1.45996   -2.000
 6198.00    1.42066   1.46543   -2.000
 6199.00    1.44455   1.47048   -2.000
 6200.00    1.46682   1.47500   -2.000
 6201.00    1.47298   1.47807   -2.000
 6202.00    1.47431   1.48102   -2.000
 6203.00    1.46436   1.48469   -2.000
 6204.00    1.45161   1.48775   -2.000
 6205.00    1.45552   1.48920   -2.000
 6206.00    1.46279   1.48888   -2.000
 6207.00    1.46073   1.48645   -2.000
 6208.00    1.45719   1.48203    0.130
 6209.00    1.45161   1.47568    0.128
 6210.00    1.44578   1.46660    0.126
 6211.00    1.43978   1.45613    0.125
 6212.00    1.43377   1.44519    0.123
 6213.00    1.41675   1.43397    0.122
 6214.00    1.39925   1.42434    0.121
 6215.00    1.39142   1.41534    0.120
 6216.00    1.38395   1.40756    0.118
 6217.00    1.38867   1.40287    0.120
 6218.00    1.39322   1.40044    0.122
 6219.00    1.39473   1.40058    0.123
 6220.00    1.39548   1.40214    0.123
 6221.00    1.38795   1.40301    0.123
 6222.00    1.38164   1.40482    0.122
 6223.00    1.38477   1.40701    0.123
 6224.00    1.38874   1.40851    0.124
 6225.00    1.39757   1.40926    0.125
 6226.00    1.40490   1.40779    0.126
 6227.00    1.40529   1.40542    0.128
 6228.00    1.40562   1.40285    0.130
 6229.00    1.40570   1.40109    0.130
 6230.00    1.40460   1.39971    0.130
 6231.00    1.39974   1.39960    0.129
 6232.00    1.39621   1.39996    0.128
 6233.00    1.39626   1.40117    0.127
 6234.00    1.39659   1.40446    0.126
 6235.00    1.39758   1.40657    0.123
 6236.00    1.39778   1.40899    0.122
 6237.00    1.39643   1.40939    0.121
 6238.00    1.39571   1.40793    0.122
 6239.00    1.39608   1.40539    0.122
 6240.00    1.39347   1.40049    0.122
 6241.00    1.38634   1.39648    0.123
 6242.00    1.37634   1.39255    0.122
 6243.00    1.36251   1.38989    0.121
 6244.00    1.35435   1.38922    0.120
 6245.00    1.35288   1.38855    0.120
 6246.00    1.35317   1.38940    0.120
 6247.00    1.35530   1.39055    0.121
 6248.00    1.36335   1.39071    0.122
 6249.00    1.37681   1.39009    0.125
 6250.00    1.38594   1.38870    0.126
 6251.00    1.39156   1.38525    0.127
 6252.00    1.39000   1.38049    0.127
 6253.00    1.38336   1.37466    0.126
 6254.00    1.37590   1.36805    0.126
 6255.00    1.36793   1.36327    0.126
 6256.00    1.35899   1.36021    0.126
 6257.00    1.34951   1.36088    0.125
 6258.00    1.34533   1.36307    0.126
 6259.00    1.34365   1.36763    0.127
 6260.00    1.34711   1.37467    0.132
 6261.00    1.35267   1.38286    0.138
 6262.00    1.36983   1.39294    0.142
 6263.00    1.39103   1.40224    0.145
 6264.00    1.40108   1.41156    0.144
 6265.00    1.40785   1.41970    0.142
 6266.00    1.40679   1.42583    0.136
 6267.00    1.40383   1.43055    0.130
 6268.00    1.41097   1.43481    0.125
 6269.00    1.42010   1.43889    0.121
 6270.00    1.42619   1.44200    0.121
 6271.00    1.43182   1.44424    0.121
 6272.00    1.43598   1.44625    0.122
 6273.00    1.43998   1.44799    0.122
 6274.00    1.45005   1.44911    0.123
 6275.00    1.46058   1.44975    0.124
 6276.00    1.46781   1.44975    0.125
 6277.00    1.47492   1.44907    0.126
 6278.00    1.46920   1.44869    0.127
 6279.00    1.46333   1.44880    0.129
 6280.00    1.45483   1.44916    0.000
 6281.00    1.44632   1.45093    0.000
 6282.00    1.43775   1.45259    0.000
 6283.00    1.43020   1.45577    0.000
 6284.00    1.43333   1.46030    0.000
 6285.00    1.43725   1.46449    0.000
 6286.00    1.44708   1.46924    0.000
 6287.00    1.45665   1.47201    0.000
 6288.00    1.46479   1.47384    0.000
 6289.00    1.47329   1.47474    0.000
 6290.00    1.48348   1.47364    0.000
 6291.00    1.49347   1.47141    0.000
 6292.00    1.50276   1.46728    0.000
 6293.00    1.50645   1.46164    0.000
 6294.00    1.49276   1.45583    0.000
 6295.00    1.47697   1.44975    0.000
 6296.00    1.45561   1.44436    0.000
 6297.00    1.43776   1.43960    0.000
 6298.00    1.42785   1.43486    0.000
 6299.00    1.42296   1.43168    0.000
 6300.00    1.42790   1.43039    0.000
 6301.00    1.42976   1.43108    0.000
 6302.00    1.42634   1.43334    0.000
 6303.00    1.42708   1.43627    0.000
 6304.00    1.43406   1.44062    0.000
 6305.00    1.44267   1.44549    0.000
 6306.00    1.45343   1.45024    0.000
 6307.00    1.46189   1.45412    0.000
 6308.00    1.46768   1.45651    0.000
 6309.00    1.46893   1.45779    0.000
 6310.00    1.46556   1.45677    0.000
 6311.00    1.46294   1.45420    0.000
 6312.00    1.46100   1.44962    0.000
 6313.00    1.44909   1.44417    0.000
 6314.00    1.42926   1.43891    0.000
 6315.00    1.41466   1.43379    0.000
 6316.00    1.40372   1.43020    0.000
 6317.00    1.40500   1.42770    0.000
 6318.00    1.41379   1.42759    0.000
 6319.00    1.41975   1.42965    0.000
 6320.00    1.42420   1.43253    0.000
 6321.00    1.42757   1.43848    0.120
 6322.00    1.43043   1.44520    0.121
 6323.00    1.43108   1.45265    0.122
 6324.00    1.43084   1.45991    0.124
 6325.00    1.43890   1.46615    0.123
 6326.00    1.44979   1.47255    0.122
 6327.00    1.46363   1.47636    0.122
 6328.00    1.47831   1.47957    0.124
 6329.00    1.47745   1.48081    0.124
 6330.00    1.47289   1.48007    0.124
 6331.00    1.46643   1.47839    0.125
 6332.00    1.45961   1.47438    0.127
 6333.00    1.45488   1.47044    0.126
 6334.00    1.45046   1.46617    0.126
 6335.00    1.45446   1.46224    0.125
 6336.00    1.45937   1.45864    0.124
 6337.00    1.45611   1.45506    0.124
 6338.00    1.45228   1.45290    0.124
 6339.00    1.44784   1.45159    0.124
 6340.00    1.44337   1.45195    0.123
 6341.00    1.45339   1.45257    0.122
 6342.00    1.46329   1.45444    0.121
 6343.00    1.46707   1.45679    0.120
 6344.00    1.47022   1.45875    0.120
 6345.00    1.46313   1.46139    0.120
 6346.00    1.45637   1.46375    0.121
 6347.00    1.45298   1.46680    0.120
 6348.00    1.45104   1.46941    0.120
 6349.00    1.45971   1.47094    0.121
 6350.00    1.46731   1.47138    0.122
 6351.00    1.46907   1.47009    0.122
 6352.00    1.46915   1.46677    0.123
 6353.00    1.46176   1.46171    0.124
 6354.00    1.45361   1.45501    0.124
 6355.00    1.44274   1.44675    0.123
 6356.00    1.43221   1.43750    0.123
 6357.00    1.42271   1.42799    0.125
 6358.00    1.41357   1.41962    0.126
 6359.00    1.40537   1.41237    0.126
 6360.00    1.39925   1.40691    0.125
 6361.00    1.39775   1.40403    0.123
 6362.00    1.39811   1.40407    0.121
 6363.00    1.40209   1.40705    0.123
 6364.00    1.40558   1.41248    0.123
 6365.00    1.40826   1.42060    0.122
 6366.00    1.41117   1.43030    0.122
 6367.00    1.41444   1.44117    0.123
 6368.00    1.42277   1.45250    0.123
 6369.00    1.43766   1.46336    0.121
 6370.00    1.45250   1.47358    0.121
 6371.00    1.46727   1.48205    0.122
 6372.00    1.47950   1.48899    0.122
 6373.00    1.48916   1.49411    0.123
 6374.00    1.49686   1.49772    0.124
 6375.00    1.50280   1.49982    0.124
 6376.00    1.50200   1.50026    0.124
 6377.00    1.49593   1.50003    0.125
 6378.00    1.48841   1.49885    0.124
 6379.00    1.47991   1.49746    0.123
 6380.00    1.47700   1.49593    0.123
 6381.00    1.47748   1.49471    0.124
 6382.00    1.47629   1.49420    0.125
 6383.00    1.47422   1.49377    0.126
 6384.00    1.47735   1.49412    0.125
 6385.00    1.48286   1.49432    0.125
 6386.00    1.49103   1.49400    0.124
 6387.00    1.50026   1.49319    0.124
 6388.00    1.50016   1.49112    0.124
 6389.00    1.49693   1.48869    0.124
 6390.00    1.49466   1.48554    0.123
 6391.00    1.49266   1.48215    0.122
 6392.00    1.49279   1.47892    0.122
 6393.00    1.49341   1.47547    0.123
 6394.00    1.49006   1.47241    0.123
 6395.00    1.48597   1.46889    0.123
 6396.00    1.47110   1.46752    0.123
 6397.00    1.45467   1.46725    0.123
 6398.00    1.44753   1.46812    0.123
 6399.00    1.44135   1.47032    0.124
 6400.00    1.44380   1.47214    0.123
 6401.00    1.44683   1.47441    0.122
 6402.00    1.44587   1.47577    0.124
 6403.00    1.44479   1.47805    0.125
 6404.00    1.44563   1.48057    0.124
 6405.00    1.44674   1.48209    0.123
 6406.00    1.45644   1.48314    0.123
 6407.00    1.46601   1.48265    0.124
 6408.00    1.47358   1.48140    0.125
 6409.00    1.47953   1.47969    0.125
 6410.00    1.46981   1.47782    0.126
 6411.00    1.45922   1.47690    0.126
 6412.00    1.44246   1.47601    0.125
 6413.00    1.42808   1.47521    0.124
 6414.00    1.42652   1.47479    0.121
 6415.00    1.42630   1.47415    0.119
 6416.00    1.43185   1.47367    0.120
 6417.00    1.43798   1.47380    0.120
 6418.00    1.44621   1.47472    0.122
 6419.00    1.45439   1.47551    0.122
 6420.00    1.46244   1.47717    0.122
 6421.00    1.46891   1.47932    0.121
 6422.00    1.47135   1.48188    0.121
 6423.00    1.47351   1.48515    0.121
 6424.00    1.47506   1.48844    0.121
 6425.00    1.47522   1.49154    0.121
 6426.00    1.47275   1.49325    0.122
 6427.00    1.46895   1.49450    0.123
 6428.00    1.46294   1.49431    0.124
 6429.00    1.46139   1.49342    0.126
 6430.00    1.46633   1.49213    0.128
 6431.00    1.47212   1.49055    0.129
 6432.00    1.47899   1.48918    0.128
 6433.00    1.48092   1.48757    0.127
 6434.00    1.47731   1.48721    0.126
 6435.00    1.47683   1.48798    0.125
 6436.00    1.47948   1.48991    0.124
 6437.00    1.48061   1.49257    0.123
 6438.00    1.48042   1.49538    0.123
 6439.00    1.47867   1.49853    0.123
 6440.00    1.47572   1.50161    0.123
 6441.00    1.47621   1.50451    0.122
 6442.00    1.47905   1.50729    0.120
 6443.00    1.48290   1.50889    0.120
 6444.00    1.48736   1.50848    0.122
 6445.00    1.48951   1.50618    0.122
 6446.00    1.49045   1.50237    0.121
 6447.00    1.48731   1.49704    0.122
 6448.00    1.48233   1.49149    0.124
 6449.00    1.47021   1.48579    0.126
 6450.00    1.45533   1.48061    0.127
 6451.00    1.45029   1.47677    0.127
 6452.00    1.44849   1.47480    0.126
 6453.00    1.45443   1.47576    0.126
 6454.00    1.46251   1.47811    0.125
 6455.00    1.46194   1.48239    0.127
 6456.00    1.45940   1.48677    0.128
 6457.00    1.46263   1.48953    0.128
 6458.00    1.46690   1.49173    0.128
 6459.00    1.47310   1.49370    0.126
 6460.00    1.47958   1.49467    0.124
 6461.00    1.47683   1.49560    0.123
 6462.00    1.47316   1.49602    0.122
 6463.00    1.47217   1.49638    0.121
 6464.00    1.47135   1.49625    0.119
 6465.00    1.47955   1.49676    0.121
 6466.00    1.48797   1.49805    0.122
 6467.00    1.48681   1.49940    0.122
 6468.00    1.48565   1.50223    0.122
 6469.00    1.48454   1.50393    0.121
 6470.00    1.48411   1.50515    0.121
 6471.00    1.49328   1.50552    0.123
 6472.00    1.50231   1.50600    0.124
 6473.00    1.50996   1.50549    0.125
 6474.00    1.51552   1.50474    0.126
 6475.00    1.50685   1.50410    0.125
 6476.00    1.49928   1.50223    0.125
 6477.00    1.49747   1.50002    0.126
 6478.00    1.49584   1.49725    0.126
 6479.00    1.49492   1.49446    0.127
 6480.00    1.49264   1.49132    0.127
 6481.00    1.48557   1.48845    0.125
 6482.00    1.48025   1.48550    0.123
 6483.00    1.48006   1.48255    0.124
 6484.00    1.48166   1.47959    0.124
 6485.00    1.48773   1.47616    0.122
 6486.00    1.49126   1.47202    0.121
 6487.00    1.48931   1.46672    0.121
 6488.00    1.48275   1.45958    0.121
 6489.00    1.46754   1.44916    0.121
 6490.00    1.44929   1.43680    0.121
 6491.00    1.42607   1.42294    0.120
 6492.00    1.40384   1.40813    0.119
 6493.00    1.38304   1.39419    0.119
 6494.00    1.36898   1.38115    0.120
 6495.00    1.36342   1.37183    0.121
 6496.00    1.36295   1.36605    0.122
 6497.00    1.36815   1.36494    0.122
 6498.00    1.37461   1.36855    0.122
 6499.00    1.38229   1.37616    0.123
 6500.00    1.39001   1.38843    0.124
 6501.00    1.39778   1.40199    0.124
 6502.00    1.41353   1.41706    0.125
 6503.00    1.43535   1.43140    0.125
 6504.00    1.45143   1.44473    0.125
 6505.00    1.46367   1.45696    0.125
 6506.00    1.47073   1.46680    0.125
 6507.00    1.47476   1.47462    0.124
 6508.00    1.47928   1.48038    0.123
 6509.00    1.48405   1.48427    0.123
 6510.00    1.48554   1.48634    0.122
 6511.00    1.48559   1.48698    0.120
 6512.00    1.48559   1.48659    0.120
 6513.00    1.48557   1.48541    0.121
 6514.00    1.48879   1.48380    0.121
 6515.00    1.49306   1.48253    0.120
 6516.00    1.49541   1.48101    0.120
 6517.00    1.49725   1.48007    0.120
 6518.00    1.49520   1.47966    0.121
 6519.00    1.49229   1.48009    0.123
 6520.00    1.49291   1.48125    0.124
 6521.00    1.49416   1.48280    0.124
 6522.00    1.49135   1.48477    0.125
 6523.00    1.48799   1.48660    0.126
 6524.00    1.48451   1.48864    0.127
 6525.00    1.48101   1.48993    0.128
 6526.00    1.48408   1.49045    0.127
 6527.00    1.48754   1.49042    0.125
 6528.00    1.48989   1.49009    0.000
 6529.00    1.49218   1.48984    0.000
 6530.00    1.48772   1.48977    0.000
 6531.00    1.48357   1.48984    0.000
 6532.00    1.48734   1.49046    0.000
 6533.00    1.49139   1.49164    0.000
 6534.00    1.49917   1.49300    0.000
 6535.00    1.50593   1.49456    0.000
 6536.00    1.50348   1.49573    0.000
 6537.00    1.50142   1.49673    0.000
 6538.00    1.50187   1.49710    0.000
 6539.00    1.50381   1.49647    0.000
 6540.00    1.51332   1.49463    0.000
 6541.00    1.52132   1.49096    0.000
 6542.00    1.52302   1.48672    0.000
 6543.00    1.52563   1.48167    0.000
 6544.00    1.53135   1.47607    0.000
 6545.00    1.53778   1.46992    0.000
 6546.00    1.54626   1.46349    0.000
 6547.00    1.55337   1.45755    0.000
 6548.00    1.55711   1.45142    0.000
 6549.00    1.55398   1.44555    0.000
 6550.00    1.53624   1.43899    0.000
 6551.00    1.51734   1.43221    0.000
 6552.00    1.49631   1.42493    0.000
 6553.00    1.47670   1.41584    0.000
 6554.00    1.45936   1.40507    0.000
 6555.00    1.44217   1.39206    0.000
 6556.00    1.42519   1.37720    0.000
 6557.00    1.41405   1.36044    0.000
 6558.00    1.41018   1.34241    0.000
 6559.00    1.41116   1.32612    0.000
 6560.00    1.41748   1.31107    0.000
 6561.00    1.41870   1.29898    0.000
 6562.00    1.41498   1.29054    0.000
 6563.00    1.41110   1.28669    0.000
 6564.00    1.40707   1.28801    0.000
 6565.00    1.40847   1.29408    0.000
 6566.00    1.41395   1.30470    0.000
 6567.00    1.42226   1.31772    0.000
 6568.00    1.43244   1.33466    0.000
 6569.00    1.43848   1.35166    0.000
 6570.00    1.44212   1.36591    0.000
 6571.00    1.43843   1.37864    0.000
 6572.00    1.43104   1.38931    0.000
 6573.00    1.42880   1.39821    0.000
 6574.00    1.42881   1.40603    0.000
 6575.00    1.42645   1.41332    0.000
 6576.00    1.42320   1.41990    0.000
 6577.00    1.43710   1.42600    0.000
 6578.00    1.45644   1.43227    0.000
 6579.00    1.49419   1.43782    0.000
 6580.00    1.53680   1.44339    0.000
 6581.00    1.57392   1.44803    0.000
 6582.00    1.60985   1.45191    0.000
 6583.00    1.63293   1.45485    0.000
 6584.00    1.65381   1.45692    0.000
 6585.00    1.64969   1.45794    0.000
 6586.00    1.64232   1.45810    0.000
 6587.00    1.60604   1.45729    0.000
 6588.00    1.56713   1.45487    0.000
 6589.00    1.53591   1.45181    0.000
 6590.00    1.50511   1.44799    0.000
 6591.00    1.49055   1.44381    0.000
 6592.00    1.47632   1.44017    0.000
 6593.00    1.46041   1.43672    0.000
 6594.00    1.44485   1.43463    0.000
 6595.00    1.43715   1.43389    0.000
 6596.00    1.43048   1.43452    0.000
 6597.00    1.43680   1.43622    0.000
 6598.00    1.44298   1.43948    0.000
 6599.00    1.44793   1.44365    0.000
 6600.00    1.45255   1.44700    0.000
 6601.00    1.45513   1.44943    0.000
 6602.00    1.45816   1.45070    0.000
 6603.00    1.46342   1.45104    0.000
 6604.00    1.46793   1.45064    0.000
 6605.00    1.46946   1.44965    0.000
 6606.00    1.46885   1.44821    0.000
 6607.00    1.46104   1.44680    0.000
 6608.00    1.45380   1.44624    0.000
 6609.00    1.44815   1.44641    0.121
 6610.00    1.44570   1.44826    0.121
 6611.00    1.45098   1.45097    0.122
 6612.00    1.45562   1.45471    0.124
 6613.00    1.45889   1.45884    0.124
 6614.00    1.46322   1.46352    0.125
 6615.00    1.46945   1.46840    0.125
 6616.00    1.47574   1.47202    0.126
 6617.00    1.48212   1.47460    0.125
 6618.00    1.48358   1.47576    0.125
 6619.00    1.47820   1.47638    0.125
 6620.00    1.47450   1.47545    0.124
 6621.00    1.47286   1.47345    0.124
 6622.00    1.46798   1.47043    0.124
 6623.00    1.45960   1.46691    0.124
 6624.00    1.45413   1.46290    0.124
 6625.00    1.45141   1.45849    0.123
 6626.00    1.44646   1.45404    0.121
 6627.00    1.43962   1.44932    0.120
 6628.00    1.42752   1.44505    0.120
 6629.00    1.41152   1.44084    0.120
 6630.00    1.40132   1.43778    0.120
 6631.00    1.39488   1.43500    0.120
 6632.00    1.39662   1.43263    0.121
 6633.00    1.40299   1.43107    0.123
 6634.00    1.40308   1.43026    0.123
 6635.00    1.40006   1.43036    0.122
 6636.00    1.40535   1.43098    0.123
 6637.00    1.41421   1.43216    0.125
 6638.00    1.42634   1.43351    0.127
 6639.00    1.43967   1.43539    0.129
 6640.00    1.44257   1.43703    0.129
 6641.00    1.44223   1.43829    0.128
 6642.00    1.43861   1.43914    0.126
 6643.00    1.43415   1.43967    0.123
 6644.00    1.43260   1.44015    0.123
 6645.00    1.43168   1.44085    0.123
 6646.00    1.43014   1.44164    0.123
 6647.00    1.42851   1.44210    0.123
 6648.00    1.42644   1.44285    0.122
 6649.00    1.42431   1.44393    0.121
 6650.00    1.42301   1.44472    0.121
 6651.00    1.42178   1.44514    0.120
 6652.00    1.42368   1.44513    0.121
 6653.00    1.42575   1.44492    0.122
 6654.00    1.42769   1.44402    0.122
 6655.00    1.42963   1.44260    0.122
 6656.00    1.43163   1.44031    0.123
 6657.00    1.43347   1.43773    0.124
 6658.00    1.43213   1.43446    0.126
 6659.00    1.43011   1.43090    0.128
 6660.00    1.42002   1.42713    0.126
 6661.00    1.41025   1.42323    0.124
 6662.00    1.40322   1.42010    0.124
 6663.00    1.39648   1.41744    0.123
 6664.00    1.39156   1.41599    0.124
 6665.00    1.38708   1.41545    0.124
 6666.00    1.38475   1.41634    0.124
 6667.00    1.38610   1.41796    0.124
 6668.00    1.40197   1.42055    0.124
 6669.00    1.41589   1.42373    0.124
 6670.00    1.42344   1.42629    0.124
 6671.00    1.43073   1.42814    0.124
 6672.00    1.43727   1.42923    0.123
 6673.00    1.44179   1.42925    0.124
 6674.00    1.44155   1.42820    0.125
 6675.00    1.43943   1.42623    0.126
 6676.00    1.43347   1.42368    0.126
 6677.00    1.42479   1.42129    0.125
 6678.00    1.41127   1.41923    0.125
 6679.00    1.39894   1.41824    0.125
 6680.00    1.38848   1.41812    0.125
 6681.00    1.38449   1.41909    0.125
 6682.00    1.38938   1.42089    0.125
 6683.00    1.39771   1.42383    0.125
 6684.00    1.41022   1.42737    0.126
 6685.00    1.42041   1.43039    0.126
 6686.00    1.42816   1.43323    0.126
 6687.00    1.42801   1.43529    0.125
 6688.00    1.42044   1.43655    0.123
 6689.00    1.41417   1.43683    0.123
 6690.00    1.40896   1.43632    0.123
 6691.00    1.40771   1.43509    0.123
 6692.00    1.40935   1.43314    0.123
 6693.00    1.40991   1.43101    0.123
 6694.00    1.40978   1.42852    0.123
 6695.00    1.40544   1.42617    0.123
 6696.00    1.39876   1.42387    0.000
 6697.00    1.39438   1.42207    0.000
 6698.00    1.39113   1.42071    0.000
 6699.00    1.39073   1.41997    0.000
 6700.00    1.39152   1.41951    0.000
 6701.00    1.39272   1.41950    0.000
 6702.00    1.39407   1.41983    0.000
 6703.00    1.38751   1.41990    0.000
 6704.00    1.37853   1.42011    0.000
 6705.00    1.38184   1.41972    0.000
 6706.00    1.38826   1.41885    0.000
 6707.00    1.38758   1.41737    0.000
 6708.00    1.38543   1.41510    0.000
 6709.00    1.38688   1.41234    0.000
 6710.00    1.38891   1.40880    0.000
 6711.00    1.39892   1.40479    0.000
 6712.00    1.40990   1.40041    0.000
 6713.00    1.42862   1.39590    0.000
 6714.00    1.44799   1.39162    0.000
 6715.00    1.45668   1.38786    0.000
 6716.00    1.46486   1.38546    0.000
 6717.00    1.45545   1.38397    0.000
 6718.00    1.44560   1.38405    0.000
 6719.00    1.42575   1.38530    0.000
 6720.00    1.40606   1.38771    0.000
 6721.00    1.38982   1.39112    0.000
 6722.00    1.37412   1.39487    0.000
 6723.00    1.36467   1.39927    0.000
 6724.00    1.35752   1.40318    0.000
 6725.00    1.36871   1.40699    0.000
 6726.00    1.38200   1.41004    0.000
 6727.00    1.40788   1.41281    0.000
 6728.00    1.43190   1.41493    0.000
 6729.00    1.44709   1.41665    0.000
 6730.00    1.45862   1.41765    0.000
 6731.00    1.45602   1.41820    0.000
 6732.00    1.45477   1.41819    0.000
 6733.00    1.45787   1.41759    0.000
 6734.00    1.45803   1.41660    0.000
 6735.00    1.45018   1.41483    0.000
 6736.00    1.44192   1.41281    0.000
 6737.00    1.43268   1.41030    0.000
 6738.00    1.42269   1.40786    0.000
 6739.00    1.41118   1.40518    0.000
 6740.00    1.39946   1.40277    0.000
 6741.00    1.38739   1.40035    0.000
 6742.00    1.37690   1.39818    0.000
 6743.00    1.36884   1.39615    0.000
 6744.00    1.36416   1.39440    0.000
 6745.00    1.36405   1.39300    0.000
 6746.00    1.36253   1.39163    0.000
 6747.00    1.35931   1.39084    0.000
 6748.00    1.35271   1.39016    0.000
 6749.00    1.34254   1.39034    0.000
 6750.00    1.34028   1.39082    0.000
 6751.00    1.34532   1.39247    0.000
 6752.00    1.35359   1.39456    0.000
 6753.00    1.36449   1.39764    0.133
 6754.00    1.36927   1.40139    0.135
 6755.00    1.36966   1.40555    0.137
 6756.00    1.35648   1.41023    0.137
 6757.00    1.33475   1.41437    0.138
 6758.00    1.33845   1.41860    0.138
 6759.00    1.35615   1.42161    0.140
 6760.00    1.40346   1.42397    0.141
 6761.00    1.46494   1.42512    0.143
 6762.00    1.52148   1.42513    0.146
 6763.00    1.57596   1.42414    0.149
 6764.00    1.59452   1.42227    0.150
 6765.00    1.60038   1.42001    0.151
 6766.00    1.59218   1.41751    0.149
 6767.00    1.57977   1.41545    0.146
 6768.00    1.57282   1.41384    0.146
 6769.00    1.56723   1.41326    0.146
 6770.00    1.54584   1.41360    0.143
 6771.00    1.52128   1.41498    0.140
 6772.00    1.49380   1.41722    0.139
 6773.00    1.46586   1.42007    0.138
 6774.00    1.44888   1.42318    0.135
 6775.00    1.43318   1.42600    0.132
 6776.00    1.41867   1.42825    0.132
 6777.00    1.40425   1.42932    0.131
 6778.00    1.43024   1.42934    0.134
 6779.00    1.45798   1.42807    0.136
 6780.00    1.46293   1.42555    0.138
 6781.00    1.46721   1.42216    0.140
 6782.00    1.45129   1.41807    0.140
 6783.00    1.43641   1.41413    0.139
 6784.00    1.44040   1.41025    0.138
 6785.00    1.44371   1.40736    0.137
 6786.00    1.43960   1.40509    0.138
 6787.00    1.43534   1.40387    0.139
 6788.00    1.42995   1.40344    0.139
 6789.00    1.42862   1.40372    0.139
 6790.00    1.45089   1.40452    0.140
 6791.00    1.46747   1.40553    0.142
 6792.00    1.45777   1.40676    0.141
 6793.00    1.45326   1.40776    0.140
 6794.00    1.46835   1.40887    0.138
 6795.00    1.47385   1.40980    0.136
 6796.00    1.44912   1.41080    0.135
 6797.00    1.43573   1.41193    0.134
 6798.00    1.45274   1.41309    0.134
 6799.00    1.46286   1.41431    0.134
 6800.00    1.45712   1.41540    0.134
 6801.00    1.45019   1.41651    0.134
 6802.00    1.44091   1.41730    0.135
 6803.00    1.43689   1.41783    0.135
 6804.00    1.44199   1.41809    0.135
 6805.00    1.44011   1.41796    0.135
 6806.00    1.42763   1.41765    0.135
 6807.00    1.42054   1.41722    0.134
 6808.00    1.42062   1.41672    0.134
 6809.00    1.42617   1.41622    0.135
 6810.00    1.43816   1.41576    0.136
 6811.00    1.43927   1.41554    0.138
 6812.00    1.42914   1.41559    0.139
 6813.00    1.43409   1.41576    0.140
 6814.00    1.45280   1.41636    0.140
 6815.00    1.45108   1.41720    0.140
 6816.00    1.43290   1.41825    0.138
 6817.00    1.42127   1.41958    0.137
 6818.00    1.41429   1.42120    0.136
 6819.00    1.41323   1.42271    0.134
 6820.00    1.41585   1.42435    0.131
 6821.00    1.42511   1.42577    0.131
 6822.00    1.43795   1.42718    0.131
 6823.00    1.44177   1.42827    0.132
 6824.00    1.44132   1.42892    0.132
 6825.00    1.43991   1.42920    0.133
 6826.00    1.43810   1.42915    0.133
 6827.00    1.43036   1.42893    0.134
 6828.00    1.42058   1.42854    0.136
 6829.00    1.43503   1.42801    0.138
 6830.00    1.45658   1.42718    0.141
 6831.00    1.46305   1.42627    0.141
 6832.00    1.46586   1.42490    0.140
 6833.00    1.45855   1.42324    0.138
 6834.00    1.44925   1.42086    0.136
 6835.00    1.45269   1.41804    0.138
 6836.00    1.45807   1.41468    0.140
 6837.00    1.45004   1.41090    0.140
 6838.00    1.44049   1.40694    0.140
 6839.00    1.42705   1.40315    0.139
 6840.00    1.41332   1.40011    0.138
 6841.00    1.40129   1.39796    0.137
 6842.00    1.38934   1.39705    0.135
 6843.00    1.38357   1.39725    0.134
 6844.00    1.37861   1.39867    0.132
 6845.00    1.40425   1.40082    0.131
 6846.00    1.42914   1.40341    0.129
 6847.00    1.44137   1.40601    0.133
 6848.00    1.45225   1.40813    0.136
 6849.00    1.44904   1.40955    0.136
 6850.00    1.44549   1.40991    0.136
 6851.00    1.43933   1.40921    0.137
 6852.00    1.43142   1.40745    0.138
 6853.00    1.41358   1.40491    0.137
 6854.00    1.39635   1.40195    0.135
 6855.00    1.38182   1.39882    0.134
 6856.00    1.36981   1.39588    0.134
 6857.00    1.36712   1.39338    0.135
 6858.00    1.36080   1.39148    0.135
 6859.00    1.34324   1.39032    0.134
 6860.00    1.33177   1.38978    0.133
 6861.00    1.33632   1.38981    0.132
 6862.00    1.34402   1.39031    0.131
 6863.00    1.35878   1.39112    0.131
 6864.00    1.37110   1.39188    0.131
 6865.00    1.37861   1.39258    0.132
 6866.00    1.38343   1.39309    0.134
 6867.00    1.38367   1.39330    0.137
 6868.00    1.38446   1.39350    0.139
 6869.00    1.38608   1.39367    0.139
 6870.00    1.38921   1.39401    0.139
 6871.00    1.39435   1.39445    0.138
 6872.00    1.39145   1.39521    0.137
 6873.00    1.37927   1.39621    0.136
 6874.00    1.36846   1.39752    0.135
 6875.00    1.35905   1.39901    0.133
 6876.00    1.35327   1.40067    0.133
 6877.00    1.35077   1.40214    0.133
 6878.00    1.35069   1.40355    0.134
 6879.00    1.35255   1.40471    0.134
 6880.00    1.35266   1.40595    0.134
 6881.00    1.35156   1.40705    0.133
 6882.00    1.35649   1.40850    0.132
 6883.00    1.36512   1.41016    0.132
 6884.00    1.37276   1.41237    0.131
 6885.00    1.37987   1.41498    0.131
 6886.00    1.37712   1.41804    0.131
 6887.00    1.36981   1.42143    0.133
 6888.00    1.37050   1.42482    0.134
 6889.00    1.37438   1.42824    0.135
 6890.00    1.37651   1.43122    0.135
 6891.00    1.37805   1.43389    0.136
 6892.00    1.38230   1.43581    0.137
 6893.00    1.38732   1.43731    0.138
 6894.00    1.40021   1.43821    0.139
 6895.00    1.41496   1.43879    0.139
 6896.00    1.41320   1.43921    0.138
 6897.00    1.40829   1.43951    0.137
 6898.00    1.40619   1.43996    0.137
 6899.00    1.40450   1.44047    0.136
 6900.00    1.40892   1.44136    0.136
 6901.00    1.41400   1.44223    0.135
 6902.00    1.41637   1.44344    0.134
 6903.00    1.41855   1.44449    0.133
 6904.00    1.41095   1.44561    0.133
 6905.00    1.40300   1.44635    0.133
 6906.00    1.40572   1.44684    0.134
 6907.00    1.40829   1.44676    0.134
 6908.00    1.40457   1.44614    0.134
 6909.00    1.40011   1.44503    0.134
 6910.00    1.38408   1.44334    0.135
 6911.00    1.36982   1.44141    0.137
 6912.00    1.37326   1.43910    0.137
 6913.00    1.36611   1.43703    0.138
 6914.00    1.28286   1.43500    0.136
 6915.00    1.23078   1.43351    0.135
 6916.00    1.35060   1.43234    0.141
 6917.00    1.44975   1.43161    0.146
 6918.00    1.45775   1.43124    0.144
 6919.00    1.46190   1.43094    0.142
 6920.00    1.45211   1.43075    0.142
 6921.00    1.44381   1.43030    0.141
 6922.00    1.44004   1.42977    0.140
 6923.00    1.43719   1.42894    0.139
 6924.00    1.43675   1.42813    0.139
 6925.00    1.43907   1.42722    0.140
 6926.00    1.44756   1.42648    0.140
 6927.00    1.45256   1.42610    0.141
 6928.00    1.45086   1.42597    0.142
 6929.00    1.45124   1.42628    0.143
 6930.00    1.45515   1.42689    0.145
 6931.00    1.45573   1.42780    0.145
 6932.00    1.45142   1.42894    0.145
 6933.00    1.44734   1.43017    0.145
 6934.00    1.44355   1.43157    0.148
 6935.00    1.44476   1.43285    0.149
 6936.00    1.45168   1.43402    0.148
 6937.00    1.45543   1.43485    0.148
 6938.00    1.45599   1.43531    0.148
 6939.00    1.45196   1.43537    0.147
 6940.00    1.44386   1.43489    0.145
 6941.00    1.44550   1.43404    0.144
 6942.00    1.45475   1.43277    0.143
 6943.00    1.45866   1.43138    0.143
 6944.00    1.45889   1.42982    0.142
 6945.00    1.45588   1.42837    0.142
 6946.00    1.45091   1.42713    0.141
 6947.00    1.44787   1.42618    0.141
 6948.00    1.44586   1.42558    0.141
 6949.00    1.45338   1.42530    0.142
 6950.00    1.46525   1.42538    0.145
 6951.00    1.46210   1.42577    0.144
 6952.00    1.45304   1.42657    0.143
 6953.00    1.44665   1.42773    0.144
 6954.00    1.44114   1.42936    0.145
 6955.00    1.44575   1.43142    0.147
 6956.00    1.45320   1.43382    0.148
 6957.00    1.46131   1.43653    0.147
 6958.00    1.46957   1.43940    0.147
 6959.00    1.47748   1.44238    0.147
 6960.00    1.48532   1.44521    0.147
 6961.00    1.47438   1.44800    0.145
 6962.00    1.46075   1.45037    0.144
 6963.00    1.46446   1.45252    0.143
 6964.00    1.46997   1.45415    0.143
 6965.00    1.47051   1.45540    0.143
 6966.00    1.47071   1.45603    0.143
 6967.00    1.46773   1.45608    0.144
 6968.00    1.46464   1.45538    0.146
 6969.00    1.46462   1.45385    0.147
 6970.00    1.46393   1.45144    0.148
 6971.00    1.44265   1.44805    0.149
 6972.00    1.42257   1.44383    0.149
 6973.00    1.42054   1.43890    0.148
 6974.00    1.41839   1.43359    0.147
 6975.00    1.41505   1.42835    0.148
 6976.00    1.41256   1.42363    0.149
 6977.00    1.41603   1.42000    0.149
 6978.00    1.41755   1.41778    0.148
 6979.00    1.40864   1.41735    0.147
 6980.00    1.40280   1.41868    0.146
 6981.00    1.41021   1.42169    0.145
 6982.00    1.41611   1.42598    0.145
 6983.00    1.41664   1.43108    0.144
 6984.00    1.42167   1.43650    0.144
 6985.00    1.44010   1.44167    0.145
 6986.00    1.45369   1.44630    0.146
 6987.00    1.45500   1.45011    0.146
 6988.00    1.45514   1.45302    0.146
 6989.00    1.45273   1.45502    0.146
 6990.00    1.45309   1.45627    0.147
 6991.00    1.45869   1.45680    0.149
 6992.00    1.45484   1.45672    0.150
 6993.00    1.43535   1.45609    0.150
 6994.00    1.42743   1.45501    0.150
 6995.00    1.43627   1.45346    0.151
 6996.00    1.44262   1.45155    0.151
 6997.00    1.44577   1.44928    0.150
 6998.00    1.44761   1.44684    0.150
 6999.00    1.44798   1.44425    0.150
 7000.00    1.43946   1.44179    0.149
 7001.00    1.42212   1.43951    0.148
 7002.00    1.41036   1.43758    0.147
 7003.00    1.40346   1.43605    0.146
 7004.00    1.40041   1.43491    0.145
 7005.00    1.40032   1.43422    0.145
 7006.00    1.41140   1.43377    0.146
 7007.00    1.43005   1.43355    0.148
 7008.00    1.43232   1.43324    0.148
 7009.00    1.42485   1.43287    0.148
 7010.00    1.41906   1.43218    0.148
 7011.00    1.41413   1.43127    0.149
 7012.00    1.41099   1.43006    0.151
 7013.00    1.40864   1.42874    0.153
 7014.00    1.41069   1.42743    0.154
 7015.00    1.41444   1.42636    0.155
 7016.00    1.41020   1.42568    0.154
 7017.00    1.40333   1.42549    0.152
 7018.00    1.39985   1.42581    0.151
 7019.00    1.39730   1.42655    0.150
 7020.00    1.40310   1.42766    0.149
 7021.00    1.41079   1.42892    0.149
 7022.00    1.41479   1.43034    0.148
 7023.00    1.41812   1.43176    0.147
 7024.00    1.42471   1.43332    0.148
 7025.00    1.43177   1.43488    0.149
 7026.00    1.43068   1.43666    0.150
 7027.00    1.42879   1.43851    0.151
 7028.00    1.42215   1.44062    0.151
 7029.00    1.41522   1.44270    0.151
 7030.00    1.40901   1.44488    0.151
 7031.00    1.40288   1.44691    0.151
 7032.00    1.41274   1.44892    0.155
 7033.00    1.42192   1.45079    0.158
 7034.00    1.41237   1.45275    0.158
 7035.00    1.40396   1.45482    0.157
 7036.00    1.41161   1.45726    0.156
 7037.00    1.41950   1.46014    0.155
 7038.00    1.42964   1.46359    0.155
 7039.00    1.43937   1.46757    0.154
 7040.00    1.44635   1.47199    0.153
 7041.00    1.45125   1.47658    0.152
 7042.00    1.44520   1.48113    0.152
 7043.00    1.44426   1.48513    0.151
 7044.00    1.46480   1.48836    0.149
 7045.00    1.47952   1.49027    0.148
 7046.00    1.47402   1.49078    0.152
 7047.00    1.47130   1.48940    0.155
 7048.00    1.47677   1.48628    0.157
 7049.00    1.48166   1.48120    0.159
 7050.00    1.48509   1.47449   -2.000
 7051.00    1.48789   1.46629   -2.000
 7052.00    1.48931   1.45712   -2.000
 7053.00    1.48948   1.44730   -2.000
 7054.00    1.48733   1.43739   -2.000
 7055.00    1.49394   1.42775   -2.000
 7056.00    1.51484   1.41881   -2.000
 7057.00    1.52871   1.41069   -2.000
 7058.00    1.53250   1.40366   -2.000
 7059.00    1.53076   1.39759   -2.000
 7060.00    1.52205   1.39257   -2.000
 7061.00    1.52505   1.38838   -2.000
 7062.00    1.54103   1.38505   -2.000
 7063.00    1.56148   1.38239   -2.000
 7064.00    1.58632   1.38051   -2.000
 7065.00    1.57891   1.37929   -2.000
 7066.00    1.54369   1.37890   -2.000
 7067.00    1.50768   1.37929   -2.000
 7068.00    1.47107   1.38059   -2.000
 7069.00    1.47968   1.38271   -2.000
 7070.00    1.51850   1.38562   -2.000
 7071.00    1.54822   1.38910   -2.000
 7072.00    1.57263   1.39294   -2.000
 7073.00    1.59375   1.39676   -2.000
 7074.00    1.61318   1.40029   -2.000
 7075.00    1.60092   1.40308   -2.000
 7076.00    1.57466   1.40488   -2.000
 7077.00    1.56521   1.40532   -2.000
 7078.00    1.56213   1.40429   -2.000
 7079.00    1.57090   1.40157   -2.000
 7080.00    1.58349   1.39726   -2.000
 7081.00    1.57004   1.39135   -2.000
 7082.00    1.54958   1.38420   -2.000
 7083.00    1.54114   1.37602   -2.000
 7084.00    1.53535   1.36731   -2.000
 7085.00    1.51829   1.35841   -2.000
 7086.00    1.49926   1.34986   -2.000
 7087.00    1.49227   1.34193   -2.000
 7088.00    1.48690   1.33505   -2.000
 7089.00    1.45544   1.32930   -2.000
 7090.00    1.42151   1.32496   -2.000
 7091.00    1.41279   1.32187   -2.000
 7092.00    1.40555   1.32020   -2.000
 7093.00    1.41447   1.31964   -2.000
 7094.00    1.42360   1.32024   -2.000
 7095.00    1.40848   1.32166   -2.000
 7096.00    1.39391   1.32379   -2.000
 7097.00    1.39324   1.32640   -2.000
 7098.00    1.39073   1.32919   -2.000
 7099.00    1.36385   1.33213   -2.000
 7100.00    1.33869   1.33472   -2.000
 7101.00    1.32873   1.33722   -2.000
 7102.00    1.32168   1.33901   -2.000
 7103.00    1.33368   1.34057   -2.000
 7104.00    1.34143   1.34130   -2.000
 7105.00    1.32758   1.34181   -2.000
 7106.00    1.31678   1.34164   -2.000
 7107.00    1.31850   1.34137   -2.000
 7108.00    1.31657   1.34076   -2.000
 7109.00    1.30216   1.34028   -2.000
 7110.00    1.29039   1.33982   -2.000
 7111.00    1.28621   1.33965   -2.000
 7112.00    1.28524   1.33973   -2.000
 7113.00    1.29212   1.34008   -2.000
 7114.00    1.29625   1.34063   -2.000
 7115.00    1.29453   1.34121   -2.000
 7116.00    1.30626   1.34170   -2.000
 7117.00    1.34271   1.34190   -2.000
 7118.00    1.37084   1.34166   -2.000
 7119.00    1.38559   1.34087   -2.000
 7120.00    1.40261   1.33942   -2.000
 7121.00    1.42283   1.33738   -2.000
 7122.00    1.43769   1.33468   -2.000
 7123.00    1.44592   1.33154   -2.000
 7124.00    1.43612   1.32799   -2.000
 7125.00    1.40661   1.32431   -2.000
 7126.00    1.39059   1.32067   -2.000
 7127.00    1.38758   1.31732   -2.000
 7128.00    1.39219   1.31456   -2.000
 7129.00    1.40328   1.31250   -2.000
 7130.00    1.38949   1.31146   -2.000
 7131.00    1.35705   1.31135   -2.000
 7132.00    1.33686   1.31233   -2.000
 7133.00    1.32473   1.31414   -2.000
 7134.00    1.32069   1.31671   -2.000
 7135.00    1.32131   1.31966   -2.000
 7136.00    1.34141   1.32281   -2.000
 7137.00    1.37129   1.32583   -2.000
 7138.00    1.37395   1.32846   -2.000
 7139.00    1.36479   1.33060   -2.000
 7140.00    1.37842   1.33205   -2.000
 7141.00    1.40053   1.33289   -2.000
 7142.00    1.38733   1.33304   -2.000
 7143.00    1.36298   1.33274   -2.000
 7144.00    1.35274   1.33204   -2.000
 7145.00    1.34621   1.33127   -2.000
 7146.00    1.33743   1.33057   -2.000
 7147.00    1.32816   1.33025   -2.000
 7148.00    1.33303   1.33044   -2.000
 7149.00    1.34032   1.33134   -2.000
 7150.00    1.33933   1.33288   -2.000
 7151.00    1.33727   1.33510   -2.000
 7152.00    1.33361   1.33771   -2.000
 7153.00    1.32981   1.34058   -2.000
 7154.00    1.32970   1.34328   -2.000
 7155.00    1.32980   1.34572   -2.000
 7156.00    1.34502   1.34746   -2.000
 7157.00    1.36061   1.34856   -2.000
 7158.00    1.38132   1.34876   -2.000
 7159.00    1.40172   1.34835   -2.000
 7160.00    1.41512   1.34729   -2.000
 7161.00    1.42760   1.34602   -2.000
 7162.00    1.42834   1.34470   -2.000
 7163.00    1.43199   1.34374   -2.000
 7164.00    1.46036   1.34337   -2.000
 7165.00    1.48205   1.34379   -2.000
 7166.00    1.46135   1.34512   -2.000
 7167.00    1.44452   1.34720   -2.000
 7168.00    1.44686   1.34998   -2.000
 7169.00    1.44427   1.35309   -2.000
 7170.00    1.42184   1.35627   -2.000
 7171.00    1.39740   1.35911   -2.000
 7172.00    1.36624   1.36138   -2.000
 7173.00    1.33809   1.36283   -2.000
 7174.00    1.31843   1.36337   -2.000
 7175.00    1.32051   1.36299   -2.000
 7176.00    1.37504   1.36177   -2.000
 7177.00    1.41113   1.35989   -2.000
 7178.00    1.40883   1.35752   -2.000
 7179.00    1.39804   1.35489   -2.000
 7180.00    1.37188   1.35212   -2.000
 7181.00    1.34835   1.34938   -2.000
 7182.00    1.32899   1.34669   -2.000
 7183.00    1.31097   1.34415   -2.000
 7184.00    1.29480   1.34170   -2.000
 7185.00    1.29041   1.33945   -2.000
 7186.00    1.30042   1.33736   -2.000
 7187.00    1.31068   1.33560   -2.000
 7188.00    1.32120   1.33416   -2.000
 7189.00    1.32109   1.33328   -2.000
 7190.00    1.31085   1.33289   -2.000
 7191.00    1.29466   1.33319   -2.000
 7192.00    1.27349   1.33402   -2.000
 7193.00    1.26763   1.33545   -2.000
 7194.00    1.27308   1.33724   -2.000
 7195.00    1.27486   1.33934   -2.000
 7196.00    1.27428   1.34152   -2.000
 7197.00    1.27364   1.34364   -2.000
 7198.00    1.27296   1.34555   -2.000
 7199.00    1.29238   1.34711   -2.000
 7200.00    1.32173   1.34823   -2.000
 7201.00    1.33323   1.34885   -2.000
 7202.00    1.33711   1.34898   -2.000
 7203.00    1.33337   1.34865   -2.000
 7204.00    1.32684   1.34800   -2.000
 7205.00    1.29591   1.34720   -2.000
 7206.00    1.25742   1.34645   -2.000
 7207.00    1.23259   1.34596   -2.000
 7208.00    1.21128   1.34590   -2.000
 7209.00    1.22571   1.34646   -2.000
 7210.00    1.24765   1.34757   -2.000
 7211.00    1.24568   1.34937   -2.000
 7212.00    1.23974   1.35161   -2.000
 7213.00    1.24054   1.35431   -2.000
 7214.00    1.24218   1.35718   -2.000
 7215.00    1.23045   1.36020   -2.000
 7216.00    1.21756   1.36316   -2.000
 7217.00    1.24216   1.36608   -2.000
 7218.00    1.26866   1.36887   -2.000
