###################################################################
## OUTPUT of StarlightChains_v04.for    [Cid@UFSC - 01/Apr/2007] ##
###################################################################

## Some input info
KUG0210-078._33_30.txt                   [arq_obs]
Base.CB07.vall.4m                        [arq_base]
Masks.EmLines.NEW.gm                     [arq_masks]
StCv04.C11.config                        [arq_config]
   66                                    [N_base]
    0                                    [N_YAV_components = # of components with extra extinction!]
    0                                    [i_FitPowerLaw (1/0 = Yes/No)]
-9.99                                    [alpha_PowerLaw]
CCM                                      [red_law_option]
 1.458241                                [q_norm = A(l_norm)/A(V)]

## (Re)Sampling Parameters
 3741.00                                 [l_ini (A)]
 7218.00                                 [l_fin (A)]
    1.00                                 [dl    (A)]     (OBS: dl_cushion =    50.00 A)

## Normalization info
 4020.00                                 [l_norm (A) - for base]
 4010.00                                 [llow_norm (A) - window for f_obs]
 4060.00                                 [lupp_norm (A) - window for f_obs]
6.369819E-17                             [fobs_norm (in input units)]

## S/N
 3691.00                                 [llow_SN (A) - window for S/N]
 7268.00                                 [lupp_SN (A) - window for S/N]
   4.699                                 [S/N in S/N window]
   4.207                                 [S/N in norm. window]
   0.112                                 [S/N_err in S/N window]
   0.100                                 [S/N_err in norm. window]
  1.0000                                 [fscale_chi2]

## etc...
    -2007505                             [idum_orig]
  2432                                   [NOl_eff]
  2100                                   [Nl_eff]
   332    NSIGMA                         [Ntot_cliped & clip_method]
 10276770                                [Nglobal_steps]
   7                                     [N_chains]
   9                                     [NEX0s_base = N_base in EX0s-fits]
 0   0   1      332   2.0   5.162E+04    [Clip-Bug, RC-Crash & Burn-In warning-flags, n_censored_weights, wei_nsig_threshold & wei_limit]
   107    105.008    103.881      1.128  [idt_all, wdt_TotTime, wdt_UsrTime & wdt_SysTime (sec)]

## Synthesis Results - Best model ##

 4.44104E-05                             [chi2/Nl_eff]
     4.66444                             [adev (%)]

   113.10234                             [sum-of-x (%)]
 1.88573E-17                             [Flux_tot (units of input spectrum!)]
 2.49170E-12                             [Mini_tot (???)]
 1.25101E-12                             [Mcor_tot (???)]

 -27.02                                  [v0_min  (km/s)]
 163.71                                  [vd_min  (km/s)]
-0.9980                                  [AV_min  (mag)]
 0.0000                                  [YAV_min (mag)]

# j     x_j(%)      Mini_j(%)     Mcor_j(%)     age_j(yr)     Z_j      (L/M)_j    YAV?  Mstars   component_j        a/Fe...       SSP_chi2r SSP_adev(%)   SSP_AV   SSP_x(%)
  1      0.0000     0.0000E+00    0.0000E+00    1.000000E+06  0.00400  1.094E-02    0   1.0000   age020_m42            0.0000     1.6032E-04     8.2304   3.1332   105.5590
  2      0.0000     0.0000E+00    0.0000E+00    3.160000E+06  0.00400  4.007E-02    0   0.9999   age045_m42            0.0000     1.8593E-04     9.1605   2.4826   109.2101
  3      0.0000     0.0000E+00    0.0000E+00    5.010000E+06  0.00400  2.539E-02    0   0.9488   age055_m42            0.0000     1.7268E-04     8.7596   2.7685   108.1095
  4      0.0000     0.0000E+00    0.0000E+00    6.610000E+06  0.00400  2.620E-02    0   0.9220   age061_m42            0.0000     1.8715E-04     9.3077   2.4145   109.2097
  5      0.0000     0.0000E+00    0.0000E+00    1.000000E+07  0.00400  1.322E-02    0   0.8862   age070_m42            0.0000     2.1996E-04    10.5939   2.1441   111.2829
  6      0.0000     0.0000E+00    0.0000E+00    1.445000E+07  0.00400  7.883E-03    0   0.8571   age078_m42            0.0000     2.0848E-04    10.1642   2.4465   109.5975
  7      0.0000     0.0000E+00    0.0000E+00    2.512000E+07  0.00400  5.251E-03    0   0.8174   age090_m42            0.0000     2.3139E-04    10.9732   2.0230   111.5472
  8      0.0000     0.0000E+00    0.0000E+00    4.000000E+07  0.00400  3.649E-03    0   0.7851   age104_m42            0.0000     2.2945E-04    10.9563   1.8065   111.8990
  9      0.0000     0.0000E+00    0.0000E+00    5.500000E+07  0.00400  3.098E-03    0   0.7629   age110_m42            0.0000     2.2032E-04    10.5085   1.9645   111.5262
 10      0.0000     0.0000E+00    0.0000E+00    1.015200E+08  0.00400  2.228E-03    0   0.7207   age116_m42            0.0000     2.1421E-04    10.2411   1.9919   111.3157
 11      0.0000     0.0000E+00    0.0000E+00    2.861200E+08  0.00400  1.093E-03    0   0.6648   age125_m42            0.0000     2.3351E-04    11.0345   1.4580   113.0698
 12      0.0000     0.0000E+00    0.0000E+00    5.088000E+08  0.00400  6.597E-04    0   0.6365   age130_m42            0.0000     2.1640E-04    10.4433   1.4552   113.5496
 13      0.0000     0.0000E+00    0.0000E+00    1.434000E+09  0.00400  2.132E-04    0   0.5798   age139_m42            0.0000     1.7823E-04     9.8770   0.5070   114.6249
 14      0.0000     0.0000E+00    0.0000E+00    4.250000E+09  0.00400  5.895E-05    0   0.5377   age158_m42            0.0000     1.1802E-04     8.1231   0.0376   111.3501
 15      0.0000     0.0000E+00    0.0000E+00    7.500000E+09  0.00400  3.510E-05    0   0.5212   age171_m42            0.0000     1.0298E-04     7.5651  -0.1531   110.6300
 16      0.0000     0.0000E+00    0.0000E+00    1.300000E+10  0.00400  2.005E-05    0   0.5034   age193_m42            0.0000     9.2802E-05     7.0952  -0.3193   109.9997
 17      0.0000     0.0000E+00    0.0000E+00    1.800000E+10  0.00400  1.525E-05    0   0.4967   age213_m42            0.0000     9.3043E-05     7.1441  -0.3443   109.6494
 18      0.0000     0.0000E+00    0.0000E+00    1.000000E+06  0.00800  1.238E-02    0   1.0000   age020_m52            0.0000     1.5947E-04     8.1981   3.1273   105.8502
 19      0.0000     0.0000E+00    0.0000E+00    3.160000E+06  0.00800  3.074E-02    0   0.9966   age045_m52            0.0000     1.5832E-04     8.1951   3.0540   106.6338
 20      0.0000     0.0000E+00    0.0000E+00    5.010000E+06  0.00800  2.668E-02    0   0.9443   age055_m52            0.0000     1.6756E-04     8.6330   2.8403   107.6674
 21      0.0000     0.0000E+00    0.0000E+00    6.610000E+06  0.00800  2.136E-02    0   0.9177   age061_m52            0.0000     1.9083E-04    10.0707   1.6407   112.6873
 22      0.0000     0.0000E+00    0.0000E+00    1.000000E+07  0.00800  1.215E-02    0   0.8827   age070_m52            0.0000     2.2600E-04    10.8310   2.3140   111.6133
 23      0.0000     0.0000E+00    0.0000E+00    1.445000E+07  0.00800  8.717E-03    0   0.8552   age078_m52            0.0000     2.1056E-04    10.3012   2.4205   110.7409
 24      0.0000     0.0000E+00    0.0000E+00    2.512000E+07  0.00800  5.592E-03    0   0.8162   age090_m52            0.0000     2.3380E-04    11.0956   2.0916   112.6897
 25      0.0000     0.0000E+00    0.0000E+00    4.000000E+07  0.00800  3.896E-03    0   0.7841   age104_m52            0.0000     2.3042E-04    10.9876   2.0162   112.8763
 26      0.0000     0.0000E+00    0.0000E+00    1.015200E+08  0.00800  2.148E-03    0   0.7226   age116_m52            0.0000     2.1428E-04    10.4943   1.9645   112.0625
 27      0.0000     0.0000E+00    0.0000E+00    2.861200E+08  0.00800  9.925E-04    0   0.6683   age125_m52            0.0000     2.1401E-04    10.4408   1.5233   114.4773
 28      0.0000     0.0000E+00    0.0000E+00    9.047900E+08  0.00800  3.141E-04    0   0.6138   age135_m52            0.0000     1.7694E-04     9.6566   0.7526   117.6811
 29      0.0000     0.0000E+00    0.0000E+00    1.434000E+09  0.00800  1.719E-04    0   0.5853   age139_m52            0.0000     1.3688E-04     8.8496   0.1611   115.8666
 30      0.0000     0.0000E+00    0.0000E+00    2.500000E+09  0.00800  7.872E-05    0   0.5600   age150_m52            0.0000     9.6608E-05     7.4479  -0.1290   113.4988
 31      0.0000     0.0000E+00    0.0000E+00    4.250000E+09  0.00800  4.336E-05    0   0.5426   age158_m52            0.0000     9.3464E-05     7.3195  -0.1490   112.6184
 32      0.0000     0.0000E+00    0.0000E+00    6.250000E+09  0.00800  3.159E-05    0   0.5319   age166_m52            0.0000     7.8831E-05     6.7047  -0.3478   112.3600
 33      0.0000     0.0000E+00    0.0000E+00    1.300000E+10  0.00800  1.361E-05    0   0.5073   age193_m52            0.0000     6.3501E-05     5.9988  -0.8158   111.4665
 34      0.0000     0.0000E+00    0.0000E+00    1.800000E+10  0.00800  9.886E-06    0   0.4990   age213_m52            0.0000     5.4330E-05     5.4423  -0.9276   110.9868
 35      0.0000     0.0000E+00    0.0000E+00    1.000000E+06  0.02000  1.544E-02    0   1.0000   age020_m62            0.0000     1.5852E-04     8.1636   3.1208   106.2208
 36      0.0000     0.0000E+00    0.0000E+00    3.160000E+06  0.02000  3.762E-02    0   0.9858   age045_m62            0.0000     1.5694E-04     8.1204   3.0576   107.2419
 37      0.0000     0.0000E+00    0.0000E+00    5.010000E+06  0.02000  3.296E-02    0   0.9342   age055_m62            0.0000     1.7195E-04     8.7302   2.7398   108.8846
 38      0.0000     0.0000E+00    0.0000E+00    8.710000E+06  0.02000  1.154E-02    0   0.8861   age067_m62            0.0000     3.1440E-04    13.4946   1.7641   115.6204
 39      0.0000     0.0000E+00    0.0000E+00    1.445000E+07  0.02000  7.663E-03    0   0.8472   age078_m62            0.0000     2.4865E-04    11.6864   1.9727   113.8494
 40      0.0000     0.0000E+00    0.0000E+00    2.512000E+07  0.02000  4.532E-03    0   0.8099   age090_m62            0.0000     2.5777E-04    11.9481   1.9727   113.2021
 41      0.0000     0.0000E+00    0.0000E+00    5.500000E+07  0.02000  2.733E-03    0   0.7595   age110_m62            0.0000     2.1998E-04    10.7943   1.9942   112.3194
 42      0.0000     0.0000E+00    0.0000E+00    1.609000E+08  0.02000  1.369E-03    0   0.6985   age120_m62            0.0000     2.1667E-04    10.5322   1.8626   113.7388
 43      0.0000     0.0000E+00    0.0000E+00    2.861200E+08  0.02000  9.013E-04    0   0.6714   age125_m62            0.0000     2.1931E-04    10.5224   1.6343   115.8110
 44      0.0000     0.0000E+00    0.0000E+00    5.088000E+08  0.02000  5.028E-04    0   0.6449   age130_m62            0.0000     1.9924E-04     9.7875   1.2726   117.8956
 45      0.0000     0.0000E+00    0.0000E+00    9.047900E+08  0.02000  2.428E-04    0   0.6179   age135_m62            0.0000     1.4128E-04     8.6931   0.6812   117.3677
 46      0.0000     0.0000E+00    0.0000E+00    1.434000E+09  0.02000  1.263E-04    0   0.5908   age139_m62            0.0000     1.0877E-04     7.9219   0.2261   116.1006
 47      0.0000     0.0000E+00    0.0000E+00    2.500000E+09  0.02000  5.985E-05    0   0.5673   age150_m62            0.0000     7.9340E-05     6.7696  -0.1533   114.9636
 48      5.4357     1.1120E+00    1.2110E+00    4.250000E+09  0.02000  3.271E-05    0   0.5468   age158_m62            0.0000     5.9266E-05     5.8137  -0.4614   113.9674
 49      0.0000     0.0000E+00    0.0000E+00    1.000000E+10  0.02000  1.360E-05    0   0.5167   age181_m62            0.0000     4.8060E-05     5.1136  -0.8139   113.5097
 50    104.7994     9.8435E+01    9.8284E+01    1.800000E+10  0.02000  7.124E-06    0   0.5013   age213_m62            0.0000     4.4975E-05     4.8250  -1.0000   111.9196
 51      0.0000     0.0000E+00    0.0000E+00    1.000000E+06  0.05000  2.592E-02    0   0.9998   age020_m72            0.0000     1.5746E-04     8.1278   3.1054   106.6049
 52      0.0000     0.0000E+00    0.0000E+00    3.160000E+06  0.05000  4.845E-02    0   0.9577   age045_m72            0.0000     1.5927E-04     8.2476   2.9622   107.6292
 53      0.0000     0.0000E+00    0.0000E+00    5.010000E+06  0.05000  3.072E-02    0   0.9147   age055_m72            0.0000     2.0588E-04    10.2460   2.5278   110.8995
 54      0.0000     0.0000E+00    0.0000E+00    6.610000E+06  0.05000  1.455E-02    0   0.8877   age061_m72            0.0000     3.7239E-04    14.8247   1.8335   116.4635
 55      0.0000     0.0000E+00    0.0000E+00    1.000000E+07  0.05000  9.074E-03    0   0.8524   age070_m72            0.0000     2.0912E-04    10.2294   2.7265   110.2609
 56      0.0000     0.0000E+00    0.0000E+00    2.512000E+07  0.05000  4.250E-03    0   0.7902   age090_m72            0.0000     2.2764E-04    10.8507   2.4493   110.8993
 57      0.0000     0.0000E+00    0.0000E+00    4.000000E+07  0.05000  3.087E-03    0   0.7618   age104_m72            0.0000     2.4264E-04    11.3361   2.2395   111.9229
 58      0.0000     0.0000E+00    0.0000E+00    1.015200E+08  0.05000  1.700E-03    0   0.7096   age116_m72            0.0000     2.3129E-04    10.9629   2.0052   113.4138
 59      0.0000     0.0000E+00    0.0000E+00    2.861200E+08  0.05000  7.384E-04    0   0.6633   age125_m72            0.0000     2.0438E-04    10.1074   1.5069   117.0355
 60      0.0000     0.0000E+00    0.0000E+00    5.088000E+08  0.05000  3.819E-04    0   0.6372   age130_m72            0.0000     1.5827E-04     9.0210   1.0135   118.8128
 61      0.0000     0.0000E+00    0.0000E+00    9.047900E+08  0.05000  1.676E-04    0   0.6110   age135_m72            0.0000     9.2865E-05     7.1876   0.2988   117.3509
 62      0.0000     0.0000E+00    0.0000E+00    1.434000E+09  0.05000  8.837E-05    0   0.5874   age139_m72            0.0000     7.8213E-05     6.7365  -0.1526   116.5684
 63      2.8673     4.5325E-01    5.0537E-01    2.500000E+09  0.05000  4.233E-05    0   0.5598   age150_m72            0.0000     5.5003E-05     5.5434  -0.4678   115.1630
 64      0.0000     0.0000E+00    0.0000E+00    6.250000E+09  0.05000  1.435E-05    0   0.5249   age166_m72            0.0000     4.5880E-05     4.8630  -0.9184   113.3619
 65      0.0000     0.0000E+00    0.0000E+00    1.300000E+10  0.05000  6.513E-06    0   0.5036   age193_m72            0.0000     7.1316E-05     6.4407  -1.0000   108.2707
 66      0.0000     0.0000E+00    0.0000E+00    1.800000E+10  0.05000  4.527E-06    0   0.4945   age213_m72            0.0000     1.3244E-04     8.7353  -1.0000   102.9547


## Synthesis Results - Average & Chains ##

# j      x_j: min, <> & last-chain-values for 1 ...  7 chains
  1      0.0000      0.3317      0.1158      0.0975      0.0080      0.0000      0.0018      0.0393      0.0000
  2      0.0000      0.2736      0.0421      0.0000      0.0190      0.1206      0.0000      0.0311      0.0068
  3      0.0000      0.2617      0.0000      0.0000      0.0159      0.0000      0.0181      0.0000      0.0183
  4      0.0000      0.3056      0.0407      0.1302      0.0039      0.1692      0.0220      0.0242      0.0273
  5      0.0000      0.4307      0.0000      0.0339      0.0085      0.3011      0.0261      0.0492      0.1869
  6      0.0000      0.3265      0.0470      0.0450      0.0000      0.4587      0.0000      0.0472      0.0146
  7      0.0000      0.3173      0.0215      0.0587      0.0057      0.0000      0.0000      0.0604      0.0116
  8      0.0000      0.3947      0.0423      0.0000      0.0013      0.1453      0.0093      0.0248      0.0000
  9      0.0000      0.4655      0.0176      0.0698      0.0343      0.3137      0.0000      0.0000      0.0178
 10      0.0000      0.4170      0.0000      0.0913      0.0005      0.0000      0.0000      0.0000      0.0804
 11      0.0000      0.3731      0.0364      0.0968      0.0000      0.0000      0.1140      0.0535      0.0874
 12      0.0000      0.3475      0.0002      0.0000      0.0166      0.4386      0.0000      0.0349      0.0470
 13      0.0000      0.3882      0.1417      0.0957      0.0310      0.1388      0.0061      0.0241      0.0296
 14      0.0000      0.3245      0.0000      0.1050      0.0103      0.2235      0.0508      0.0606      0.0000
 15      0.0000      0.4945      0.0457      0.0089      0.0003      0.5818      0.0406      0.0040      0.0176
 16      0.0000      0.3606      0.1191      0.0014      0.0107      0.5584      0.0018      0.1437      0.0334
 17      0.0000      0.5119      0.0179      0.0147      0.0020      0.1899      0.0299      0.0486      0.0000
 18      0.0000      0.3434      0.0670      0.0432      0.0135      0.0000      0.0571      0.0889      0.0000
 19      0.0000      0.4489      0.0492      0.0307      0.0193      0.7028      0.0473      0.0030      0.0552
 20      0.0000      0.2260      0.0156      0.0986      0.0064      0.0000      0.0481      0.0000      0.0060
 21      0.0000      0.3960      0.0051      0.1590      0.0017      0.0828      0.0269      0.0000      0.0000
 22      0.0000      0.3246      0.0112      0.0000      0.0019      0.0000      0.0022      0.0887      0.0452
 23      0.0000      0.3798      0.0000      0.1711      0.0000      0.4279      0.0045      0.1386      0.0156
 24      0.0000      0.3214      0.0166      0.0393      0.0000      0.1674      0.0000      0.0000      0.0016
 25      0.0000      0.4368      0.0017      0.0235      0.0057      0.6570      0.0000      0.0133      0.0091
 26      0.0000      0.4628      0.0276      0.0000      0.0000      0.2347      0.0000      0.0342      0.0000
 27      0.0000      0.4100      0.0773      0.0000      0.0175      0.6681      0.0000      0.0251      0.0150
 28      0.0000      0.3418      0.0469      0.0127      0.0045      0.1681      0.0000      0.0000      0.0000
 29      0.0000      0.3928      0.1098      0.0000      0.0105      0.1119      0.1857      0.0436      0.0224
 30      0.0000      0.3158      0.1807      0.0058      0.0000      0.3549      0.1191      0.0596      0.0244
 31      0.0000      0.3422      0.0365      0.1043      0.0000      0.2901      0.0080      0.0785      0.0052
 32      0.0000      0.4770      0.0422      0.1075      0.0154      2.0984      0.0003      0.0433      0.0000
 33      0.0000      0.3205      0.0184      0.1414      0.0019      0.3861      0.0338      0.0102      0.0011
 34      0.0000      0.4077      0.0000      0.0317      0.0092      0.4009      0.0992      0.0449      0.0000
 35      0.0000      0.4930      0.0836      0.0000      0.0079      0.7191      0.0000      0.0118      0.0367
 36      0.0000      0.3929      0.0997      0.0653      0.0000      0.2603      0.0000      0.0000      0.0803
 37      0.0000      0.2691      0.0546      0.0000      0.0067      0.2516      0.0582      0.0528      0.0458
 38      0.0000      0.4551      0.0315      0.0021      0.0248      0.0000      0.0435      0.0044      0.0396
 39      0.0000      0.3295      0.0264      0.0261      0.0066      0.1145      0.0813      0.0086      0.0000
 40      0.0000      0.3009      0.0000      0.0000      0.0000      0.1092      0.0563      0.0204      0.0044
 41      0.0000      0.3695      0.0089      0.1151      0.0076      0.1459      0.0197      0.0296      0.0589
 42      0.0000      0.4384      0.0335      0.0600      0.0242      0.0000      0.0501      0.0543      0.0000
 43      0.0000      0.4335      0.0159      0.0206      0.0070      0.2394      0.0000      0.1092      0.0093
 44      0.0000     17.7039     19.9582     13.8886     36.5975     17.6212     17.4725     18.3789     20.5756
 45      0.0000      1.9260      1.2134      1.1659      5.4016      2.0127      1.2153      1.3715      0.8054
 46      0.0000      0.3659      0.0965      0.0285      0.0000      0.4118      0.0346      0.0616      0.0144
 47      0.0000      0.2849      0.0464      0.1106      0.0096      0.1858      0.0206      0.0000      0.0000
 48      5.4357      1.2302      1.1133      1.1840      0.0343      1.4656      1.6136      1.2138      1.0267
 49      0.0000      2.6186      4.1270      2.7589      2.4649      1.8651      2.7863      2.7678      2.6190
 50    104.7994      2.4552      2.4843      2.3995      3.8964      2.0013      2.5335      2.5156      2.9175
 51      0.0000      0.3704      0.0000      0.0233      0.0000      0.6012      0.0120      0.1113      0.0169
 52      0.0000      0.3733      0.1262      0.0258      0.0000      0.0000      0.0149      0.0000      0.0637
 53      0.0000      0.2869      0.0680      0.0000      0.0151      0.0000      0.0059      0.0943      0.0819
 54      0.0000      0.4243      0.0000      0.0455      0.0059      0.0000      0.0000      0.0250      0.0305
 55      0.0000      0.3945      0.0037      0.0342      0.0147      0.0000      0.0158      0.0179      0.0000
 56      0.0000      0.4128      0.0607      0.0864      0.0006      0.0000      0.0000      0.0300      0.0000
 57      0.0000      0.3373      0.0191      0.1139      0.0000      0.7238      0.0071      0.0437      0.0050
 58      0.0000      0.4680      0.0952      0.0891      0.0022      0.3607      0.0247      0.0099      0.0764
 59      0.0000      0.6018      0.2685      0.2334      0.0280      0.2188      0.3235      0.3346      1.4863
 60      0.0000     37.3095     47.3687     57.5594     25.8598     41.0194     53.7186     52.4808     49.3665
 61      0.0000     11.2603     16.0347     14.6985     14.6643     12.1766     15.1673     14.5015      0.0650
 62      0.0000      0.3209      0.0714      0.0215      0.0000      0.5394      0.0027      0.0151      0.0009
 63      2.8673     14.0604     14.6038     13.4297     20.1578     15.6568     14.0461     14.6095     26.3289
 64      0.0000      4.3182      3.9511      3.8775      4.9814      4.2729      3.8276      3.9690      8.2455
 65      0.0000      0.9440      1.3617      0.8747      0.6874      1.2606      0.6910      0.6612      0.6275
 66      0.0000      0.3659      0.0903      0.0916      0.0160      0.6081      0.0365      0.0439      0.0513

# j      m_j: min, <> & last-chain-values for 1 ...  7 chains
  1  0.0000E+00  3.1034E-03  1.0809E-03  1.0193E-03  7.1332E-05  0.0000E+00  1.8874E-05  4.0961E-04  0.0000E+00
  2  0.0000E+00  6.9888E-04  1.0730E-04  0.0000E+00  4.5928E-05  2.9448E-04  0.0000E+00  8.8624E-05  1.4856E-05
  3  0.0000E+00  1.0010E-03  0.0000E+00  0.0000E+00  5.7638E-05  0.0000E+00  7.7389E-05  0.0000E+00  6.0130E-05
  4  0.0000E+00  1.1009E-03  1.4631E-04  5.2377E-04  1.3309E-05  5.8300E-04  8.8241E-05  9.7195E-05  8.4218E-05
  5  0.0000E+00  2.9556E-03  0.0000E+00  2.5983E-04  5.5016E-05  1.9758E-03  1.9976E-04  3.7682E-04  1.0987E-03
  6  0.0000E+00  3.6344E-03  5.2197E-04  5.5875E-04  0.0000E+00  4.8815E-03  0.0000E+00  5.8550E-04  1.3935E-04
  7  0.0000E+00  5.0568E-03  3.4196E-04  1.0441E-03  8.6029E-05  0.0000E+00  0.0000E+00  1.0730E-03  1.5813E-04
  8  0.0000E+00  8.6927E-03  9.2898E-04  0.0000E+00  2.6375E-05  3.0599E-03  2.2794E-04  6.0840E-04  0.0000E+00
  9  0.0000E+00  1.1735E-02  4.4338E-04  1.9640E-03  8.2034E-04  7.5628E-03  0.0000E+00  0.0000E+00  3.8468E-04
 10  0.0000E+00  1.3807E-02  0.0000E+00  3.3779E-03  1.4828E-05  0.0000E+00  0.0000E+00  0.0000E+00  2.2809E-03
 11  0.0000E+00  2.3230E-02  2.2589E-03  6.7297E-03  0.0000E+00  0.0000E+00  7.9190E-03  3.7133E-03  4.6619E-03
 12  0.0000E+00  3.4323E-02  1.9216E-05  0.0000E+00  1.5522E-03  4.1420E-02  0.0000E+00  3.8415E-03  3.9767E-03
 13  0.0000E+00  1.0806E-01  3.9347E-02  2.9765E-02  8.1896E-03  3.6957E-02  1.8825E-03  7.4861E-03  7.0501E-03
 14  0.0000E+00  3.0298E-01  0.0000E+00  1.0950E-01  9.1234E-03  1.9959E-01  5.2947E-02  6.3118E-02  0.0000E+00
 15  0.0000E+00  7.5165E-01  6.9260E-02  1.5191E-02  4.0337E-04  8.4566E-01  6.8776E-02  6.7622E-03  2.2905E-02
 16  0.0000E+00  9.2677E-01  3.0536E-01  3.9656E-03  2.6049E-02  1.3725E+00  5.1260E-03  4.1195E-01  7.3479E-02
 17  0.0000E+00  1.7067E+00  5.9623E-02  5.4693E-02  6.3159E-03  6.0546E-01  1.1116E-01  1.8081E-01  0.0000E+00
 18  0.0000E+00  2.8396E-03  5.5269E-04  3.9900E-04  1.0606E-04  0.0000E+00  5.2701E-04  8.1925E-04  0.0000E+00
 19  0.0000E+00  1.4899E-03  1.6294E-04  1.1364E-04  6.0605E-05  2.2304E-03  1.7507E-04  1.0953E-05  1.5685E-04
 20  0.0000E+00  8.1899E-04  5.6434E-05  3.9890E-04  2.1868E-05  0.0000E+00  1.9433E-04  0.0000E+00  1.8666E-05
 21  0.0000E+00  1.7415E-03  2.2310E-05  7.8089E-04  6.9442E-06  3.4818E-04  1.3193E-04  0.0000E+00  0.0000E+00
 22  0.0000E+00  2.4142E-03  8.2860E-05  0.0000E+00  1.3349E-05  0.0000E+00  1.8121E-05  7.3564E-04  2.8798E-04
 23  0.0000E+00  3.8147E-03  0.0000E+00  1.9192E-03  0.0000E+00  4.1090E-03  5.0103E-05  1.5520E-03  1.3402E-04
 24  0.0000E+00  4.8018E-03  2.4749E-04  6.5617E-04  0.0000E+00  2.3917E-03  0.0000E+00  0.0000E+00  2.0558E-05
 25  0.0000E+00  8.9982E-03  3.4111E-05  5.4094E-04  1.1136E-04  1.2943E-02  0.0000E+00  3.0601E-04  1.6023E-04
 26  0.0000E+00  1.5936E-02  9.4697E-04  0.0000E+00  1.0724E-06  7.7279E-03  0.0000E+00  1.3149E-03  0.0000E+00
 27  0.0000E+00  2.8260E-02  5.3173E-03  0.0000E+00  1.1456E-03  4.4033E-02  0.0000E+00  1.9302E-03  8.8743E-04
 28  0.0000E+00  6.8369E-02  9.3612E-03  2.8364E-03  8.4375E-04  3.2149E-02  0.0000E+00  0.0000E+00  0.0000E+00
 29  0.0000E+00  1.3691E-01  3.8178E-02  0.0000E+00  3.4822E-03  3.7308E-02  7.2227E-02  1.6931E-02  6.6878E-03
 30  0.0000E+00  2.2997E-01  1.3130E-01  4.7366E-03  0.0000E+00  2.4715E-01  9.6741E-02  4.8401E-02  1.5195E-02
 31  0.0000E+00  4.3839E-01  4.6617E-02  1.4927E-01  0.0000E+00  3.5538E-01  1.1388E-02  1.1208E-01  5.7555E-03
 32  0.0000E+00  8.2222E-01  7.2519E-02  2.0693E-01  2.5163E-02  3.4586E+00  6.5465E-04  8.3305E-02  0.0000E+00
 33  0.0000E+00  1.2231E+00  7.0173E-02  6.0250E-01  6.7113E-03  1.4088E+00  1.4387E-01  4.3449E-02  3.5764E-03
 34  0.0000E+00  2.1064E+00  0.0000E+00  1.8280E-01  4.4962E-02  1.9806E+00  5.7194E-01  2.5863E-01  0.0000E+00
 35  0.0000E+00  3.2687E-03  5.5314E-04  0.0000E+00  4.9738E-05  4.5588E-03  0.0000E+00  8.7131E-05  2.0826E-04
 36  0.0000E+00  1.0540E-03  2.6683E-04  1.9559E-04  0.0000E+00  6.6774E-04  0.0000E+00  0.0000E+00  1.8462E-04
 37  0.0000E+00  7.8083E-04  1.5813E-04  0.0000E+00  1.8296E-05  6.9800E-04  1.8853E-04  1.7098E-04  1.1376E-04
 38  0.0000E+00  3.5769E-03  2.4700E-04  1.8013E-05  1.8454E-04  0.0000E+00  3.8142E-04  3.8304E-05  2.6637E-04
 39  0.0000E+00  3.7290E-03  2.9829E-04  3.2991E-04  7.1163E-05  1.2392E-03  1.0265E-03  1.0911E-04  0.0000E+00
 40  0.0000E+00  5.5048E-03  0.0000E+00  0.0000E+00  0.0000E+00  1.9109E-03  1.1501E-03  4.1575E-04  6.8836E-05
 41  0.0000E+00  1.0510E-02  2.5383E-04  3.6573E-03  2.0532E-04  3.9697E-03  6.2679E-04  9.3960E-04  1.4345E-03
 42  0.0000E+00  2.2895E-02  1.7435E-03  3.5012E-03  1.1968E-03  0.0000E+00  2.9196E-03  3.1604E-03  0.0000E+00
 43  0.0000E+00  3.3054E-02  1.2101E-03  1.7508E-03  5.0445E-04  1.7458E-02  0.0000E+00  9.2830E-03  6.0647E-04
 44  0.0000E+00  2.3244E+00  2.6140E+00  2.0365E+00  4.5532E+00  2.2124E+00  2.5598E+00  2.6908E+00  2.3147E+00
 45  0.0000E+00  5.0175E-01  3.1533E-01  3.3919E-01  1.3334E+00  5.0139E-01  3.5325E-01  3.9842E-01  1.7977E-01
 46  0.0000E+00  1.7520E-01  4.6110E-02  1.5224E-02  0.0000E+00  1.8857E-01  1.8484E-02  3.2902E-02  5.9146E-03
 47  0.0000E+00  2.7645E-01  4.4927E-02  1.1986E-01  8.7863E-03  1.7240E-01  2.2274E-02  0.0000E+00  0.0000E+00
 48  1.2110E+00  2.1052E+00  1.9004E+00  2.2627E+00  5.5621E-02  2.3983E+00  3.0811E+00  2.3161E+00  1.5053E+00
 49  0.0000E+00  1.0184E+01  1.6011E+01  1.1983E+01  9.0839E+00  6.9365E+00  1.2091E+01  1.2003E+01  8.7275E+00
 50  9.8284E+01  1.7685E+01  1.7851E+01  1.9302E+01  2.6595E+01  1.3785E+01  2.0363E+01  2.0206E+01  1.8007E+01
 51  0.0000E+00  1.4624E-03  0.0000E+00  1.0258E-04  0.0000E+00  2.2699E-03  5.2893E-05  4.9019E-04  5.7227E-05
 52  0.0000E+00  7.5537E-04  2.5465E-04  5.8260E-05  0.0000E+00  0.0000E+00  3.3688E-05  0.0000E+00  1.1050E-04
 53  0.0000E+00  8.7456E-04  2.0661E-04  0.0000E+00  4.3583E-05  0.0000E+00  2.0003E-05  3.2067E-04  2.1401E-04
 54  0.0000E+00  2.6500E-03  0.0000E+00  3.1716E-04  3.4677E-05  0.0000E+00  0.0000E+00  1.7444E-04  1.6346E-04
 55  0.0000E+00  3.7939E-03  3.5615E-05  3.6769E-04  1.3422E-04  0.0000E+00  1.6973E-04  1.9179E-04  0.0000E+00
 56  0.0000E+00  7.8574E-03  1.1524E-03  1.8372E-03  1.0022E-05  0.0000E+00  0.0000E+00  6.3768E-04  0.0000E+00
 57  0.0000E+00  8.5199E-03  4.8082E-04  3.2137E-03  0.0000E+00  1.7485E-02  1.9958E-04  1.2297E-03  1.0897E-04
 58  0.0000E+00  1.9996E-02  4.0559E-03  4.2503E-03  8.8886E-05  1.4737E-02  1.1792E-03  4.6963E-04  2.7984E-03
 59  0.0000E+00  5.5339E-02  2.4627E-02  2.3969E-02  2.4364E-03  1.9240E-02  3.3188E-02  3.4306E-02  1.1711E-01
 60  0.0000E+00  6.3723E+00  8.0706E+00  1.0979E+01  4.1853E+00  6.6996E+00  1.0238E+01  9.9952E+00  7.2246E+00
 61  0.0000E+00  4.2021E+00  5.9692E+00  6.1258E+00  5.1856E+00  4.3454E+00  6.3157E+00  6.0345E+00  2.0776E-02
 62  0.0000E+00  2.1832E-01  4.8484E-02  1.6375E-02  0.0000E+00  3.5095E-01  2.0606E-03  1.1448E-02  5.5236E-04
 63  5.0537E-01  1.9034E+01  1.9721E+01  2.0304E+01  2.5858E+01  2.0268E+01  2.1217E+01  2.2054E+01  3.0540E+01
 64  0.0000E+00  1.6169E+01  1.4758E+01  1.6215E+01  1.7674E+01  1.5300E+01  1.5992E+01  1.6572E+01  2.6454E+01
 65  0.0000E+00  7.4722E+00  1.0752E+01  7.7321E+00  5.1558E+00  9.5414E+00  6.1030E+00  5.8357E+00  4.2557E+00
 66  0.0000E+00  4.0917E+00  1.0073E+00  1.1439E+00  1.6978E-01  6.5020E+00  4.5597E-01  5.4759E-01  4.9120E-01

# AV, chi2 & Mass for <> & i_chain = 1 ...  7 solutions
AV      -0.9980      0.4137      0.4368      0.4976      0.3875      0.4253      0.4866      0.4897      0.3110
chi2 4.4410E-05  1.5139E-04  1.2884E-04  1.3245E-04  1.2690E-04  1.3050E-04  1.3167E-04  1.3227E-04  1.2228E-04
Mass 1.2510E-12  1.0846E-12  1.1215E-12  1.0871E-12  1.1050E-12  1.1520E-12  1.0721E-12  1.0771E-12  1.1027E-12
 -27.02                                  [v0_min (km/s) before EX0s...]
 163.71                                  [vd_min (km/s) before EX0s...]


## Synthetic spectrum (Best Model) ##l_obs f_obs f_syn wei
 3478    [Nl_obs]
 3741.00    0.36954   0.50816    0.000
 3742.00    0.34282   0.48325    0.000
 3743.00    0.31119   0.44351    0.000
 3744.00    0.28158   0.40084    0.000
 3745.00    0.25316   0.36452   -1.000
 3746.00    0.28553   0.33867   -1.000
 3747.00    0.34877   0.32724   -1.000
 3748.00    0.35150   0.33624   -1.000
 3749.00    0.32762   0.36860   -1.000
 3750.00    0.31173   0.42022   -1.000
 3751.00    0.29886   0.48292   -1.000
 3752.00    0.34359   0.54630   -1.000
 3753.00    0.40678   0.59611   -1.000
 3754.00    0.44463   0.61797   -1.000
 3755.00    0.47570   0.60616   -1.000
 3756.00    0.49522   0.56956   -1.000
 3757.00    0.51220   0.52679   -1.000
 3758.00    0.50441   0.49410   -1.000
 3759.00    0.49229   0.47859   -1.000
 3760.00    0.48735   0.47775   -1.000
 3761.00    0.48337   0.48354   -1.000
 3762.00    0.50699   0.48949   -1.000
 3763.00    0.53320   0.49312   -1.000
 3764.00    0.53307   0.49418   -1.000
 3765.00    0.53142   0.49739   -1.000
 3766.00    0.50461   0.51021   -1.000
 3767.00    0.47760   0.53445   -1.000
 3768.00    0.49858   0.56600   -1.000
 3769.00    0.51986   0.60143   -1.000
 3770.00    0.54849   0.63727   -1.000
 3771.00    0.57454   0.66729   -1.000
 3772.00    0.56686   0.68630   -1.000
 3773.00    0.55949   0.69478   -1.000
 3774.00    0.55487   0.69688   -1.000
 3775.00    0.55279   0.69651   -1.000
 3776.00    0.56715   0.69756   -1.000
 3777.00    0.57964   0.70443   -1.000
 3778.00    0.58269   0.71753   -1.000
 3779.00    0.58804   0.73268   -1.000
 3780.00    0.60282   0.74565   -1.000
 3781.00    0.61817   0.75338   -1.000
 3782.00    0.63547   0.75133   -1.000
 3783.00    0.64239   0.73309   -1.000
 3784.00    0.61965   0.69675   -1.000
 3785.00    0.60826   0.64840   -1.000
 3786.00    0.62460   0.59729   -1.000
 3787.00    0.62710   0.55332   -1.000
 3788.00    0.60040   0.52533   -1.000
 3789.00    0.56607   0.51600   -1.000
 3790.00    0.51776   0.51816   -1.000
 3791.00    0.47461   0.52087   -1.000
 3792.00    0.43972   0.51757   -1.000
 3793.00    0.43016   0.50766   -1.000
 3794.00    0.45617   0.49383   -1.000
 3795.00    0.46005   0.47838   -1.000
 3796.00    0.43657   0.46529   -1.000
 3797.00    0.43265   0.46113   -1.000
 3798.00    0.45004   0.47120   -1.000
 3799.00    0.47276   0.49595   -1.000
 3800.00    0.50060   0.53202   -1.000
 3801.00    0.53282   0.57307   -1.000
 3802.00    0.56876   0.60948   -1.000
 3803.00    0.60379   0.63222   -1.000
 3804.00    0.63813   0.63758   -1.000
 3805.00    0.66088   0.63065   -1.000
 3806.00    0.67601   0.62183   -1.000
 3807.00    0.67428   0.61808   -1.000
 3808.00    0.66285   0.61989   -1.000
 3809.00    0.63509   0.62184   -1.000
 3810.00    0.59917   0.61542   -1.000
 3811.00    0.56090   0.59460   -1.000
 3812.00    0.52162   0.55998   -1.000
 3813.00    0.51407   0.51808   -1.000
 3814.00    0.51829   0.47901   -1.000
 3815.00    0.51387   0.45003   -1.000
 3816.00    0.50672   0.43007   -1.000
 3817.00    0.48968   0.41347   -1.000
 3818.00    0.47003   0.39719   -1.000
 3819.00    0.42808   0.38316   -1.000
 3820.00    0.38135   0.37320   -1.000
 3821.00    0.39544   0.36519   -1.000
 3822.00    0.41986   0.35590   -1.000
 3823.00    0.46616   0.34441   -1.000
 3824.00    0.51527   0.33203   -1.000
 3825.00    0.44282   0.32174   -1.000
 3826.00    0.35945   0.31701   -1.000
 3827.00    0.37586   0.31960   -1.000
 3828.00    0.39762   0.32717   -1.000
 3829.00    0.40515   0.33375   -1.000
 3830.00    0.41203   0.33490   -1.000
 3831.00    0.38852   0.33127   -1.000
 3832.00    0.36903   0.32725   -1.000
 3833.00    0.43912   0.32721   -1.000
 3834.00    0.50263   0.33134   -1.000
 3835.00    0.48433   0.33599   -1.000
 3836.00    0.46321   0.33790   -1.000
 3837.00    0.41831   0.33707   -1.000
 3838.00    0.38397   0.33739   -1.000
 3839.00    0.41602   0.34574   -1.000
 3840.00    0.44126   0.36691   -1.000
 3841.00    0.43285   0.39907   -1.000
 3842.00    0.43292   0.43528   -1.000
 3843.00    0.46693   0.46737   -1.000
 3844.00    0.50804   0.49008   -1.000
 3845.00    0.57273   0.50196   -1.000
 3846.00    0.61483   0.50307   -1.000
 3847.00    0.59344   0.49565    0.000
 3848.00    0.57281   0.48516    0.000
 3849.00    0.55401   0.47713    0.000
 3850.00    0.53033   0.47292    0.000
 3851.00    0.49651   0.47014    0.000
 3852.00    0.47788   0.46574    0.000
 3853.00    0.48664   0.45712    0.000
 3854.00    0.51905   0.44290    0.000
 3855.00    0.58877   0.42387    0.000
 3856.00    0.60303   0.40224    0.000
 3857.00    0.54051   0.38227    0.000
 3858.00    0.50139   0.37032    0.000
 3859.00    0.49079   0.37222    0.000
 3860.00    0.50298   0.38932    0.000
 3861.00    0.53968   0.41625    0.000
 3862.00    0.56162   0.44416    0.000
 3863.00    0.56959   0.46545    0.000
 3864.00    0.58012   0.47621    0.000
 3865.00    0.59280   0.47636    0.000
 3866.00    0.62860   0.46811    0.000
 3867.00    0.68142   0.45429    0.000
 3868.00    0.69343   0.43752    0.000
 3869.00    0.67910   0.42153    0.000
 3870.00    0.65164   0.41166    0.000
 3871.00    0.61676   0.41349    0.000
 3872.00    0.62524   0.42870    0.000
 3873.00    0.65506   0.45165    0.000
 3874.00    0.66209   0.47202    0.000
 3875.00    0.65941   0.48098    0.000
 3876.00    0.64408   0.47674    0.000
 3877.00    0.62413   0.46475    0.000
 3878.00    0.60201   0.45165    0.000
 3879.00    0.57922   0.44257    0.000
 3880.00    0.57674   0.44174    0.000
 3881.00    0.57947   0.45034   -1.000
 3882.00    0.62999   0.46308   -1.000
 3883.00    0.69050   0.47146   -1.000
 3884.00    0.66211   0.47250   -1.000
 3885.00    0.61907   0.47027   -1.000
 3886.00    0.60716   0.47158   -1.000
 3887.00    0.59911   0.48366   -1.000
 3888.00    0.57820   0.51117   -1.000
 3889.00    0.55620   0.55231   -1.000
 3890.00    0.62588   0.59856   -1.000
 3891.00    0.70012   0.63842   -1.000
 3892.00    0.72388   0.66381   -1.000
 3893.00    0.74654   0.67366   -1.000
 3894.00    0.75225   0.67294   -1.000
 3895.00    0.75784   0.66713   -1.000
 3896.00    0.76107   0.65948   -1.000
 3897.00    0.77176   0.65268   -1.000
 3898.00    0.87074   0.64870   -1.000
 3899.00    0.96033   0.64718   -1.000
 3900.00    0.97350   0.64510   -1.000
 3901.00    0.97218   0.64050   -1.000
 3902.00    0.88242   0.63299   -1.000
 3903.00    0.80402   0.62356   -1.000
 3904.00    0.78034   0.61748   -1.000
 3905.00    0.77235   0.62135   -1.000
 3906.00    0.82584   0.63820   -1.000
 3907.00    0.87279   0.66589   -1.000
 3908.00    0.89837   0.69847   -1.000
 3909.00    0.94588   0.72980   -1.000
 3910.00    1.05384   0.75491   -1.000
 3911.00    1.11806   0.77065   -1.000
 3912.00    1.07897   0.77648   -1.000
 3913.00    1.05221   0.77287   -1.000
 3914.00    1.05062   0.76045   -1.000
 3915.00    1.05125   0.74027   -1.000
 3916.00    1.05583   0.71284   -1.000
 3917.00    1.03783   0.67891   -1.000
 3918.00    0.98478   0.64125   -1.000
 3919.00    0.91655   0.60491   -1.000
 3920.00    0.82763   0.57547   -1.000
 3921.00    0.80429   0.55622   -1.000
 3922.00    0.85973   0.54578   -1.000
 3923.00    0.90118   0.53799   -1.000
 3924.00    0.92782   0.52509   -1.000
 3925.00    0.89143   0.50103   -1.000
 3926.00    0.79616   0.46428   -1.000
 3927.00    0.74524   0.41813   -1.000
 3928.00    0.73085   0.36816   -1.000
 3929.00    0.66341   0.32011   -1.000
 3930.00    0.55753   0.27851   -1.000
 3931.00    0.47142   0.24655   -1.000
 3932.00    0.39791   0.22667   -1.000
 3933.00    0.41599   0.22092   -1.000
 3934.00    0.48506   0.23059   -1.000
 3935.00    0.50790   0.25537   -1.000
 3936.00    0.50836   0.29269   -1.000
 3937.00    0.44295   0.33739   -1.000
 3938.00    0.35001   0.38260   -1.000
 3939.00    0.49687   0.42207   -1.000
 3940.00    0.72950   0.45215   -1.000
 3941.00    0.87183   0.47349   -1.000
 3942.00    0.98685   0.49184   -1.000
 3943.00    0.93541   0.51421   -1.000
 3944.00    0.84217   0.54339   -1.000
 3945.00    0.83532   0.57769   -1.000
 3946.00    0.84609   0.61396   -1.000
 3947.00    0.96132   0.64935   -1.000
 3948.00    1.09329   0.68125   -1.000
 3949.00    1.07124   0.70721   -1.000
 3950.00    1.03080   0.72658   -1.000
 3951.00    1.05393   0.74101   -1.000
 3952.00    1.08222   0.75092   -1.000
 3953.00    1.11822   0.75484   -1.000
 3954.00    1.15457   0.75229   -1.000
 3955.00    1.13695   0.74408   -1.000
 3956.00    1.11666   0.73037   -1.000
 3957.00    0.99241   0.70908   -1.000
 3958.00    0.87569   0.67657   -1.000
 3959.00    0.90171   0.63179   -1.000
 3960.00    0.92315   0.57819    0.000
 3961.00    0.89307   0.52137    0.000
 3962.00    0.85653   0.46631    0.000
 3963.00    0.76918   0.41545    0.000
 3964.00    0.68342   0.36873    0.000
 3965.00    0.60711   0.32599    0.000
 3966.00    0.53172   0.28935    0.000
 3967.00    0.46066   0.26364    0.000
 3968.00    0.42852   0.25436    0.000
 3969.00    0.54549   0.26477    0.000
 3970.00    0.64120   0.29433    0.000
 3971.00    0.66893   0.33953    0.000
 3972.00    0.67366   0.39568    0.000
 3973.00    0.61606   0.45794    0.000
 3974.00    0.62441   0.52252    0.000
 3975.00    0.78589   0.58713    0.000
 3976.00    0.92876   0.64983    0.000
 3977.00    1.03426   0.70807    0.000
 3978.00    1.13042   0.75798    0.000
 3979.00    1.21024   0.79593    0.000
 3980.00    1.15968   0.82081    0.000
 3981.00    0.90951   0.83514    0.266
 3982.00    0.80130   0.84427    0.189
 3983.00    0.88397   0.85369    0.190
 3984.00    0.90405   0.86708    0.190
 3985.00    0.85000   0.88503    0.187
 3986.00    0.82933   0.90412    0.185
 3987.00    0.84350   0.92030    0.183
 3988.00    0.93064   0.93233    0.184
 3989.00    1.08499   0.94090    0.187
 3990.00    1.10817   0.94739    0.186
 3991.00    1.02486   0.95232    0.182
 3992.00    0.99700   0.95449    0.182
 3993.00    1.00878   0.95190    0.185
 3994.00    1.04369   0.94447    0.185
 3995.00    1.09311   0.93615    0.185
 3996.00    1.04569   0.93358    0.183
 3997.00    0.94519   0.94168    0.181
 3998.00    0.92734   0.96063    0.180
 3999.00    0.94886   0.98623    0.179
 4000.00    0.97503   1.01005    0.182
 4001.00    1.00311   1.02146    0.187
 4002.00    0.94827   1.01427    0.186
 4003.00    0.86431   0.99189    0.184
 4004.00    0.87723   0.96509    0.185
 4005.00    0.91885   0.94622    0.187
 4006.00    0.93286   0.94376    0.185
 4007.00    0.94010   0.95841    0.183
 4008.00    0.90622   0.98366    0.182
 4009.00    0.86417   1.01100    0.182
 4010.00    0.96928   1.03482    0.184
 4011.00    1.09725   1.05324    0.186
 4012.00    1.07869   1.06740    0.185
 4013.00    1.04328   1.07830    0.184
 4014.00    1.02113   1.08556    0.185
 4015.00    1.00000   1.08996    0.186
 4016.00    1.04149   1.09288    0.187
 4017.00    1.08561   1.09468    0.188
 4018.00    1.04723   1.09549    0.187
 4019.00    1.00850   1.09508    0.185
 4020.00    0.98779   1.09207    0.181
 4021.00    0.96964   1.08567    0.177
 4022.00    0.99671   1.07834    0.176
 4023.00    1.02331   1.07425    0.175
 4024.00    1.04490   1.07604    0.177
 4025.00    1.06619   1.08302    0.179
 4026.00    1.08524   1.08834    0.178
 4027.00    1.09368   1.08113    0.178
 4028.00    1.04090   1.05458    0.181
 4029.00    1.00285   1.00975    0.183
 4030.00    1.03227   0.95541    0.181
 4031.00    1.03196   0.90689    0.178
 4032.00    0.92009   0.87955    0.173
 4033.00    0.84729   0.88243    0.170
 4034.00    0.89694   0.91500    0.170
 4035.00    0.95302   0.96754    0.171
 4036.00    1.02622   1.02484    0.174
 4037.00    1.06542   1.07188    0.175
 4038.00    1.02699   1.09951    0.172
 4039.00    1.01279   1.10514    0.172
 4040.00    1.04648   1.08868    0.174
 4041.00    1.04950   1.05067    0.175
 4042.00    0.99970   0.99474    0.175
 4043.00    0.94683   0.93136    0.173
 4044.00    0.88932   0.87771    0.169
 4045.00    0.85663   0.85078    0.169
 4046.00    0.85683   0.86000    0.173
 4047.00    0.87444   0.90203    0.176
 4048.00    0.91236   0.96093    0.176
 4049.00    0.97860   1.01667    0.177
 4050.00    1.07398   1.05454    0.181
 4051.00    1.07789   1.06855    0.181
 4052.00    0.99873   1.06102    0.178
 4053.00    0.96135   1.03942    0.176
 4054.00    0.95739   1.01147    0.175
 4055.00    0.93813   0.98444    0.174
 4056.00    0.90810   0.96458    0.173
 4057.00    0.89445   0.95441    0.173
 4058.00    0.89090   0.95085    0.175
 4059.00    0.88895   0.94596    0.177
 4060.00    0.88787   0.93218    0.178
 4061.00    0.91995   0.90881    0.179
 4062.00    0.96759   0.88299    0.179
 4063.00    0.96798   0.86537    0.177
 4064.00    0.94929   0.86516    0.174
 4065.00    0.99117   0.88482    0.175
 4066.00    1.05394   0.91717    0.176
 4067.00    1.02657   0.94904    0.175
 4068.00    0.97304   0.96946    0.173
 4069.00    0.88374   0.97564    0.170
 4070.00    0.78584   0.97203    0.167
 4071.00    0.78815   0.96536    0.167
 4072.00    0.80987   0.95993    0.167
 4073.00    0.88853   0.95465    0.166
 4074.00    0.97577   0.94579    0.165
 4075.00    0.94410   0.93377    0.163
 4076.00    0.89928   0.92597    0.162
 4077.00    0.87380   0.93272    0.163
 4078.00    0.84975   0.95907    0.165
 4079.00    0.97141   0.99976    0.167
 4080.00    1.09864   1.04226    0.168
 4081.00    1.13900   1.07461    0.168
 4082.00    1.17761   1.09222    0.168
 4083.00    1.16855   1.10009    0.166
 4084.00    1.16150   1.10835    0.164
 4085.00    1.18747   1.12471    0.165
 4086.00    1.20808   1.14956    0.166
 4087.00    1.17346   1.17663    0.167
 4088.00    1.13785   1.19729    0.167
 4089.00    1.09497   1.20555    0.165
 4090.00    1.06086   1.20065    0.164
 4091.00    1.07604   1.18484    0.165
 4092.00    1.07063   1.16065    0.000
 4093.00    0.97310   1.13040    0.000
 4094.00    0.90216   1.09616    0.000
 4095.00    0.92884   1.06032    0.000
 4096.00    0.93474   1.02529    0.000
 4097.00    0.87668   0.99227    0.000
 4098.00    0.85905   0.96199    0.000
 4099.00    0.94706   0.93631    0.000
 4100.00    1.01037   0.91901    0.000
 4101.00    1.01817   0.91540    0.000
 4102.00    1.02494   0.92927    0.000
 4103.00    1.02970   0.95894    0.000
 4104.00    1.01751   0.99694    0.000
 4105.00    0.97657   1.03327    0.000
 4106.00    0.96103   1.05934    0.000
 4107.00    0.98328   1.07105    0.000
 4108.00    0.99427   1.06995    0.000
 4109.00    0.99055   1.06231    0.000
 4110.00    0.98687   1.05601    0.000
 4111.00    0.98323   1.05676    0.000
 4112.00    0.99905   1.06590    0.000
 4113.00    1.03462   1.08006    0.166
 4114.00    1.07957   1.09254    0.166
 4115.00    1.13293   1.09721    0.164
 4116.00    1.12870   1.09201    0.227
 4117.00    1.07905   1.07922    0.782
 4118.00    1.06203   1.06396   -1.000
 4119.00    1.06765   1.05178   -1.000
 4120.00    1.06783   1.04638   -1.000
 4121.00    1.06470   1.04821   -1.000
 4122.00    1.08915   1.05486   -1.000
 4123.00    1.12825   1.06263   -1.000
 4124.00    1.12992   1.06771    0.467
 4125.00    1.11433   1.06672    0.190
 4126.00    1.09937   1.05758    0.162
 4127.00    1.08464   1.04004    0.161
 4128.00    1.00415   1.01538    0.158
 4129.00    0.90138   0.98649    0.153
 4130.00    0.90322   0.95777    0.152
 4131.00    0.93482   0.93553    0.152
 4132.00    0.97059   0.92660    0.153
 4133.00    1.00734   0.93482    0.154
 4134.00    1.01832   0.95915    0.156
 4135.00    1.02444   0.99325    0.158
 4136.00    1.02222   1.02749    0.157
 4137.00    1.01879   1.05226    0.156
 4138.00    0.98762   1.05988    0.154
 4139.00    0.95350   1.04626    0.152
 4140.00    0.96028   1.01337    0.152
 4141.00    0.96989   0.96970    0.151
 4142.00    0.85912   0.92837    0.150
 4143.00    0.74420   0.90265    0.149
 4144.00    0.84686   0.89933    0.151
 4145.00    0.94824   0.91466    0.153
 4146.00    0.99269   0.93758    0.154
 4147.00    1.03153   0.95663    0.155
 4148.00    0.98360   0.96541    0.154
 4149.00    0.94196   0.96409    0.153
 4150.00    0.96232   0.95663    0.154
 4151.00    0.97484   0.94736    0.154
 4152.00    0.93169   0.93911    0.154
 4153.00    0.89810   0.93376    0.154
 4154.00    0.91667   0.93350    0.153
 4155.00    0.94511   0.94042    0.152
 4156.00    1.01666   0.95564    0.152
 4157.00    1.06524   0.97850    0.152
 4158.00    1.03123   1.00634    0.153
 4159.00    0.99546   1.03475    0.153
 4160.00    0.95437   1.05893    0.150
 4161.00    0.93191   1.07523    0.148
 4162.00    0.95725   1.08116    0.149
 4163.00    0.98051   1.07590    0.150
 4164.00    0.99917   1.06171    0.151
 4165.00    1.01034   1.04337    0.152
 4166.00    1.00716   1.02592    0.153
 4167.00    0.99483   1.01195    0.153
 4168.00    0.96721   0.99987    0.152
 4169.00    0.95397   0.98561    0.151
 4170.00    0.96177   0.96604    0.149
 4171.00    0.97962   0.94212    0.150
 4172.00    1.01042   0.91917    0.153
 4173.00    1.03790   0.90343    0.156
 4174.00    1.06162   0.89820    0.157
 4175.00    1.04895   0.90249    0.156
 4176.00    0.99987   0.91246    0.153
 4177.00    0.94210   0.92425    0.151
 4178.00    0.87668   0.93561    0.151
 4179.00    0.85317   0.94601    0.151
 4180.00    0.86226   0.95615    0.152
 4181.00    0.86782   0.96714    0.151
 4182.00    0.87097   0.97893    0.148
 4183.00    0.90669   0.98959    0.148
 4184.00    0.96193   0.99622    0.150
 4185.00    0.96554   0.99695    0.150
 4186.00    0.94213   0.99314    0.149
 4187.00    0.96059   0.98958    0.148
 4188.00    0.99803   0.99133    0.148
 4189.00    1.01757   0.99993    0.146
 4190.00    1.03011   1.01246    0.144
 4191.00    0.99988   1.02340    0.144
 4192.00    0.95544   1.02670    0.145
 4193.00    0.98407   1.01778    0.144
 4194.00    1.03306   0.99581    0.144
 4195.00    0.99767   0.96477    0.146
 4196.00    0.94291   0.93194    0.148
 4197.00    0.89947   0.90459    0.145
 4198.00    0.85811   0.88736    0.141
 4199.00    0.87831   0.88141    0.141
 4200.00    0.90721   0.88582    0.140
 4201.00    0.93788   0.89964    0.139
 4202.00    0.96873   0.92240    0.138
 4203.00    0.96597   0.95286    0.137
 4204.00    0.96101   0.98789    0.136
 4205.00    0.99769   1.02268    0.138
 4206.00    1.03558   1.05224    0.140
 4207.00    1.02882   1.07308    0.140
 4208.00    1.02285   1.08394    0.141
 4209.00    1.04021   1.08555    0.141
 4210.00    1.05786   1.07925    0.142
 4211.00    1.07964   1.06630    0.141
 4212.00    1.09777   1.04870    0.141
 4213.00    1.08138   1.03092    0.139
 4214.00    1.06581   1.02052    0.138
 4215.00    1.05588   1.02539    0.139
 4216.00    1.04979   1.04849    0.139
 4217.00    1.06414   1.08412    0.137
 4218.00    1.07976   1.11956    0.136
 4219.00    1.10082   1.14010    0.138
 4220.00    1.10574   1.13415    0.138
 4221.00    1.05386   1.09647    0.137
 4222.00    1.00090   1.02990    0.136
 4223.00    0.94472   0.94557    0.136
 4224.00    0.89799   0.86154    0.136
 4225.00    0.87508   0.79879    0.135
 4226.00    0.86459   0.77474    0.134
 4227.00    0.88106   0.79524    0.134
 4228.00    0.90990   0.85098    0.134
 4229.00    0.96203   0.92166    0.134
 4230.00    0.99515   0.98479    0.133
 4231.00    0.99697   1.02536    0.132
 4232.00    0.98684   1.04032    0.132
 4233.00    0.95944   1.03619    0.132
 4234.00    0.93630   1.02363    0.131
 4235.00    0.91855   1.01260    0.129
 4236.00    0.91395   1.00973    0.128
 4237.00    0.92405   1.01767    0.127
 4238.00    0.95328   1.03620    0.127
 4239.00    1.00139   1.06343    0.129
 4240.00    1.04147   1.09625    0.130
 4241.00    1.07457   1.13066    0.130
 4242.00    1.05219   1.16178    0.130
 4243.00    0.98726   1.18359    0.129
 4244.00    1.03217   1.18992    0.133
 4245.00    1.15109   1.17682    0.139
 4246.00    1.15702   1.14534    0.141
 4247.00    1.09624   1.10219    0.141
 4248.00    1.06983   1.05726    0.142
 4249.00    1.06110   1.01994    0.142
 4250.00    0.99910   0.99563    0.140
 4251.00    0.91333   0.98461    0.138
 4252.00    0.93914   0.98392    0.138
 4253.00    1.00773   0.99040    0.139
 4254.00    1.02459   1.00167    0.138
 4255.00    1.02459   1.01453    0.136
 4256.00    1.02398   1.02389    0.136
 4257.00    1.02319   1.02538    0.136
 4258.00    1.03252   1.01998    0.137
 4259.00    1.04411   1.01602    0.137
 4260.00    1.05651   1.02482    0.137
 4261.00    1.06906   1.05299    0.137
 4262.00    1.06117   1.09704    0.137
 4263.00    1.05048   1.14469    0.136
 4264.00    1.05140   1.18069    0.136
 4265.00    1.05346   1.19306    0.137
 4266.00    1.07397   1.17652    0.136
 4267.00    1.09561   1.13278    0.135
 4268.00    1.03838   1.06904    0.133
 4269.00    0.97952   0.99653    0.131
 4270.00    1.01653   0.92886    0.133
 4271.00    1.05218   0.87914    0.134
 4272.00    1.05181   0.85683    0.133
 4273.00    1.04797   0.86514    0.131
 4274.00    0.99642   0.90040    0.130
 4275.00    0.95105   0.95305    0.129
 4276.00    0.96173   1.00979    0.131
 4277.00    0.97663   1.05735    0.132
 4278.00    1.01954   1.08710    0.131
 4279.00    1.05535   1.09797    0.130
 4280.00    1.05446   1.09547    0.129
 4281.00    1.06233   1.08706    0.129
 4282.00    1.10679   1.07746   -2.000
 4283.00    1.14533   1.06707   -2.000
 4284.00    1.16347   1.05362   -2.000
 4285.00    1.15658   1.03479   -2.000
 4286.00    1.07695   1.01006   -2.000
 4287.00    1.01713   0.98179   -2.000
 4288.00    1.00642   0.95542   -2.000
 4289.00    0.99731   0.93812   -2.000
 4290.00    0.99164   0.93510   -2.000
 4291.00    0.98431   0.94589   -2.000
 4292.00    0.97390   0.96359   -2.000
 4293.00    0.97426   0.97789   -2.000
 4294.00    0.99210   0.97958   -2.000
 4295.00    0.98926   0.96374   -2.000
 4296.00    0.95703   0.93067   -2.000
 4297.00    0.94966   0.88568   -2.000
 4298.00    0.97340   0.83763    0.132
 4299.00    0.96529   0.79611    0.132
 4300.00    0.92206   0.76770    0.131
 4301.00    0.88139   0.75311    0.129
 4302.00    0.84321   0.74752    0.128
 4303.00    0.82106   0.74344    0.128
 4304.00    0.81264   0.73489    0.128
 4305.00    0.79912   0.72034    0.128
 4306.00    0.78173   0.70394    0.126
 4307.00    0.76857   0.69390    0.126
 4308.00    0.75822   0.69910    0.127
 4309.00    0.76918   0.72544    0.127
 4310.00    0.79253   0.77414    0.127
 4311.00    0.84144   0.84231    0.127
 4312.00    0.90329   0.92534    0.127
 4313.00    0.96080   1.01799    0.127
 4314.00    1.01640   1.11385    0.127
 4315.00    1.07582   1.20410    0.128
 4316.00    1.13668   1.27805    0.130
 4317.00    1.14506   1.32594    0.131
 4318.00    1.13667   1.34203    0.132
 4319.00    1.12616   1.32577    0.132
 4320.00    1.11507   1.28074    0.130
 4321.00    1.12811   1.21381    0.131
 4322.00    1.14642   1.13580    0.132
 4323.00    1.09433   1.06239    0.132
 4324.00    1.02999   1.01216    0.133
 4325.00    1.02852   0.99999    0.133
 4326.00    1.03536   1.02955    0.133
 4327.00    1.07667   1.09063    0.133
 4328.00    1.12120   1.16426    0.133
 4329.00    1.14556   1.23222    0.133
 4330.00    1.16877   1.28438    0.000
 4331.00    1.18788   1.31903    0.000
 4332.00    1.20636   1.33769    0.000
 4333.00    1.16352   1.33984    0.000
 4334.00    1.12292   1.32203    0.000
 4335.00    1.13612   1.28161    0.000
 4336.00    1.14618   1.22179    0.000
 4337.00    1.11523   1.15380    0.000
 4338.00    1.08350   1.09412    0.000
 4339.00    1.04492   1.05785    0.000
 4340.00    1.01042   1.05268    0.000
 4341.00    1.00228   1.07650    0.000
 4342.00    1.00221   1.11968    0.000
 4343.00    1.04285   1.17025    0.000
 4344.00    1.08050   1.21846    0.000
 4345.00    1.10591   1.25831    0.000
 4346.00    1.12695   1.28616    0.000
 4347.00    1.13317   1.29871    0.000
 4348.00    1.14668   1.29302    0.000
 4349.00    1.18098   1.26939    0.000
 4350.00    1.19385   1.23429    0.000
 4351.00    1.15446   1.20000    0.129
 4352.00    1.13590   1.17921    0.153
 4353.00    1.16117   1.17851    0.389
 4354.00    1.18102   1.19523   -1.000
 4355.00    1.19098   1.22034   -1.000
 4356.00    1.21362   1.24438   -1.000
 4357.00    1.25655   1.26265   -1.000
 4358.00    1.28291   1.27651   -1.000
 4359.00    1.28604   1.29073   -1.000
 4360.00    1.28558   1.30908    0.571
 4361.00    1.28067   1.33144    0.177
 4362.00    1.28501   1.35357    0.129
 4363.00    1.29941   1.36933    0.127
 4364.00    1.29506   1.37345    0.126
 4365.00    1.27271   1.36395    0.126
 4366.00    1.25306   1.34334    0.126
 4367.00    1.23568   1.31742    0.127
 4368.00    1.21844   1.29196    0.127
 4369.00    1.20131   1.26957    0.127
 4370.00    1.16437   1.24871    0.125
 4371.00    1.11447   1.22641    0.122
 4372.00    1.12250   1.20208    0.122
 4373.00    1.16371   1.17981    0.124
 4374.00    1.16281   1.16639    0.124
 4375.00    1.14092   1.16640    0.122
 4376.00    1.13690   1.17738    0.123
 4377.00    1.14059   1.18910    0.124
 4378.00    1.12671   1.18759    0.125
 4379.00    1.10633   1.16191    0.125
 4380.00    1.07913   1.11010    0.124
 4381.00    1.04978   1.04165    0.122
 4382.00    1.00345   0.97492    0.120
 4383.00    0.95269   0.92987    0.118
 4384.00    0.96833   0.91893    0.118
 4385.00    0.99816   0.94122    0.118
 4386.00    1.02393   0.98405    0.119
 4387.00    1.04901   1.03108    0.119
 4388.00    1.08719   1.07080    0.119
 4389.00    1.12703   1.09994    0.119
 4390.00    1.16009   1.12153    0.120
 4391.00    1.19253   1.14027    0.122
 4392.00    1.16424   1.15965    0.122
 4393.00    1.13271   1.18141    0.121
 4394.00    1.15079   1.20568    0.121
 4395.00    1.17000   1.23038    0.120
 4396.00    1.20159   1.25092    0.120
 4397.00    1.23056   1.26153    0.120
 4398.00    1.20194   1.25810    0.121
 4399.00    1.17274   1.24014    0.122
 4400.00    1.13624   1.21009    0.121
 4401.00    1.09953   1.17134    0.121
 4402.00    1.06105   1.12801    0.120
 4403.00    1.02940   1.08621    0.120
 4404.00    1.04065   1.05465    0.122
 4405.00    1.05550   1.04210    0.123
 4406.00    1.08807   1.05361    0.122
 4407.00    1.12310   1.08800    0.121
 4408.00    1.16797   1.13829    0.121
 4409.00    1.20850   1.19329    0.121
 4410.00    1.23466   1.24033    0.121
 4411.00    1.26536   1.26863    0.122
 4412.00    1.30878   1.27377    0.124
 4413.00    1.32452   1.26039    0.124
 4414.00    1.27391   1.24104    0.123
 4415.00    1.23829   1.22999    0.122
 4416.00    1.23370   1.23562    0.123
 4417.00    1.21962   1.25623    0.123
 4418.00    1.18845   1.28177    0.121
 4419.00    1.18646   1.30050    0.120
 4420.00    1.23040   1.30563    0.120
 4421.00    1.26279   1.29829    0.121
 4422.00    1.27922   1.28518    0.124
 4423.00    1.27974   1.27377    0.124
 4424.00    1.26091   1.26815    0.122
 4425.00    1.27079   1.26813    0.122
 4426.00    1.31147   1.27085    0.124
 4427.00    1.30701   1.27298    0.125
 4428.00    1.25987   1.27224    0.124
 4429.00    1.24142   1.26757    0.124
 4430.00    1.24688   1.25868    0.124
 4431.00    1.24969   1.24581    0.124
 4432.00    1.25054   1.23055    0.123
 4433.00    1.22350   1.21723    0.123
 4434.00    1.17849   1.21241    0.122
 4435.00    1.20065   1.22161    0.123
 4436.00    1.26071   1.24472    0.125
 4437.00    1.25780   1.27425    0.126
 4438.00    1.22398   1.29860    0.126
 4439.00    1.25055   1.30896    0.126
 4440.00    1.30273   1.30470    0.127
 4441.00    1.34057   1.29387    0.128
 4442.00    1.37319   1.28795    0.128
 4443.00    1.33825   1.29489    0.127
 4444.00    1.28252   1.31491    0.125
 4445.00    1.27685   1.34155    0.125
 4446.00    1.28399   1.36603    0.126
 4447.00    1.30974   1.38168    0.125
 4448.00    1.33936   1.38562    0.123
 4449.00    1.34711   1.37770    0.125
 4450.00    1.35126   1.35868    0.126
 4451.00    1.35231   1.32955    0.125
 4452.00    1.35299   1.29231    0.124
 4453.00    1.26695   1.25089    0.122
 4454.00    1.17354   1.21091    0.121
 4455.00    1.21039   1.17762    0.120
 4456.00    1.25367   1.15372    0.120
 4457.00    1.19129   1.13881    0.120
 4458.00    1.12864   1.13133    0.119
 4459.00    1.15518   1.13078    0.119
 4460.00    1.18040   1.13844    0.119
 4461.00    1.17884   1.15571    0.000
 4462.00    1.17974   1.18165    0.000
 4463.00    1.20945   1.21188    0.000
 4464.00    1.24000   1.24028    0.000
 4465.00    1.27741   1.26200    0.000
 4466.00    1.30676   1.27566    0.000
 4467.00    1.28715   1.28384    0.000
 4468.00    1.27633   1.29145    0.000
 4469.00    1.30772   1.30348    0.000
 4470.00    1.33779   1.32288    0.000
 4471.00    1.36269   1.34938    0.000
 4472.00    1.38127   1.37990    0.000
 4473.00    1.37927   1.41002    0.000
 4474.00    1.38383   1.43524    0.000
 4475.00    1.40647   1.45164    0.000
 4476.00    1.41063   1.45578    0.000
 4477.00    1.37124   1.44550    0.000
 4478.00    1.34819   1.42213    0.000
 4479.00    1.35842   1.39216    0.000
 4480.00    1.36046   1.36609    0.000
 4481.00    1.34798   1.35414    0.000
 4482.00    1.33683   1.36084    0.118
 4483.00    1.32777   1.38227    0.119
 4484.00    1.32941   1.40781    0.120
 4485.00    1.34563   1.42549    0.119
 4486.00    1.35331   1.42792    0.119
 4487.00    1.35074   1.41536    0.117
 4488.00    1.34530   1.39442    0.116
 4489.00    1.33682   1.37339    0.116
 4490.00    1.33614   1.35735    0.117
 4491.00    1.34273   1.34628    0.117
 4492.00    1.33309   1.33744    0.117
 4493.00    1.31011   1.32960    0.116
 4494.00    1.30531   1.32527    0.116
 4495.00    1.31367   1.32907    0.116
 4496.00    1.32316   1.34381    0.116
 4497.00    1.33336   1.36802    0.117
 4498.00    1.35273   1.39704    0.117
 4499.00    1.37719   1.42646    0.117
 4500.00    1.39296   1.45466    0.117
 4501.00    1.40454   1.48225    0.117
 4502.00    1.40139   1.50931    0.116
 4503.00    1.39210   1.53357    0.114
 4504.00    1.41818   1.55125    0.115
 4505.00    1.45689   1.55974    0.116
 4506.00    1.49908   1.55952    0.117
 4507.00    1.54233   1.55344    0.117
 4508.00    1.53486   1.54425    0.117
 4509.00    1.51469   1.53278    0.117
 4510.00    1.47035   1.51818    0.116
 4511.00    1.42110   1.49992    0.115
 4512.00    1.40821   1.47936    0.114
 4513.00    1.40113   1.45971    0.113
 4514.00    1.40864   1.44451    0.114
 4515.00    1.41790   1.43606    0.115
 4516.00    1.41305   1.43489    0.115
 4517.00    1.40707   1.43987    0.116
 4518.00    1.42441   1.44839    0.115
 4519.00    1.44281   1.45622    0.115
 4520.00    1.42073   1.45822    0.114
 4521.00    1.39819   1.44971    0.113
 4522.00    1.37765   1.42829    0.113
 4523.00    1.35708   1.39455    0.114
 4524.00    1.33615   1.35188    0.112
 4525.00    1.31516   1.30570    0.110
 4526.00    1.29345   1.26251    0.110
 4527.00    1.27228   1.22871    0.111
 4528.00    1.25529   1.20875    0.110
 4529.00    1.23934   1.20335    0.110
 4530.00    1.22949   1.20934    0.110
 4531.00    1.22434   1.22155    0.110
 4532.00    1.24119   1.23600    0.110
 4533.00    1.25412   1.25221    0.111
 4534.00    1.25206   1.27260    0.111
 4535.00    1.25611   1.29913    0.111
 4536.00    1.27967   1.33005    0.113
 4537.00    1.30267   1.35982    0.114
 4538.00    1.32418   1.38223    0.113
 4539.00    1.34409   1.39434    0.112
 4540.00    1.36027   1.39750    0.113
 4541.00    1.37293   1.39543    0.113
 4542.00    1.37851   1.39114    0.112
 4543.00    1.37595   1.38582    0.111
 4544.00    1.35918   1.37953    0.112
 4545.00    1.34299   1.37243    0.112
 4546.00    1.32769   1.36518    0.112
 4547.00    1.31639   1.35873    0.112
 4548.00    1.31048   1.35370    0.112
 4549.00    1.30524   1.35023    0.112
 4550.00    1.30078   1.34791    0.000
 4551.00    1.30956   1.34647    0.000
 4552.00    1.33213   1.34679    0.000
 4553.00    1.34270   1.35135    0.000
 4554.00    1.34223   1.36327    0.000
 4555.00    1.34639   1.38411    0.000
 4556.00    1.35430   1.41202    0.000
 4557.00    1.37064   1.44171    0.000
 4558.00    1.39300   1.46650    0.000
 4559.00    1.40688   1.48089    0.000
 4560.00    1.41545   1.48235    0.000
 4561.00    1.42635   1.47205    0.000
 4562.00    1.43851   1.45457    0.000
 4563.00    1.45946   1.43680    0.000
 4564.00    1.48461   1.42567    0.000
 4565.00    1.46229   1.42505    0.000
 4566.00    1.42051   1.43374    0.000
 4567.00    1.41632   1.44617    0.000
 4568.00    1.42531   1.45597    0.000
 4569.00    1.44506   1.45993    0.000
 4570.00    1.46799   1.45949    0.000
 4571.00    1.47937   1.45879    0.000
 4572.00    1.48792   1.46092    0.000
 4573.00    1.46731   1.46547    0.000
 4574.00    1.44093   1.46867    0.000
 4575.00    1.43931   1.46585    0.000
 4576.00    1.44154   1.45404    0.000
 4577.00    1.42736   1.43363    0.000
 4578.00    1.41131   1.40833    0.000
 4579.00    1.38915   1.38382    0.000
 4580.00    1.36652   1.36527    0.000
 4581.00    1.38205   1.35538    0.000
 4582.00    1.39917   1.35388    0.000
 4583.00    1.39651   1.35894    0.000
 4584.00    1.39399   1.36907    0.000
 4585.00    1.40483   1.38365    0.000
 4586.00    1.41484   1.40168    0.000
 4587.00    1.41028   1.42017    0.000
 4588.00    1.40832   1.43428    0.000
 4589.00    1.43412   1.43926    0.000
 4590.00    1.45622   1.43319    0.000
 4591.00    1.45027   1.41800    0.000
 4592.00    1.43831   1.39840    0.000
 4593.00    1.39182   1.37965    0.000
 4594.00    1.35210   1.36556    0.000
 4595.00    1.34329   1.35770    0.000
 4596.00    1.34016   1.35557    0.000
 4597.00    1.35829   1.35742    0.000
 4598.00    1.36614   1.36113    0.000
 4599.00    1.34182   1.36509    0.000
 4600.00    1.33163   1.36872    0.000
 4601.00    1.35894   1.37249    0.000
 4602.00    1.38203   1.37773    0.000
 4603.00    1.39552   1.38638    0.000
 4604.00    1.40244   1.40054    0.000
 4605.00    1.39638   1.42132    0.000
 4606.00    1.41024   1.44754    0.000
 4607.00    1.45835   1.47505    0.000
 4608.00    1.48310   1.49808    0.000
 4609.00    1.47267   1.51186    0.000
 4610.00    1.46680   1.51533    0.000
 4611.00    1.46697   1.51151    0.000
 4612.00    1.46229   1.50572    0.000
 4613.00    1.45197   1.50246    0.000
 4614.00    1.46465   1.50345    0.000
 4615.00    1.50097   1.50751    0.000
 4616.00    1.53081   1.51216    0.000
 4617.00    1.55479   1.51550    0.000
 4618.00    1.53516   1.51712    0.000
 4619.00    1.48069   1.51759    0.000
 4620.00    1.46936   1.51760    0.000
 4621.00    1.48836   1.51713    0.000
 4622.00    1.50529   1.51573    0.000
 4623.00    1.52095   1.51304    0.000
 4624.00    1.51314   1.50938    0.000
 4625.00    1.49269   1.50557    0.000
 4626.00    1.47245   1.50251    0.000
 4627.00    1.45230   1.50059    0.000
 4628.00    1.46986   1.49937    0.000
 4629.00    1.50262   1.49766    0.000
 4630.00    1.49830   1.49378    0.000
 4631.00    1.48124   1.48620    0.000
 4632.00    1.46636   1.47430    0.000
 4633.00    1.45210   1.45859    0.000
 4634.00    1.43683   1.44040    0.000
 4635.00    1.42131   1.42139    0.000
 4636.00    1.40464   1.40338    0.000
 4637.00    1.38775   1.38835    0.000
 4638.00    1.34696   1.37808    0.000
 4639.00    1.30258   1.37318    0.000
 4640.00    1.32357   1.37199    0.000
 4641.00    1.35176   1.37054    0.000
 4642.00    1.38463   1.36417    0.000
 4643.00    1.41785   1.35028    0.000
 4644.00    1.38608   1.33020    0.000
 4645.00    1.35185   1.30934    0.000
 4646.00    1.33178   1.29485    0.000
 4647.00    1.31250   1.29247    0.000
 4648.00    1.32036   1.30363    0.000
 4649.00    1.32925   1.32487    0.000
 4650.00    1.35494   1.34947    0.000
 4651.00    1.37967   1.37047    0.000
 4652.00    1.39454   1.38395    0.000
 4653.00    1.40539   1.39058    0.000
 4654.00    1.38697   1.39509    0.000
 4655.00    1.37841   1.40345    0.000
 4656.00    1.42501   1.41920    0.000
 4657.00    1.45850   1.44100    0.000
 4658.00    1.43353   1.46273    0.000
 4659.00    1.41378   1.47629    0.000
 4660.00    1.41317   1.47544    0.000
 4661.00    1.41708   1.45806    0.000
 4662.00    1.43482   1.42639    0.000
 4663.00    1.43838   1.38545    0.000
 4664.00    1.40495   1.34149    0.000
 4665.00    1.37283   1.30146    0.000
 4666.00    1.34368   1.27242    0.000
 4667.00    1.32680   1.26013    0.000
 4668.00    1.33378   1.26654    0.000
 4669.00    1.33305   1.28848    0.000
 4670.00    1.31928   1.31859    0.000
 4671.00    1.31126   1.34888    0.000
 4672.00    1.31178   1.37374    0.000
 4673.00    1.33381   1.39130    0.000
 4674.00    1.38387   1.40195    0.000
 4675.00    1.40353   1.40627    0.000
 4676.00    1.38826   1.40422    0.000
 4677.00    1.36383   1.39600    0.000
 4678.00    1.33013   1.38344    0.000
 4679.00    1.32620   1.37032    0.000
 4680.00    1.34887   1.36106    0.000
 4681.00    1.36385   1.35857    0.000
 4682.00    1.37278   1.36281    0.000
 4683.00    1.37636   1.37095    0.000
 4684.00    1.37624   1.37900    0.000
 4685.00    1.38329   1.38381    0.000
 4686.00    1.39471   1.38426    0.000
 4687.00    1.39360   1.38130    0.000
 4688.00    1.38585   1.37706    0.000
 4689.00    1.37254   1.37387    0.000
 4690.00    1.35668   1.37360    0.000
 4691.00    1.34603   1.37717    0.000
 4692.00    1.33745   1.38413    0.000
 4693.00    1.34513   1.39234    0.000
 4694.00    1.35830   1.39816    0.000
 4695.00    1.36332   1.39782    0.000
 4696.00    1.36602   1.38912    0.000
 4697.00    1.36685   1.37278    0.000
 4698.00    1.36724   1.35225    0.000
 4699.00    1.36272   1.33219    0.000
 4700.00    1.35727   1.31655    0.000
 4701.00    1.32616   1.30735    0.000
 4702.00    1.29132   1.30448    0.000
 4703.00    1.29508   1.30615    0.000
 4704.00    1.30292   1.30987    0.000
 4705.00    1.32752   1.31355    0.000
 4706.00    1.35328   1.31651    0.000
 4707.00    1.33068   1.31974    0.000
 4708.00    1.30645   1.32490    0.000
 4709.00    1.33024   1.33281    0.000
 4710.00    1.35373   1.34265    0.000
 4711.00    1.36474   1.35271    0.000
 4712.00    1.37608   1.36207    0.000
 4713.00    1.39241   1.37189    0.000
 4714.00    1.40729   1.38480    0.000
 4715.00    1.40788   1.40290    0.000
 4716.00    1.40814   1.42601    0.000
 4717.00    1.40594   1.45124    0.000
 4718.00    1.41162   1.47435    0.000
 4719.00    1.46013   1.49175    0.000
 4720.00    1.49736   1.50168    0.000
 4721.00    1.48546   1.50412    0.000
 4722.00    1.47632   1.49959    0.000
 4723.00    1.47712   1.48795    0.000
 4724.00    1.46948   1.46840    0.000
 4725.00    1.43645   1.44085    0.000
 4726.00    1.41344   1.40765    0.000
 4727.00    1.41610   1.37410    0.000
 4728.00    1.41933   1.34698    0.000
 4729.00    1.42380   1.33165    0.000
 4730.00    1.42212   1.32986    0.000
 4731.00    1.40868   1.33922    0.000
 4732.00    1.40071   1.35481    0.000
 4733.00    1.40188   1.37154    0.000
 4734.00    1.40258   1.38607    0.000
 4735.00    1.40261   1.39744    0.000
 4736.00    1.40866   1.40638    0.000
 4737.00    1.42244   1.41401    0.000
 4738.00    1.42679   1.42097    0.000
 4739.00    1.42046   1.42731    0.000
 4740.00    1.42421   1.43308    0.000
 4741.00    1.43802   1.43866    0.000
 4742.00    1.44893   1.44472    0.000
 4743.00    1.45728   1.45177    0.000
 4744.00    1.47046   1.45977    0.000
 4745.00    1.48740   1.46800    0.000
 4746.00    1.51126   1.47518    0.000
 4747.00    1.53984   1.47974    0.000
 4748.00    1.53442   1.48020    0.000
 4749.00    1.50866   1.47567    0.000
 4750.00    1.49051   1.46620    0.000
 4751.00    1.47632   1.45299    0.000
 4752.00    1.47584   1.43823    0.000
 4753.00    1.48157   1.42455    0.000
 4754.00    1.46940   1.41427    0.000
 4755.00    1.45027   1.40856    0.000
 4756.00    1.45104   1.40698    0.000
 4757.00    1.45839   1.40742    0.000
 4758.00    1.46228   1.40675    0.000
 4759.00    1.46521   1.40187    0.000
 4760.00    1.46043   1.39094    0.000
 4761.00    1.45390   1.37428    0.108
 4762.00    1.41435   1.35444    0.108
 4763.00    1.36874   1.33559    0.108
 4764.00    1.36135   1.32225    0.107
 4765.00    1.35933   1.31791    0.106
 4766.00    1.37204   1.32374    0.106
 4767.00    1.38624   1.33819    0.106
 4768.00    1.41297   1.35764    0.107
 4769.00    1.44051   1.37799    0.108
 4770.00    1.43858   1.39655    0.107
 4771.00    1.43586   1.41271    0.107
 4772.00    1.48219   1.42737    0.108
 4773.00    1.52616   1.44142    0.108
 4774.00    1.50189   1.45465    0.107
 4775.00    1.47765   1.46561    0.106
 4776.00    1.45379   1.47244    0.106
 4777.00    1.43411   1.47366    0.106
 4778.00    1.45373   1.46872    0.105
 4779.00    1.47011   1.45806    0.105
 4780.00    1.46437   1.44306    0.105
 4781.00    1.46126   1.42576    0.105
 4782.00    1.47205   1.40848    0.104
 4783.00    1.47705   1.39328    0.104
 4784.00    1.45737   1.38150    0.104
 4785.00    1.43839   1.37371    0.104
 4786.00    1.42182   1.37005    0.105
 4787.00    1.41385   1.37072    0.105
 4788.00    1.43126   1.37624    0.105
 4789.00    1.44030   1.38732    0.104
 4790.00    1.42823   1.40420    0.104
 4791.00    1.42900   1.42575    0.104
 4792.00    1.45757   1.44906    0.104
 4793.00    1.47465   1.46971    0.105
 4794.00    1.47009   1.48319    0.104
 4795.00    1.47901   1.48674    0.104
 4796.00    1.51008   1.48082    0.104
 4797.00    1.52540   1.46918    0.105
 4798.00    1.51803   1.45731    0.105
 4799.00    1.49778   1.44986    0.105
 4800.00    1.46121   1.44849    0.105
 4801.00    1.44439   1.45129    0.104
 4802.00    1.44965   1.45415    0.105
 4803.00    1.45447   1.45317    0.105
 4804.00    1.45887   1.44687    0.105
 4805.00    1.46665   1.43667    0.105
 4806.00    1.47737   1.42605    0.106
 4807.00    1.46920   1.41856    0.106
 4808.00    1.44658   1.41626    0.105
 4809.00    1.44839   1.41919    0.104
 4810.00    1.46663   1.42588    0.104
 4811.00    1.46520   1.43454    0.104
 4812.00    1.45218   1.44407    0.105
 4813.00    1.46090   1.45426    0.104
 4814.00    1.48079   1.46535    0.104
 4815.00    1.49698   1.47714    0.104
 4816.00    1.51151   1.48841    0.105
 4817.00    1.49993   1.49689    0.105
 4818.00    1.47835   1.49997    0.104
 4819.00    1.47254   1.49577    0.104
 4820.00    1.47185   1.48426    0.104
 4821.00    1.48391   1.46771    0.105
 4822.00    1.49943   1.45007    0.106
 4823.00    1.48237   1.43538    0.105
 4824.00    1.45802   1.42608    0.104
 4825.00    1.43443   1.42201    0.103
 4826.00    1.41098   1.42089    0.103
 4827.00    1.42429   1.41990    0.103
 4828.00    1.44260   1.41730    0.103
 4829.00    1.46387   1.41315    0.104
 4830.00    1.48542   1.40907    0.105
 4831.00    1.46258   1.40704    0.104
 4832.00    1.43705   1.40819    0.103
 4833.00    1.45450   1.41203    0.103
 4834.00    1.47285   1.41650    0.103
 4835.00    1.44704   1.41892    0.103
 4836.00    1.42247   1.41723    0.102
 4837.00    1.42998   1.41108    0.102
 4838.00    1.43568   1.40200    0.102
 4839.00    1.41673   1.39281    0.103
 4840.00    1.39928   1.38642    0.103
 4841.00    1.39547   1.38485    0.103
 4842.00    1.39427   1.38842    0.103
 4843.00    1.41036   1.39582    0.102
 4844.00    1.42517   1.40451    0.101
 4845.00    1.43341   1.41184    0.102
 4846.00    1.44210   1.41607    0.102
 4847.00    1.45266   1.41685    0.102
 4848.00    1.45982   1.41489    0.000
 4849.00    1.45525   1.41095    0.000
 4850.00    1.45151   1.40482    0.000
 4851.00    1.45018   1.39545    0.000
 4852.00    1.43190   1.38167    0.000
 4853.00    1.37170   1.36320    0.000
 4854.00    1.33248   1.34074    0.000
 4855.00    1.33802   1.31516    0.000
 4856.00    1.33619   1.28680    0.000
 4857.00    1.32068   1.25582    0.000
 4858.00    1.29521   1.22361    0.000
 4859.00    1.25363   1.19397    0.000
 4860.00    1.22704   1.17277    0.000
 4861.00    1.22172   1.16547    0.000
 4862.00    1.22876   1.17440    0.000
 4863.00    1.25122   1.19709    0.000
 4864.00    1.26650   1.22691    0.000
 4865.00    1.27387   1.25568    0.000
 4866.00    1.28599   1.27642    0.000
 4867.00    1.30272   1.28540    0.000
 4868.00    1.31280   1.28286    0.000
 4869.00    1.31718   1.27269    0.000
 4870.00    1.31606   1.26101    0.000
 4871.00    1.31079   1.25411    0.000
 4872.00    1.30803   1.25639    0.000
 4873.00    1.30692   1.26898    0.000
 4874.00    1.32894   1.28986    0.000
 4875.00    1.36439   1.31508    0.101
 4876.00    1.37109   1.34023    0.101
 4877.00    1.36327   1.36153    0.101
 4878.00    1.37473   1.37630    0.102
 4879.00    1.39465   1.38301    0.103
 4880.00    1.39215   1.38137    0.103
 4881.00    1.38122   1.37223    0.103
 4882.00    1.37433   1.35734    0.103
 4883.00    1.36873   1.33894    0.102
 4884.00    1.36741   1.31923    0.102
 4885.00    1.36724   1.30012    0.101
 4886.00    1.36546   1.28319    0.102
 4887.00    1.36334   1.27003    0.102
 4888.00    1.35009   1.26277    0.102
 4889.00    1.33490   1.26424    0.102
 4890.00    1.32569   1.27737    0.102
 4891.00    1.31727   1.30365    0.102
 4892.00    1.34542   1.34149    0.103
 4893.00    1.37696   1.38562    0.104
 4894.00    1.40994   1.42825    0.105
 4895.00    1.44300   1.46188    0.105
 4896.00    1.44771   1.48171    0.106
 4897.00    1.45188   1.48709    0.107
 4898.00    1.46732   1.48094    0.107
 4899.00    1.48195   1.46817    0.107
 4900.00    1.47741   1.45397    0.106
 4901.00    1.47213   1.44243    0.105
 4902.00    1.45737   1.43559    0.105
 4903.00    1.44331   1.43320    0.106
 4904.00    1.43537   1.43283    0.106
 4905.00    1.42735   1.43098    0.105
 4906.00    1.41878   1.42473    0.104
 4907.00    1.41354   1.41331    0.104
 4908.00    1.42497   1.39884    0.105
 4909.00    1.42958   1.38559    0.106
 4910.00    1.40644   1.37789    0.106
 4911.00    1.39354   1.37765    0.105
 4912.00    1.41517   1.38289    0.105
 4913.00    1.42534   1.38818    0.105
 4914.00    1.40291   1.38656    0.106
 4915.00    1.38562   1.37250    0.106
 4916.00    1.38086   1.34467    0.104
 4917.00    1.35931   1.30713    0.104
 4918.00    1.30253   1.26824    0.104
 4919.00    1.27940   1.23771    0.104
 4920.00    1.31766   1.22285    0.103
 4921.00    1.33393   1.22639    0.103
 4922.00    1.31513   1.24617    0.104
 4923.00    1.31802   1.27712    0.104
 4924.00    1.35127   1.31373    0.104
 4925.00    1.36711   1.35147    0.104
 4926.00    1.36152   1.38696    0.103
 4927.00    1.38801   1.41727    0.103
 4928.00    1.44934   1.43947    0.104
 4929.00    1.48595   1.45109    0.105
 4930.00    1.49890   1.45111    0.104
 4931.00    1.49338   1.44045    0.103
 4932.00    1.47226   1.42169    0.103
 4933.00    1.45695   1.39823    0.102
 4934.00    1.44596   1.37344    0.102
 4935.00    1.43026   1.35038    0.101
 4936.00    1.41149   1.33206    0.100
 4937.00    1.38530   1.32161    0.101
 4938.00    1.35487   1.32175    0.102
 4939.00    1.37236   1.33360    0.102
 4940.00    1.41369   1.35554    0.000
 4941.00    1.43156   1.38326    0.000
 4942.00    1.43933   1.41126    0.000
 4943.00    1.45213   1.43516    0.000
 4944.00    1.46678   1.45306    0.000
 4945.00    1.48969   1.46558    0.000
 4946.00    1.51518   1.47457    0.000
 4947.00    1.51965   1.48165    0.000
 4948.00    1.51863   1.48705    0.000
 4949.00    1.51014   1.48939    0.000
 4950.00    1.50007   1.48619    0.000
 4951.00    1.50976   1.47511    0.000
 4952.00    1.52278   1.45483    0.000
 4953.00    1.49156   1.42591    0.000
 4954.00    1.45472   1.39161    0.000
 4955.00    1.43687   1.35784    0.000
 4956.00    1.42071   1.33166    0.000
 4957.00    1.42002   1.31886    0.000
 4958.00    1.42015   1.32140    0.000
 4959.00    1.42781   1.33656    0.000
 4960.00    1.43561   1.35746    0.000
 4961.00    1.44220   1.37595    0.000
 4962.00    1.44831   1.38595    0.000
 4963.00    1.44420   1.38560    0.000
 4964.00    1.43935   1.37706    0.000
 4965.00    1.42544   1.36495    0.000
 4966.00    1.41384   1.35458    0.000
 4967.00    1.42161   1.35002    0.000
 4968.00    1.42767   1.35298    0.000
 4969.00    1.42307   1.36280    0.000
 4970.00    1.41823   1.37716    0.000
 4971.00    1.41225   1.39277    0.000
 4972.00    1.41219   1.40601    0.000
 4973.00    1.43566   1.41362    0.000
 4974.00    1.45719   1.41335    0.000
 4975.00    1.47228   1.40417    0.000
 4976.00    1.47735   1.38641    0.000
 4977.00    1.45442   1.36147    0.000
 4978.00    1.42139   1.33150    0.000
 4979.00    1.36425   1.29937    0.000
 4980.00    1.33160   1.26865    0.000
 4981.00    1.34951   1.24343    0.000
 4982.00    1.35304   1.22761    0.000
 4983.00    1.33073   1.22385    0.000
 4984.00    1.31678   1.23248    0.000
 4985.00    1.31596   1.25099    0.000
 4986.00    1.32756   1.27454    0.000
 4987.00    1.35630   1.29783    0.000
 4988.00    1.36856   1.31696    0.000
 4989.00    1.36084   1.33014    0.000
 4990.00    1.36129   1.33781    0.000
 4991.00    1.37050   1.34187    0.000
 4992.00    1.37999   1.34417    0.000
 4993.00    1.38974   1.34531    0.000
 4994.00    1.39997   1.34474    0.000
 4995.00    1.41059   1.34107    0.000
 4996.00    1.41008   1.33293    0.000
 4997.00    1.40140   1.31991    0.000
 4998.00    1.37576   1.30267    0.000
 4999.00    1.33920   1.28300    0.000
 5000.00    1.33293   1.26305    0.000
 5001.00    1.34370   1.24456    0.000
 5002.00    1.35196   1.22884    0.000
 5003.00    1.35899   1.21704    0.000
 5004.00    1.36360   1.21020    0.000
 5005.00    1.36720   1.20901    0.000
 5006.00    1.38745   1.21294    0.000
 5007.00    1.41374   1.21972    0.000
 5008.00    1.39685   1.22571    0.000
 5009.00    1.36672   1.22711    0.000
 5010.00    1.35311   1.22172    0.000
 5011.00    1.34372   1.21024    0.000
 5012.00    1.31498   1.19599    0.000
 5013.00    1.28223   1.18334    0.000
 5014.00    1.27409   1.17589    0.000
 5015.00    1.26999   1.17516    0.000
 5016.00    1.26394   1.18028    0.000
 5017.00    1.25765   1.18894    0.000
 5018.00    1.26579   1.19883    0.000
 5019.00    1.27516   1.20845    0.000
 5020.00    1.26841   1.21737    0.000
 5021.00    1.26088   1.22578    0.000
 5022.00    1.27374   1.23407    0.000
 5023.00    1.28688   1.24251    0.000
 5024.00    1.29822   1.25097    0.000
 5025.00    1.30970   1.25959    0.000
 5026.00    1.32396   1.26929    0.000
 5027.00    1.33799   1.28121    0.000
 5028.00    1.34919   1.29585    0.000
 5029.00    1.35870   1.31227    0.101
 5030.00    1.35447   1.32815    0.099
 5031.00    1.35203   1.34005    0.098
 5032.00    1.36042   1.34437    0.098
 5033.00    1.36475   1.33856    0.098
 5034.00    1.34963   1.32194    0.098
 5035.00    1.33112   1.29607    0.098
 5036.00    1.29942   1.26449    0.098
 5037.00    1.27045   1.23183    0.098
 5038.00    1.25036   1.20325    0.098
 5039.00    1.23788   1.18437    0.097
 5040.00    1.24627   1.17978    0.097
 5041.00    1.25749   1.19116    0.096
 5042.00    1.27536   1.21604    0.097
 5043.00    1.29187   1.24827    0.096
 5044.00    1.30562   1.27981    0.096
 5045.00    1.31523   1.30285    0.095
 5046.00    1.31753   1.31291    0.096
 5047.00    1.32194   1.31016    0.096
 5048.00    1.32958   1.29915    0.096
 5049.00    1.33378   1.28695    0.097
 5050.00    1.33328   1.27983    0.097
 5051.00    1.34392   1.28128    0.098
 5052.00    1.36791   1.29162    0.098
 5053.00    1.36817   1.30865    0.097
 5054.00    1.34340   1.32885    0.097
 5055.00    1.34196   1.34879    0.097
 5056.00    1.36225   1.36620    0.097
 5057.00    1.38786   1.37980    0.097
 5058.00    1.41783   1.38846    0.097
 5059.00    1.42057   1.39110    0.097
 5060.00    1.40363   1.38693    0.097
 5061.00    1.39174   1.37552    0.097
 5062.00    1.38305   1.35754    0.097
 5063.00    1.37556   1.33541    0.097
 5064.00    1.36872   1.31296    0.097
 5065.00    1.35866   1.29386    0.097
 5066.00    1.34704   1.28052    0.097
 5067.00    1.33140   1.27384    0.098
 5068.00    1.31409   1.27282    0.098
 5069.00    1.30473   1.27530    0.098
 5070.00    1.29820   1.27896    0.097
 5071.00    1.29574   1.28195    0.097
 5072.00    1.29450   1.28318    0.097
 5073.00    1.31188   1.28180    0.098
 5074.00    1.33391   1.27669    0.098
 5075.00    1.33159   1.26684    0.098
 5076.00    1.32434   1.25217    0.099
 5077.00    1.30821   1.23410    0.098
 5078.00    1.29066   1.21518    0.097
 5079.00    1.27313   1.19909    0.096
 5080.00    1.25561   1.18982    0.096
 5081.00    1.25917   1.18962    0.096
 5082.00    1.26442   1.19831    0.097
 5083.00    1.28229   1.21395    0.095
 5084.00    1.30074   1.23393    0.094
 5085.00    1.29136   1.25493    0.095
 5086.00    1.28238   1.27429    0.095
 5087.00    1.31014   1.29119    0.095
 5088.00    1.33611   1.30590    0.094
 5089.00    1.32910   1.31842    0.094
 5090.00    1.32265   1.32812    0.095
 5091.00    1.32251   1.33398    0.095
 5092.00    1.32198   1.33448    0.094
 5093.00    1.31840   1.32805    0.095
 5094.00    1.31589   1.31441    0.095
 5095.00    1.31968   1.29538    0.096
 5096.00    1.31903   1.27453    0.097
 5097.00    1.29762   1.25590    0.096
 5098.00    1.28244   1.24303    0.095
 5099.00    1.29095   1.23777    0.096
 5100.00    1.29648   1.23943    0.096
 5101.00    1.29252   1.24480    0.095
 5102.00    1.28416   1.24988    0.094
 5103.00    1.26394   1.25166    0.095
 5104.00    1.25718   1.24883    0.095
 5105.00    1.28155   1.24173    0.096
 5106.00    1.29539   1.23282    0.096
 5107.00    1.28813   1.22549    0.097
 5108.00    1.28424   1.22251    0.096
 5109.00    1.28620   1.22538    0.095
 5110.00    1.29605   1.23415    0.095
 5111.00    1.31793   1.24799    0.096
 5112.00    1.32373   1.26558    0.096
 5113.00    1.30799   1.28459    0.096
 5114.00    1.30412   1.30243    0.097
 5115.00    1.31426   1.31692    0.099
 5116.00    1.32914   1.32565    0.099
 5117.00    1.34896   1.32667    0.100
 5118.00    1.34746   1.31904    0.099
 5119.00    1.32641   1.30294    0.097
 5120.00    1.32356   1.28008    0.096
 5121.00    1.33544   1.25348    0.095
 5122.00    1.32163   1.22664    0.095
 5123.00    1.28955   1.20315    0.095
 5124.00    1.28052   1.18567    0.095
 5125.00    1.28588   1.17548    0.096
 5126.00    1.27043   1.17257    0.095
 5127.00    1.24362   1.17593    0.094
 5128.00    1.23894   1.18432    0.093
 5129.00    1.24476   1.19639    0.094
 5130.00    1.26029   1.21049    0.095
 5131.00    1.27980   1.22479    0.097
 5132.00    1.29103   1.23730    0.096
 5133.00    1.29936   1.24585    0.095
 5134.00    1.29007   1.24881    0.094
 5135.00    1.27559   1.24596    0.094
 5136.00    1.27878   1.23808    0.094
 5137.00    1.28629   1.22670    0.096
 5138.00    1.27963   1.21453    0.095
 5139.00    1.27018   1.20376    0.095
 5140.00    1.27096   1.19519    0.095
 5141.00    1.27332   1.18919    0.096
 5142.00    1.24873   1.18540    0.095
 5143.00    1.22106   1.18292    0.094
 5144.00    1.20551   1.18118    0.094
 5145.00    1.19089   1.17938    0.094
 5146.00    1.23681   1.17762    0.095
 5147.00    1.28523   1.17648    0.096
 5148.00    1.27611   1.17548    0.095
 5149.00    1.26621   1.17451    0.095
 5150.00    1.24377   1.17489    0.095
 5151.00    1.22253   1.17799    0.096
 5152.00    1.22219   1.18483    0.095
 5153.00    1.22327   1.19587    0.095
 5154.00    1.23947   1.21089    0.095
 5155.00    1.25728   1.22898    0.096
 5156.00    1.28722   1.24755    0.097
 5157.00    1.31282   1.26269    0.098
 5158.00    1.31358   1.27117    0.097
 5159.00    1.30984   1.27013    0.096
 5160.00    1.28569   1.25698    0.096
 5161.00    1.25720   1.23022    0.095
 5162.00    1.21252   1.19021    0.094
 5163.00    1.17588   1.13994    0.094
 5164.00    1.16437   1.08471    0.094
 5165.00    1.13618   1.03022    0.094
 5166.00    1.06381   0.98134    0.094
 5167.00    1.01294   0.94146    0.093
 5168.00    1.01096   0.91304    0.092
 5169.00    1.00606   0.89793    0.092
 5170.00    0.99540   0.89660    0.092
 5171.00    0.99666   0.90827    0.093
 5172.00    1.01835   0.93182    0.093
 5173.00    1.03161   0.96518    0.093
 5174.00    1.03222   1.00460    0.092
 5175.00    1.05954   1.04545    0.092
 5176.00    1.12216   1.08152    0.092
 5177.00    1.16211   1.10448    0.092
 5178.00    1.17570   1.10708    0.092
 5179.00    1.16271   1.08954    0.091
 5180.00    1.12245   1.05990    0.091
 5181.00    1.09724   1.02862    0.091
 5182.00    1.08564   1.00539    0.091
 5183.00    1.07651   0.99775    0.091
 5184.00    1.06935   1.00947    0.090
 5185.00    1.08431   1.03862    0.090
 5186.00    1.11478   1.07735    0.091
 5187.00    1.14973   1.11624    0.092
 5188.00    1.18743   1.14749    0.092
 5189.00    1.21374   1.16564    0.093
 5190.00    1.23394   1.17037    0.000
 5191.00    1.22666   1.16720    0.000
 5192.00    1.20655   1.16330    0.000
 5193.00    1.21475   1.16349    0.000
 5194.00    1.23433   1.16987    0.000
 5195.00    1.25960   1.18299    0.000
 5196.00    1.28682   1.20126    0.000
 5197.00    1.28283   1.22005    0.000
 5198.00    1.26983   1.23433    0.000
 5199.00    1.28798   1.24067    0.000
 5200.00    1.31356   1.23676    0.000
 5201.00    1.29801   1.22190    0.000
 5202.00    1.27454   1.19765    0.000
 5203.00    1.27276   1.16690    0.000
 5204.00    1.27424   1.13445    0.000
 5205.00    1.23927   1.10641    0.000
 5206.00    1.20031   1.08812    0.000
 5207.00    1.18238   1.08311    0.000
 5208.00    1.16596   1.09255    0.000
 5209.00    1.18610   1.11478    0.000
 5210.00    1.20761   1.14452    0.000
 5211.00    1.23610   1.17549    0.093
 5212.00    1.26452   1.20370    0.093
 5213.00    1.28927   1.22679    0.094
 5214.00    1.31310   1.24373    0.094
 5215.00    1.32205   1.25566    0.094
 5216.00    1.33251   1.26492    0.094
 5217.00    1.35840   1.27317    0.095
 5218.00    1.37980   1.28019    0.096
 5219.00    1.36854   1.28390    0.096
 5220.00    1.35522   1.28083    0.096
 5221.00    1.33041   1.26784    0.096
 5222.00    1.30756   1.24479    0.096
 5223.00    1.29344   1.21612    0.095
 5224.00    1.27861   1.18873    0.095
 5225.00    1.26120   1.16854    0.095
 5226.00    1.24799   1.15965    0.095
 5227.00    1.24766   1.16305    0.095
 5228.00    1.24570   1.17626    0.095
 5229.00    1.23947   1.19492    0.095
 5230.00    1.24651   1.21489    0.094
 5231.00    1.28325   1.23320    0.095
 5232.00    1.30666   1.24808    0.096
 5233.00    1.30424   1.26033    0.095
 5234.00    1.31092   1.27273    0.095
 5235.00    1.33300   1.28678    0.094
 5236.00    1.35772   1.30263    0.094
 5237.00    1.38635   1.31901    0.095
 5238.00    1.39579   1.33311    0.096
 5239.00    1.38023   1.34318    0.095
 5240.00    1.38822   1.34877    0.095
 5241.00    1.42323   1.34922    0.094
 5242.00    1.43382   1.34417    0.093
 5243.00    1.41971   1.33437    0.093
 5244.00    1.39485   1.32079    0.093
 5245.00    1.36039   1.30364    0.092
 5246.00    1.35128   1.28436    0.092
 5247.00    1.36211   1.26604    0.092
 5248.00    1.36619   1.25107    0.093
 5249.00    1.36563   1.24066    0.093
 5250.00    1.35824   1.23612    0.093
 5251.00    1.34671   1.23832    0.092
 5252.00    1.33592   1.24634    0.092
 5253.00    1.32551   1.25868    0.093
 5254.00    1.33617   1.27453    0.093
 5255.00    1.35650   1.29136    0.093
 5256.00    1.37026   1.30471    0.093
 5257.00    1.38141   1.31046    0.093
 5258.00    1.37151   1.30571    0.093
 5259.00    1.35452   1.28884    0.092
 5260.00    1.34583   1.25902    0.093
 5261.00    1.33949   1.21819    0.093
 5262.00    1.29641   1.17256    0.094
 5263.00    1.24476   1.12897    0.095
 5264.00    1.21665   1.09077    0.095
 5265.00    1.19297   1.05943    0.095
 5266.00    1.18324   1.03809    0.095
 5267.00    1.17554   1.02930    0.095
 5268.00    1.15616   1.03233    0.095
 5269.00    1.13555   1.04561    0.095
 5270.00    1.14407   1.06778    0.095
 5271.00    1.15457   1.09578    0.096
 5272.00    1.19827   1.12827    0.097
 5273.00    1.24308   1.16606    0.098
 5274.00    1.26163   1.20544    0.097
 5275.00    1.28050   1.23943    0.096
 5276.00    1.31049   1.26487    0.096
 5277.00    1.33929   1.28240    0.097
 5278.00    1.35011   1.29222    0.096
 5279.00    1.35882   1.29523    0.096
 5280.00    1.34705   1.29386    0.095
 5281.00    1.33731   1.29154    0.095
 5282.00    1.34198   1.29237    0.096
 5283.00    1.34732   1.29943    0.097
 5284.00    1.35633   1.31366    0.096
 5285.00    1.36673   1.33382    0.095
 5286.00    1.38314   1.35672    0.096
 5287.00    1.40581   1.37844    0.096
 5288.00    1.45086   1.39534    0.096
 5289.00    1.48535   1.40425    0.097
 5290.00    1.48807   1.40433    0.097
 5291.00    1.48550   1.39649    0.096
 5292.00    1.46940   1.38112    0.096
 5293.00    1.45035   1.35851    0.096
 5294.00    1.42482   1.33106    0.095
 5295.00    1.39879   1.30357    0.095
 5296.00    1.37176   1.28013    0.095
 5297.00    1.34571   1.26359    0.094
 5298.00    1.32129   1.25634    0.093
 5299.00    1.31151   1.25997    0.092
 5300.00    1.32309   1.27454    0.092
 5301.00    1.34306   1.29783    0.092
 5302.00    1.37379   1.32500    0.091
 5303.00    1.39896   1.35044    0.091
 5304.00    1.41784   1.37204    0.092
 5305.00    1.43220   1.39053    0.092
 5306.00    1.44206   1.40528    0.092
 5307.00    1.46877   1.41500    0.092
 5308.00    1.51030   1.41967    0.092
 5309.00    1.51407   1.42036    0.092
 5310.00    1.48860   1.41850    0.091
 5311.00    1.46521   1.41470    0.091
 5312.00    1.44325   1.40833    0.091
 5313.00    1.44188   1.39950    0.091
 5314.00    1.45281   1.38970    0.090
 5315.00    1.45327   1.38008    0.091
 5316.00    1.44829   1.37125    0.091
 5317.00    1.45060   1.36319    0.091
 5318.00    1.45619   1.35473    0.090
 5319.00    1.45227   1.34396    0.091
 5320.00    1.44464   1.33008    0.091
 5321.00    1.41509   1.31323    0.090
 5322.00    1.37828   1.29216    0.089
 5323.00    1.35374   1.26502    0.089
 5324.00    1.33258   1.23316    0.090
 5325.00    1.32001   1.20279    0.090
 5326.00    1.30938   1.17992    0.090
 5327.00    1.28797   1.16793    0.090
 5328.00    1.26459   1.16834    0.091
 5329.00    1.26852   1.18047    0.091
 5330.00    1.27628   1.20305    0.091
 5331.00    1.29795   1.23442    0.091
 5332.00    1.32102   1.26988    0.091
 5333.00    1.33765   1.30119    0.091
 5334.00    1.35388   1.32223    0.092
 5335.00    1.37187   1.33162    0.092
 5336.00    1.38984   1.33091    0.092
 5337.00    1.37604   1.32378    0.092
 5338.00    1.36324   1.31374    0.092
 5339.00    1.37909   1.30345    0.093
 5340.00    1.39365   1.29580    0.093
 5341.00    1.38973   1.29186    0.093
 5342.00    1.38435   1.29131    0.093
 5343.00    1.36523   1.29417    0.093
 5344.00    1.34998   1.29888    0.092
 5345.00    1.36116   1.30258    0.091
 5346.00    1.37058   1.30482    0.091
 5347.00    1.37073   1.30802    0.090
 5348.00    1.37024   1.31426    0.090
 5349.00    1.36702   1.32478    0.091
 5350.00    1.36682   1.34017    0.092
 5351.00    1.37725   1.35923    0.092
 5352.00    1.39152   1.38046    0.091
 5353.00    1.41711   1.40200    0.091
 5354.00    1.44150   1.42074    0.090
 5355.00    1.46289   1.43430    0.091
 5356.00    1.48036   1.44213    0.091
 5357.00    1.48934   1.44396    0.091
 5358.00    1.49397   1.43940    0.091
 5359.00    1.49039   1.42936    0.091
 5360.00    1.48180   1.41508    0.090
 5361.00    1.46496   1.39769    0.089
 5362.00    1.44601   1.37889    0.088
 5363.00    1.42404   1.35966    0.089
 5364.00    1.40619   1.34047    0.089
 5365.00    1.39357   1.32110    0.088
 5366.00    1.37810   1.30045    0.087
 5367.00    1.35946   1.27922    0.087
 5368.00    1.34482   1.26170   -2.000
 5369.00    1.33411   1.25197   -2.000
 5370.00    1.33913   1.25090   -2.000
 5371.00    1.35780   1.25853   -2.000
 5372.00    1.36989   1.27372   -2.000
 5373.00    1.37696   1.29456   -2.000
 5374.00    1.37219   1.31920   -2.000
 5375.00    1.35948   1.34336   -2.000
 5376.00    1.37891   1.36135   -2.000
 5377.00    1.41725   1.37081   -2.000
 5378.00    1.43696   1.37327   -2.000
 5379.00    1.44711   1.37103   -2.000
 5380.00    1.44187   1.36707   -2.000
 5381.00    1.42979   1.36336   -2.000
 5382.00    1.42619   1.35943   -2.000
 5383.00    1.42581   1.35523    0.089
 5384.00    1.42812   1.35094    0.090
 5385.00    1.43130   1.34555    0.090
 5386.00    1.41773   1.33816    0.091
 5387.00    1.39961   1.32869    0.091
 5388.00    1.39993   1.31676    0.091
 5389.00    1.40436   1.30270    0.090
 5390.00    1.37070   1.28802    0.090
 5391.00    1.33027   1.27384    0.089
 5392.00    1.31549   1.25983    0.089
 5393.00    1.30418   1.24631    0.090
 5394.00    1.30540   1.23603    0.090
 5395.00    1.30783   1.23033    0.090
 5396.00    1.30716   1.22817    0.090
 5397.00    1.30631   1.22907    0.090
 5398.00    1.30962   1.23250    0.090
 5399.00    1.31310   1.23591    0.090
 5400.00    1.32720   1.23642    0.090
 5401.00    1.33940   1.23187    0.089
 5402.00    1.30285   1.22123    0.088
 5403.00    1.26862   1.20763    0.087
 5404.00    1.26600   1.19518    0.087
 5405.00    1.26271   1.18515    0.087
 5406.00    1.25333   1.17904    0.087
 5407.00    1.24615   1.18109    0.087
 5408.00    1.25353   1.19356    0.087
 5409.00    1.26353   1.21378    0.086
 5410.00    1.28701   1.23677    0.086
 5411.00    1.30719   1.25909    0.086
 5412.00    1.31365   1.28093    0.086
 5413.00    1.32486   1.30296    0.085
 5414.00    1.35237   1.32283    0.086
 5415.00    1.37393   1.33703    0.086
 5416.00    1.37828   1.34455    0.085
 5417.00    1.38498   1.34736    0.085
 5418.00    1.39745   1.34771    0.085
 5419.00    1.40824   1.34521    0.086
 5420.00    1.41542   1.33899    0.085
 5421.00    1.41454   1.33156    0.085
 5422.00    1.39875   1.32628    0.085
 5423.00    1.38979   1.32378    0.085
 5424.00    1.39189   1.32144    0.085
 5425.00    1.39045   1.31503    0.085
 5426.00    1.38400   1.30464    0.085
 5427.00    1.37605   1.29431    0.085
 5428.00    1.36623   1.28426    0.085
 5429.00    1.36098   1.27170    0.085
 5430.00    1.36078   1.25686    0.085
 5431.00    1.35638   1.24335    0.085
 5432.00    1.34791   1.23627    0.086
 5433.00    1.33832   1.23834    0.086
 5434.00    1.32777   1.24771    0.086
 5435.00    1.31860   1.26239    0.086
 5436.00    1.31045   1.28238    0.086
 5437.00    1.33871   1.30638    0.087
 5438.00    1.39105   1.33103    0.088
 5439.00    1.41091   1.35223    0.088
 5440.00    1.41196   1.36584    0.087
 5441.00    1.41355   1.36839    0.087
 5442.00    1.41540   1.35887    0.088
 5443.00    1.40514   1.34053    0.087
 5444.00    1.38959   1.32007    0.087
 5445.00    1.38379   1.30274    0.088
 5446.00    1.38164   1.29032    0.089
 5447.00    1.37659   1.28316    0.088
 5448.00    1.37062   1.28139    0.087
 5449.00    1.36766   1.28412    0.087
 5450.00    1.36550   1.28831    0.086
 5451.00    1.36166   1.28868    0.087
 5452.00    1.35744   1.28345    0.088
 5453.00    1.34787   1.27658    0.087
 5454.00    1.33738   1.27222    0.087
 5455.00    1.34993   1.27144    0.086
 5456.00    1.36551   1.27355    0.086
 5457.00    1.35771   1.27778    0.086
 5458.00    1.34775   1.28361    0.085
 5459.00    1.35254   1.28919    0.085
 5460.00    1.35815   1.29218    0.084
 5461.00    1.34680   1.29223    0.085
 5462.00    1.33525   1.29051    0.085
 5463.00    1.34171   1.28897    0.084
 5464.00    1.34751   1.28945    0.083
 5465.00    1.33774   1.29185    0.082
 5466.00    1.32982   1.29486    0.082
 5467.00    1.34563   1.29673    0.082
 5468.00    1.36013   1.29559    0.082
 5469.00    1.36322   1.29066    0.082
 5470.00    1.36408   1.28253    0.082
 5471.00    1.35058   1.27184    0.083
 5472.00    1.34039   1.25834    0.083
 5473.00    1.34685   1.24348    0.083
 5474.00    1.35078   1.23115    0.083
 5475.00    1.34443   1.22341    0.084
 5476.00    1.33303   1.21953    0.084
 5477.00    1.30463   1.21794    0.084
 5478.00    1.28344   1.21836   -2.000
 5479.00    1.28273   1.22322   -2.000
 5480.00    1.28422   1.23380   -2.000
 5481.00    1.29105   1.24685   -2.000
 5482.00    1.33498   1.25794   -2.000
 5483.00    1.45662   1.26593   -2.000
 5484.00    1.50629   1.27287   -2.000
 5485.00    1.42490   1.27991   -2.000
 5486.00    1.35492   1.28555   -2.000
 5487.00    1.30309   1.28854   -2.000
 5488.00    1.28713   1.28928   -2.000
 5489.00    1.32128   1.28876   -2.000
 5490.00    1.35053   1.28874   -2.000
 5491.00    1.37375   1.29055   -2.000
 5492.00    1.41136   1.29279   -2.000
 5493.00    1.46457   1.29360   -2.000
 5494.00    1.46049   1.29320   -2.000
 5495.00    1.40166   1.29310   -2.000
 5496.00    1.37235   1.29386   -2.000
 5497.00    1.36792   1.29391   -2.000
 5498.00    1.37708   1.29153   -2.000
 5499.00    1.39632   1.28737   -2.000
 5500.00    1.39116   1.28343   -2.000
 5501.00    1.37009   1.27955   -2.000
 5502.00    1.35355   1.27331    0.085
 5503.00    1.33959   1.26537    0.084
 5504.00    1.32295   1.25990    0.084
 5505.00    1.30497   1.25817    0.083
 5506.00    1.30040   1.25754    0.083
 5507.00    1.30159   1.25579    0.082
 5508.00    1.30018   1.25213    0.082
 5509.00    1.29781   1.24775    0.082
 5510.00    1.29871   1.24400    0.082
 5511.00    1.30064   1.24053    0.082
 5512.00    1.30757   1.23807    0.080
 5513.00    1.31580   1.23874    0.079
 5514.00    1.32497   1.24436    0.079
 5515.00    1.33434   1.25571    0.080
 5516.00    1.33098   1.27084    0.081
 5517.00    1.32549   1.28637    0.081
 5518.00    1.32788   1.30014    0.082
 5519.00    1.33128   1.31096    0.082
 5520.00    1.34628   1.31795    0.082
 5521.00    1.36231   1.31983    0.082
 5522.00    1.36787   1.31612    0.082
 5523.00    1.37288   1.30795    0.082
 5524.00    1.34399   1.29670    0.082
 5525.00    1.31488   1.28459    0.082
 5526.00    1.31744   1.27494    0.082
 5527.00    1.32009   1.26903    0.082
 5528.00    1.32498   1.26613    0.082
 5529.00    1.33020   1.26581    0.083
 5530.00    1.33932   1.26828    0.083
 5531.00    1.34759   1.27336    0.083
 5532.00    1.34868   1.27919    0.084
 5533.00    1.35052   1.28374    0.084
 5534.00    1.35695   1.28657    0.085
 5535.00    1.36326   1.28912    0.085
 5536.00    1.36896   1.29303    0.084
 5537.00    1.37245   1.29845    0.084
 5538.00    1.36718   1.30462    0.084
 5539.00    1.36320   1.30975    0.095
 5540.00    1.36346   1.31298    0.225
 5541.00    1.36081   1.31553   -1.000
 5542.00    1.35003   1.31746   -1.000
 5543.00    1.34494   1.31819   -1.000
 5544.00    1.35341   1.31897   -1.000
 5545.00    1.36398   1.32151   -1.000
 5546.00    1.37890   1.32606   -1.000
 5547.00    1.38230   1.33151    0.467
 5548.00    1.36502   1.33628    0.123
 5549.00    1.35942   1.33944    0.085
 5550.00    1.37211   1.34011    0.084
 5551.00    1.37645   1.33776    0.083
 5552.00    1.36928   1.33341    0.082
 5553.00    1.36478   1.32823    0.081
 5554.00    1.36349   1.32233    0.081
 5555.00    1.36509   1.31655    0.081
 5556.00    1.36979   1.31214    0.081
 5557.00    1.36100   1.30891    0.081
 5558.00    1.33949   1.30539    0.081
 5559.00    1.33745   1.30018    0.080
 5560.00    1.35157   1.29400    0.079
 5561.00    1.34922   1.28792    0.079
 5562.00    1.33481   1.28105    0.079
 5563.00    1.32520   1.27337    0.079
 5564.00    1.31868   1.26645    0.080
 5565.00    1.31838   1.26120    0.079
 5566.00    1.32157   1.25759    0.079
 5567.00    1.31872   1.25577    0.079
 5568.00    1.31291   1.25554    0.079
 5569.00    1.30798   1.25580    0.079
 5570.00    1.30342   1.25716    0.079
 5571.00    1.31351   1.26087    0.079
 5572.00    1.32889   1.26605    0.080
 5573.00    1.31601   1.27153    0.080
 5574.00    1.29448   1.27655    0.080
 5575.00    1.30199   1.28162    0.081
 5576.00    1.31690   1.28763    0.081
 5577.00    1.32815   1.29252    0.082
 5578.00    1.33865   1.29397    0.082
 5579.00    1.33231   1.29259    0.082
 5580.00    1.32322   1.28859    0.082
 5581.00    1.32223   1.28072    0.082
 5582.00    1.32222   1.26844    0.083
 5583.00    1.32035   1.25128    0.083
 5584.00    1.31833   1.23092    0.082
 5585.00    1.28989   1.21119    0.082
 5586.00    1.26018   1.19430    0.082
 5587.00    1.25471   1.18189    0.082
 5588.00    1.24976   1.17522    0.082
 5589.00    1.25465   1.17458    0.082
 5590.00    1.25903   1.17994    0.081
 5591.00    1.25344   1.18991    0.082
 5592.00    1.24770   1.20329    0.083
 5593.00    1.24015   1.21743    0.082
 5594.00    1.23453   1.22751    0.082
 5595.00    1.24441   1.23214    0.082
 5596.00    1.25456   1.23355    0.083
 5597.00    1.26636   1.23319    0.082
 5598.00    1.27592   1.23031    0.081
 5599.00    1.27480   1.22503    0.082
 5600.00    1.27400   1.22141    0.083
 5601.00    1.27437   1.22483    0.081
 5602.00    1.27390   1.23522    0.080
 5603.00    1.27069   1.24967    0.080
 5604.00    1.27097   1.26680    0.079
 5605.00    1.28080   1.28537    0.079
 5606.00    1.29528   1.30319    0.079
 5607.00    1.32067   1.31686    0.079
 5608.00    1.34075   1.32447    0.079
 5609.00    1.35009   1.32597    0.078
 5610.00    1.35245   1.32094    0.078
 5611.00    1.34248   1.30829    0.079
 5612.00    1.33576   1.28971    0.079
 5613.00    1.33407   1.27139    0.079
 5614.00    1.32376   1.25694    0.079
 5615.00    1.30175   1.24476    0.080
 5616.00    1.27787   1.23406    0.080
 5617.00    1.25174   1.22803    0.079
 5618.00    1.24773   1.23009    0.080
 5619.00    1.26701   1.23666    0.080
 5620.00    1.26992   1.23995    0.080
 5621.00    1.25763   1.23793    0.080
 5622.00    1.24685   1.23532    0.080
 5623.00    1.23731   1.23570    0.080
 5624.00    1.23687   1.23765    0.080
 5625.00    1.24298   1.24011    0.080
 5626.00    1.24732   1.24541    0.080
 5627.00    1.25054   1.25554    0.080
 5628.00    1.26433   1.26855    0.080
 5629.00    1.28398   1.27987    0.080
 5630.00    1.29486   1.28717    0.080
 5631.00    1.30153   1.29054    0.080
 5632.00    1.31529   1.28959    0.080
 5633.00    1.33198   1.28402    0.079
 5634.00    1.32097   1.27528    0.080
 5635.00    1.30012   1.26620    0.080
 5636.00    1.29133   1.25834    0.079
 5637.00    1.28615   1.25138    0.078
 5638.00    1.28218   1.24514    0.078
 5639.00    1.27851   1.24134    0.078
 5640.00    1.28096   1.24106    0.078
 5641.00    1.28464   1.24271    0.077
 5642.00    1.27858   1.24492    0.077
 5643.00    1.27099   1.24781    0.077
 5644.00    1.27802   1.25235    0.077
 5645.00    1.28677   1.25763    0.077
 5646.00    1.28352   1.26169    0.077
 5647.00    1.27930   1.26513    0.076
 5648.00    1.29655   1.26880    0.076
 5649.00    1.31476   1.27199    0.076
 5650.00    1.30385   1.27269    0.077
 5651.00    1.29265   1.26968    0.077
 5652.00    1.28368   1.26494    0.077
 5653.00    1.27541   1.25996    0.077
 5654.00    1.27987   1.25154    0.077
 5655.00    1.28342   1.23761    0.077
 5656.00    1.27679   1.22388    0.077
 5657.00    1.26954   1.21568    0.078
 5658.00    1.25748   1.21100    0.078
 5659.00    1.24758   1.20649    0.078
 5660.00    1.25038   1.20463    0.078
 5661.00    1.25214   1.21036    0.078
 5662.00    1.24905   1.22109    0.079
 5663.00    1.24837   1.23002    0.079
 5664.00    1.25682   1.23590    0.079
 5665.00    1.26372   1.24230    0.079
 5666.00    1.26574   1.24994    0.078
 5667.00    1.26700   1.25644    0.078
 5668.00    1.26625   1.26148    0.079
 5669.00    1.26951   1.26745    0.079
 5670.00    1.28199   1.27600    0.079
 5671.00    1.29849   1.28523    0.079
 5672.00    1.32304   1.29317    0.079
 5673.00    1.33655   1.30043    0.080
 5674.00    1.33084   1.30693    0.080
 5675.00    1.32898   1.31008    0.080
 5676.00    1.33298   1.30867    0.080
 5677.00    1.33414   1.30464    0.080
 5678.00    1.33153   1.29901    0.080
 5679.00    1.32479   1.29068    0.079
 5680.00    1.31319   1.28055    0.078
 5681.00    1.30679   1.27181    0.078
 5682.00    1.30580   1.26514    0.078
 5683.00    1.30348   1.25848    0.078
 5684.00    1.29996   1.25192    0.077
 5685.00    1.29394   1.24871    0.077
 5686.00    1.28590   1.25013    0.076
 5687.00    1.27956   1.25427    0.076
 5688.00    1.27444   1.25934    0.076
 5689.00    1.28352   1.26611    0.076
 5690.00    1.30145   1.27447    0.076
 5691.00    1.31682   1.28238    0.076
 5692.00    1.33078   1.28840    0.075
 5693.00    1.33239   1.29154    0.076
 5694.00    1.32816   1.29077    0.078
 5695.00    1.32759   1.28502    0.078
 5696.00    1.32852   1.27628    0.078
 5697.00    1.31289   1.26654    0.078
 5698.00    1.29147   1.25555    0.079
 5699.00    1.29560   1.24402    0.079
 5700.00    1.30724   1.23400    0.078
 5701.00    1.30451   1.22683    0.078
 5702.00    1.29828   1.22031    0.078
 5703.00    1.29388   1.21210    0.078
 5704.00    1.28984   1.20374    0.079
 5705.00    1.28775   1.19584    0.079
 5706.00    1.28595   1.18763    0.079
 5707.00    1.26712   1.18033    0.079
 5708.00    1.24634   1.17493    0.078
 5709.00    1.24118   1.17376    0.078
 5710.00    1.23719   1.17920    0.078
 5711.00    1.26382   1.19031    0.078
 5712.00    1.29170   1.20547    0.078
 5713.00    1.27999   1.22241    0.077
 5714.00    1.26863   1.23986    0.077
 5715.00    1.28421   1.25773    0.077
 5716.00    1.29916   1.27401    0.077
 5717.00    1.30334   1.28724    0.077
 5718.00    1.30767   1.29820    0.077
 5719.00    1.31350   1.30738    0.077
 5720.00    1.32034   1.31455    0.077
 5721.00    1.33482   1.31962    0.077
 5722.00    1.34783   1.32195    0.076
 5723.00    1.35242   1.32085    0.076
 5724.00    1.35422   1.31685    0.076
 5725.00    1.34340   1.31211    0.075
 5726.00    1.33557   1.30822    0.075
 5727.00    1.33888   1.30388    0.075
 5728.00    1.34067   1.29811    0.075
 5729.00    1.33770   1.29406    0.075
 5730.00    1.33800   1.29503    0.075
 5731.00    1.34692   1.29859    0.076
 5732.00    1.34789   1.30084    0.076
 5733.00    1.33084   1.30190    0.076
 5734.00    1.32153   1.30411    0.076
 5735.00    1.32742   1.30716    0.076
 5736.00    1.32943   1.30870    0.076
 5737.00    1.32479   1.30832    0.076
 5738.00    1.33132   1.30714    0.075
 5739.00    1.35463   1.30553    0.076
 5740.00    1.36445   1.30394    0.000
 5741.00    1.35649   1.30350    0.000
 5742.00    1.35203   1.30446    0.000
 5743.00    1.35161   1.30524    0.000
 5744.00    1.35165   1.30377    0.000
 5745.00    1.35218   1.30050    0.000
 5746.00    1.35374   1.29834    0.000
 5747.00    1.35624   1.29707    0.000
 5748.00    1.35817   1.29355    0.000
 5749.00    1.35964   1.28660    0.000
 5750.00    1.35091   1.27863    0.000
 5751.00    1.33503   1.27344    0.000
 5752.00    1.32934   1.27189    0.000
 5753.00    1.32992   1.27206    0.000
 5754.00    1.33380   1.27253    0.000
 5755.00    1.33944   1.27378    0.000
 5756.00    1.33247   1.27615    0.000
 5757.00    1.31963   1.27872    0.000
 5758.00    1.32460   1.27907    0.000
 5759.00    1.33671   1.27623    0.000
 5760.00    1.32855   1.27303    0.000
 5761.00    1.31344   1.27288    0.000
 5762.00    1.31304   1.27605    0.000
 5763.00    1.31687   1.28144    0.000
 5764.00    1.32861   1.28903    0.000
 5765.00    1.34224   1.29868    0.000
 5766.00    1.34244   1.30863    0.000
 5767.00    1.34007   1.31528    0.000
 5768.00    1.34336   1.31748    0.000
 5769.00    1.34749   1.31666    0.000
 5770.00    1.35413   1.31401    0.000
 5771.00    1.36105   1.30987    0.000
 5772.00    1.36937   1.30494    0.000
 5773.00    1.37779   1.30010    0.000
 5774.00    1.37129   1.29493    0.000
 5775.00    1.36423   1.28898    0.000
 5776.00    1.35046   1.28074    0.000
 5777.00    1.33676   1.26885    0.000
 5778.00    1.32662   1.25368    0.000
 5779.00    1.31654   1.23755    0.000
 5780.00    1.30748   1.22278    0.000
 5781.00    1.29923   1.20915    0.000
 5782.00    1.29920   1.19690    0.000
 5783.00    1.29716   1.19019    0.000
 5784.00    1.28060   1.19242    0.000
 5785.00    1.26698   1.20052    0.000
 5786.00    1.26969   1.21028    0.000
 5787.00    1.27382   1.22047    0.000
 5788.00    1.28419   1.23223    0.000
 5789.00    1.29293   1.24525    0.000
 5790.00    1.29574   1.25695    0.000
 5791.00    1.29950   1.26656   -2.000
 5792.00    1.30612   1.27437   -2.000
 5793.00    1.31317   1.28090   -2.000
 5794.00    1.32132   1.28631   -2.000
 5795.00    1.32314   1.29040   -2.000
 5796.00    1.31082   1.29499   -2.000
 5797.00    1.30323   1.30049   -2.000
 5798.00    1.30482   1.30459   -2.000
 5799.00    1.31198   1.30703   -2.000
 5800.00    1.32855   1.30912   -2.000
 5801.00    1.34075   1.31048   -2.000
 5802.00    1.34648   1.30949   -2.000
 5803.00    1.35318   1.30639   -2.000
 5804.00    1.36114   1.30290   -2.000
 5805.00    1.36587   1.29927   -2.000
 5806.00    1.36687   1.29629   -2.000
 5807.00    1.36389   1.29577   -2.000
 5808.00    1.35689   1.29741   -2.000
 5809.00    1.34930   1.29917   -2.000
 5810.00    1.34119   1.30021   -2.000
 5811.00    1.33552   1.30037    0.000
 5812.00    1.33176   1.29922    0.000
 5813.00    1.32591   1.29698    0.000
 5814.00    1.31862   1.29553    0.000
 5815.00    1.31650   1.29668    0.000
 5816.00    1.31752   1.29954    0.000
 5817.00    1.32810   1.30307    0.000
 5818.00    1.34374   1.30800    0.000
 5819.00    1.35121   1.31443    0.000
 5820.00    1.35493   1.32037    0.000
 5821.00    1.35661   1.32408    0.000
 5822.00    1.35748   1.32631    0.000
 5823.00    1.35669   1.32754    0.000
 5824.00    1.35535   1.32754    0.000
 5825.00    1.35479   1.32713    0.000
 5826.00    1.35445   1.32731    0.000
 5827.00    1.35069   1.32761    0.000
 5828.00    1.34612   1.32675    0.000
 5829.00    1.34581   1.32515    0.000
 5830.00    1.34629   1.32344    0.000
 5831.00    1.34334   1.32089    0.000
 5832.00    1.33990   1.31730    0.000
 5833.00    1.34426   1.31431    0.000
 5834.00    1.34945   1.31256    0.000
 5835.00    1.35011   1.31079    0.000
 5836.00    1.35047   1.30959    0.000
 5837.00    1.35508   1.31101    0.000
 5838.00    1.35982   1.31469    0.000
 5839.00    1.36836   1.31791    0.000
 5840.00    1.37660   1.31971    0.000
 5841.00    1.37534   1.32116    0.000
 5842.00    1.37348   1.32151    0.000
 5843.00    1.36248   1.31910    0.000
 5844.00    1.35231   1.31383    0.000
 5845.00    1.35008   1.30696    0.000
 5846.00    1.34657   1.29960    0.000
 5847.00    1.33411   1.29210    0.000
 5848.00    1.32489   1.28430    0.000
 5849.00    1.33318   1.27566    0.000
 5850.00    1.33787   1.26648    0.000
 5851.00    1.32701   1.25790    0.000
 5852.00    1.31852   1.25026    0.000
 5853.00    1.31846   1.24200    0.000
 5854.00    1.31681   1.23229    0.000
 5855.00    1.31037   1.22385    0.000
 5856.00    1.29960   1.22012    0.000
 5857.00    1.27780   1.22040    0.000
 5858.00    1.26372   1.22178    0.000
 5859.00    1.26659   1.22376    0.000
 5860.00    1.26633   1.22826    0.000
 5861.00    1.26008   1.23580    0.000
 5862.00    1.25746   1.24337    0.000
 5863.00    1.26085   1.24836    0.000
 5864.00    1.26125   1.25133    0.000
 5865.00    1.25729   1.25558    0.000
 5866.00    1.25713   1.26141    0.000
 5867.00    1.26184   1.26655    0.000
 5868.00    1.26868   1.27030    0.000
 5869.00    1.27791   1.27403    0.000
 5870.00    1.28020   1.27788    0.000
 5871.00    1.27557   1.28058    0.000
 5872.00    1.27334   1.28146    0.000
 5873.00    1.27322   1.27993    0.000
 5874.00    1.27766   1.27631    0.000
 5875.00    1.28562   1.27164    0.000
 5876.00    1.27927   1.26622    0.000
 5877.00    1.26319   1.25909    0.000
 5878.00    1.25335   1.25116    0.000
 5879.00    1.24722   1.24424    0.000
 5880.00    1.24133   1.23709    0.000
 5881.00    1.23555   1.22730    0.000
 5882.00    1.22093   1.21442    0.000
 5883.00    1.20233   1.19891    0.000
 5884.00    1.18585   1.17879    0.000
 5885.00    1.17019   1.15050    0.000
 5886.00    1.14759   1.11333    0.000
 5887.00    1.12268   1.07254    0.000
 5888.00    1.09091   1.03648    0.000
 5889.00    1.05725   1.00866    0.000
 5890.00    1.03458   0.98710    0.000
 5891.00    1.01441   0.97208    0.000
 5892.00    1.00423   0.96639    0.000
 5893.00    0.99587   0.97105    0.000
 5894.00    0.99585   0.98464    0.000
 5895.00    0.99699   1.00479    0.000
 5896.00    1.00660   1.02748    0.000
 5897.00    1.01706   1.05120    0.000
 5898.00    1.04773   1.08033    0.000
 5899.00    1.07969   1.11485    0.000
 5900.00    1.10836   1.14651    0.000
 5901.00    1.13692   1.17138    0.070
 5902.00    1.15854   1.19167    0.070
 5903.00    1.17992   1.20774    0.070
 5904.00    1.19484   1.21930    0.070
 5905.00    1.20942   1.22773    0.070
 5906.00    1.21935   1.23354    0.070
 5907.00    1.22873   1.23663    0.070
 5908.00    1.23310   1.23858    0.070
 5909.00    1.23763   1.23998    0.070
 5910.00    1.24331   1.23897    0.070
 5911.00    1.24782   1.23478    0.070
 5912.00    1.24617   1.22983    0.070
 5913.00    1.24476   1.22611    0.070
 5914.00    1.24439   1.22337    0.070
 5915.00    1.24170   1.22148    0.069
 5916.00    1.23093   1.22166    0.069
 5917.00    1.22307   1.22487    0.069
 5918.00    1.22379   1.22976    0.069
 5919.00    1.22776   1.23468    0.069
 5920.00    1.23988   1.23911    0.069
 5921.00    1.25247   1.24317    0.070
 5922.00    1.26610   1.24640    0.070
 5923.00    1.27225   1.24797    0.071
 5924.00    1.26439   1.24838    0.070
 5925.00    1.25585   1.24806    0.070
 5926.00    1.24621   1.24640    0.070
 5927.00    1.24211   1.24330    0.069
 5928.00    1.24598   1.24065    0.069
 5929.00    1.24704   1.23938    0.069
 5930.00    1.24455   1.23818    0.069
 5931.00    1.24567   1.23616    0.069
 5932.00    1.25081   1.23513    0.069
 5933.00    1.24815   1.23700    0.069
 5934.00    1.23785   1.23957    0.069
 5935.00    1.23134   1.24047    0.069
 5936.00    1.22813   1.24102    0.069
 5937.00    1.23570   1.24260    0.069
 5938.00    1.25148   1.24359    0.070
 5939.00    1.26469   1.24297    0.070
 5940.00    1.27616   1.24255    0.069
 5941.00    1.27605   1.24274    0.069
 5942.00    1.26915   1.24239    0.070
 5943.00    1.25907   1.24211    0.070
 5944.00    1.24738   1.24272    0.070
 5945.00    1.24800   1.24237    0.069
 5946.00    1.25408   1.23996    0.069
 5947.00    1.25518   1.23763    0.069
 5948.00    1.25439   1.23618    0.069
 5949.00    1.24810   1.23317    0.069
 5950.00    1.24003   1.22815    0.069
 5951.00    1.23448   1.22516    0.069
 5952.00    1.22961   1.22570    0.069
 5953.00    1.22604   1.22589    0.068
 5954.00    1.22277   1.22422    0.068
 5955.00    1.22239   1.22445    0.068
 5956.00    1.22253   1.22834    0.068
 5957.00    1.23125   1.23312    0.068
 5958.00    1.24112   1.23726    0.068
 5959.00    1.24810   1.24199    0.069
 5960.00    1.25481   1.24761    0.070
 5961.00    1.25874   1.25279    0.070
 5962.00    1.26251   1.25648    0.070
 5963.00    1.25705   1.25859    0.069
 5964.00    1.25141   1.26030    0.069
 5965.00    1.25426   1.26240    0.069
 5966.00    1.25685   1.26442    0.070
 5967.00    1.25299   1.26615    0.069
 5968.00    1.24989   1.26823    0.068
 5969.00    1.25690   1.27017    0.068
 5970.00    1.26328   1.27046    0.068
 5971.00    1.26401   1.26863    0.069
 5972.00    1.26418   1.26475    0.069
 5973.00    1.26075   1.25887    0.069
 5974.00    1.25697   1.25195    0.069
 5975.00    1.25140   1.24533    0.068
 5976.00    1.24656   1.23943    0.068
 5977.00    1.24472   1.23455    0.068
 5978.00    1.24186   1.23119    0.068
 5979.00    1.23550   1.22898    0.068
 5980.00    1.22788   1.22649    0.068
 5981.00    1.21660   1.22308    0.068
 5982.00    1.20853   1.22007    0.068
 5983.00    1.20835   1.21880    0.068
 5984.00    1.21040   1.21828    0.068
 5985.00    1.21716   1.21795    0.068
 5986.00    1.22016   1.22003    0.068
 5987.00    1.21619   1.22556    0.067
 5988.00    1.21613   1.23143    0.067
 5989.00    1.22236   1.23553    0.068
 5990.00    1.23126   1.23964    0.068
 5991.00    1.24395   1.24419    0.069
 5992.00    1.25152   1.24670    0.068
 5993.00    1.25273   1.24627    0.068
 5994.00    1.25061   1.24447    0.068
 5995.00    1.24484   1.24202    0.069
 5996.00    1.23645   1.23864    0.069
 5997.00    1.22554   1.23487    0.068
 5998.00    1.21859   1.23145    0.068
 5999.00    1.21500   1.22807    0.068
 6000.00    1.21230   1.22462    0.068
 6001.00    1.21026   1.22205    0.068
 6002.00    1.21336   1.22043    0.068
 6003.00    1.21985   1.21798    0.068
 6004.00    1.22367   1.21397    0.068
 6005.00    1.22595   1.20993    0.068
 6006.00    1.22050   1.20764    0.068
 6007.00    1.21115   1.20746    0.067
 6008.00    1.20592   1.20792    0.067
 6009.00    1.20247   1.20735    0.067
 6010.00    1.20054   1.20646    0.067
 6011.00    1.19918   1.20730    0.067
 6012.00    1.19821   1.20876    0.067
 6013.00    1.19736   1.20746    0.067
 6014.00    1.19253   1.20363    0.067
 6015.00    1.18664   1.20110    0.067
 6016.00    1.18294   1.20045    0.067
 6017.00    1.17971   1.19867    0.067
 6018.00    1.18681   1.19613    0.068
 6019.00    1.19569   1.19623    0.068
 6020.00    1.19713   1.19861    0.068
 6021.00    1.19760   1.20112    0.067
 6022.00    1.20129   1.20485    0.068
 6023.00    1.20528   1.21130    0.069
 6024.00    1.20083   1.21842    0.068
 6025.00    1.19591   1.22512    0.068
 6026.00    1.19432   1.23274    0.068
 6027.00    1.19300   1.24075    0.068
 6028.00    1.21200   1.24711    0.068
 6029.00    1.23048   1.25241    0.068
 6030.00    1.23714   1.25816    0.068
 6031.00    1.24378   1.26306    0.068
 6032.00    1.25002   1.26602    0.068
 6033.00    1.25580   1.26789    0.068
 6034.00    1.25747   1.26960    0.068
 6035.00    1.25865   1.27040    0.068
 6036.00    1.25661   1.26976    0.067
 6037.00    1.25404   1.26837    0.067
 6038.00    1.24881   1.26724    0.067
 6039.00    1.24416   1.26653    0.067
 6040.00    1.24189   1.26622    0.067
 6041.00    1.23968   1.26701    0.067
 6042.00    1.23764   1.26886    0.067
 6043.00    1.23604   1.27118    0.066
 6044.00    1.23570   1.27390    0.066
 6045.00    1.23783   1.27673    0.066
 6046.00    1.24593   1.27840    0.066
 6047.00    1.25509   1.27875    0.067
 6048.00    1.26644   1.27836    0.067
 6049.00    1.27233   1.27654    0.067
 6050.00    1.26830   1.27263    0.068
 6051.00    1.26529   1.26775    0.068
 6052.00    1.26388   1.26296    0.068
 6053.00    1.25791   1.25796    0.068
 6054.00    1.24561   1.25276    0.068
 6055.00    1.23737   1.24886    0.069
 6056.00    1.23412   1.24684    0.068
 6057.00    1.23244   1.24581    0.068
 6058.00    1.23246   1.24462    0.068
 6059.00    1.23484   1.24316    0.069
 6060.00    1.23947   1.24157    0.069
 6061.00    1.23730   1.23973    0.069
 6062.00    1.22940   1.23699    0.068
 6063.00    1.22624   1.23451    0.068
 6064.00    1.22657   1.23533    0.068
 6065.00    1.22885   1.23969    0.068
 6066.00    1.23239   1.24526    0.067
 6067.00    1.23764   1.25202    0.067
 6068.00    1.24388   1.26109    0.067
 6069.00    1.24995   1.27022    0.066
 6070.00    1.25594   1.27661    0.066
 6071.00    1.26421   1.27997    0.066
 6072.00    1.27345   1.28077    0.066
 6073.00    1.26898   1.27899    0.066
 6074.00    1.25948   1.27456    0.066
 6075.00    1.25062   1.26727    0.067
 6076.00    1.24196   1.25797    0.067
 6077.00    1.24038   1.24911    0.067
 6078.00    1.24064   1.24116    0.067
 6079.00    1.22965   1.23243    0.066
 6080.00    1.21628   1.22454    0.065
 6081.00    1.20786   1.22062    0.066
 6082.00    1.20026   1.21876    0.066
 6083.00    1.20538   1.21600    0.067
 6084.00    1.21210   1.21422    0.067
 6085.00    1.21429   1.21513    0.067
 6086.00    1.21608   1.21578    0.067
 6087.00    1.20892   1.21408    0.067
 6088.00    1.20130   1.21248    0.067
 6089.00    1.20419   1.21297    0.067
 6090.00    1.20719   1.21343    0.068
 6091.00    1.20325   1.21308    0.067
 6092.00    1.19975   1.21479    0.067
 6093.00    1.20540   1.21885    0.067
 6094.00    1.21086   1.22183    0.067
 6095.00    1.21407   1.22296    0.067
 6096.00    1.21612   1.22351    0.066
 6097.00    1.20859   1.22290    0.066
 6098.00    1.20085   1.21972    0.066
 6099.00    1.19175   1.21318    0.066
 6100.00    1.18416   1.20466    0.066
 6101.00    1.18398   1.19872    0.066
 6102.00    1.18346   1.19714    0.065
 6103.00    1.18160   1.19665    0.065
 6104.00    1.18017   1.19694    0.065
 6105.00    1.18016   1.20126    0.065
 6106.00    1.18330   1.20941    0.065
 6107.00    1.19516   1.21765    0.065
 6108.00    1.20648   1.22351    0.066
 6109.00    1.21651   1.22736    0.066
 6110.00    1.22474   1.23133    0.066
 6111.00    1.22927   1.23555    0.067
 6112.00    1.23157   1.23732    0.067
 6113.00    1.22989   1.23560    0.067
 6114.00    1.22860   1.23253    0.068
 6115.00    1.22792   1.22916    0.067
 6116.00    1.22406   1.22332    0.067
 6117.00    1.21583   1.21437    0.067
 6118.00    1.20699   1.20483    0.067
 6119.00    1.19742   1.19594    0.067
 6120.00    1.18840   1.18801    0.067
 6121.00    1.17998   1.18364    0.067
 6122.00    1.17851   1.18276    0.067
 6123.00    1.18359   1.18286    0.066
 6124.00    1.18444   1.18530    0.066
 6125.00    1.18178   1.19098    0.066
 6126.00    1.18198   1.19654    0.066
 6127.00    1.18426   1.20060    0.065
 6128.00    1.18651   1.20429    0.064
 6129.00    1.18873   1.20618    0.064
 6130.00    1.19232   1.20445    0.064
 6131.00    1.19669   1.19972    0.064
 6132.00    1.19456   1.19242    0.065
 6133.00    1.18926   1.18180    0.065
 6134.00    1.17518   1.16830    0.065
 6135.00    1.15739   1.15581    0.065
 6136.00    1.14976   1.14942    0.065
 6137.00    1.14579   1.14910    0.065
 6138.00    1.14265   1.15128    0.066
 6139.00    1.13977   1.15678    0.066
 6140.00    1.14118   1.16860    0.066
 6141.00    1.14367   1.18356    0.066
 6142.00    1.14888   1.19511    0.066
 6143.00    1.15465   1.20263    0.067
 6144.00    1.14949   1.20933    0.067
 6145.00    1.14257   1.21447    0.066
 6146.00    1.15151   1.21547    0.066
 6147.00    1.16238   1.21332    0.067
 6148.00    1.16008   1.21040    0.066
 6149.00    1.15669   1.20748    0.066
 6150.00    1.15333   1.20466    0.066
 6151.00    1.14997   1.20145    0.066
 6152.00    1.15274   1.19729    0.066
 6153.00    1.15554   1.19318    0.066
 6154.00    1.15439   1.18849    0.066
 6155.00    1.15338   1.18015    0.065
 6156.00    1.15517   1.16829    0.066
 6157.00    1.15563   1.15549    0.066
 6158.00    1.14070   1.14043    0.066
 6159.00    1.12439   1.12194    0.066
 6160.00    1.09702   1.10495    0.064
 6161.00    1.07211   1.09379    0.063
 6162.00    1.06200   1.08662    0.063
 6163.00    1.05547   1.08165    0.063
 6164.00    1.06589   1.08187    0.064
 6165.00    1.07458   1.08853    0.064
 6166.00    1.07654   1.09571    0.064
 6167.00    1.07735   1.09941    0.064
 6168.00    1.07444   1.10464    0.064
 6169.00    1.07476   1.11378    0.065
 6170.00    1.08390   1.12097    0.065
 6171.00    1.09130   1.12557    0.065
 6172.00    1.09465   1.13371    0.065
 6173.00    1.09753   1.14411    0.066
 6174.00    1.09948   1.15122    0.067
 6175.00    1.09860   1.15690    0.067
 6176.00    1.09272   1.16438    0.066
 6177.00    1.08712   1.17055    0.066
 6178.00    1.08192   1.17400    0.065
 6179.00    1.08137   1.17796    0.065
 6180.00    1.08713   1.18158    0.065
 6181.00    1.09161   1.18195    0.065
 6182.00    1.09457   1.18029    0.064
 6183.00    1.10256   1.17776    0.064
 6184.00    1.11584   1.17185    0.065
 6185.00    1.12111   1.16267    0.065
 6186.00    1.11893   1.15360    0.065
 6187.00    1.10638   1.14559    0.065
 6188.00    1.08535   1.13683    0.064
 6189.00    1.07114   1.12874    0.064
 6190.00    1.06184   1.12630    0.063
 6191.00    1.05912   1.12961    0.063
 6192.00    1.06056   1.13343    0.063
 6193.00    1.06697   1.13788    0.063
 6194.00    1.07614   1.14588    0.064
 6195.00    1.11128   1.15478    0.067
 6196.00    1.15889   1.15988   -2.000
 6197.00    1.16422   1.16185   -2.000
 6198.00    1.15202   1.16408   -2.000
 6199.00    1.12283   1.16720   -2.000
 6200.00    1.08761   1.16963   -2.000
 6201.00    1.08405   1.17158   -2.000
 6202.00    1.08996   1.17485   -2.000
 6203.00    1.10533   1.17927   -2.000
 6204.00    1.12305   1.18274   -2.000
 6205.00    1.13835   1.18396   -2.000
 6206.00    1.15316   1.18328   -2.000
 6207.00    1.14550   1.18021   -2.000
 6208.00    1.13428   1.17398    0.067
 6209.00    1.13029   1.16525    0.067
 6210.00    1.12714   1.15462    0.066
 6211.00    1.12132   1.14210    0.066
 6212.00    1.11529   1.12940    0.065
 6213.00    1.10187   1.11821    0.064
 6214.00    1.08813   1.10888    0.064
 6215.00    1.07701   1.10266    0.063
 6216.00    1.06603   1.09944    0.062
 6217.00    1.05989   1.09772    0.063
 6218.00    1.05427   1.09794    0.063
 6219.00    1.05813   1.10099    0.063
 6220.00    1.06254   1.10479    0.063
 6221.00    1.07302   1.10753    0.063
 6222.00    1.08179   1.11021    0.063
 6223.00    1.07742   1.11322    0.063
 6224.00    1.07278   1.11422    0.064
 6225.00    1.06666   1.11243    0.064
 6226.00    1.06209   1.10973    0.064
 6227.00    1.06477   1.10542    0.064
 6228.00    1.06471   1.09933    0.065
 6229.00    1.05428   1.09512    0.066
 6230.00    1.04670   1.09431    0.067
 6231.00    1.04818   1.09486    0.066
 6232.00    1.05174   1.09823    0.065
 6233.00    1.06088   1.10468    0.065
 6234.00    1.06659   1.11051    0.065
 6235.00    1.06442   1.11447    0.065
 6236.00    1.06173   1.11663    0.065
 6237.00    1.05801   1.11466    0.064
 6238.00    1.05697   1.10941    0.063
 6239.00    1.06059   1.10424    0.063
 6240.00    1.06201   1.09802    0.063
 6241.00    1.06005   1.09075    0.063
 6242.00    1.05586   1.08742    0.063
 6243.00    1.04868   1.08759    0.062
 6244.00    1.04530   1.08780    0.062
 6245.00    1.04641   1.09033    0.062
 6246.00    1.04753   1.09523    0.062
 6247.00    1.04866   1.09829    0.062
 6248.00    1.05095   1.09909    0.062
 6249.00    1.05430   1.09813    0.062
 6250.00    1.05458   1.09341    0.062
 6251.00    1.05238   1.08594    0.062
 6252.00    1.04699   1.07789    0.063
 6253.00    1.03933   1.06951    0.064
 6254.00    1.03502   1.06178    0.064
 6255.00    1.03279   1.05623    0.065
 6256.00    1.03036   1.05377    0.065
 6257.00    1.02782   1.05582    0.065
 6258.00    1.03193   1.06174    0.066
 6259.00    1.03917   1.06861    0.068
 6260.00    1.03866   1.07802    0.071
 6261.00    1.03498   1.09042    0.075
 6262.00    1.02651   1.10048    0.077
 6263.00    1.01638   1.10680    0.078
 6264.00    1.02611   1.11360    0.077
 6265.00    1.04167   1.11990    0.075
 6266.00    1.07142   1.12223    0.072
 6267.00    1.10461   1.12331    0.069
 6268.00    1.10545   1.12586    0.066
 6269.00    1.09993   1.12832    0.064
 6270.00    1.09267   1.12993    0.063
 6271.00    1.08515   1.13184    0.062
 6272.00    1.09179   1.13368    0.062
 6273.00    1.10003   1.13511    0.062
 6274.00    1.10486   1.13576    0.062
 6275.00    1.10942   1.13520    0.062
 6276.00    1.11102   1.13415    0.062
 6277.00    1.11250   1.13279    0.063
 6278.00    1.10379   1.13089    0.063
 6279.00    1.09504   1.12975    0.064
 6280.00    1.08726   1.13050    0.000
 6281.00    1.07994   1.13264    0.000
 6282.00    1.08063   1.13630    0.000
 6283.00    1.08159   1.14088    0.000
 6284.00    1.08542   1.14623    0.000
 6285.00    1.08946   1.15170    0.000
 6286.00    1.09511   1.15597    0.000
 6287.00    1.10008   1.15827    0.000
 6288.00    1.10111   1.15857    0.000
 6289.00    1.10250   1.15708    0.000
 6290.00    1.10557   1.15364    0.000
 6291.00    1.10846   1.14841    0.000
 6292.00    1.11069   1.14278    0.000
 6293.00    1.11115   1.13715    0.000
 6294.00    1.10614   1.13035    0.000
 6295.00    1.09979   1.12350    0.000
 6296.00    1.08993   1.11856    0.000
 6297.00    1.08075   1.11490    0.000
 6298.00    1.07309   1.11141    0.000
 6299.00    1.06747   1.10873    0.000
 6300.00    1.06583   1.10860    0.000
 6301.00    1.06764   1.11138    0.000
 6302.00    1.07535   1.11528    0.000
 6303.00    1.08325   1.11932    0.000
 6304.00    1.09143   1.12504    0.000
 6305.00    1.09584   1.13226    0.000
 6306.00    1.09531   1.13761    0.000
 6307.00    1.09534   1.14055    0.000
 6308.00    1.09603   1.14192    0.000
 6309.00    1.09304   1.14045    0.000
 6310.00    1.08630   1.13681    0.000
 6311.00    1.07740   1.13224    0.000
 6312.00    1.06655   1.12494    0.000
 6313.00    1.05962   1.11643    0.000
 6314.00    1.05582   1.11133    0.000
 6315.00    1.05723   1.10725    0.000
 6316.00    1.06228   1.10163    0.000
 6317.00    1.06771   1.10027    0.000
 6318.00    1.07338   1.10439    0.000
 6319.00    1.07645   1.10842    0.000
 6320.00    1.07813   1.11260    0.000
 6321.00    1.07774   1.12040    0.063
 6322.00    1.07639   1.12951    0.063
 6323.00    1.07944   1.13641    0.062
 6324.00    1.08426   1.14224    0.062
 6325.00    1.09009   1.14743    0.062
 6326.00    1.09627   1.15174    0.062
 6327.00    1.09861   1.15446    0.062
 6328.00    1.09985   1.15449    0.062
 6329.00    1.09963   1.15322    0.063
 6330.00    1.09907   1.15172    0.063
 6331.00    1.09339   1.14888    0.063
 6332.00    1.08674   1.14375    0.063
 6333.00    1.08099   1.13711    0.063
 6334.00    1.07538   1.13163    0.063
 6335.00    1.07597   1.12826    0.064
 6336.00    1.07722   1.12506    0.065
 6337.00    1.07444   1.12221    0.064
 6338.00    1.07137   1.12262    0.064
 6339.00    1.06573   1.12492    0.064
 6340.00    1.06000   1.12579    0.065
 6341.00    1.05892   1.12605    0.065
 6342.00    1.05805   1.12733    0.065
 6343.00    1.06391   1.12979    0.064
 6344.00    1.06971   1.13203    0.064
 6345.00    1.07457   1.13411    0.064
 6346.00    1.07923   1.13781    0.063
 6347.00    1.08180   1.14226    0.062
 6348.00    1.08443   1.14502    0.062
 6349.00    1.08743   1.14609    0.062
 6350.00    1.08905   1.14630    0.062
 6351.00    1.08302   1.14427    0.062
 6352.00    1.07868   1.13853    0.061
 6353.00    1.08182   1.13076    0.062
 6354.00    1.08294   1.12319    0.062
 6355.00    1.07673   1.11426    0.062
 6356.00    1.06834   1.10274    0.062
 6357.00    1.05328   1.09260    0.062
 6358.00    1.04267   1.08559    0.062
 6359.00    1.04358   1.07886    0.063
 6360.00    1.04417   1.07333    0.063
 6361.00    1.04403   1.07277    0.064
 6362.00    1.04416   1.07646    0.065
 6363.00    1.04482   1.08199    0.065
 6364.00    1.04385   1.08982    0.065
 6365.00    1.04012   1.10057    0.065
 6366.00    1.03976   1.11268    0.065
 6367.00    1.04437   1.12384    0.065
 6368.00    1.05155   1.13360    0.065
 6369.00    1.06207   1.14280    0.064
 6370.00    1.07365   1.15103    0.064
 6371.00    1.08645   1.15687    0.064
 6372.00    1.09641   1.16018    0.064
 6373.00    1.10348   1.16229    0.064
 6374.00    1.10585   1.16347    0.064
 6375.00    1.10404   1.16261    0.063
 6376.00    1.09956   1.15977    0.063
 6377.00    1.09298   1.15731    0.063
 6378.00    1.08555   1.15526    0.063
 6379.00    1.07753   1.15250    0.062
 6380.00    1.07422   1.15106    0.062
 6381.00    1.07376   1.15127    0.062
 6382.00    1.07552   1.15122    0.062
 6383.00    1.07846   1.15169    0.062
 6384.00    1.08322   1.15354    0.063
 6385.00    1.08881   1.15460    0.064
 6386.00    1.09666   1.15401    0.064
 6387.00    1.10539   1.15271    0.064
 6388.00    1.10256   1.15045    0.064
 6389.00    1.09584   1.14681    0.064
 6390.00    1.09206   1.14174    0.064
 6391.00    1.08910   1.13556    0.064
 6392.00    1.08492   1.13143    0.065
 6393.00    1.08046   1.12955    0.065
 6394.00    1.07603   1.12663    0.066
 6395.00    1.07161   1.12482    0.066
 6396.00    1.07071   1.12627    0.066
 6397.00    1.07032   1.12634    0.067
 6398.00    1.06629   1.12444    0.066
 6399.00    1.06187   1.12709    0.065
 6400.00    1.05964   1.13183    0.064
 6401.00    1.05755   1.13345    0.063
 6402.00    1.06649   1.13591    0.063
 6403.00    1.07579   1.14036    0.064
 6404.00    1.08283   1.14266    0.063
 6405.00    1.08966   1.14132    0.063
 6406.00    1.08995   1.13912    0.063
 6407.00    1.08967   1.13856    0.063
 6408.00    1.08073   1.13666    0.062
 6409.00    1.07244   1.13201    0.062
 6410.00    1.07037   1.12998    0.063
 6411.00    1.06897   1.13117    0.064
 6412.00    1.07217   1.13049    0.064
 6413.00    1.07425   1.12958    0.065
 6414.00    1.07021   1.13125    0.064
 6415.00    1.06495   1.13172    0.064
 6416.00    1.05435   1.13024    0.064
 6417.00    1.04739   1.12957    0.064
 6418.00    1.05339   1.12888    0.064
 6419.00    1.06025   1.12804    0.064
 6420.00    1.06967   1.12986    0.065
 6421.00    1.07407   1.13401    0.065
 6422.00    1.06573   1.13764    0.065
 6423.00    1.06038   1.14184    0.064
 6424.00    1.06156   1.14693    0.064
 6425.00    1.06266   1.14985    0.064
 6426.00    1.06360   1.15026    0.064
 6427.00    1.06449   1.14947    0.064
 6428.00    1.06528   1.14628    0.064
 6429.00    1.06893   1.14195    0.064
 6430.00    1.07674   1.13970    0.064
 6431.00    1.08042   1.13839    0.063
 6432.00    1.07881   1.13689    0.063
 6433.00    1.07703   1.13690    0.063
 6434.00    1.07504   1.13866    0.063
 6435.00    1.07495   1.14039    0.063
 6436.00    1.07672   1.14052    0.063
 6437.00    1.07510   1.14108    0.064
 6438.00    1.07051   1.14481    0.064
 6439.00    1.06634   1.14909    0.065
 6440.00    1.06250   1.15191    0.065
 6441.00    1.06287   1.15599    0.065
 6442.00    1.06611   1.16045    0.065
 6443.00    1.07070   1.16157    0.065
 6444.00    1.07609   1.15914    0.065
 6445.00    1.07744   1.15493    0.065
 6446.00    1.07668   1.14835    0.066
 6447.00    1.07000   1.13789    0.066
 6448.00    1.06065   1.12770    0.066
 6449.00    1.04592   1.12233    0.066
 6450.00    1.02910   1.11864    0.065
 6451.00    1.02751   1.11692    0.065
 6452.00    1.03094   1.12010    0.065
 6453.00    1.04254   1.12494    0.064
 6454.00    1.05640   1.12980    0.064
 6455.00    1.06903   1.13610    0.064
 6456.00    1.08139   1.14139    0.064
 6457.00    1.08108   1.14345    0.064
 6458.00    1.07847   1.14490    0.064
 6459.00    1.07690   1.14512    0.064
 6460.00    1.07548   1.14119    0.064
 6461.00    1.08012   1.13771    0.064
 6462.00    1.08537   1.13810    0.064
 6463.00    1.07952   1.13761    0.064
 6464.00    1.07297   1.13698    0.064
 6465.00    1.06493   1.13988    0.064
 6466.00    1.05687   1.14311    0.064
 6467.00    1.05408   1.14427    0.065
 6468.00    1.05148   1.14588    0.065
 6469.00    1.05406   1.14671    0.064
 6470.00    1.05702   1.14589    0.064
 6471.00    1.06533   1.14624    0.065
 6472.00    1.07323   1.14591    0.066
 6473.00    1.07731   1.14404    0.066
 6474.00    1.08034   1.14381    0.066
 6475.00    1.07618   1.14436    0.066
 6476.00    1.07275   1.14223    0.065
 6477.00    1.07305   1.13954    0.066
 6478.00    1.07270   1.13800    0.065
 6479.00    1.06957   1.13445    0.064
 6480.00    1.06481   1.12950    0.063
 6481.00    1.05440   1.12683    0.063
 6482.00    1.04637   1.12583    0.063
 6483.00    1.04537   1.12456    0.063
 6484.00    1.04706   1.12399    0.063
 6485.00    1.05549   1.12411    0.063
 6486.00    1.06234   1.12298    0.063
 6487.00    1.06579   1.11909    0.063
 6488.00    1.06510   1.11141    0.064
 6489.00    1.05666   1.10030    0.064
 6490.00    1.04447   1.08691    0.064
 6491.00    1.02613   1.07044    0.064
 6492.00    1.01094   1.05169    0.064
 6493.00    1.00026   1.03586    0.064
 6494.00    0.99406   1.02465    0.064
 6495.00    0.99352   1.01736    0.065
 6496.00    0.99061   1.01603    0.065
 6497.00    0.98507   1.02053    0.065
 6498.00    0.98733   1.03030    0.065
 6499.00    0.99723   1.04370    0.065
 6500.00    1.00472   1.05818    0.065
 6501.00    1.01012   1.07326    0.064
 6502.00    1.01785   1.08758    0.064
 6503.00    1.02734   1.09968    0.064
 6504.00    1.02725   1.10959    0.064
 6505.00    1.02073   1.11739    0.063
 6506.00    1.01990   1.12241    0.063
 6507.00    1.02239   1.12572    0.063
 6508.00    1.03164   1.12844    0.063
 6509.00    1.04434   1.12960    0.063
 6510.00    1.04583   1.12909    0.063
 6511.00    1.04236   1.12845    0.063
 6512.00    1.04942   1.12716    0.063
 6513.00    1.06047   1.12402    0.063
 6514.00    1.07584   1.12074    0.064
 6515.00    1.09261   1.11851    0.065
 6516.00    1.08810   1.11587    0.065
 6517.00    1.07784   1.11407    0.065
 6518.00    1.07412   1.11500    0.065
 6519.00    1.07184   1.11688    0.066
 6520.00    1.07019   1.11879    0.066
 6521.00    1.06866   1.12136    0.067
 6522.00    1.06444   1.12412    0.067
 6523.00    1.05985   1.12618    0.067
 6524.00    1.06564   1.12656    0.066
 6525.00    1.07243   1.12586    0.066
 6526.00    1.08259   1.12561    0.065
 6527.00    1.09296   1.12485    0.065
 6528.00    1.08532   1.12328    0.000
 6529.00    1.07723   1.12237    0.000
 6530.00    1.06944   1.12205    0.000
 6531.00    1.06176   1.12196    0.000
 6532.00    1.05706   1.12261    0.000
 6533.00    1.05296   1.12448    0.000
 6534.00    1.05697   1.12683    0.000
 6535.00    1.06096   1.12877    0.000
 6536.00    1.06477   1.13093    0.000
 6537.00    1.06939   1.13300    0.000
 6538.00    1.07933   1.13365    0.000
 6539.00    1.08699   1.13250    0.000
 6540.00    1.08295   1.12979    0.000
 6541.00    1.07811   1.12561    0.000
 6542.00    1.07003   1.12056    0.000
 6543.00    1.06444   1.11470    0.000
 6544.00    1.06738   1.10810    0.000
 6545.00    1.07129   1.10297    0.000
 6546.00    1.07794   1.09923    0.000
 6547.00    1.08547   1.09542    0.000
 6548.00    1.09515   1.09217    0.000
 6549.00    1.09595   1.08905    0.000
 6550.00    1.07794   1.08539    0.000
 6551.00    1.06372   1.08094    0.000
 6552.00    1.05646   1.07510    0.000
 6553.00    1.04707   1.06759    0.000
 6554.00    1.03427   1.05883    0.000
 6555.00    1.01855   1.04907    0.000
 6556.00    0.99868   1.03672    0.000
 6557.00    0.98765   1.02023    0.000
 6558.00    0.98758   1.00352    0.000
 6559.00    0.99019   0.98855    0.000
 6560.00    0.99573   0.97053    0.000
 6561.00    0.99419   0.95590    0.000
 6562.00    0.98579   0.95470    0.000
 6563.00    0.98465   0.95883    0.000
 6564.00    0.98966   0.96489    0.000
 6565.00    0.99674   0.98093    0.000
 6566.00    1.00536   1.00103    0.000
 6567.00    1.00967   1.01619    0.000
 6568.00    1.01115   1.03007    0.000
 6569.00    1.00887   1.04296    0.000
 6570.00    1.00443   1.05007    0.000
 6571.00    1.00129   1.05396    0.000
 6572.00    0.99880   1.05797    0.000
 6573.00    1.00347   1.06116    0.000
 6574.00    1.01124   1.06482    0.000
 6575.00    1.00686   1.06968    0.000
 6576.00    0.99794   1.07450    0.000
 6577.00    1.00557   1.07976    0.000
 6578.00    1.01844   1.08469    0.000
 6579.00    1.04793   1.08812    0.000
 6580.00    1.08181   1.09140    0.000
 6581.00    1.10032   1.09419    0.000
 6582.00    1.11551   1.09602    0.000
 6583.00    1.12210   1.09770    0.000
 6584.00    1.12721   1.09870    0.000
 6585.00    1.12965   1.09936    0.000
 6586.00    1.13174   1.09946    0.000
 6587.00    1.10821   1.09712    0.000
 6588.00    1.08234   1.09319    0.000
 6589.00    1.06372   1.08917    0.000
 6590.00    1.04551   1.08324    0.000
 6591.00    1.04130   1.07597    0.000
 6592.00    1.03730   1.07147    0.000
 6593.00    1.02348   1.06931    0.000
 6594.00    1.00963   1.06773    0.000
 6595.00    0.99513   1.06896    0.000
 6596.00    0.98232   1.07290    0.000
 6597.00    0.99089   1.07731    0.000
 6598.00    0.99904   1.08229    0.000
 6599.00    1.00361   1.08704    0.000
 6600.00    1.00740   1.09014    0.000
 6601.00    1.00625   1.09177    0.000
 6602.00    1.00509   1.09177    0.000
 6603.00    1.00393   1.08961    0.000
 6604.00    1.00392   1.08619    0.000
 6605.00    1.00852   1.08290    0.000
 6606.00    1.01172   1.07979    0.000
 6607.00    1.01017   1.07691    0.000
 6608.00    1.01014   1.07642    0.000
 6609.00    1.01438   1.07856    0.065
 6610.00    1.01583   1.08156    0.066
 6611.00    1.01050   1.08534    0.066
 6612.00    1.00803   1.09038    0.066
 6613.00    1.01149   1.09604    0.066
 6614.00    1.01723   1.10060    0.066
 6615.00    1.02710   1.10382    0.067
 6616.00    1.03741   1.10680    0.068
 6617.00    1.04843   1.10876    0.070
 6618.00    1.05440   1.10871    0.070
 6619.00    1.05336   1.10739    0.071
 6620.00    1.04933   1.10529    0.071
 6621.00    1.04164   1.10228    0.071
 6622.00    1.03431   1.09797    0.070
 6623.00    1.02737   1.09344    0.069
 6624.00    1.02853   1.09001    0.068
 6625.00    1.03739   1.08628    0.067
 6626.00    1.03408   1.08235    0.067
 6627.00    1.02053   1.07943    0.067
 6628.00    1.00992   1.07620    0.067
 6629.00    1.00147   1.07249    0.066
 6630.00    0.99368   1.06946    0.066
 6631.00    0.98632   1.06646    0.066
 6632.00    0.98078   1.06386    0.066
 6633.00    0.97629   1.06335    0.066
 6634.00    0.97385   1.06386    0.066
 6635.00    0.97243   1.06476    0.066
 6636.00    0.98023   1.06741    0.068
 6637.00    0.99197   1.06996    0.069
 6638.00    0.99735   1.07095    0.070
 6639.00    1.00040   1.07263    0.071
 6640.00    0.99573   1.07394    0.071
 6641.00    0.98868   1.07285    0.070
 6642.00    0.99089   1.07218    0.071
 6643.00    0.99550   1.07303    0.072
 6644.00    1.00436   1.07307    0.072
 6645.00    1.01412   1.07287    0.072
 6646.00    1.01366   1.07416    0.071
 6647.00    1.01150   1.07594    0.070
 6648.00    1.01446   1.07684    0.070
 6649.00    1.01806   1.07761    0.070
 6650.00    1.00729   1.07884    0.069
 6651.00    0.99526   1.07930    0.068
 6652.00    0.98670   1.07897    0.068
 6653.00    0.97832   1.07895    0.067
 6654.00    0.98160   1.07825    0.067
 6655.00    0.98506   1.07643    0.066
 6656.00    0.98714   1.07471    0.067
 6657.00    0.98918   1.07221    0.068
 6658.00    0.99060   1.06790    0.069
 6659.00    0.99213   1.06387    0.070
 6660.00    0.99515   1.06008    0.070
 6661.00    0.99550   1.05495    0.071
 6662.00    0.97388   1.05110    0.070
 6663.00    0.95705   1.04963    0.070
 6664.00    0.96975   1.04847    0.072
 6665.00    0.97817   1.04885    0.073
 6666.00    0.96575   1.05172    0.073
 6667.00    0.95699   1.05531    0.073
 6668.00    0.96266   1.05922    0.072
 6669.00    0.96525   1.06311    0.072
 6670.00    0.95775   1.06624    0.071
 6671.00    0.95546   1.06817    0.070
 6672.00    0.96763   1.06774    0.070
 6673.00    0.97170   1.06536    0.070
 6674.00    0.95649   1.06270    0.070
 6675.00    0.94635   1.05863    0.069
 6676.00    0.94661   1.05336    0.069
 6677.00    0.94865   1.05073    0.069
 6678.00    0.95386   1.05003    0.069
 6679.00    0.95895   1.04924    0.070
 6680.00    0.96386   1.05103    0.070
 6681.00    0.96350   1.05520    0.070
 6682.00    0.95589   1.05875    0.070
 6683.00    0.95290   1.06213    0.071
 6684.00    0.95549   1.06597    0.072
 6685.00    0.95766   1.06868    0.073
 6686.00    0.95940   1.07009    0.073
 6687.00    0.96177   1.07100    0.073
 6688.00    0.96472   1.07105    0.074
 6689.00    0.97007   1.07027    0.074
 6690.00    0.97741   1.06861    0.074
 6691.00    0.98040   1.06600    0.074
 6692.00    0.98023   1.06338    0.075
 6693.00    0.97213   1.06029    0.075
 6694.00    0.95896   1.05650    0.074
 6695.00    0.94503   1.05405    0.073
 6696.00    0.93067   1.05241    0.000
 6697.00    0.93416   1.05078    0.000
 6698.00    0.94635   1.05064    0.000
 6699.00    0.95162   1.05116    0.000
 6700.00    0.95399   1.05154    0.000
 6701.00    0.95653   1.05224    0.000
 6702.00    0.95914   1.05252    0.000
 6703.00    0.95253   1.05255    0.000
 6704.00    0.94311   1.05263    0.000
 6705.00    0.95110   1.05187    0.000
 6706.00    0.96350   1.05097    0.000
 6707.00    0.95612   1.05002    0.000
 6708.00    0.94467   1.04752    0.000
 6709.00    0.95102   1.04444    0.000
 6710.00    0.96026   1.04107    0.000
 6711.00    0.93773   1.03619    0.000
 6712.00    0.91136   1.03082    0.000
 6713.00    0.93615   1.02616    0.000
 6714.00    0.96518   1.02213    0.000
 6715.00    0.97379   1.01873    0.000
 6716.00    0.98144   1.01715    0.000
 6717.00    0.97822   1.01805    0.000
 6718.00    0.97480   1.02022    0.000
 6719.00    0.96826   1.02334    0.000
 6720.00    0.96145   1.02759    0.000
 6721.00    0.94933   1.03198    0.000
 6722.00    0.93831   1.03595    0.000
 6723.00    0.93995   1.03913    0.000
 6724.00    0.94224   1.04159    0.000
 6725.00    0.94970   1.04391    0.000
 6726.00    0.95648   1.04566    0.000
 6727.00    0.95911   1.04674    0.000
 6728.00    0.96433   1.04801    0.000
 6729.00    0.98184   1.04915    0.000
 6730.00    0.99380   1.04954    0.000
 6731.00    0.98432   1.04949    0.000
 6732.00    0.97518   1.04906    0.000
 6733.00    0.96712   1.04778    0.000
 6734.00    0.95789   1.04578    0.000
 6735.00    0.94545   1.04352    0.000
 6736.00    0.93778   1.04094    0.000
 6737.00    0.94128   1.03792    0.000
 6738.00    0.94094   1.03509    0.000
 6739.00    0.93286   1.03300    0.000
 6740.00    0.93406   1.03085    0.000
 6741.00    0.95159   1.02868    0.000
 6742.00    0.95553   1.02763    0.000
 6743.00    0.93855   1.02678    0.000
 6744.00    0.91822   1.02516    0.000
 6745.00    0.89333   1.02397    0.000
 6746.00    0.88695   1.02354    0.000
 6747.00    0.90261   1.02247    0.000
 6748.00    0.91542   1.02119    0.000
 6749.00    0.92523   1.02170    0.000
 6750.00    0.93071   1.02264    0.000
 6751.00    0.93219   1.02329    0.000
 6752.00    0.92424   1.02632    0.000
 6753.00    0.90860   1.03031    0.078
 6754.00    0.89856   1.03376    0.080
 6755.00    0.89256   1.03863    0.081
 6756.00    0.88797   1.04365    0.082
 6757.00    0.88427   1.04729    0.084
 6758.00    0.90660   1.05063    0.086
 6759.00    0.94327   1.05296    0.087
 6760.00    0.97643   1.05341    0.089
 6761.00    1.00790   1.05281    0.090
 6762.00    1.04567   1.05099    0.091
 6763.00    1.08606   1.04789    0.092
 6764.00    1.09540   1.04456    0.093
 6765.00    1.09376   1.04087    0.093
 6766.00    1.09118   1.03721    0.091
 6767.00    1.08832   1.03498    0.089
 6768.00    1.08155   1.03372    0.088
 6769.00    1.07381   1.03325    0.086
 6770.00    1.05068   1.03480    0.084
 6771.00    1.02445   1.03784    0.081
 6772.00    1.00047   1.04107    0.080
 6773.00    0.97683   1.04488    0.080
 6774.00    0.98021   1.04919    0.080
 6775.00    0.98675   1.05215    0.080
 6776.00    0.98019   1.05372    0.080
 6777.00    0.97261   1.05449    0.081
 6778.00    0.98384   1.05293    0.083
 6779.00    0.99589   1.04952    0.085
 6780.00    1.00474   1.04563    0.085
 6781.00    1.01263   1.04042    0.086
 6782.00    0.97722   1.03500    0.086
 6783.00    0.94479   1.03116    0.087
 6784.00    0.96624   1.02795    0.086
 6785.00    0.98530   1.02590    0.085
 6786.00    0.97824   1.02624    0.084
 6787.00    0.97071   1.02715    0.084
 6788.00    0.95950   1.02807    0.083
 6789.00    0.95487   1.02993    0.082
 6790.00    0.98858   1.03135    0.083
 6791.00    1.01524   1.03152    0.083
 6792.00    1.00931   1.03190    0.082
 6793.00    1.00824   1.03229    0.082
 6794.00    1.02555   1.03201    0.081
 6795.00    1.03018   1.03230    0.081
 6796.00    0.99474   1.03325    0.080
 6797.00    0.97426   1.03414    0.080
 6798.00    0.99384   1.03527    0.081
 6799.00    1.00301   1.03650    0.081
 6800.00    0.98823   1.03758    0.080
 6801.00    0.97608   1.03820    0.081
 6802.00    0.96916   1.03806    0.083
 6803.00    0.97006   1.03816    0.084
 6804.00    0.98451   1.03787    0.084
 6805.00    0.98772   1.03656    0.084
 6806.00    0.97389   1.03620    0.084
 6807.00    0.96705   1.03589    0.084
 6808.00    0.96952   1.03469    0.083
 6809.00    0.96700   1.03449    0.082
 6810.00    0.95861   1.03440    0.082
 6811.00    0.95155   1.03397    0.082
 6812.00    0.94584   1.03417    0.082
 6813.00    0.94895   1.03433    0.082
 6814.00    0.96008   1.03486    0.082
 6815.00    0.96087   1.03580    0.082
 6816.00    0.95334   1.03656    0.080
 6817.00    0.94208   1.03787    0.079
 6818.00    0.92820   1.03930    0.078
 6819.00    0.92779   1.04055    0.077
 6820.00    0.93573   1.04201    0.077
 6821.00    0.95320   1.04321    0.078
 6822.00    0.97585   1.04402    0.079
 6823.00    0.95880   1.04437    0.080
 6824.00    0.92303   1.04424    0.080
 6825.00    0.92909   1.04373    0.081
 6826.00    0.95217   1.04265    0.082
 6827.00    0.94685   1.04161    0.083
 6828.00    0.93169   1.04095    0.082
 6829.00    0.94231   1.04031    0.083
 6830.00    0.96047   1.03992    0.085
 6831.00    0.97212   1.03965    0.085
 6832.00    0.98219   1.03913    0.086
 6833.00    0.98151   1.03800    0.085
 6834.00    0.97873   1.03565    0.084
 6835.00    0.98221   1.03238    0.083
 6836.00    0.98663   1.02830    0.083
 6837.00    0.97484   1.02319    0.082
 6838.00    0.96123   1.01820    0.081
 6839.00    0.96185   1.01403    0.082
 6840.00    0.96354   1.01092    0.084
 6841.00    0.96030   1.00963    0.082
 6842.00    0.95687   1.01034    0.081
 6843.00    0.94198   1.01269    0.080
 6844.00    0.92747   1.01605    0.079
 6845.00    0.93133   1.01996    0.079
 6846.00    0.93557   1.02371    0.079
 6847.00    0.94629   1.02631    0.081
 6848.00    0.95602   1.02788    0.082
 6849.00    0.95538   1.02812    0.083
 6850.00    0.95274   1.02654    0.083
 6851.00    0.93522   1.02435    0.083
 6852.00    0.92139   1.02142    0.083
 6853.00    0.92845   1.01725    0.083
 6854.00    0.93389   1.01397    0.083
 6855.00    0.93200   1.01136    0.082
 6856.00    0.92737   1.00817    0.082
 6857.00    0.91261   1.00663    0.082
 6858.00    0.90079   1.00662    0.082
 6859.00    0.89807   1.00617    0.081
 6860.00    0.89637   1.00667    0.081
 6861.00    0.89734   1.00846    0.081
 6862.00    0.89789   1.00957    0.080
 6863.00    0.89748   1.01012    0.080
 6864.00    0.89925   1.01101    0.080
 6865.00    0.90529   1.01127    0.080
 6866.00    0.90882   1.01028    0.081
 6867.00    0.90806   1.00937    0.083
 6868.00    0.91376   1.00894    0.083
 6869.00    0.92912   1.00808    0.083
 6870.00    0.94195   1.00752    0.084
 6871.00    0.95144   1.00818    0.085
 6872.00    0.94855   1.00932    0.086
 6873.00    0.93133   1.01042    0.085
 6874.00    0.91372   1.01205    0.084
 6875.00    0.89572   1.01417    0.083
 6876.00    0.88184   1.01567    0.083
 6877.00    0.87167   1.01641    0.083
 6878.00    0.88340   1.01710    0.083
 6879.00    0.91251   1.01740    0.084
 6880.00    0.92188   1.01698    0.083
 6881.00    0.91749   1.01668    0.082
 6882.00    0.91759   1.01745    0.081
 6883.00    0.92043   1.01884    0.079
 6884.00    0.92233   1.02045    0.079
 6885.00    0.92373   1.02362    0.080
 6886.00    0.91084   1.02768    0.080
 6887.00    0.89132   1.03087    0.079
 6888.00    0.89927   1.03422    0.079
 6889.00    0.91819   1.03774    0.080
 6890.00    0.92825   1.03952    0.082
 6891.00    0.93528   1.04029    0.084
 6892.00    0.93723   1.04117    0.084
 6893.00    0.93773   1.04088    0.085
 6894.00    0.92587   1.03984    0.085
 6895.00    0.91109   1.03945    0.085
 6896.00    0.92178   1.03901    0.086
 6897.00    0.93733   1.03861    0.087
 6898.00    0.93337   1.03872    0.086
 6899.00    0.92654   1.03930    0.085
 6900.00    0.93939   1.04027    0.085
 6901.00    0.95436   1.04110    0.086
 6902.00    0.94448   1.04223    0.085
 6903.00    0.93284   1.04356    0.085
 6904.00    0.92601   1.04432    0.083
 6905.00    0.91935   1.04501    0.081
 6906.00    0.93433   1.04510    0.081
 6907.00    0.94868   1.04442    0.080
 6908.00    0.93848   1.04336    0.080
 6909.00    0.92750   1.04107    0.081
 6910.00    0.90427   1.03829    0.080
 6911.00    0.88350   1.03576    0.080
 6912.00    0.88728   1.03251    0.082
 6913.00    0.85836   1.02995    0.083
 6914.00    0.59445   1.02884    0.072
 6915.00    0.40038   1.02770    0.071
 6916.00    0.59144   1.02768    0.157
 6917.00    0.74943   1.02884   -1.000
 6918.00    0.76165   1.02943   -1.000
 6919.00    0.77496   1.02985   -1.000
 6920.00    0.79225   1.03012   -1.000
 6921.00    0.80167   1.02937   -1.000
 6922.00    0.78718   1.02790   -1.000
 6923.00    0.77699   1.02634   -1.000
 6924.00    0.77794   1.02482   -1.000
 6925.00    0.77493   1.02360   -1.000
 6926.00    0.76312   1.02303   -1.000
 6927.00    0.75227   1.02307   -1.000
 6928.00    0.74325   1.02354   -1.000
 6929.00    0.74423   1.02432   -1.000
 6930.00    0.76200   1.02530   -1.000
 6931.00    0.77233   1.02605   -1.000
 6932.00    0.77166   1.02697   -1.000
 6933.00    0.76498   1.02836   -1.000
 6934.00    0.75050   1.02926   -1.000
 6935.00    0.74997   1.03033   -1.000
 6936.00    0.76535   1.03185   -1.000
 6937.00    0.77623   1.03241   -1.000
 6938.00    0.78260   1.03244   -1.000
 6939.00    0.77422   1.03221   -1.000
 6940.00    0.75276   1.03076   -1.000
 6941.00    0.74898   1.02873   -1.000
 6942.00    0.75901   1.02680   -1.000
 6943.00    0.77812   1.02430   -1.000
 6944.00    0.80348   1.02227   -1.000
 6945.00    0.79583   1.02135   -1.000
 6946.00    0.76830   1.02004   -1.000
 6947.00    0.75759   1.01944   -1.000
 6948.00    0.75575   1.01987   -1.000
 6949.00    0.76247   1.01926   -1.000
 6950.00    0.77310   1.01907   -1.000
 6951.00    0.76722   1.01987   -1.000
 6952.00    0.75486   1.01994   -1.000
 6953.00    0.75392   1.02069   -1.000
 6954.00    0.75680   1.02276   -1.000
 6955.00    0.76646   1.02461   -1.000
 6956.00    0.77803   1.02678   -1.000
 6957.00    0.77505   1.02978   -1.000
 6958.00    0.76870   1.03224   -1.000
 6959.00    0.76819   1.03437   -1.000
 6960.00    0.76877   1.03665   -1.000
 6961.00    0.77020   1.03813   -1.000
 6962.00    0.77175   1.03947   -1.000
 6963.00    0.75873   1.04073   -1.000
 6964.00    0.74421   1.04122   -1.000
 6965.00    0.75098   1.04195   -1.000
 6966.00    0.75917   1.04242   -1.000
 6967.00    0.76216   1.04182   -1.000
 6968.00    0.76499   1.04121   -1.000
 6969.00    0.77249   1.03970   -1.000
 6970.00    0.77926   1.03661   -1.000
 6971.00    0.76365   1.03294   -1.000
 6972.00    0.74891   1.02795   -1.000
 6973.00    0.74718   1.02158   -1.000
 6974.00    0.74565   1.01524   -1.000
 6975.00    0.74603   1.00922   -1.000
 6976.00    0.74358   1.00370   -1.000
 6977.00    0.72145   1.00024   -1.000
 6978.00    0.70252   0.99991   -1.000
 6979.00    0.70080   1.00145   -1.000
 6980.00    0.70489   1.00502   -1.000
 6981.00    0.73403   1.01120   -1.000
 6982.00    0.75488   1.01754   -1.000
 6983.00    0.74629   1.02319   -1.000
 6984.00    0.74241   1.02857   -1.000
 6985.00    0.75258   1.03247   -1.000
 6986.00    0.76566   1.03479   -1.000
 6987.00    0.78615   1.03607   -1.000
 6988.00    0.79312   1.03668   -1.000
 6989.00    0.77053   1.03693   -1.000
 6990.00    0.75943   1.03670   -1.000
 6991.00    0.77015   1.03652   -1.000
 6992.00    0.76934   1.03623   -1.000
 6993.00    0.74942   1.03531   -1.000
 6994.00    0.74074   1.03414   -1.000
 6995.00    0.74837   1.03231   -1.000
 6996.00    0.75353   1.02994   -1.000
 6997.00    0.75555   1.02741   -1.000
 6998.00    0.75501   1.02445   -1.000
 6999.00    0.75159   1.02181   -1.000
 7000.00    0.74370   1.01962   -1.000
 7001.00    0.73138   1.01753   -1.000
 7002.00    0.73213   1.01619   -1.000
 7003.00    0.74433   1.01557   -1.000
 7004.00    0.74233   1.01520   -1.000
 7005.00    0.72938   1.01522   -1.000
 7006.00    0.72209   1.01560   -1.000
 7007.00    0.71863   1.01607   -1.000
 7008.00    0.71996   1.01613   -1.000
 7009.00    0.72414   1.01553   -1.000
 7010.00    0.73624   1.01470   -1.000
 7011.00    0.75246   1.01300   -1.000
 7012.00    0.74403   1.01051   -1.000
 7013.00    0.72454   1.00843   -1.000
 7014.00    0.71447   1.00628   -1.000
 7015.00    0.70804   1.00480   -1.000
 7016.00    0.72148   1.00492   -1.000
 7017.00    0.74144   1.00522   -1.000
 7018.00    0.75645   1.00626   -1.000
 7019.00    0.77011   1.00835   -1.000
 7020.00    0.76177   1.00942   -1.000
 7021.00    0.74847   1.01000   -1.000
 7022.00    0.74935   1.01085   -1.000
 7023.00    0.75280   1.01117   -1.000
 7024.00    0.73680   1.01142   -1.000
 7025.00    0.71811   1.01213   -1.000
 7026.00    0.73434   1.01351   -1.000
 7027.00    0.75403   1.01533   -1.000
 7028.00    0.76419   1.01710   -1.000
 7029.00    0.77374   1.01918   -1.000
 7030.00    0.76837   1.02095   -1.000
 7031.00    0.76255   1.02214   -1.000
 7032.00    0.75271   1.02322   -1.000
 7033.00    0.74271   1.02362   -1.000
 7034.00    0.72841   1.02416   -1.000
 7035.00    0.71607   1.02537   -1.000
 7036.00    0.73130   1.02643   -1.000
 7037.00    0.74490   1.02872   -1.000
 7038.00    0.74360   1.03261   -1.000
 7039.00    0.74414   1.03629   -1.000
 7040.00    0.75704   1.04070   -1.000
 7041.00    0.76754   1.04616   -1.000
 7042.00    0.76554   1.05030   -1.000
 7043.00    0.76343   1.05336   -1.000
 7044.00    0.76089   1.05636   -1.000
 7045.00    0.76317   1.05747   -1.000
 7046.00    0.78217   1.05646   -1.000
 7047.00    0.78556   1.05440   -1.000
 7048.00    0.74327   1.05029   -1.000
 7049.00    0.71854   1.04423   -1.000
 7050.00    0.73767   1.03704   -2.000
 7051.00    0.74945   1.02867   -2.000
 7052.00    0.74541   1.02017   -2.000
 7053.00    0.74708   1.01190   -2.000
 7054.00    0.75941   1.00417   -2.000
 7055.00    0.77585   0.99783   -2.000
 7056.00    0.79900   0.99255   -2.000
 7057.00    0.79905   0.98817   -2.000
 7058.00    0.76605   0.98458   -2.000
 7059.00    0.76104   0.98180   -2.000
 7060.00    0.79123   0.97945   -2.000
 7061.00    0.79828   0.97683   -2.000
 7062.00    0.77967   0.97491   -2.000
 7063.00    0.78217   0.97332   -2.000
 7064.00    0.80529   0.97113   -2.000
 7065.00    0.79685   0.97008   -2.000
 7066.00    0.76118   0.96995   -2.000
 7067.00    0.73843   0.96996   -2.000
 7068.00    0.72551   0.97165   -2.000
 7069.00    0.73918   0.97447   -2.000
 7070.00    0.77061   0.97764   -2.000
 7071.00    0.79866   0.98194   -2.000
 7072.00    0.82475   0.98633   -2.000
 7073.00    0.83333   0.98992   -2.000
 7074.00    0.83299   0.99327   -2.000
 7075.00    0.83133   0.99572   -2.000
 7076.00    0.82908   0.99650   -2.000
 7077.00    0.82709   0.99585   -2.000
 7078.00    0.82520   0.99378   -2.000
 7079.00    0.80913   0.99009   -2.000
 7080.00    0.78850   0.98443   -2.000
 7081.00    0.80578   0.97764   -2.000
 7082.00    0.83327   0.97002   -2.000
 7083.00    0.81572   0.96147   -2.000
 7084.00    0.78823   0.95355   -2.000
 7085.00    0.78983   0.94597   -2.000
 7086.00    0.79654   0.93894   -2.000
 7087.00    0.78273   0.93409   -2.000
 7088.00    0.76616   0.92972   -2.000
 7089.00    0.74726   0.92626   -2.000
 7090.00    0.72814   0.92506   -2.000
 7091.00    0.72534   0.92397   -2.000
 7092.00    0.72350   0.92389   -2.000
 7093.00    0.73499   0.92517   -2.000
 7094.00    0.74665   0.92651   -2.000
 7095.00    0.73733   0.92904   -2.000
 7096.00    0.72867   0.93172   -2.000
 7097.00    0.73667   0.93468   -2.000
 7098.00    0.74308   0.93787   -2.000
 7099.00    0.72850   0.94025   -2.000
 7100.00    0.71230   0.94293   -2.000
 7101.00    0.68169   0.94473   -2.000
 7102.00    0.65653   0.94573   -2.000
 7103.00    0.66693   0.94664   -2.000
 7104.00    0.67771   0.94646   -2.000
 7105.00    0.69040   0.94592   -2.000
 7106.00    0.70247   0.94513   -2.000
 7107.00    0.71203   0.94387   -2.000
 7108.00    0.71389   0.94260   -2.000
 7109.00    0.68947   0.94169   -2.000
 7110.00    0.67551   0.94135   -2.000
 7111.00    0.69159   0.94135   -2.000
 7112.00    0.70673   0.94178   -2.000
 7113.00    0.71959   0.94295   -2.000
 7114.00    0.73962   0.94446   -2.000
 7115.00    0.77482   0.94542   -2.000
 7116.00    0.80870   0.94608   -2.000
 7117.00    0.84012   0.94664   -2.000
 7118.00    0.87857   0.94601   -2.000
 7119.00    0.92831   0.94490   -2.000
 7120.00    0.96094   0.94315   -2.000
 7121.00    0.96943   0.94066   -2.000
 7122.00    0.92362   0.93827   -2.000
 7123.00    0.81046   0.93473   -2.000
 7124.00    0.74286   0.93127   -2.000
 7125.00    0.72507   0.92831   -2.000
 7126.00    0.70937   0.92456   -2.000
 7127.00    0.69568   0.92161   -2.000
 7128.00    0.70210   0.91960   -2.000
 7129.00    0.72562   0.91827   -2.000
 7130.00    0.71141   0.91853   -2.000
 7131.00    0.66895   0.91957   -2.000
 7132.00    0.67335   0.92167   -2.000
 7133.00    0.70858   0.92519   -2.000
 7134.00    0.73084   0.92843   -2.000
 7135.00    0.74563   0.93166   -2.000
 7136.00    0.73381   0.93492   -2.000
 7137.00    0.70864   0.93701   -2.000
 7138.00    0.71208   0.93870   -2.000
 7139.00    0.72795   0.93993   -2.000
 7140.00    0.73589   0.93968   -2.000
 7141.00    0.74088   0.93905   -2.000
 7142.00    0.72825   0.93864   -2.000
 7143.00    0.71007   0.93689   -2.000
 7144.00    0.68037   0.93482   -2.000
 7145.00    0.64763   0.93372   -2.000
 7146.00    0.64376   0.93213   -2.000
 7147.00    0.64612   0.93140   -2.000
 7148.00    0.64220   0.93213   -2.000
 7149.00    0.63720   0.93286   -2.000
 7150.00    0.64633   0.93525   -2.000
 7151.00    0.65728   0.93853   -2.000
 7152.00    0.67133   0.94121   -2.000
 7153.00    0.68565   0.94419   -2.000
 7154.00    0.69327   0.94689   -2.000
 7155.00    0.70053   0.94868   -2.000
 7156.00    0.70187   0.94909   -2.000
 7157.00    0.70324   0.94864   -2.000
 7158.00    0.71842   0.94788   -2.000
 7159.00    0.73183   0.94577   -2.000
 7160.00    0.70517   0.94313   -2.000
 7161.00    0.68221   0.94087   -2.000
 7162.00    0.70581   0.93875   -2.000
 7163.00    0.72894   0.93736   -2.000
 7164.00    0.74802   0.93737   -2.000
 7165.00    0.76770   0.93822   -2.000
 7166.00    0.79111   0.94017   -2.000
 7167.00    0.80074   0.94374   -2.000
 7168.00    0.74202   0.94737   -2.000
 7169.00    0.69494   0.95072   -2.000
 7170.00    0.69470   0.95406   -2.000
 7171.00    0.69343   0.95634   -2.000
 7172.00    0.68875   0.95738   -2.000
 7173.00    0.68804   0.95749   -2.000
 7174.00    0.69851   0.95618   -2.000
 7175.00    0.71244   0.95410   -2.000
 7176.00    0.73473   0.95177   -2.000
 7177.00    0.73920   0.94844   -2.000
 7178.00    0.70658   0.94541   -2.000
 7179.00    0.68171   0.94313   -2.000
 7180.00    0.67089   0.94042   -2.000
 7181.00    0.66701   0.93817   -2.000
 7182.00    0.67414   0.93631   -2.000
 7183.00    0.66315   0.93426   -2.000
 7184.00    0.62697   0.93266   -2.000
 7185.00    0.60825   0.93041   -2.000
 7186.00    0.61090   0.92798   -2.000
 7187.00    0.61376   0.92668   -2.000
 7188.00    0.61687   0.92520   -2.000
 7189.00    0.62301   0.92441   -2.000
 7190.00    0.63203   0.92489   -2.000
 7191.00    0.63814   0.92583   -2.000
 7192.00    0.64181   0.92772   -2.000
 7193.00    0.62921   0.92991   -2.000
 7194.00    0.60462   0.93208   -2.000
 7195.00    0.62490   0.93444   -2.000
 7196.00    0.67427   0.93701   -2.000
 7197.00    0.69519   0.93914   -2.000
 7198.00    0.69999   0.94042   -2.000
 7199.00    0.68601   0.94184   -2.000
 7200.00    0.66277   0.94266   -2.000
 7201.00    0.63328   0.94245   -2.000
 7202.00    0.60113   0.94175   -2.000
 7203.00    0.59876   0.94019   -2.000
 7204.00    0.60729   0.93856   -2.000
 7205.00    0.62581   0.93671   -2.000
 7206.00    0.64744   0.93507   -2.000
 7207.00    0.63598   0.93440   -2.000
 7208.00    0.61599   0.93395   -2.000
 7209.00    0.62572   0.93497   -2.000
 7210.00    0.64171   0.93710   -2.000
 7211.00    0.64177   0.93904   -2.000
 7212.00    0.63919   0.94178   -2.000
 7213.00    0.61557   0.94454   -2.000
 7214.00    0.58933   0.94669   -2.000
 7215.00    0.58531   0.94904   -2.000
 7216.00    0.58321   0.95110   -2.000
 7217.00    0.61304   0.95256   -2.000
 7218.00    0.64450   0.95435   -2.000
