###################################################################
## OUTPUT of StarlightChains_v04.for    [Cid@UFSC - 01/Apr/2007] ##
###################################################################

## Some input info
KUG0210-078._35_33.txt                   [arq_obs]
Base.CB07.vall.4m                        [arq_base]
Masks.EmLines.NEW.gm                     [arq_masks]
StCv04.C11.config                        [arq_config]
   66                                    [N_base]
    0                                    [N_YAV_components = # of components with extra extinction!]
    0                                    [i_FitPowerLaw (1/0 = Yes/No)]
-9.99                                    [alpha_PowerLaw]
CCM                                      [red_law_option]
 1.458241                                [q_norm = A(l_norm)/A(V)]

## (Re)Sampling Parameters
 3741.00                                 [l_ini (A)]
 7218.00                                 [l_fin (A)]
    1.00                                 [dl    (A)]     (OBS: dl_cushion =    50.00 A)

## Normalization info
 4020.00                                 [l_norm (A) - for base]
 4010.00                                 [llow_norm (A) - window for f_obs]
 4060.00                                 [lupp_norm (A) - window for f_obs]
4.212457E-17                             [fobs_norm (in input units)]

## S/N
 3691.00                                 [llow_SN (A) - window for S/N]
 7268.00                                 [lupp_SN (A) - window for S/N]
   3.907                                 [S/N in S/N window]
   2.653                                 [S/N in norm. window]
   0.085                                 [S/N_err in S/N window]
   0.058                                 [S/N_err in norm. window]
  1.0000                                 [fscale_chi2]

## etc...
    -2007568                             [idum_orig]
  2432                                   [NOl_eff]
  2410                                   [Nl_eff]
    22    NSIGMA                         [Ntot_cliped & clip_method]
 10495240                                [Nglobal_steps]
   7                                     [N_chains]
   7                                     [NEX0s_base = N_base in EX0s-fits]
 0   0   1       22   2.0   8.228E+03    [Clip-Bug, RC-Crash & Burn-In warning-flags, n_censored_weights, wei_nsig_threshold & wei_limit]
   233    232.119    231.052      1.067  [idt_all, wdt_TotTime, wdt_UsrTime & wdt_SysTime (sec)]

## Synthesis Results - Best model ##

 4.87877E-05                             [chi2/Nl_eff]
     6.90439                             [adev (%)]

   116.18764                             [sum-of-x (%)]
 2.26981E-17                             [Flux_tot (units of input spectrum!)]
 4.30190E-12                             [Mini_tot (???)]
 2.13112E-12                             [Mcor_tot (???)]

 -27.90                                  [v0_min  (km/s)]
 223.28                                  [vd_min  (km/s)]
-0.5721                                  [AV_min  (mag)]
 0.0000                                  [YAV_min (mag)]

# j     x_j(%)      Mini_j(%)     Mcor_j(%)     age_j(yr)     Z_j      (L/M)_j    YAV?  Mstars   component_j        a/Fe...       SSP_chi2r SSP_adev(%)   SSP_AV   SSP_x(%)
  1      0.0000     0.0000E+00    0.0000E+00    1.000000E+06  0.00400  1.094E-02    0   1.0000   age020_m42            0.0000     2.1061E-04    15.0713   3.9867    96.9565
  2      0.0000     0.0000E+00    0.0000E+00    3.160000E+06  0.00400  4.007E-02    0   0.9999   age045_m42            0.0000     1.9456E-04    14.5895   3.2527   103.8357
  3      0.0000     0.0000E+00    0.0000E+00    5.010000E+06  0.00400  2.539E-02    0   0.9488   age055_m42            0.0000     2.0285E-04    14.8601   3.5765   101.1813
  4      0.0000     0.0000E+00    0.0000E+00    6.610000E+06  0.00400  2.620E-02    0   0.9220   age061_m42            0.0000     1.9925E-04    14.7312   3.1793   104.0140
  5      0.0000     0.0000E+00    0.0000E+00    1.000000E+07  0.00400  1.322E-02    0   0.8862   age070_m42            0.0000     2.4318E-04    16.5211   2.9001   105.7817
  6      0.0000     0.0000E+00    0.0000E+00    1.445000E+07  0.00400  7.883E-03    0   0.8571   age078_m42            0.0000     2.4314E-04    16.4894   3.2276   103.1317
  7      0.0000     0.0000E+00    0.0000E+00    2.512000E+07  0.00400  5.251E-03    0   0.8174   age090_m42            0.0000     2.5213E-04    16.8343   2.7708   106.2878
  8      0.0000     0.0000E+00    0.0000E+00    4.000000E+07  0.00400  3.649E-03    0   0.7851   age104_m42            0.0000     2.4219E-04    16.5008   2.5410   107.3247
  9      0.0000     0.0000E+00    0.0000E+00    5.500000E+07  0.00400  3.098E-03    0   0.7629   age110_m42            0.0000     2.2188E-04    15.6283   2.6918   107.5624
 10      0.0000     0.0000E+00    0.0000E+00    1.015200E+08  0.00400  2.228E-03    0   0.7207   age116_m42            0.0000     2.0984E-04    15.0792   2.7110   107.8863
 11      0.0000     0.0000E+00    0.0000E+00    2.861200E+08  0.00400  1.093E-03    0   0.6648   age125_m42            0.0000     2.2729E-04    15.7776   2.1308   111.2376
 12      0.0000     0.0000E+00    0.0000E+00    5.088000E+08  0.00400  6.597E-04    0   0.6365   age130_m42            0.0000     2.0169E-04    14.7681   2.1190   112.4606
 13      0.0000     0.0000E+00    0.0000E+00    1.434000E+09  0.00400  2.132E-04    0   0.5798   age139_m42            0.0000     1.6373E-04    13.4308   1.1487   114.9587
 14      0.0000     0.0000E+00    0.0000E+00    4.250000E+09  0.00400  5.895E-05    0   0.5377   age158_m42            0.0000     1.2126E-04    11.7396   0.7048   111.0745
 15      0.0000     0.0000E+00    0.0000E+00    7.500000E+09  0.00400  3.510E-05    0   0.5212   age171_m42            0.0000     1.0829E-04    11.0438   0.5127   110.6028
 16      3.7945     8.5942E-01    8.7332E-01    1.300000E+10  0.00400  2.005E-05    0   0.5034   age193_m42            0.0000     9.8763E-05    10.4985   0.3437   110.2215
 17     14.3717     4.2797E+00    4.2910E+00    1.800000E+10  0.00400  1.525E-05    0   0.4967   age213_m42            0.0000     1.0135E-04    10.6612   0.3212   109.7012
 18      0.0000     0.0000E+00    0.0000E+00    1.000000E+06  0.00800  1.238E-02    0   1.0000   age020_m52            0.0000     2.1004E-04    15.0543   3.9828    97.1612
 19      0.0000     0.0000E+00    0.0000E+00    3.160000E+06  0.00800  3.074E-02    0   0.9966   age045_m52            0.0000     2.0656E-04    14.9339   3.9054    98.0792
 20      0.0000     0.0000E+00    0.0000E+00    5.010000E+06  0.00800  2.668E-02    0   0.9443   age055_m52            0.0000     2.0550E-04    14.9730   3.6594   100.2747
 21      0.0000     0.0000E+00    0.0000E+00    6.610000E+06  0.00800  2.136E-02    0   0.9177   age061_m52            0.0000     2.2121E-04    16.0160   2.4013   107.1392
 22      0.0000     0.0000E+00    0.0000E+00    1.000000E+07  0.00800  1.215E-02    0   0.8827   age070_m52            0.0000     2.6165E-04    17.1924   3.0776   105.4676
 23      0.0000     0.0000E+00    0.0000E+00    1.445000E+07  0.00800  8.717E-03    0   0.8552   age078_m52            0.0000     2.4242E-04    16.4908   3.1924   104.5824
 24      0.0000     0.0000E+00    0.0000E+00    2.512000E+07  0.00800  5.592E-03    0   0.8162   age090_m52            0.0000     2.5563E-04    16.9495   2.8315   107.6044
 25      0.0000     0.0000E+00    0.0000E+00    4.000000E+07  0.00800  3.896E-03    0   0.7841   age104_m52            0.0000     2.4354E-04    16.4914   2.7398   108.6346
 26      0.0000     0.0000E+00    0.0000E+00    1.015200E+08  0.00800  2.148E-03    0   0.7226   age116_m52            0.0000     2.1821E-04    15.5018   2.6762   108.7252
 27      0.0000     0.0000E+00    0.0000E+00    2.861200E+08  0.00800  9.925E-04    0   0.6683   age125_m52            0.0000     2.0185E-04    14.7439   2.1825   113.5457
 28      0.0000     0.0000E+00    0.0000E+00    9.047900E+08  0.00800  3.141E-04    0   0.6138   age135_m52            0.0000     1.5605E-04    12.9014   1.3753   118.9351
 29      0.0000     0.0000E+00    0.0000E+00    1.434000E+09  0.00800  1.719E-04    0   0.5853   age139_m52            0.0000     1.3936E-04    12.4140   0.7929   116.7135
 30      0.0000     0.0000E+00    0.0000E+00    2.500000E+09  0.00800  7.872E-05    0   0.5600   age150_m52            0.0000     1.0209E-04    10.6655   0.5260   114.0019
 31      0.0000     0.0000E+00    0.0000E+00    4.250000E+09  0.00800  4.336E-05    0   0.5426   age158_m52            0.0000     1.0032E-04    10.5896   0.5101   112.9904
 32      0.0000     0.0000E+00    0.0000E+00    6.250000E+09  0.00800  3.159E-05    0   0.5319   age166_m52            0.0000     8.5495E-05     9.6900   0.3023   113.3773
 33      0.0000     0.0000E+00    0.0000E+00    1.300000E+10  0.00800  1.361E-05    0   0.5073   age193_m52            0.0000     6.9989E-05     8.6517  -0.1711   113.0671
 34      0.0000     0.0000E+00    0.0000E+00    1.800000E+10  0.00800  9.886E-06    0   0.4990   age213_m52            0.0000     6.0839E-05     8.0189  -0.2860   112.9424
 35      0.0000     0.0000E+00    0.0000E+00    1.000000E+06  0.02000  1.544E-02    0   1.0000   age020_m62            0.0000     2.1033E-04    15.0618   3.9785    97.4041
 36      0.0000     0.0000E+00    0.0000E+00    3.160000E+06  0.02000  3.762E-02    0   0.9858   age045_m62            0.0000     2.0876E-04    15.0060   3.9173    98.2851
 37      0.0000     0.0000E+00    0.0000E+00    5.010000E+06  0.02000  3.296E-02    0   0.9342   age055_m62            0.0000     1.9467E-04    14.5123   3.5336   102.5787
 38      0.0000     0.0000E+00    0.0000E+00    8.710000E+06  0.02000  1.154E-02    0   0.8861   age067_m62            0.0000     3.8811E-04    21.0899   2.5300   107.5150
 39      0.0000     0.0000E+00    0.0000E+00    1.445000E+07  0.02000  7.663E-03    0   0.8472   age078_m62            0.0000     2.9515E-04    18.3899   2.7192   107.7426
 40      0.0000     0.0000E+00    0.0000E+00    2.512000E+07  0.02000  4.532E-03    0   0.8099   age090_m62            0.0000     3.0485E-04    18.6233   2.7110   107.3683
 41      0.0000     0.0000E+00    0.0000E+00    5.500000E+07  0.02000  2.733E-03    0   0.7595   age110_m62            0.0000     2.4177E-04    16.4439   2.7237   107.8364
 42      0.0000     0.0000E+00    0.0000E+00    1.609000E+08  0.02000  1.369E-03    0   0.6985   age120_m62            0.0000     2.1447E-04    15.2665   2.5551   111.2669
 43      0.0000     0.0000E+00    0.0000E+00    2.861200E+08  0.02000  9.013E-04    0   0.6714   age125_m62            0.0000     2.0012E-04    14.6684   2.3008   114.7556
 44      0.0000     0.0000E+00    0.0000E+00    5.088000E+08  0.02000  5.028E-04    0   0.6449   age130_m62            0.0000     1.6379E-04    13.1722   1.9157   118.3948
 45      0.0000     0.0000E+00    0.0000E+00    9.047900E+08  0.02000  2.428E-04    0   0.6179   age135_m62            0.0000     1.2797E-04    11.7735   1.3223   118.2508
 46      0.0000     0.0000E+00    0.0000E+00    1.434000E+09  0.02000  1.263E-04    0   0.5908   age139_m62            0.0000     1.0995E-04    11.0247   0.8765   116.7744
 47      0.0000     0.0000E+00    0.0000E+00    2.500000E+09  0.02000  5.985E-05    0   0.5673   age150_m62            0.0000     8.5387E-05     9.7181   0.5052   115.6848
 48      0.0000     0.0000E+00    0.0000E+00    4.250000E+09  0.02000  3.271E-05    0   0.5468   age158_m62            0.0000     6.5763E-05     8.3959   0.1931   115.2606
 49      0.0000     0.0000E+00    0.0000E+00    1.000000E+10  0.02000  1.360E-05    0   0.5167   age181_m62            0.0000     5.4629E-05     7.5895  -0.1671   115.5178
 50      0.0000     0.0000E+00    0.0000E+00    1.800000E+10  0.02000  7.124E-06    0   0.5013   age213_m62            0.0000     5.0343E-05     7.1438  -0.3863   115.1489
 51      0.0000     0.0000E+00    0.0000E+00    1.000000E+06  0.05000  2.592E-02    0   0.9998   age020_m72            0.0000     2.1344E-04    15.1778   3.9712    97.3978
 52      0.0000     0.0000E+00    0.0000E+00    3.160000E+06  0.05000  4.845E-02    0   0.9577   age045_m72            0.0000     1.9993E-04    14.6740   3.7967    99.7319
 53      0.0000     0.0000E+00    0.0000E+00    5.010000E+06  0.05000  3.072E-02    0   0.9147   age055_m72            0.0000     2.6905E-04    17.3723   3.3016   103.9221
 54      0.0000     0.0000E+00    0.0000E+00    6.610000E+06  0.05000  1.455E-02    0   0.8877   age061_m72            0.0000     4.9981E-04    23.9751   2.5447   108.5083
 55      0.0000     0.0000E+00    0.0000E+00    1.000000E+07  0.05000  9.074E-03    0   0.8524   age070_m72            0.0000     2.9658E-04    17.8879   3.4605   104.0119
 56      0.0000     0.0000E+00    0.0000E+00    2.512000E+07  0.05000  4.250E-03    0   0.7902   age090_m72            0.0000     2.7852E-04    17.4773   3.1716   105.8354
 57      0.0000     0.0000E+00    0.0000E+00    4.000000E+07  0.05000  3.087E-03    0   0.7618   age104_m72            0.0000     2.8586E-04    17.6852   2.9439   107.5349
 58      0.0000     0.0000E+00    0.0000E+00    1.015200E+08  0.05000  1.700E-03    0   0.7096   age116_m72            0.0000     2.3535E-04    15.9966   2.6954   110.6883
 59      0.0000     0.0000E+00    0.0000E+00    2.861200E+08  0.05000  7.384E-04    0   0.6633   age125_m72            0.0000     1.8097E-04    13.9186   2.1633   116.7119
 60      0.0000     0.0000E+00    0.0000E+00    5.088000E+08  0.05000  3.819E-04    0   0.6372   age130_m72            0.0000     1.3713E-04    12.1349   1.6667   119.1859
 61      0.0000     0.0000E+00    0.0000E+00    9.047900E+08  0.05000  1.676E-04    0   0.6110   age135_m72            0.0000     8.9753E-05     9.8611   0.9646   117.8557
 62      0.0000     0.0000E+00    0.0000E+00    1.434000E+09  0.05000  8.837E-05    0   0.5874   age139_m72            0.0000     8.4072E-05     9.5789   0.4998   117.6150
 63      0.0000     0.0000E+00    0.0000E+00    2.500000E+09  0.05000  4.233E-05    0   0.5598   age150_m72            0.0000     6.1593E-05     8.0964   0.1877   116.5470
 64      0.0000     0.0000E+00    0.0000E+00    6.250000E+09  0.05000  1.435E-05    0   0.5249   age166_m72            0.0000     5.1986E-05     7.3086  -0.2677   115.2778
 65     11.3364     7.9043E+00    8.0353E+00    1.300000E+10  0.05000  6.513E-06    0   0.5036   age193_m72            0.0000     4.9495E-05     6.9071  -0.5583   116.9765
 66     86.6851     8.6957E+01    8.6800E+01    1.800000E+10  0.05000  4.527E-06    0   0.4945   age213_m72            0.0000     5.1442E-05     6.8167  -0.7259   117.0815


## Synthesis Results - Average & Chains ##

# j      x_j: min, <> & last-chain-values for 1 ...  7 chains
  1      0.0000      0.2487      0.0089      0.0157      0.0000      0.0000      0.0019      0.1538      0.0000
  2      0.0000      0.3200      0.0000      0.0001      0.0000      0.0241      0.0000      0.0290      0.2566
  3      0.0000      0.2733      0.0000      0.0395      0.0001      0.0054      0.0174      0.0465      0.3737
  4      0.0000      0.1964      0.0000      0.0000      0.0455      0.0000      0.0918      0.0313      0.0750
  5      0.0000      0.2801      0.0395      0.0000      0.0000      0.0128      0.0035      0.1185      0.0564
  6      0.0000      0.2698      0.0455      0.0561      0.0076      0.0023      0.0030      0.0781      0.1043
  7      0.0000      0.3035      0.0000      0.0000      0.0611      0.0218      0.0288      0.0000      0.0441
  8      0.0000      0.2497      0.0005      0.0000      0.0251      0.0612      0.0230      0.0423      0.1200
  9      0.0000      0.2989      0.0566      0.0101      0.0253      0.0326      0.0309      0.0000      0.0000
 10      0.0000      0.2960      0.0278      0.0034      0.0059      0.0693      0.2721      0.0143      1.5435
 11      0.0000      0.2854      0.0081      0.0188      0.0492      0.0855      0.0080      0.1978      2.1086
 12      0.0000      0.1952      0.0000      0.0034      0.0000      0.0420      0.0000      0.0359      0.0000
 13      0.0000      0.2284      0.0000      0.0425      0.0054      0.0246      0.1143      0.0000      0.7110
 14      0.0000      0.2164      0.0000      0.0067      0.0084      0.0362      0.0057      0.0862      0.6238
 15      0.0000      0.2611      0.0380      0.0173      0.0028      0.0398      0.1196      0.2000      1.2627
 16      3.7945     17.5735     20.0035     19.2555     17.6810     19.7820     19.1871     19.4028     18.2875
 17     14.3717     39.4416     42.2066     35.8993     27.9891     53.3306     51.2874     58.7540     37.9917
 18      0.0000      0.3299      0.0000      0.0003      0.0350      0.1915      0.0739      0.1102      0.0000
 19      0.0000      0.2314      0.0000      0.0000      0.0329      0.0871      0.0027      0.0000      0.0000
 20      0.0000      0.2818      0.0136      0.0101      0.0000      0.0098      0.1715      0.2310      0.0000
 21      0.0000      0.2749      0.0000      0.0541      0.0000      0.1476      0.0000      0.0281      0.3980
 22      0.0000      0.1916      0.0061      0.0051      0.0000      0.0689      0.1475      0.0492      0.0000
 23      0.0000      0.2287      0.0196      0.0059      0.0479      0.1034      0.1020      0.0000      0.0000
 24      0.0000      0.2018      0.0000      0.0198      0.0032      0.0274      0.1050      0.1087      0.1376
 25      0.0000      0.2398      0.0000      0.0292      0.0747      0.1838      0.1116      0.0635      0.0000
 26      0.0000      0.3273      0.0115      0.0394      0.0717      0.0000      0.0000      0.0000      1.1124
 27      0.0000      0.2826      0.0000      0.0072      0.0000      0.0561      0.0336      0.0000      0.0000
 28      0.0000      0.2190      0.0308      0.0000      0.0203      0.0889      0.0983      0.0397      0.2900
 29      0.0000      0.2352      0.0000      0.0016      0.0096      0.0000      0.0300      0.0278      0.0000
 30      0.0000      2.4706      0.0741      4.6401      4.6289      2.6525      2.4123      2.8816      3.0290
 31      0.0000      0.2049      0.0000      0.0290      0.0252      0.0551      0.2300      0.1572      0.6507
 32      0.0000      0.2147      0.0152      0.0200      0.0604      0.1205      0.0680      0.0092      0.3289
 33      0.0000      0.1836      0.0000      0.0000      0.0000      0.1636      0.0000      0.0398      0.6368
 34      0.0000      0.2573      0.0000      0.0196      0.0000      0.0705      0.5692      0.0282      0.2194
 35      0.0000      0.2324      0.0000      0.0031      0.0128      0.0839      0.0000      0.0956      0.8547
 36      0.0000      0.2904      0.0468      0.0116      0.0015      0.0000      0.0204      0.0805      0.5832
 37      0.0000      0.2387      0.0164      0.0206      0.0000      0.0490      0.0169      0.0000      0.0000
 38      0.0000      0.3196      0.0000      0.0036      0.0023      0.2298      0.1020      0.0260      2.2787
 39      0.0000      0.3540      0.0630      0.0000      0.0023      0.0000      0.0468      0.1070      0.5137
 40      0.0000      0.2692      0.0014      0.0514      0.0000      0.1760      0.1244      0.1585      0.8054
 41      0.0000      0.1931      0.0096      0.0170      0.0000      0.0000      0.0365      0.0000      0.0000
 42      0.0000      0.2268      0.0135      0.0153      0.0067      0.0182      0.0339      0.0157      0.0000
 43      0.0000      0.2464      0.0100      0.0153      0.0000      0.1004      0.0121      0.0362      0.0000
 44      0.0000      0.2315      0.0000      0.0202      0.0480      0.2066      0.0506      0.0878      0.0000
 45      0.0000      0.2524      0.0000      0.0269      0.0000      0.1485      0.3244      0.2584      0.2795
 46      0.0000      0.2569      0.0965      0.0386      0.0000      0.0444      0.0000      0.0196      0.0000
 47      0.0000      0.2830      0.0452      0.0000      0.0203      0.0000      0.2297      0.0677      0.4976
 48      0.0000      0.2855      0.0000      0.0206      0.0092      0.2108      0.0219      0.0925      0.2607
 49      0.0000      0.2423      0.0590      0.0215      0.0208      0.0000      0.0000      0.3019      0.2882
 50      0.0000      0.3006      0.0414      0.0000      0.0202      0.0000      0.0770      0.1190      0.2346
 51      0.0000      0.3457      0.0000      0.0116      0.0775      0.0986      0.1429      0.0422      0.1331
 52      0.0000      0.2727      0.0422      0.0048      0.0000      0.0000      0.0000      0.0427      0.0000
 53      0.0000      0.3082      0.0277      0.0000      0.0793      0.0000      0.0944      0.1490      0.2810
 54      0.0000      0.3603      0.0253      0.0000      0.1194      0.0719      0.0830      0.0160      0.6611
 55      0.0000      0.2045      0.0000      0.0000      0.0285      0.0015      0.0000      0.1328      0.0000
 56      0.0000      0.2380      0.0071      0.0000      0.0000      0.1044      0.0234      0.0214      0.0625
 57      0.0000      0.2279      0.1197      0.0186      0.0000      0.0732      0.0000      0.0131      0.0000
 58      0.0000      0.2935      0.0328      0.0000      0.0212      0.0281      0.0264      0.0494      0.5995
 59      0.0000      0.2506      0.0065      0.0065      0.0000      0.0413      0.1000      0.0755      0.1139
 60      0.0000      0.2484      0.0000      0.0234      0.0000      0.0995      0.0000      0.0610      0.0000
 61      0.0000      0.2434      0.0419      0.0079      0.0471      0.0364      0.0000      0.0028      0.0000
 62      0.0000      0.1646      0.0371      0.0020      0.0308      0.0538      0.0432      0.0044      0.4939
 63      0.0000      0.3283      0.0018      0.0000      0.0186      0.0118      0.0256      0.0487      0.0000
 64      0.0000      0.4038      0.0129      0.0582      0.0000      0.0283      0.0544      0.1639      0.3827
 65     11.3364      7.5558     11.1115     10.5287      7.6884      7.1833      8.2475      7.0355      6.9026
 66     86.6851     40.0337     48.5720     50.1143     58.2428     36.1121     38.0262     30.9270     41.7022

# j      m_j: min, <> & last-chain-values for 1 ...  7 chains
  1  0.0000E+00  3.3444E-04  1.0141E-05  1.7996E-05  0.0000E+00  0.0000E+00  2.4305E-06  2.2033E-04  0.0000E+00
  2  0.0000E+00  1.1748E-04  0.0000E+00  2.2558E-08  0.0000E+00  8.8876E-06  0.0000E+00  1.1322E-05  9.2279E-05
  3  0.0000E+00  1.5022E-04  0.0000E+00  1.8502E-05  4.3975E-08  2.9950E-06  9.2743E-06  2.7246E-05  2.0120E-04
  4  0.0000E+00  1.0165E-04  0.0000E+00  0.0000E+00  1.9195E-05  0.0000E+00  4.6082E-05  1.7257E-05  3.8052E-05
  5  0.0000E+00  2.7621E-04  3.2862E-05  0.0000E+00  0.0000E+00  1.2633E-05  3.3108E-06  1.2446E-04  5.4433E-05
  6  0.0000E+00  4.3154E-04  6.1392E-05  7.6448E-05  9.9159E-06  3.6623E-06  4.6322E-06  1.3297E-04  1.6338E-04
  7  0.0000E+00  6.9507E-04  0.0000E+00  0.0000E+00  1.1391E-04  5.0174E-05  6.4058E-05  0.0000E+00  9.8940E-05
  8  0.0000E+00  7.9017E-04  1.2177E-06  0.0000E+00  6.4558E-05  1.9434E-04  7.0552E-05  1.4250E-04  3.7195E-04
  9  0.0000E+00  1.0828E-03  1.7300E-04  3.1264E-05  7.4665E-05  1.1861E-04  1.0866E-04  0.0000E+00  0.0000E+00
 10  0.0000E+00  1.4084E-03  1.1157E-04  1.3924E-05  2.2892E-05  3.3080E-04  1.2559E-03  7.2225E-05  7.1939E-03
 11  0.0000E+00  2.5537E-03  6.1422E-05  1.4335E-04  3.5871E-04  7.6805E-04  6.9667E-05  1.8847E-03  1.8480E-02
 12  0.0000E+00  2.7699E-03  0.0000E+00  4.0768E-05  0.0000E+00  5.9888E-04  0.0000E+00  5.4232E-04  0.0000E+00
 13  0.0000E+00  9.1357E-03  0.0000E+00  1.4477E-03  1.7680E-04  9.8674E-04  4.4371E-03  0.0000E+00  2.7862E-02
 14  0.0000E+00  2.9040E-02  0.0000E+00  7.6381E-04  9.1336E-04  4.8699E-03  7.3763E-04  1.2325E-02  8.1982E-02
 15  0.0000E+00  5.7027E-02  7.0076E-03  3.2254E-03  4.9899E-04  8.7202E-03  2.5339E-02  4.6526E-02  2.7016E-01
 16  8.7332E-01  6.4904E+00  6.2387E+00  6.0584E+00  5.3165E+00  7.3333E+00  6.8742E+00  7.6324E+00  6.6158E+00
 17  4.2910E+00  1.8897E+01  1.7076E+01  1.4653E+01  1.0918E+01  2.5646E+01  2.3837E+01  2.9982E+01  1.7830E+01
 18  0.0000E+00  3.9204E-04  0.0000E+00  2.8206E-07  3.3903E-05  2.2844E-04  8.5167E-05  1.3947E-04  0.0000E+00
 19  0.0000E+00  1.1034E-04  0.0000E+00  0.0000E+00  1.2767E-05  4.1686E-05  1.2290E-06  0.0000E+00  0.0000E+00
 20  0.0000E+00  1.4674E-04  6.0006E-06  4.4876E-06  0.0000E+00  5.1347E-06  8.6626E-05  1.2810E-04  0.0000E+00
 21  0.0000E+00  1.7371E-04  0.0000E+00  2.9119E-05  0.0000E+00  9.3646E-05  0.0000E+00  1.8929E-05  2.4640E-04
 22  0.0000E+00  2.0481E-04  5.4925E-06  4.6311E-06  0.0000E+00  7.3944E-05  1.5286E-04  5.5990E-05  0.0000E+00
 23  0.0000E+00  3.3007E-04  2.3922E-05  7.2489E-06  5.6263E-05  1.4974E-04  1.4278E-04  0.0000E+00  0.0000E+00
 24  0.0000E+00  4.3333E-04  0.0000E+00  3.6199E-05  5.6053E-06  5.8978E-05  2.1879E-04  2.4847E-04  2.8934E-04
 25  0.0000E+00  7.0980E-04  0.0000E+00  7.3688E-05  1.7997E-04  5.4610E-04  3.2039E-04  2.0017E-04  0.0000E+00
 26  0.0000E+00  1.6195E-03  4.7851E-05  1.6628E-04  2.8898E-04  0.0000E+00  0.0000E+00  0.0000E+00  5.3920E-03
 27  0.0000E+00  2.7987E-03  0.0000E+00  6.0963E-05  0.0000E+00  5.5791E-04  3.2255E-04  0.0000E+00  0.0000E+00
 28  0.0000E+00  6.2948E-03  7.4651E-04  0.0000E+00  4.7405E-04  2.5663E-03  2.7423E-03  1.2158E-03  8.1650E-03
 29  0.0000E+00  1.1782E-02  0.0000E+00  6.7937E-05  3.9270E-04  0.0000E+00  1.4600E-03  1.4818E-03  0.0000E+00
 30  0.0000E+00  2.5854E-01  6.5460E-03  4.1365E-01  3.9437E-01  2.7860E-01  2.4488E-01  3.2117E-01  3.1048E-01
 31  0.0000E+00  3.7725E-02  0.0000E+00  4.5409E-03  3.7736E-03  1.0174E-02  4.1063E-02  3.0829E-02  1.1733E-01
 32  0.0000E+00  5.3172E-02  3.1847E-03  4.2253E-03  1.2174E-02  2.9960E-02  1.6334E-02  2.4170E-03  7.9804E-02
 33  0.0000E+00  1.0069E-01  0.0000E+00  0.0000E+00  0.0000E+00  9.0019E-02  0.0000E+00  2.3232E-02  3.4199E-01
 34  0.0000E+00  1.9108E-01  0.0000E+00  1.2398E-02  0.0000E+00  5.2526E-02  4.0997E-01  2.2287E-02  1.5959E-01
 35  0.0000E+00  2.2139E-04  0.0000E+00  2.5404E-06  9.9122E-06  8.0247E-05  0.0000E+00  9.7027E-05  7.9758E-04
 36  0.0000E+00  1.1194E-04  1.5228E-05  3.7931E-06  4.6534E-07  0.0000E+00  7.6131E-06  3.3033E-05  2.2022E-04
 37  0.0000E+00  9.9508E-05  5.7687E-06  7.3328E-06  0.0000E+00  2.0526E-05  6.8229E-06  0.0000E+00  0.0000E+00
 38  0.0000E+00  3.6103E-04  0.0000E+00  3.5030E-06  2.0985E-06  2.6054E-04  1.1176E-04  3.1306E-05  2.5211E-03
 39  0.0000E+00  5.7564E-04  8.6581E-05  0.0000E+00  3.0173E-06  0.0000E+00  7.3827E-05  1.8542E-04  8.1835E-04
 40  0.0000E+00  7.0757E-04  3.0792E-06  1.1508E-04  0.0000E+00  4.6430E-04  3.1715E-04  4.4383E-04  2.0738E-03
 41  0.0000E+00  7.8938E-04  3.3027E-05  5.9043E-05  0.0000E+00  0.0000E+00  1.4470E-04  0.0000E+00  0.0000E+00
 42  0.0000E+00  1.7022E-03  8.5311E-05  9.8134E-05  4.1201E-05  1.3715E-04  2.4654E-04  1.2589E-04  0.0000E+00
 43  0.0000E+00  2.7002E-03  9.2560E-05  1.4293E-04  0.0000E+00  1.1046E-03  1.2867E-04  4.2227E-04  0.0000E+00
 44  0.0000E+00  4.3680E-03  0.0000E+00  3.2530E-04  7.3792E-04  3.9133E-03  9.2554E-04  1.7649E-03  0.0000E+00
 45  0.0000E+00  9.4494E-03  0.0000E+00  8.5728E-04  0.0000E+00  5.5816E-03  1.1779E-02  1.0305E-02  1.0249E-02
 46  0.0000E+00  1.7679E-02  5.6053E-03  2.2638E-03  0.0000E+00  3.0651E-03  0.0000E+00  1.4345E-03  0.0000E+00
 47  0.0000E+00  3.9465E-02  5.3257E-03  0.0000E+00  2.3075E-03  0.0000E+00  3.1073E-02  1.0054E-02  6.7955E-02
 48  0.0000E+00  7.0214E-02  0.0000E+00  4.3156E-03  1.8384E-03  5.2023E-02  5.2325E-03  2.4236E-02  6.2796E-02
 49  0.0000E+00  1.3540E-01  2.7832E-02  1.0259E-02  9.4545E-03  0.0000E+00  0.0000E+00  1.7968E-01  1.5775E-01
 50  0.0000E+00  3.1112E-01  3.6197E-02  0.0000E+00  1.6986E-02  0.0000E+00  7.7280E-02  1.3120E-01  2.3787E-01
 51  0.0000E+00  1.9614E-04  0.0000E+00  5.6085E-06  3.5787E-05  5.6168E-05  7.8670E-05  2.5503E-05  7.3957E-05
 52  0.0000E+00  7.9295E-05  1.0363E-05  1.1915E-06  0.0000E+00  0.0000E+00  0.0000E+00  1.3235E-05  0.0000E+00
 53  0.0000E+00  1.3497E-04  1.0253E-05  0.0000E+00  2.8285E-05  0.0000E+00  4.0103E-05  6.9524E-05  1.2056E-04
 54  0.0000E+00  3.2333E-04  1.9145E-05  0.0000E+00  8.7213E-05  6.4788E-05  7.2274E-05  1.5305E-05  5.8120E-04
 55  0.0000E+00  2.8256E-04  0.0000E+00  0.0000E+00  3.2031E-05  2.0664E-06  0.0000E+00  1.9552E-04  0.0000E+00
 56  0.0000E+00  6.5093E-04  1.6475E-05  0.0000E+00  0.0000E+00  2.8658E-04  6.2069E-05  6.2479E-05  1.6741E-04
 57  0.0000E+00  8.2744E-04  3.6693E-04  5.7384E-05  0.0000E+00  2.6682E-04  0.0000E+00  5.0636E-05  0.0000E+00
 58  0.0000E+00  1.8024E-03  1.7026E-04  0.0000E+00  1.0610E-04  1.7316E-04  1.5740E-04  3.2274E-04  3.6059E-03
 59  0.0000E+00  3.3120E-03  7.2477E-05  7.3424E-05  0.0000E+00  5.4725E-04  1.2815E-03  1.0625E-03  1.4738E-03
 60  0.0000E+00  6.0955E-03  0.0000E+00  4.8874E-04  0.0000E+00  2.4505E-03  0.0000E+00  1.5935E-03  0.0000E+00
 61  0.0000E+00  1.3051E-02  1.8984E-03  3.6005E-04  2.0563E-03  1.9567E-03  0.0000E+00  1.6244E-04  0.0000E+00
 62  0.0000E+00  1.6094E-02  3.0636E-03  1.6685E-04  2.4555E-03  5.2759E-03  4.0976E-03  4.5505E-04  4.7304E-02
 63  0.0000E+00  6.3873E-02  2.8922E-04  0.0000E+00  2.9522E-03  2.3037E-03  4.8348E-03  1.0098E-02  0.0000E+00
 64  0.0000E+00  2.1726E-01  5.8493E-03  2.6658E-02  0.0000E+00  1.5311E-02  2.8371E-02  9.3922E-02  2.0171E-01
 65  8.0353E+00  8.5941E+00  1.0673E+01  1.0202E+01  7.1196E+00  8.2008E+00  9.1000E+00  8.5231E+00  7.6903E+00
 66  8.6800E+01  6.4327E+01  6.5907E+01  6.8600E+01  7.6193E+01  5.8242E+01  5.9273E+01  5.2929E+01  6.5636E+01

# AV, chi2 & Mass for <> & i_chain = 1 ...  7 solutions
AV      -0.5721     -0.3037     -0.3847     -0.3619     -0.3468     -0.2381     -0.2724     -0.2021     -0.2549
chi2 4.8788E-05  1.0452E-04  7.3335E-05  6.6816E-05  5.6693E-05  8.5816E-05  8.4833E-05  9.2382E-05  1.1130E-04
Mass 2.1311E-12  1.9045E-12  2.0228E-12  2.0674E-12  2.2077E-12  2.0721E-12  2.0475E-12  2.0496E-12  2.0761E-12
 -27.90                                  [v0_min (km/s) before EX0s...]
 223.28                                  [vd_min (km/s) before EX0s...]


## Synthetic spectrum (Best Model) ##l_obs f_obs f_syn wei
 3478    [Nl_obs]
 3741.00    0.43992   0.44547    0.000
 3742.00    0.45389   0.43690    0.000
 3743.00    0.45409   0.41756    0.000
 3744.00    0.44447   0.39287    0.000
 3745.00    0.42915   0.36931    0.109
 3746.00    0.42250   0.35297    0.108
 3747.00    0.42026   0.34820    0.105
 3748.00    0.38937   0.35689    0.103
 3749.00    0.34588   0.37890    0.102
 3750.00    0.35586   0.41176    0.102
 3751.00    0.38604   0.45024    0.101
 3752.00    0.46812   0.48806    0.102
 3753.00    0.56684   0.51864    0.103
 3754.00    0.63779   0.53615    0.104
 3755.00    0.70129   0.53834    0.104
 3756.00    0.66199   0.52787    0.103
 3757.00    0.60013   0.51025    0.102
 3758.00    0.53789   0.49114    0.101
 3759.00    0.47559   0.47544    0.101
 3760.00    0.40233   0.46620    0.120
 3761.00    0.32761   0.46399    0.152
 3762.00    0.37090   0.46701    0.120
 3763.00    0.42527   0.47256    0.095
 3764.00    0.47633   0.47981    0.095
 3765.00    0.52719   0.49027    0.095
 3766.00    0.57817   0.50594    0.100
 3767.00    0.62883   0.52761    0.105
 3768.00    0.64000   0.55373    0.103
 3769.00    0.64827   0.58136    0.100
 3770.00    0.58600   0.60822    0.096
 3771.00    0.52968   0.63183    0.092
 3772.00    0.55127   0.64933    0.093
 3773.00    0.57663   0.66034    0.094
 3774.00    0.63506   0.66710    0.093
 3775.00    0.68392   0.67176    0.092
 3776.00    0.67076   0.67596    0.094
 3777.00    0.65881   0.68139    0.096
 3778.00    0.65305   0.68878    0.096
 3779.00    0.64897   0.69674    0.096
 3780.00    0.65181   0.70211    0.099
 3781.00    0.64555   0.70194    0.101
 3782.00    0.60843   0.69395    0.097
 3783.00    0.57300   0.67655    0.095
 3784.00    0.54237   0.65037    0.096
 3785.00    0.53793   0.61867    0.097
 3786.00    0.59746   0.58553    0.099
 3787.00    0.62727   0.55478    0.100
 3788.00    0.59442   0.52964    0.101
 3789.00    0.59247   0.51226    0.101
 3790.00    0.64709   0.50226    0.103
 3791.00    0.67267   0.49627    0.104
 3792.00    0.65174   0.49073    0.103
 3793.00    0.62979   0.48389    0.102
 3794.00    0.60641   0.47553    0.101
 3795.00    0.58228   0.46714    0.099
 3796.00    0.55721   0.46205    0.096
 3797.00    0.48241   0.46362    0.094
 3798.00    0.35344   0.47328    0.093
 3799.00    0.34830   0.49023    0.094
 3800.00    0.46215   0.51216    0.096
 3801.00    0.56301   0.53631    0.098
 3802.00    0.65285   0.55928    0.099
 3803.00    0.65556   0.57721    0.098
 3804.00    0.59326   0.58788    0.096
 3805.00    0.55046   0.59199    0.094
 3806.00    0.52046   0.59154    0.093
 3807.00    0.54169   0.58816    0.092
 3808.00    0.59234   0.58270    0.090
 3809.00    0.59606   0.57501    0.091
 3810.00    0.57633   0.56406    0.092
 3811.00    0.55617   0.54827    0.093
 3812.00    0.53584   0.52684    0.094
 3813.00    0.58691   0.50102    0.094
 3814.00    0.66446   0.47359    0.094
 3815.00    0.64304   0.44759    0.094
 3816.00    0.59051   0.42539    0.095
 3817.00    0.51084   0.40774    0.094
 3818.00    0.42404   0.39376    0.094
 3819.00    0.41210   0.38219    0.092
 3820.00    0.41620   0.37167    0.090
 3821.00    0.43989   0.36138    0.090
 3822.00    0.46690   0.35196    0.090
 3823.00    0.47617   0.34453    0.090
 3824.00    0.48316   0.33908    0.089
 3825.00    0.37083   0.33469    0.089
 3826.00    0.24778   0.33119    0.089
 3827.00    0.23070   0.32952    0.091
 3828.00    0.21932   0.32999    0.093
 3829.00    0.28010   0.33153    0.094
 3830.00    0.34271   0.33287    0.096
 3831.00    0.43770   0.33354    0.098
 3832.00    0.52576   0.33363    0.100
 3833.00    0.46011   0.33341    0.099
 3834.00    0.39548   0.33338    0.097
 3835.00    0.34353   0.33441    0.096
 3836.00    0.30097   0.33721    0.095
 3837.00    0.33775   0.34219    0.094
 3838.00    0.37867   0.34961    0.094
 3839.00    0.44559   0.36014    0.095
 3840.00    0.50918   0.37489    0.096
 3841.00    0.55636   0.39428    0.098
 3842.00    0.59796   0.41665    0.100
 3843.00    0.61724   0.43880    0.100
 3844.00    0.63141   0.45736    0.100
 3845.00    0.62861   0.46974    0.100
 3846.00    0.62298   0.47556    0.099
 3847.00    0.60935   0.47627    0.000
 3848.00    0.60609   0.47383    0.000
 3849.00    0.62772   0.46982    0.000
 3850.00    0.63349   0.46476    0.000
 3851.00    0.60639   0.45857    0.000
 3852.00    0.57861   0.45161    0.000
 3853.00    0.54962   0.44364    0.000
 3854.00    0.51389   0.43321    0.000
 3855.00    0.46753   0.42002    0.000
 3856.00    0.42996   0.40658    0.000
 3857.00    0.40455   0.39625    0.000
 3858.00    0.40523   0.39125    0.000
 3859.00    0.43770   0.39266    0.000
 3860.00    0.47154   0.40008    0.000
 3861.00    0.50684   0.41208    0.000
 3862.00    0.50785   0.42682    0.000
 3863.00    0.47636   0.44149    0.000
 3864.00    0.45737   0.45250    0.000
 3865.00    0.44882   0.45711    0.000
 3866.00    0.49926   0.45525    0.000
 3867.00    0.59309   0.44928    0.000
 3868.00    0.58175   0.44225    0.000
 3869.00    0.50249   0.43660    0.000
 3870.00    0.44597   0.43374    0.000
 3871.00    0.40229   0.43433    0.000
 3872.00    0.44266   0.43805    0.000
 3873.00    0.52438   0.44380    0.000
 3874.00    0.57397   0.45030    0.000
 3875.00    0.60990   0.45588    0.000
 3876.00    0.61691   0.45838    0.000
 3877.00    0.61339   0.45691    0.000
 3878.00    0.56543   0.45339    0.000
 3879.00    0.50377   0.45105    0.000
 3880.00    0.48387   0.45154    0.000
 3881.00    0.47470   0.45494    0.093
 3882.00    0.52108   0.45978    0.093
 3883.00    0.57907   0.46402    0.093
 3884.00    0.56658   0.46843    0.094
 3885.00    0.54246   0.47558    0.095
 3886.00    0.47648   0.48638    0.094
 3887.00    0.40533   0.50094    0.092
 3888.00    0.44320   0.52127    0.092
 3889.00    0.49039   0.54819    0.092
 3890.00    0.54789   0.57755    0.092
 3891.00    0.60590   0.60423    0.091
 3892.00    0.58909   0.62526    0.092
 3893.00    0.57224   0.63836    0.092
 3894.00    0.63220   0.64272    0.093
 3895.00    0.68933   0.64031    0.094
 3896.00    0.68852   0.63489    0.092
 3897.00    0.68128   0.62931    0.090
 3898.00    0.59796   0.62515    0.088
 3899.00    0.52210   0.62218    0.085
 3900.00    0.50710   0.61843    0.083
 3901.00    0.49889   0.61437    0.081
 3902.00    0.53213   0.61256    0.081
 3903.00    0.55888   0.61405    0.081
 3904.00    0.55441   0.61825    0.080
 3905.00    0.55455   0.62651    0.080
 3906.00    0.57280   0.64095    0.081
 3907.00    0.59995   0.66059    0.082
 3908.00    0.65610   0.68380    0.084
 3909.00    0.71846   0.70850    0.086
 3910.00    0.79794   0.73023    0.088
 3911.00    0.84631   0.74477    0.090
 3912.00    0.82124   0.75085    0.091
 3913.00    0.80268   0.74917    0.093
 3914.00    0.79742   0.73970    0.094
 3915.00    0.78031   0.72202    0.095
 3916.00    0.74214   0.69757    0.095
 3917.00    0.69287   0.66908    0.096
 3918.00    0.62633   0.63901    0.095
 3919.00    0.62100   0.61044    0.095
 3920.00    0.69916   0.58526    0.096
 3921.00    0.71979   0.56329    0.097
 3922.00    0.67130   0.54418    0.098
 3923.00    0.60828   0.52688    0.098
 3924.00    0.52986   0.50863    0.098
 3925.00    0.51023   0.48607    0.097
 3926.00    0.54553   0.45741    0.097
 3927.00    0.56602   0.42267    0.099
 3928.00    0.57430   0.38440    0.101
 3929.00    0.49644   0.34667    0.099
 3930.00    0.35611   0.31322    0.094
 3931.00    0.31197   0.28747    0.094
 3932.00    0.32904   0.27178    0.096
 3933.00    0.34508   0.26745    0.096
 3934.00    0.36054   0.27499    0.096
 3935.00    0.37930   0.29340    0.094
 3936.00    0.39966   0.32019    0.093
 3937.00    0.45086   0.35231    0.093
 3938.00    0.51496   0.38654    0.095
 3939.00    0.52745   0.41939    0.094
 3940.00    0.52147   0.44915    0.093
 3941.00    0.53072   0.47633    0.093
 3942.00    0.54458   0.50155    0.093
 3943.00    0.56307   0.52567    0.095
 3944.00    0.58272   0.55093    0.096
 3945.00    0.63681   0.57904    0.096
 3946.00    0.69792   0.61035    0.097
 3947.00    0.72476   0.64330    0.097
 3948.00    0.74611   0.67362    0.097
 3949.00    0.74863   0.69850    0.097
 3950.00    0.74891   0.71890    0.097
 3951.00    0.77677   0.73524    0.097
 3952.00    0.80688   0.74553    0.096
 3953.00    0.80992   0.74806    0.096
 3954.00    0.81171   0.74335    0.097
 3955.00    0.76407   0.73345    0.098
 3956.00    0.71659   0.71694    0.099
 3957.00    0.71063   0.69017    0.099
 3958.00    0.69760   0.65477    0.098
 3959.00    0.55034   0.61561    0.097
 3960.00    0.41750   0.57394    0.000
 3961.00    0.44717   0.52872    0.000
 3962.00    0.49067   0.48078    0.000
 3963.00    0.64288   0.43421    0.000
 3964.00    0.75038   0.39405    0.000
 3965.00    0.59255   0.36185    0.000
 3966.00    0.45346   0.33699    0.000
 3967.00    0.40234   0.32068    0.000
 3968.00    0.38541   0.31578    0.000
 3969.00    0.49953   0.32476    0.000
 3970.00    0.57264   0.34819    0.000
 3971.00    0.51472   0.38449    0.000
 3972.00    0.43457   0.43077    0.000
 3973.00    0.29427   0.48387    0.000
 3974.00    0.25955   0.54074    0.000
 3975.00    0.46999   0.59858    0.000
 3976.00    0.65183   0.65466    0.000
 3977.00    0.77623   0.70574    0.000
 3978.00    0.87791   0.74920    0.000
 3979.00    0.93985   0.78522    0.000
 3980.00    0.97099   0.81472    0.000
 3981.00    0.95496   0.83822    0.103
 3982.00    0.93185   0.85652    0.104
 3983.00    0.89921   0.87149    0.104
 3984.00    0.88027   0.88604    0.104
 3985.00    0.87754   0.90100    0.103
 3986.00    0.96366   0.91568    0.103
 3987.00    1.14253   0.92990    0.105
 3988.00    1.18547   0.94245    0.104
 3989.00    1.10321   0.95283    0.101
 3990.00    1.03738   0.96044    0.099
 3991.00    0.98489   0.96355    0.096
 3992.00    0.94082   0.96396    0.095
 3993.00    0.90276   0.96411    0.094
 3994.00    0.85528   0.96413    0.095
 3995.00    0.80188   0.96540    0.096
 3996.00    0.79040   0.96913    0.095
 3997.00    0.80187   0.97642    0.094
 3998.00    0.82115   0.98780    0.094
 3999.00    0.84416   1.00138    0.094
 4000.00    0.90716   1.01294    0.095
 4001.00    0.98660   1.01848    0.096
 4002.00    1.08818   1.01624    0.098
 4003.00    1.19754   1.00862    0.102
 4004.00    1.20799   1.00027    0.102
 4005.00    1.18913   0.99334    0.101
 4006.00    1.10093   0.98930    0.099
 4007.00    0.99570   0.99264    0.097
 4008.00    0.94540   1.00692    0.096
 4009.00    0.90602   1.02817    0.096
 4010.00    0.92260   1.04899    0.097
 4011.00    0.94788   1.06684    0.098
 4012.00    1.03247   1.08162    0.099
 4013.00    1.12389   1.09282    0.101
 4014.00    1.18552   1.10176    0.101
 4015.00    1.24485   1.10966    0.100
 4016.00    1.23214   1.11529    0.101
 4017.00    1.21640   1.11819    0.101
 4018.00    1.13721   1.11827    0.100
 4019.00    1.05868   1.11600    0.100
 4020.00    1.03428   1.11335    0.100
 4021.00    1.01431   1.11065    0.101
 4022.00    1.07246   1.10690    0.103
 4023.00    1.11992   1.10357    0.104
 4024.00    1.05242   1.10172    0.104
 4025.00    0.99352   1.09717    0.104
 4026.00    1.00000   1.08493    0.105
 4027.00    1.00187   1.06565    0.105
 4028.00    0.97718   1.04034    0.104
 4029.00    0.95310   1.00846    0.104
 4030.00    0.93183   0.97357    0.105
 4031.00    0.91454   0.94225    0.106
 4032.00    0.91219   0.92347    0.103
 4033.00    0.92349   0.92526    0.101
 4034.00    0.97762   0.94607    0.103
 4035.00    1.00710   0.97793    0.104
 4036.00    0.97100   1.01429    0.103
 4037.00    0.95578   1.04891    0.102
 4038.00    0.98824   1.07486    0.101
 4039.00    1.00740   1.08397    0.100
 4040.00    1.00026   1.07092    0.101
 4041.00    0.96570   1.03909    0.101
 4042.00    0.88391   0.99936    0.100
 4043.00    0.83968   0.96384    0.099
 4044.00    0.85212   0.93803    0.099
 4045.00    0.85601   0.92244    0.099
 4046.00    0.84859   0.92085    0.100
 4047.00    0.86848   0.93768    0.100
 4048.00    0.92026   0.97089    0.099
 4049.00    1.00053   1.01023    0.099
 4050.00    1.11015   1.04188    0.100
 4051.00    1.10905   1.05943    0.099
 4052.00    1.00739   1.06430    0.098
 4053.00    0.92958   1.05695    0.097
 4054.00    0.87084   1.04020    0.097
 4055.00    0.90067   1.02098    0.097
 4056.00    0.99287   1.00379    0.097
 4057.00    1.01890   0.98911    0.098
 4058.00    1.00405   0.97377    0.098
 4059.00    1.00899   0.95479    0.098
 4060.00    1.02460   0.93698    0.098
 4061.00    0.97738   0.92569    0.097
 4062.00    0.90071   0.91743    0.098
 4063.00    0.84652   0.90909    0.096
 4064.00    0.80142   0.90552    0.094
 4065.00    0.85466   0.91356    0.094
 4066.00    0.94180   0.93212    0.095
 4067.00    0.92993   0.95065    0.096
 4068.00    0.88931   0.96232    0.096
 4069.00    0.82025   0.97142    0.095
 4070.00    0.74437   0.97991    0.094
 4071.00    0.76872   0.98210    0.094
 4072.00    0.81249   0.97443    0.094
 4073.00    0.96318   0.96334    0.096
 4074.00    1.12998   0.95962    0.099
 4075.00    1.07121   0.96464    0.098
 4076.00    0.98749   0.97284    0.098
 4077.00    0.92468   0.98379    0.096
 4078.00    0.86341   1.00022    0.095
 4079.00    0.94147   1.02335    0.096
 4080.00    1.02487   1.05200    0.098
 4081.00    1.03185   1.08137    0.098
 4082.00    1.03993   1.10738    0.098
 4083.00    1.10500   1.12927    0.099
 4084.00    1.16247   1.14797    0.100
 4085.00    1.09471   1.16595    0.101
 4086.00    1.03695   1.18430    0.102
 4087.00    1.08212   1.20131    0.102
 4088.00    1.11239   1.21453    0.102
 4089.00    1.03337   1.22196    0.101
 4090.00    0.97497   1.22055    0.100
 4091.00    1.03230   1.20700    0.101
 4092.00    1.08160   1.18309    0.000
 4093.00    1.09501   1.15439    0.000
 4094.00    1.09390   1.12465    0.000
 4095.00    1.03946   1.09492    0.000
 4096.00    0.98152   1.06300    0.000
 4097.00    0.91277   1.02957    0.000
 4098.00    0.87213   1.00230    0.000
 4099.00    0.90496   0.98583    0.000
 4100.00    0.91382   0.97809    0.000
 4101.00    0.86887   0.97749    0.000
 4102.00    0.87532   0.98479    0.000
 4103.00    0.98180   1.00077    0.000
 4104.00    1.02782   1.02315    0.000
 4105.00    0.97126   1.04543    0.000
 4106.00    0.94454   1.06260    0.000
 4107.00    0.96216   1.07412    0.000
 4108.00    0.98084   1.08001    0.000
 4109.00    1.00091   1.08127    0.000
 4110.00    1.01462   1.08074    0.000
 4111.00    1.02103   1.08073    0.000
 4112.00    1.01165   1.08298    0.000
 4113.00    0.98623   1.08764    0.100
 4114.00    1.00303   1.09187    0.099
 4115.00    1.05762   1.09301    0.098
 4116.00    1.08694   1.09109    0.098
 4117.00    1.09632   1.08716    0.097
 4118.00    1.06589   1.08128    0.097
 4119.00    1.00781   1.07372    0.096
 4120.00    1.01777   1.06801    0.095
 4121.00    1.06913   1.06836    0.094
 4122.00    1.09464   1.07238    0.094
 4123.00    1.10644   1.07428    0.095
 4124.00    1.09555   1.07294    0.095
 4125.00    1.07421   1.06957    0.094
 4126.00    1.08986   1.06283    0.095
 4127.00    1.12019   1.04926    0.096
 4128.00    1.06842   1.02830    0.095
 4129.00    0.98887   1.00533    0.093
 4130.00    1.02707   0.98607    0.093
 4131.00    1.09877   0.97381    0.093
 4132.00    1.07497   0.96987    0.093
 4133.00    1.02875   0.97340    0.093
 4134.00    0.97096   0.98423    0.091
 4135.00    0.91099   1.00155    0.088
 4136.00    0.96731   1.02065    0.090
 4137.00    1.04060   1.03504    0.092
 4138.00    1.03756   1.03727    0.093
 4139.00    1.02640   1.02468    0.094
 4140.00    1.02828   1.00342    0.094
 4141.00    1.03105   0.98118    0.095
 4142.00    1.00073   0.96141    0.094
 4143.00    0.96926   0.94440    0.094
 4144.00    0.94497   0.93224    0.093
 4145.00    0.92231   0.92974    0.092
 4146.00    0.95263   0.93729    0.093
 4147.00    0.98295   0.94812    0.094
 4148.00    1.01322   0.95510    0.095
 4149.00    1.04653   0.95662    0.096
 4150.00    1.10984   0.95433    0.095
 4151.00    1.16074   0.95047    0.094
 4152.00    1.12347   0.94782    0.095
 4153.00    1.08111   0.94800    0.096
 4154.00    1.01095   0.95248    0.095
 4155.00    0.95792   0.96263    0.095
 4156.00    0.97980   0.97785    0.095
 4157.00    0.98474   0.99657    0.095
 4158.00    0.92874   1.01783    0.094
 4159.00    0.89958   1.04067    0.093
 4160.00    0.95143   1.06068    0.092
 4161.00    1.00954   1.07292    0.092
 4162.00    1.08370   1.07698    0.095
 4163.00    1.11370   1.07472    0.097
 4164.00    1.04611   1.06712    0.096
 4165.00    1.00392   1.05530    0.095
 4166.00    1.01037   1.04177    0.096
 4167.00    0.98478   1.02776    0.096
 4168.00    0.90564   1.01147    0.096
 4169.00    0.88072   0.99373    0.096
 4170.00    0.93525   0.97866    0.096
 4171.00    1.01275   0.96622    0.097
 4172.00    1.11983   0.95335    0.098
 4173.00    1.09760   0.94014    0.097
 4174.00    0.92860   0.93122    0.095
 4175.00    0.87368   0.93121    0.095
 4176.00    0.93292   0.93834    0.097
 4177.00    0.99158   0.94703    0.097
 4178.00    1.04971   0.95500    0.095
 4179.00    1.06436   0.96421    0.095
 4180.00    1.04518   0.97695    0.096
 4181.00    1.00317   0.99137    0.095
 4182.00    0.94554   1.00268    0.094
 4183.00    0.89523   1.00829    0.093
 4184.00    0.84930   1.01164    0.093
 4185.00    0.87732   1.01750    0.093
 4186.00    0.94400   1.02421    0.093
 4187.00    0.98471   1.02621    0.094
 4188.00    1.01364   1.02415    0.094
 4189.00    1.07857   1.02659    0.095
 4190.00    1.15755   1.03488    0.097
 4191.00    1.14619   1.03899    0.096
 4192.00    1.10484   1.03307    0.094
 4193.00    0.98461   1.02141    0.093
 4194.00    0.84240   1.00782    0.092
 4195.00    0.82756   0.99008    0.092
 4196.00    0.84194   0.96849    0.092
 4197.00    0.84821   0.94854    0.092
 4198.00    0.85298   0.93446    0.092
 4199.00    0.84628   0.92897    0.091
 4200.00    0.83796   0.93406    0.088
 4201.00    0.92868   0.94835    0.089
 4202.00    1.02950   0.96818    0.089
 4203.00    1.00214   0.99210    0.089
 4204.00    0.96642   1.02063    0.089
 4205.00    0.95689   1.04996    0.089
 4206.00    0.94824   1.07334    0.088
 4207.00    0.98419   1.08930    0.089
 4208.00    1.01928   1.10012    0.090
 4209.00    1.02915   1.10521    0.090
 4210.00    1.03977   1.10171    0.090
 4211.00    1.06136   1.09047    0.089
 4212.00    1.08008   1.07895    0.088
 4213.00    1.07166   1.07560    0.088
 4214.00    1.06616   1.08109    0.088
 4215.00    1.08078   1.09053    0.087
 4216.00    1.09618   1.10262    0.087
 4217.00    1.11572   1.11957    0.088
 4218.00    1.12470   1.13718    0.088
 4219.00    1.08854   1.14246    0.088
 4220.00    1.04116   1.12673    0.087
 4221.00    0.95423   1.09154    0.086
 4222.00    0.88552   1.04092    0.084
 4223.00    0.87083   0.98054    0.084
 4224.00    0.86401   0.92339    0.083
 4225.00    0.87708   0.88383    0.085
 4226.00    0.90422   0.86611    0.085
 4227.00    0.96194   0.86925    0.085
 4228.00    1.01839   0.89333    0.085
 4229.00    1.07244   0.93376    0.085
 4230.00    1.09000   0.97914    0.085
 4231.00    1.04746   1.01898    0.084
 4232.00    1.03444   1.04704    0.083
 4233.00    1.06402   1.06206    0.083
 4234.00    1.07179   1.06940    0.084
 4235.00    1.05187   1.07593    0.084
 4236.00    1.04230   1.08452    0.084
 4237.00    1.04431   1.09699    0.083
 4238.00    1.07845   1.11676    0.084
 4239.00    1.14430   1.14243    0.085
 4240.00    1.14343   1.17057    0.085
 4241.00    1.08450   1.20034    0.084
 4242.00    1.06498   1.22664    0.083
 4243.00    1.07567   1.24122    0.083
 4244.00    1.10547   1.24197    0.084
 4245.00    1.14815   1.23262    0.086
 4246.00    1.15674   1.21209    0.088
 4247.00    1.14520   1.17823    0.091
 4248.00    1.14362   1.14038    0.091
 4249.00    1.14716   1.10901    0.091
 4250.00    1.11777   1.08248    0.091
 4251.00    1.07369   1.05848    0.091
 4252.00    1.04017   1.04558    0.090
 4253.00    1.01070   1.04984    0.089
 4254.00    0.96640   1.06039    0.088
 4255.00    0.91728   1.06496    0.085
 4256.00    0.98354   1.06750    0.086
 4257.00    1.08129   1.07649    0.088
 4258.00    1.08979   1.09170    0.089
 4259.00    1.07829   1.10846    0.090
 4260.00    1.02752   1.12565    0.090
 4261.00    0.96973   1.14654    0.089
 4262.00    0.97711   1.17379    0.090
 4263.00    0.99341   1.20336    0.091
 4264.00    1.05053   1.22330    0.091
 4265.00    1.11164   1.22546    0.091
 4266.00    1.11826   1.20979    0.091
 4267.00    1.12154   1.17640    0.090
 4268.00    1.08728   1.12675    0.090
 4269.00    1.05154   1.07229    0.089
 4270.00    0.92319   1.02540    0.093
 4271.00    0.80059   0.98725    0.097
 4272.00    0.82968   0.96190    0.097
 4273.00    0.86211   0.96089    0.096
 4274.00    0.94047   0.98525    0.098
 4275.00    1.01742   1.02166    0.099
 4276.00    1.08171   1.05839    0.095
 4277.00    1.13142   1.09380    0.092
 4278.00    1.08403   1.12754    0.090
 4279.00    1.05033   1.15280    0.089
 4280.00    1.08755   1.16394    0.090
 4281.00    1.11671   1.16232    0.091
 4282.00    1.11222   1.15323   -2.000
 4283.00    1.07936   1.14190   -2.000
 4284.00    0.94859   1.12932   -2.000
 4285.00    0.86202   1.11131   -2.000
 4286.00    0.90394   1.08491   -2.000
 4287.00    0.95410   1.05843   -2.000
 4288.00    1.02473   1.04186   -2.000
 4289.00    1.09742   1.03358   -2.000
 4290.00    1.17454   1.02651   -2.000
 4291.00    1.19184   1.02044   -2.000
 4292.00    1.09805   1.02251   -2.000
 4293.00    1.00779   1.02973   -2.000
 4294.00    0.92326   1.02878   -2.000
 4295.00    0.92326   1.01228   -2.000
 4296.00    1.04353   0.98491   -2.000
 4297.00    1.07678   0.95550   -2.000
 4298.00    1.00111   0.92595    0.089
 4299.00    0.90831   0.89365    0.088
 4300.00    0.79661   0.86175    0.087
 4301.00    0.77106   0.83848    0.086
 4302.00    0.82933   0.82420    0.087
 4303.00    0.85679   0.81207    0.087
 4304.00    0.85782   0.79917    0.087
 4305.00    0.84259   0.78903    0.086
 4306.00    0.81508   0.78606    0.086
 4307.00    0.78833   0.79204    0.086
 4308.00    0.76209   0.80896    0.086
 4309.00    0.81239   0.84074    0.086
 4310.00    0.90720   0.89018    0.086
 4311.00    0.98148   0.95448    0.086
 4312.00    1.04536   1.03160    0.085
 4313.00    1.06595   1.11899    0.084
 4314.00    1.06755   1.20480    0.083
 4315.00    1.12656   1.27805    0.084
 4316.00    1.20721   1.33747    0.085
 4317.00    1.26146   1.38115    0.086
 4318.00    1.30727   1.40013    0.088
 4319.00    1.28498   1.39138    0.086
 4320.00    1.24450   1.35928    0.084
 4321.00    1.20377   1.31143    0.083
 4322.00    1.16300   1.25713    0.081
 4323.00    1.08338   1.21006    0.082
 4324.00    0.99701   1.18250    0.083
 4325.00    1.03833   1.17679    0.085
 4326.00    1.09655   1.18935    0.086
 4327.00    1.12775   1.21975    0.084
 4328.00    1.15643   1.26979    0.083
 4329.00    1.18690   1.32918    0.083
 4330.00    1.21747   1.37887    0.000
 4331.00    1.18606   1.41173    0.000
 4332.00    1.15373   1.43255    0.000
 4333.00    1.18050   1.43839    0.000
 4334.00    1.20741   1.42124    0.000
 4335.00    1.23773   1.38838    0.000
 4336.00    1.26425   1.35052    0.000
 4337.00    1.24127   1.30775    0.000
 4338.00    1.21491   1.26654    0.000
 4339.00    1.15898   1.24174    0.000
 4340.00    1.11831   1.23500    0.000
 4341.00    1.17625   1.24152    0.000
 4342.00    1.22340   1.26534    0.000
 4343.00    1.21610   1.30138    0.000
 4344.00    1.20094   1.33447    0.000
 4345.00    1.15367   1.36250    0.000
 4346.00    1.11886   1.38978    0.000
 4347.00    1.12620   1.40395    0.000
 4348.00    1.12667   1.39441    0.000
 4349.00    1.10750   1.37668    0.000
 4350.00    1.10659   1.36617    0.000
 4351.00    1.15019   1.35393    0.082
 4352.00    1.18862   1.33384    0.082
 4353.00    1.21616   1.32398    0.083
 4354.00    1.22064   1.33530    0.083
 4355.00    1.18296   1.35288    0.082
 4356.00    1.17090   1.36570    0.082
 4357.00    1.19978   1.38380    0.083
 4358.00    1.24519   1.41090    0.083
 4359.00    1.31379   1.43367    0.083
 4360.00    1.35110   1.44720    0.083
 4361.00    1.34979   1.46397    0.083
 4362.00    1.33567   1.48611    0.083
 4363.00    1.30764   1.49836    0.083
 4364.00    1.27188   1.49472    0.082
 4365.00    1.22872   1.48660    0.081
 4366.00    1.23996   1.47873    0.081
 4367.00    1.29721   1.46184    0.083
 4368.00    1.30757   1.43533    0.084
 4369.00    1.28301   1.40995    0.083
 4370.00    1.23848   1.38843    0.083
 4371.00    1.18088   1.36481    0.082
 4372.00    1.16281   1.34074    0.082
 4373.00    1.16740   1.32444    0.083
 4374.00    1.16985   1.31637    0.083
 4375.00    1.17123   1.30849    0.083
 4376.00    1.17076   1.29676    0.083
 4377.00    1.16948   1.28433    0.084
 4378.00    1.11194   1.27066    0.083
 4379.00    1.03357   1.24447    0.082
 4380.00    1.03702   1.19924    0.082
 4381.00    1.06612   1.14937    0.082
 4382.00    1.07885   1.11314    0.081
 4383.00    1.08729   1.09082    0.081
 4384.00    1.07352   1.07539    0.080
 4385.00    1.05500   1.07489    0.080
 4386.00    1.07360   1.09758    0.081
 4387.00    1.09848   1.13321    0.082
 4388.00    1.15206   1.16781    0.081
 4389.00    1.20931   1.20029    0.080
 4390.00    1.21127   1.23253    0.081
 4391.00    1.20830   1.26065    0.083
 4392.00    1.17920   1.28517    0.081
 4393.00    1.14871   1.31242    0.079
 4394.00    1.22054   1.34090    0.080
 4395.00    1.29359   1.36204    0.082
 4396.00    1.30413   1.37285    0.083
 4397.00    1.31104   1.37556    0.083
 4398.00    1.23809   1.37254    0.084
 4399.00    1.16909   1.36257    0.084
 4400.00    1.14900   1.33707    0.082
 4401.00    1.13395   1.29407    0.080
 4402.00    1.16120   1.25316    0.081
 4403.00    1.17862   1.23068    0.082
 4404.00    1.13443   1.21441    0.082
 4405.00    1.09872   1.19698    0.082
 4406.00    1.10473   1.19915    0.082
 4407.00    1.12463   1.23019    0.082
 4408.00    1.19993   1.26914    0.083
 4409.00    1.27316   1.30345    0.083
 4410.00    1.33949   1.33818    0.083
 4411.00    1.37410   1.36718    0.083
 4412.00    1.31984   1.38080    0.081
 4413.00    1.28536   1.38747    0.081
 4414.00    1.29829   1.39375    0.083
 4415.00    1.30276   1.39511    0.084
 4416.00    1.28972   1.39625    0.083
 4417.00    1.29649   1.40705    0.083
 4418.00    1.33890   1.42097    0.084
 4419.00    1.37291   1.42771    0.084
 4420.00    1.39370   1.43096    0.084
 4421.00    1.38073   1.43465    0.083
 4422.00    1.32109   1.43207    0.083
 4423.00    1.29822   1.42153    0.083
 4424.00    1.32007   1.41375    0.084
 4425.00    1.33486   1.41476    0.084
 4426.00    1.34207   1.41523    0.084
 4427.00    1.32051   1.40797    0.084
 4428.00    1.27175   1.40186    0.083
 4429.00    1.27570   1.40269    0.083
 4430.00    1.32360   1.39955    0.083
 4431.00    1.33822   1.38591    0.083
 4432.00    1.32839   1.37417    0.083
 4433.00    1.31458   1.37411    0.083
 4434.00    1.29821   1.37985    0.083
 4435.00    1.34195   1.38628    0.083
 4436.00    1.41960   1.39777    0.084
 4437.00    1.38327   1.41586    0.085
 4438.00    1.29097   1.43411    0.085
 4439.00    1.28382   1.44681    0.084
 4440.00    1.31280   1.45507    0.083
 4441.00    1.32985   1.46254    0.084
 4442.00    1.34256   1.47181    0.085
 4443.00    1.31978   1.48215    0.084
 4444.00    1.28610   1.49339    0.083
 4445.00    1.38073   1.51032    0.083
 4446.00    1.50821   1.53017    0.084
 4447.00    1.48178   1.53977    0.084
 4448.00    1.42327   1.53687    0.084
 4449.00    1.40288   1.52979    0.084
 4450.00    1.38875   1.51496    0.083
 4451.00    1.40065   1.48425    0.083
 4452.00    1.41576   1.44557    0.083
 4453.00    1.32062   1.41064    0.083
 4454.00    1.21611   1.37749    0.083
 4455.00    1.26525   1.34199    0.082
 4456.00    1.32197   1.31207    0.081
 4457.00    1.29651   1.29672    0.081
 4458.00    1.27069   1.28997    0.081
 4459.00    1.30394   1.28655    0.081
 4460.00    1.33217   1.29492    0.081
 4461.00    1.25883   1.31547    0.000
 4462.00    1.19947   1.33538    0.000
 4463.00    1.30428   1.35466    0.000
 4464.00    1.40056   1.38200    0.000
 4465.00    1.42769   1.40948    0.000
 4466.00    1.44644   1.42674    0.000
 4467.00    1.41420   1.44177    0.000
 4468.00    1.39799   1.46234    0.000
 4469.00    1.45870   1.48426    0.000
 4470.00    1.50590   1.50602    0.000
 4471.00    1.50036   1.53141    0.000
 4472.00    1.49993   1.55768    0.000
 4473.00    1.51607   1.58152    0.000
 4474.00    1.52243   1.60389    0.000
 4475.00    1.50184   1.61957    0.000
 4476.00    1.49595   1.62158    0.000
 4477.00    1.52467   1.61428    0.000
 4478.00    1.52786   1.60492    0.000
 4479.00    1.47907   1.59321    0.000
 4480.00    1.43293   1.58080    0.000
 4481.00    1.39147   1.57374    0.000
 4482.00    1.38272   1.57449    0.080
 4483.00    1.42469   1.58124    0.080
 4484.00    1.47455   1.59174    0.081
 4485.00    1.53518   1.59980    0.081
 4486.00    1.55191   1.59987    0.081
 4487.00    1.51603   1.59313    0.080
 4488.00    1.47681   1.58292    0.080
 4489.00    1.43406   1.56956    0.080
 4490.00    1.42038   1.55259    0.080
 4491.00    1.43381   1.53486    0.080
 4492.00    1.43314   1.52312    0.081
 4493.00    1.42089   1.51964    0.081
 4494.00    1.43646   1.52017    0.081
 4495.00    1.47216   1.52406    0.082
 4496.00    1.48963   1.53822    0.081
 4497.00    1.49553   1.56272    0.080
 4498.00    1.47661   1.58946    0.080
 4499.00    1.44390   1.61813    0.079
 4500.00    1.46953   1.65298    0.079
 4501.00    1.52334   1.68761    0.079
 4502.00    1.59422   1.71326    0.080
 4503.00    1.67222   1.73448    0.081
 4504.00    1.61989   1.75533    0.081
 4505.00    1.52103   1.76854    0.080
 4506.00    1.57680   1.77053    0.080
 4507.00    1.67918   1.76663    0.080
 4508.00    1.66586   1.75937    0.080
 4509.00    1.62356   1.74696    0.080
 4510.00    1.59083   1.73024    0.080
 4511.00    1.56004   1.71227    0.080
 4512.00    1.52986   1.69506    0.079
 4513.00    1.49978   1.68003    0.079
 4514.00    1.54556   1.66755    0.079
 4515.00    1.60034   1.65817    0.078
 4516.00    1.53621   1.65527    0.078
 4517.00    1.46246   1.65896    0.079
 4518.00    1.49376   1.66231    0.078
 4519.00    1.52984   1.65936    0.076
 4520.00    1.54419   1.65159    0.078
 4521.00    1.55736   1.64007    0.080
 4522.00    1.52439   1.61953    0.079
 4523.00    1.49294   1.58492    0.078
 4524.00    1.49015   1.54291    0.078
 4525.00    1.48331   1.50331    0.079
 4526.00    1.43102   1.46678    0.078
 4527.00    1.38519   1.43350    0.078
 4528.00    1.38992   1.40829    0.078
 4529.00    1.38884   1.39627    0.078
 4530.00    1.35342   1.39684    0.078
 4531.00    1.33185   1.40455    0.077
 4532.00    1.37514   1.41599    0.077
 4533.00    1.40913   1.43624    0.078
 4534.00    1.40758   1.46537    0.078
 4535.00    1.41355   1.49387    0.079
 4536.00    1.44353   1.51765    0.079
 4537.00    1.47248   1.54257    0.079
 4538.00    1.49865   1.56797    0.078
 4539.00    1.51411   1.58490    0.078
 4540.00    1.50477   1.59352    0.078
 4541.00    1.50075   1.59667    0.077
 4542.00    1.50743   1.59468    0.078
 4543.00    1.51380   1.59184    0.078
 4544.00    1.51964   1.59052    0.078
 4545.00    1.50398   1.58476    0.078
 4546.00    1.45547   1.57380    0.078
 4547.00    1.43863   1.56754    0.078
 4548.00    1.46432   1.56752    0.077
 4549.00    1.46451   1.56454    0.077
 4550.00    1.43457   1.55837    0.000
 4551.00    1.45328   1.55978    0.000
 4552.00    1.52271   1.56882    0.000
 4553.00    1.53581   1.57876    0.000
 4554.00    1.49714   1.59331    0.000
 4555.00    1.49783   1.61527    0.000
 4556.00    1.53042   1.63916    0.000
 4557.00    1.55226   1.66100    0.000
 4558.00    1.56643   1.68083    0.000
 4559.00    1.60222   1.69569    0.000
 4560.00    1.65152   1.70142    0.000
 4561.00    1.65061   1.69822    0.000
 4562.00    1.62224   1.69225    0.000
 4563.00    1.57848   1.68810    0.000
 4564.00    1.52741   1.68483    0.000
 4565.00    1.57829   1.68176    0.000
 4566.00    1.67100   1.68275    0.000
 4567.00    1.65501   1.69014    0.000
 4568.00    1.60094   1.69691    0.000
 4569.00    1.58114   1.69839    0.000
 4570.00    1.57146   1.70238    0.000
 4571.00    1.60309   1.70776    0.000
 4572.00    1.64485   1.70401    0.000
 4573.00    1.65115   1.69816    0.000
 4574.00    1.65042   1.69786    0.000
 4575.00    1.63143   1.69120    0.000
 4576.00    1.60962   1.67382    0.000
 4577.00    1.62149   1.65572    0.000
 4578.00    1.63721   1.64005    0.000
 4579.00    1.55333   1.62470    0.000
 4580.00    1.46180   1.61045    0.000
 4581.00    1.50106   1.60057    0.000
 4582.00    1.54575   1.59856    0.000
 4583.00    1.52493   1.60396    0.000
 4584.00    1.50474   1.61239    0.000
 4585.00    1.53613   1.62304    0.000
 4586.00    1.56621   1.63588    0.000
 4587.00    1.57332   1.64687    0.000
 4588.00    1.57865   1.65378    0.000
 4589.00    1.56499   1.65603    0.000
 4590.00    1.55802   1.65313    0.000
 4591.00    1.60171   1.64394    0.000
 4592.00    1.63457   1.62965    0.000
 4593.00    1.60515   1.61591    0.000
 4594.00    1.57641   1.60533    0.000
 4595.00    1.55080   1.59622    0.000
 4596.00    1.53115   1.59055    0.000
 4597.00    1.53376   1.58927    0.000
 4598.00    1.53415   1.58911    0.000
 4599.00    1.52763   1.59185    0.000
 4600.00    1.53882   1.59885    0.000
 4601.00    1.59706   1.60502    0.000
 4602.00    1.62808   1.61327    0.000
 4603.00    1.59710   1.62833    0.000
 4604.00    1.58824   1.64713    0.000
 4605.00    1.62305   1.66902    0.000
 4606.00    1.64640   1.69409    0.000
 4607.00    1.65004   1.71864    0.000
 4608.00    1.66011   1.74046    0.000
 4609.00    1.67988   1.76013    0.000
 4610.00    1.71356   1.77350    0.000
 4611.00    1.76564   1.77949    0.000
 4612.00    1.76462   1.78370    0.000
 4613.00    1.70171   1.78668    0.000
 4614.00    1.68045   1.78770    0.000
 4615.00    1.70201   1.79208    0.000
 4616.00    1.68699   1.79634    0.000
 4617.00    1.63881   1.79612    0.000
 4618.00    1.64124   1.79995    0.000
 4619.00    1.68412   1.80393    0.000
 4620.00    1.69202   1.79952    0.000
 4621.00    1.67533   1.79707    0.000
 4622.00    1.67353   1.79882    0.000
 4623.00    1.68089   1.79257    0.000
 4624.00    1.66274   1.78473    0.000
 4625.00    1.63083   1.78403    0.000
 4626.00    1.62781   1.77987    0.000
 4627.00    1.63830   1.77014    0.000
 4628.00    1.63980   1.76662    0.000
 4629.00    1.63768   1.76514    0.000
 4630.00    1.67033   1.75394    0.000
 4631.00    1.71495   1.73971    0.000
 4632.00    1.67867   1.73028    0.000
 4633.00    1.61895   1.71612    0.000
 4634.00    1.61235   1.69338    0.000
 4635.00    1.61848   1.67328    0.000
 4636.00    1.61637   1.65811    0.000
 4637.00    1.61267   1.64086    0.000
 4638.00    1.61510   1.62378    0.000
 4639.00    1.61844   1.61340    0.000
 4640.00    1.61724   1.60336    0.000
 4641.00    1.61554   1.58935    0.000
 4642.00    1.57528   1.57891    0.000
 4643.00    1.53222   1.56872    0.000
 4644.00    1.52519   1.55303    0.000
 4645.00    1.51952   1.54100    0.000
 4646.00    1.49648   1.53749    0.000
 4647.00    1.47604   1.53763    0.000
 4648.00    1.55530   1.54332    0.000
 4649.00    1.62967   1.55770    0.000
 4650.00    1.62412   1.57681    0.000
 4651.00    1.61884   1.59556    0.000
 4652.00    1.61633   1.61244    0.000
 4653.00    1.61449   1.62982    0.000
 4654.00    1.61755   1.64768    0.000
 4655.00    1.62159   1.66316    0.000
 4656.00    1.63111   1.67907    0.000
 4657.00    1.65207   1.69505    0.000
 4658.00    1.72410   1.70696    0.000
 4659.00    1.77212   1.71268    0.000
 4660.00    1.73220   1.70781    0.000
 4661.00    1.69533   1.69037    0.000
 4662.00    1.66782   1.66477    0.000
 4663.00    1.64704   1.63340    0.000
 4664.00    1.64380   1.59634    0.000
 4665.00    1.61578   1.56314    0.000
 4666.00    1.53221   1.54210    0.000
 4667.00    1.49373   1.52964    0.000
 4668.00    1.54286   1.52503    0.000
 4669.00    1.57435   1.53438    0.000
 4670.00    1.57601   1.55512    0.000
 4671.00    1.58141   1.57697    0.000
 4672.00    1.59237   1.59630    0.000
 4673.00    1.62159   1.61386    0.000
 4674.00    1.67463   1.62739    0.000
 4675.00    1.68101   1.63237    0.000
 4676.00    1.63375   1.63115    0.000
 4677.00    1.61075   1.62984    0.000
 4678.00    1.61232   1.62465    0.000
 4679.00    1.60311   1.61489    0.000
 4680.00    1.58427   1.60959    0.000
 4681.00    1.57365   1.60934    0.000
 4682.00    1.56951   1.60844    0.000
 4683.00    1.59747   1.61018    0.000
 4684.00    1.64766   1.61650    0.000
 4685.00    1.64996   1.61961    0.000
 4686.00    1.62316   1.62047    0.000
 4687.00    1.62354   1.62390    0.000
 4688.00    1.63832   1.62453    0.000
 4689.00    1.62742   1.62342    0.000
 4690.00    1.60468   1.62739    0.000
 4691.00    1.59968   1.63155    0.000
 4692.00    1.60170   1.63213    0.000
 4693.00    1.60375   1.63480    0.000
 4694.00    1.60581   1.63744    0.000
 4695.00    1.60205   1.63286    0.000
 4696.00    1.59664   1.62321    0.000
 4697.00    1.61681   1.61315    0.000
 4698.00    1.64297   1.60106    0.000
 4699.00    1.65606   1.58478    0.000
 4700.00    1.66669   1.57015    0.000
 4701.00    1.61946   1.56215    0.000
 4702.00    1.56381   1.55828    0.000
 4703.00    1.51569   1.55508    0.000
 4704.00    1.46836   1.55361    0.000
 4705.00    1.49490   1.55817    0.000
 4706.00    1.52651   1.56535    0.000
 4707.00    1.52216   1.57007    0.000
 4708.00    1.51659   1.57602    0.000
 4709.00    1.57241   1.58680    0.000
 4710.00    1.62598   1.59766    0.000
 4711.00    1.60334   1.60810    0.000
 4712.00    1.58229   1.62177    0.000
 4713.00    1.58566   1.63846    0.000
 4714.00    1.59713   1.65779    0.000
 4715.00    1.68807   1.67690    0.000
 4716.00    1.76420   1.69814    0.000
 4717.00    1.73568   1.72447    0.000
 4718.00    1.71640   1.74746    0.000
 4719.00    1.74748   1.76293    0.000
 4720.00    1.76550   1.77407    0.000
 4721.00    1.72661   1.77875    0.000
 4722.00    1.69361   1.77439    0.000
 4723.00    1.68173   1.76144    0.000
 4724.00    1.68149   1.74100    0.000
 4725.00    1.71632   1.71527    0.000
 4726.00    1.72889   1.68872    0.000
 4727.00    1.68439   1.66315    0.000
 4728.00    1.65672   1.63818    0.000
 4729.00    1.66615   1.62151    0.000
 4730.00    1.68350   1.61663    0.000
 4731.00    1.71602   1.61699    0.000
 4732.00    1.72075   1.62395    0.000
 4733.00    1.67912   1.63901    0.000
 4734.00    1.66032   1.65166    0.000
 4735.00    1.67490   1.66369    0.000
 4736.00    1.69310   1.68262    0.000
 4737.00    1.71596   1.69620    0.000
 4738.00    1.73207   1.70330    0.000
 4739.00    1.74054   1.71640    0.000
 4740.00    1.73892   1.72999    0.000
 4741.00    1.72719   1.73765    0.000
 4742.00    1.73603   1.74412    0.000
 4743.00    1.76299   1.75283    0.000
 4744.00    1.74301   1.76363    0.000
 4745.00    1.68659   1.77077    0.000
 4746.00    1.68264   1.77268    0.000
 4747.00    1.71451   1.77650    0.000
 4748.00    1.78008   1.77868    0.000
 4749.00    1.86582   1.77226    0.000
 4750.00    1.83780   1.76277    0.000
 4751.00    1.75041   1.75432    0.000
 4752.00    1.73311   1.74275    0.000
 4753.00    1.74753   1.72950    0.000
 4754.00    1.77711   1.71974    0.000
 4755.00    1.81260   1.71124    0.000
 4756.00    1.80061   1.70246    0.000
 4757.00    1.77289   1.69537    0.000
 4758.00    1.75253   1.68837    0.000
 4759.00    1.73422   1.67617    0.000
 4760.00    1.71487   1.66115    0.000
 4761.00    1.69528   1.64863    0.066
 4762.00    1.69331   1.63335    0.067
 4763.00    1.69457   1.61607    0.068
 4764.00    1.68503   1.60756    0.067
 4765.00    1.67396   1.60697    0.067
 4766.00    1.66348   1.60861    0.067
 4767.00    1.65306   1.61753    0.067
 4768.00    1.69439   1.63558    0.067
 4769.00    1.73907   1.65386    0.067
 4770.00    1.72327   1.67225    0.067
 4771.00    1.70578   1.69425    0.067
 4772.00    1.75538   1.71400    0.067
 4773.00    1.80281   1.72823    0.066
 4774.00    1.78725   1.74097    0.067
 4775.00    1.77396   1.75464    0.068
 4776.00    1.79341   1.76105    0.067
 4777.00    1.81148   1.75713    0.067
 4778.00    1.81656   1.75292    0.066
 4779.00    1.81434   1.74674    0.066
 4780.00    1.76217   1.73052    0.065
 4781.00    1.71622   1.71197    0.065
 4782.00    1.70319   1.70009    0.065
 4783.00    1.69050   1.68746    0.065
 4784.00    1.67922   1.67117    0.065
 4785.00    1.67405   1.66614    0.065
 4786.00    1.69032   1.66994    0.065
 4787.00    1.70457   1.66966    0.066
 4788.00    1.71284   1.67765    0.065
 4789.00    1.72520   1.69688    0.066
 4790.00    1.74782   1.71333    0.066
 4791.00    1.77183   1.73148    0.067
 4792.00    1.79889   1.75452    0.067
 4793.00    1.80157   1.77167    0.067
 4794.00    1.75839   1.78238    0.066
 4795.00    1.73962   1.79093    0.066
 4796.00    1.76099   1.79333    0.067
 4797.00    1.75889   1.78887    0.067
 4798.00    1.72298   1.78384    0.067
 4799.00    1.73573   1.77978    0.068
 4800.00    1.81016   1.77531    0.068
 4801.00    1.82987   1.77131    0.068
 4802.00    1.78846   1.76735    0.068
 4803.00    1.75662   1.76286    0.068
 4804.00    1.73419   1.75820    0.067
 4805.00    1.73393   1.75016    0.067
 4806.00    1.75293   1.74089    0.067
 4807.00    1.74921   1.73791    0.067
 4808.00    1.72810   1.73689    0.068
 4809.00    1.75380   1.73577    0.068
 4810.00    1.81098   1.74123    0.068
 4811.00    1.82406   1.75108    0.068
 4812.00    1.81114   1.76047    0.068
 4813.00    1.78987   1.77134    0.068
 4814.00    1.76431   1.78401    0.068
 4815.00    1.79535   1.79546    0.068
 4816.00    1.85159   1.80448    0.069
 4817.00    1.86136   1.81092    0.069
 4818.00    1.85336   1.81209    0.070
 4819.00    1.89773   1.80860    0.070
 4820.00    1.95912   1.80176    0.070
 4821.00    1.88569   1.78839    0.069
 4822.00    1.77555   1.77457    0.068
 4823.00    1.72336   1.76435    0.069
 4824.00    1.68411   1.75149    0.070
 4825.00    1.67012   1.74087    0.069
 4826.00    1.66064   1.73607    0.068
 4827.00    1.66989   1.73188    0.068
 4828.00    1.68169   1.72881    0.069
 4829.00    1.73992   1.72515    0.069
 4830.00    1.80266   1.72166    0.070
 4831.00    1.80191   1.72435    0.070
 4832.00    1.79731   1.72678    0.069
 4833.00    1.76400   1.72483    0.069
 4834.00    1.73014   1.72654    0.068
 4835.00    1.73465   1.73079    0.068
 4836.00    1.74016   1.72960    0.069
 4837.00    1.77178   1.72389    0.068
 4838.00    1.80062   1.72040    0.068
 4839.00    1.79130   1.71891    0.069
 4840.00    1.78414   1.71473    0.069
 4841.00    1.79651   1.71108    0.068
 4842.00    1.80911   1.71467    0.067
 4843.00    1.82323   1.72021    0.068
 4844.00    1.82777   1.72224    0.068
 4845.00    1.78283   1.72629    0.068
 4846.00    1.75801   1.72997    0.068
 4847.00    1.81696   1.73005    0.069
 4848.00    1.83628   1.72920    0.000
 4849.00    1.71916   1.72125    0.000
 4850.00    1.64275   1.70944    0.000
 4851.00    1.68439   1.70123    0.000
 4852.00    1.70167   1.68450    0.000
 4853.00    1.65868   1.65908    0.000
 4854.00    1.63262   1.63869    0.000
 4855.00    1.64270   1.61503    0.000
 4856.00    1.63781   1.58211    0.000
 4857.00    1.60522   1.55521    0.000
 4858.00    1.58380   1.53390    0.000
 4859.00    1.58047   1.50984    0.000
 4860.00    1.56819   1.49623    0.000
 4861.00    1.54318   1.49408    0.000
 4862.00    1.53787   1.49230    0.000
 4863.00    1.55717   1.50217    0.000
 4864.00    1.57930   1.52270    0.000
 4865.00    1.60452   1.53453    0.000
 4866.00    1.62179   1.54301    0.000
 4867.00    1.63134   1.55608    0.000
 4868.00    1.62244   1.56024    0.000
 4869.00    1.59774   1.55426    0.000
 4870.00    1.59859   1.55589    0.000
 4871.00    1.61874   1.56306    0.000
 4872.00    1.62625   1.56457    0.000
 4873.00    1.62540   1.57347    0.000
 4874.00    1.66713   1.59751    0.000
 4875.00    1.73357   1.61838    0.069
 4876.00    1.74656   1.63271    0.069
 4877.00    1.73251   1.65497    0.068
 4878.00    1.76355   1.67217    0.068
 4879.00    1.81434   1.67261    0.067
 4880.00    1.81600   1.67422    0.066
 4881.00    1.79920   1.67331    0.067
 4882.00    1.72739   1.65638    0.066
 4883.00    1.63804   1.63786    0.066
 4884.00    1.66020   1.62512    0.067
 4885.00    1.71209   1.60799    0.067
 4886.00    1.68756   1.59009    0.067
 4887.00    1.64637   1.58301    0.068
 4888.00    1.70366   1.58286    0.068
 4889.00    1.77802   1.58739    0.069
 4890.00    1.81631   1.60760    0.072
 4891.00    1.84984   1.63613    0.076
 4892.00    1.87702   1.66491    0.077
 4893.00    1.90360   1.70479    0.077
 4894.00    1.94182   1.74406    0.077
 4895.00    1.98069   1.77178    0.077
 4896.00    1.96651   1.79674    0.076
 4897.00    1.95106   1.81050    0.074
 4898.00    1.92933   1.81125    0.070
 4899.00    1.90637   1.81186    0.067
 4900.00    1.85430   1.80635    0.067
 4901.00    1.80452   1.79390    0.066
 4902.00    1.78432   1.78786    0.065
 4903.00    1.77016   1.78411    0.065
 4904.00    1.80850   1.77543    0.065
 4905.00    1.84503   1.76730    0.066
 4906.00    1.86985   1.76221    0.066
 4907.00    1.87891   1.75477    0.067
 4908.00    1.80864   1.74352    0.066
 4909.00    1.75811   1.73515    0.066
 4910.00    1.78790   1.72972    0.066
 4911.00    1.81715   1.72222    0.066
 4912.00    1.84462   1.71552    0.066
 4913.00    1.85281   1.70903    0.066
 4914.00    1.80612   1.69571    0.066
 4915.00    1.77249   1.67559    0.066
 4916.00    1.77065   1.65180    0.065
 4917.00    1.75505   1.62523    0.065
 4918.00    1.71060   1.59861    0.065
 4919.00    1.68055   1.57771    0.065
 4920.00    1.67679   1.56877    0.065
 4921.00    1.67857   1.57193    0.065
 4922.00    1.68918   1.58499    0.064
 4923.00    1.70470   1.61167    0.064
 4924.00    1.72709   1.64789    0.064
 4925.00    1.76255   1.68080    0.065
 4926.00    1.81412   1.71396    0.065
 4927.00    1.85823   1.74949    0.065
 4928.00    1.89423   1.77040    0.066
 4929.00    1.91490   1.78133    0.066
 4930.00    1.92087   1.79012    0.066
 4931.00    1.89489   1.78168    0.065
 4932.00    1.84193   1.76508    0.065
 4933.00    1.79773   1.75136    0.064
 4934.00    1.76003   1.72829    0.064
 4935.00    1.74703   1.70576    0.064
 4936.00    1.75015   1.69445    0.064
 4937.00    1.76356   1.68580    0.065
 4938.00    1.78286   1.68590    0.065
 4939.00    1.79831   1.69730    0.065
 4940.00    1.81183   1.71195    0.000
 4941.00    1.79285   1.73583    0.000
 4942.00    1.75986   1.76510    0.000
 4943.00    1.77798   1.78692    0.000
 4944.00    1.81497   1.80845    0.000
 4945.00    1.85980   1.83177    0.000
 4946.00    1.90708   1.84506    0.000
 4947.00    1.96089   1.85158    0.000
 4948.00    2.01640   1.85747    0.000
 4949.00    1.99133   1.85590    0.000
 4950.00    1.94910   1.84461    0.000
 4951.00    1.90232   1.82721    0.000
 4952.00    1.85478   1.80269    0.000
 4953.00    1.82355   1.77401    0.000
 4954.00    1.79440   1.74406    0.000
 4955.00    1.81328   1.71100    0.000
 4956.00    1.83642   1.68717    0.000
 4957.00    1.86336   1.67659    0.000
 4958.00    1.89050   1.66678    0.000
 4959.00    1.87976   1.66549    0.000
 4960.00    1.86849   1.67607    0.000
 4961.00    1.87241   1.68516    0.000
 4962.00    1.87399   1.68946    0.000
 4963.00    1.82491   1.69127    0.000
 4964.00    1.77957   1.69353    0.000
 4965.00    1.78026   1.69296    0.000
 4966.00    1.78174   1.68847    0.000
 4967.00    1.78992   1.69068    0.000
 4968.00    1.79760   1.69734    0.000
 4969.00    1.80218   1.70408    0.000
 4970.00    1.80856   1.71515    0.000
 4971.00    1.82376   1.72584    0.000
 4972.00    1.84152   1.73397    0.000
 4973.00    1.86948   1.73711    0.000
 4974.00    1.88480   1.73190    0.000
 4975.00    1.85831   1.72206    0.000
 4976.00    1.83301   1.70265    0.000
 4977.00    1.81103   1.67481    0.000
 4978.00    1.78047   1.64827    0.000
 4979.00    1.72938   1.61888    0.000
 4980.00    1.69090   1.58750    0.000
 4981.00    1.67846   1.56692    0.000
 4982.00    1.67002   1.55609    0.000
 4983.00    1.66876   1.54810    0.000
 4984.00    1.66264   1.55186    0.000
 4985.00    1.64887   1.56840    0.000
 4986.00    1.65239   1.58384    0.000
 4987.00    1.67976   1.60228    0.000
 4988.00    1.72666   1.62434    0.000
 4989.00    1.79728   1.63854    0.000
 4990.00    1.81596   1.65241    0.000
 4991.00    1.77905   1.66298    0.000
 4992.00    1.77333   1.66370    0.000
 4993.00    1.79707   1.66757    0.000
 4994.00    1.79800   1.66557    0.000
 4995.00    1.77995   1.65353    0.000
 4996.00    1.77012   1.64565    0.000
 4997.00    1.76631   1.63079    0.000
 4998.00    1.74446   1.60865    0.000
 4999.00    1.71100   1.59165    0.000
 5000.00    1.69355   1.57075    0.000
 5001.00    1.68511   1.54832    0.000
 5002.00    1.73533   1.53417    0.000
 5003.00    1.81430   1.52143    0.000
 5004.00    1.81337   1.50934    0.000
 5005.00    1.77862   1.50588    0.000
 5006.00    1.79365   1.50630    0.000
 5007.00    1.82673   1.50290    0.000
 5008.00    1.81340   1.50222    0.000
 5009.00    1.78584   1.50281    0.000
 5010.00    1.75417   1.49584    0.000
 5011.00    1.72145   1.48859    0.000
 5012.00    1.71671   1.48214    0.000
 5013.00    1.71777   1.47386    0.000
 5014.00    1.68585   1.47067    0.000
 5015.00    1.64852   1.46976    0.000
 5016.00    1.64032   1.47146    0.000
 5017.00    1.63568   1.47936    0.000
 5018.00    1.63379   1.48843    0.000
 5019.00    1.63212   1.49769    0.000
 5020.00    1.64835   1.50820    0.000
 5021.00    1.66544   1.52117    0.000
 5022.00    1.64788   1.53296    0.000
 5023.00    1.63010   1.54254    0.000
 5024.00    1.63094   1.55815    0.000
 5025.00    1.63349   1.57220    0.000
 5026.00    1.67046   1.58380    0.000
 5027.00    1.70531   1.60300    0.000
 5028.00    1.71546   1.61858    0.000
 5029.00    1.72650   1.63079    0.063
 5030.00    1.74474   1.64505    0.064
 5031.00    1.75858   1.65084    0.064
 5032.00    1.74581   1.65052    0.064
 5033.00    1.73224   1.64267    0.064
 5034.00    1.71490   1.62459    0.064
 5035.00    1.69721   1.60510    0.064
 5036.00    1.67817   1.57848    0.064
 5037.00    1.66269   1.55088    0.064
 5038.00    1.65877   1.53413    0.063
 5039.00    1.65309   1.51895    0.063
 5040.00    1.64259   1.51483    0.064
 5041.00    1.64754   1.52679    0.064
 5042.00    1.68885   1.53965    0.064
 5043.00    1.72449   1.55959    0.064
 5044.00    1.74861   1.58527    0.065
 5045.00    1.76237   1.60212    0.065
 5046.00    1.75779   1.61314    0.064
 5047.00    1.74183   1.62135    0.064
 5048.00    1.70823   1.62395    0.064
 5049.00    1.70515   1.62281    0.064
 5050.00    1.74357   1.62358    0.065
 5051.00    1.76375   1.62950    0.065
 5052.00    1.76209   1.63919    0.065
 5053.00    1.77023   1.65319    0.065
 5054.00    1.78872   1.67043    0.064
 5055.00    1.79335   1.68887    0.064
 5056.00    1.78509   1.70705    0.064
 5057.00    1.79659   1.71981    0.064
 5058.00    1.82431   1.72827    0.065
 5059.00    1.83466   1.73157    0.065
 5060.00    1.83246   1.72542    0.065
 5061.00    1.81667   1.71598    0.065
 5062.00    1.79225   1.70058    0.065
 5063.00    1.76960   1.67839    0.065
 5064.00    1.74793   1.66126    0.065
 5065.00    1.71700   1.64451    0.065
 5066.00    1.68161   1.62569    0.064
 5067.00    1.68097   1.61560    0.064
 5068.00    1.69480   1.61200    0.064
 5069.00    1.71579   1.60732    0.064
 5070.00    1.73932   1.60324    0.064
 5071.00    1.75712   1.60400    0.064
 5072.00    1.77319   1.60420    0.064
 5073.00    1.72969   1.59690    0.064
 5074.00    1.67131   1.58712    0.064
 5075.00    1.65412   1.57889    0.064
 5076.00    1.64528   1.56596    0.064
 5077.00    1.66929   1.54673    0.063
 5078.00    1.69853   1.53203    0.063
 5079.00    1.65731   1.52394    0.063
 5080.00    1.60775   1.51565    0.062
 5081.00    1.59065   1.51309    0.062
 5082.00    1.57617   1.52206    0.061
 5083.00    1.61046   1.53576    0.061
 5084.00    1.64695   1.55167    0.061
 5085.00    1.70117   1.57241    0.061
 5086.00    1.75439   1.59449    0.061
 5087.00    1.74719   1.61498    0.061
 5088.00    1.74131   1.63354    0.061
 5089.00    1.75989   1.64794    0.061
 5090.00    1.77707   1.65834    0.061
 5091.00    1.77858   1.66440    0.061
 5092.00    1.77700   1.66354    0.061
 5093.00    1.75128   1.65645    0.061
 5094.00    1.72889   1.64521    0.061
 5095.00    1.72611   1.63169    0.061
 5096.00    1.72043   1.61554    0.061
 5097.00    1.70118   1.59864    0.061
 5098.00    1.68418   1.58783    0.061
 5099.00    1.67574   1.58020    0.061
 5100.00    1.67185   1.57288    0.061
 5101.00    1.68243   1.57074    0.060
 5102.00    1.68400   1.56893    0.060
 5103.00    1.66130   1.56593    0.060
 5104.00    1.64128   1.56425    0.061
 5105.00    1.62746   1.55827    0.061
 5106.00    1.62420   1.55454    0.061
 5107.00    1.64206   1.55571    0.061
 5108.00    1.67765   1.55309    0.061
 5109.00    1.74416   1.55866    0.061
 5110.00    1.78096   1.57247    0.062
 5111.00    1.77245   1.58217    0.062
 5112.00    1.74925   1.59928    0.062
 5113.00    1.70637   1.61978    0.062
 5114.00    1.69948   1.63231    0.063
 5115.00    1.73506   1.64536    0.063
 5116.00    1.76335   1.65357    0.064
 5117.00    1.78405   1.65133    0.064
 5118.00    1.78411   1.64333    0.065
 5119.00    1.76521   1.62793    0.064
 5120.00    1.74987   1.60783    0.064
 5121.00    1.73741   1.58314    0.064
 5122.00    1.70075   1.55640    0.063
 5123.00    1.64688   1.53598    0.063
 5124.00    1.61035   1.51792    0.062
 5125.00    1.58466   1.50313    0.062
 5126.00    1.58609   1.49922    0.062
 5127.00    1.60233   1.50097    0.063
 5128.00    1.63440   1.50553    0.063
 5129.00    1.67397   1.51732    0.064
 5130.00    1.49378   1.53253    0.063
 5131.00    1.22366   1.54436    0.062
 5132.00    1.36079   1.55560    0.062
 5133.00    1.64029   1.56798    0.063
 5134.00    1.71377   1.57065    0.063
 5135.00    1.72652   1.56840    0.064
 5136.00    1.70281   1.56866    0.064
 5137.00    1.67019   1.55758    0.063
 5138.00    1.68028   1.54674    0.063
 5139.00    1.69881   1.54332    0.064
 5140.00    1.68620   1.52828    0.064
 5141.00    1.66880   1.51773    0.063
 5142.00    1.65634   1.51752    0.063
 5143.00    1.64446   1.50723    0.063
 5144.00    1.65502   1.49989    0.063
 5145.00    1.66729   1.49990    0.062
 5146.00    1.64487   1.49437    0.061
 5147.00    1.62103   1.49212    0.061
 5148.00    1.64185   1.49298    0.061
 5149.00    1.66184   1.49231    0.062
 5150.00    1.63178   1.49755    0.062
 5151.00    1.60338   1.50530    0.062
 5152.00    1.60390   1.51433    0.062
 5153.00    1.60721   1.52973    0.061
 5154.00    1.64035   1.54561    0.062
 5155.00    1.67065   1.56144    0.062
 5156.00    1.67967   1.57762    0.062
 5157.00    1.68776   1.58473    0.061
 5158.00    1.69054   1.58601    0.062
 5159.00    1.68998   1.57980    0.062
 5160.00    1.67418   1.55546    0.061
 5161.00    1.65014   1.52222    0.061
 5162.00    1.59533   1.48146    0.061
 5163.00    1.54448   1.42683    0.061
 5164.00    1.50592   1.36959    0.060
 5165.00    1.46753   1.31420    0.060
 5166.00    1.42957   1.26066    0.060
 5167.00    1.38516   1.21677    0.059
 5168.00    1.32608   1.18577    0.059
 5169.00    1.28655   1.16618    0.059
 5170.00    1.28552   1.15808    0.059
 5171.00    1.30232   1.16522    0.059
 5172.00    1.34971   1.18635    0.060
 5173.00    1.38620   1.21264    0.060
 5174.00    1.40633   1.24122    0.060
 5175.00    1.44094   1.27328    0.060
 5176.00    1.49468   1.30064    0.060
 5177.00    1.52552   1.31608    0.060
 5178.00    1.52971   1.32193    0.060
 5179.00    1.51254   1.32094    0.060
 5180.00    1.47344   1.31369    0.060
 5181.00    1.44049   1.30162    0.059
 5182.00    1.41313   1.29597    0.059
 5183.00    1.42706   1.30266    0.059
 5184.00    1.47394   1.31454    0.061
 5185.00    1.50377   1.33633    0.061
 5186.00    1.52163   1.36582    0.060
 5187.00    1.56289   1.39456    0.061
 5188.00    1.61855   1.42533    0.062
 5189.00    1.64526   1.44768    0.062
 5190.00    1.65641   1.45990    0.000
 5191.00    1.64564   1.47631    0.000
 5192.00    1.62464   1.48856    0.000
 5193.00    1.64601   1.49269    0.000
 5194.00    1.68443   1.50473    0.000
 5195.00    1.70589   1.52047    0.000
 5196.00    1.72153   1.52995    0.000
 5197.00    1.70980   1.54013    0.000
 5198.00    1.69016   1.54847    0.000
 5199.00    1.68541   1.54664    0.000
 5200.00    1.68421   1.53650    0.000
 5201.00    1.66688   1.52124    0.000
 5202.00    1.64644   1.49820    0.000
 5203.00    1.64336   1.46769    0.000
 5204.00    1.64288   1.44192    0.000
 5205.00    1.61177   1.42267    0.000
 5206.00    1.57731   1.40434    0.000
 5207.00    1.57851   1.40047    0.000
 5208.00    1.58227   1.41167    0.000
 5209.00    1.59596   1.42737    0.000
 5210.00    1.61002   1.45310    0.000
 5211.00    1.63782   1.48524    0.063
 5212.00    1.66616   1.51625    0.063
 5213.00    1.71151   1.54594    0.062
 5214.00    1.75315   1.57233    0.062
 5215.00    1.73453   1.59450    0.062
 5216.00    1.71780   1.61170    0.062
 5217.00    1.72020   1.62326    0.062
 5218.00    1.72426   1.62871    0.062
 5219.00    1.74040   1.62858    0.062
 5220.00    1.75559   1.62198    0.062
 5221.00    1.76547   1.60800    0.061
 5222.00    1.76830   1.58904    0.061
 5223.00    1.73978   1.57000    0.061
 5224.00    1.70824   1.55158    0.061
 5225.00    1.66566   1.53459    0.061
 5226.00    1.64293   1.53027    0.061
 5227.00    1.68097   1.53377    0.062
 5228.00    1.71017   1.53828    0.062
 5229.00    1.71634   1.55622    0.062
 5230.00    1.71846   1.57696    0.061
 5231.00    1.71149   1.59315    0.061
 5232.00    1.72510   1.61685    0.060
 5233.00    1.77855   1.63832    0.061
 5234.00    1.83017   1.65642    0.061
 5235.00    1.87866   1.67831    0.061
 5236.00    1.87839   1.69644    0.061
 5237.00    1.80589   1.71198    0.061
 5238.00    1.78166   1.72620    0.060
 5239.00    1.82025   1.73567    0.060
 5240.00    1.85888   1.74014    0.060
 5241.00    1.89758   1.73852    0.060
 5242.00    1.89422   1.73281    0.061
 5243.00    1.84833   1.72365    0.060
 5244.00    1.81333   1.70720    0.060
 5245.00    1.78805   1.68634    0.061
 5246.00    1.77460   1.67026    0.061
 5247.00    1.77043   1.65424    0.061
 5248.00    1.77015   1.63467    0.061
 5249.00    1.77255   1.62560    0.062
 5250.00    1.76604   1.62430    0.062
 5251.00    1.75413   1.62394    0.062
 5252.00    1.75620   1.63090    0.062
 5253.00    1.76566   1.64043    0.062
 5254.00    1.78551   1.65283    0.062
 5255.00    1.81012   1.66530    0.063
 5256.00    1.83974   1.66865    0.063
 5257.00    1.87134   1.66759    0.063
 5258.00    1.86858   1.65795    0.063
 5259.00    1.85424   1.63517    0.062
 5260.00    1.81002   1.60397    0.062
 5261.00    1.75735   1.56423    0.063
 5262.00    1.67923   1.52081    0.063
 5263.00    1.59517   1.47803    0.063
 5264.00    1.55023   1.43547    0.063
 5265.00    1.51263   1.40420    0.064
 5266.00    1.52209   1.38503    0.064
 5267.00    1.53838   1.36855    0.064
 5268.00    1.53647   1.36745    0.064
 5269.00    1.53264   1.38604    0.065
 5270.00    1.55149   1.40708    0.064
 5271.00    1.57188   1.43394    0.064
 5272.00    1.63468   1.47528    0.065
 5273.00    1.69890   1.51550    0.065
 5274.00    1.73410   1.55230    0.065
 5275.00    1.76859   1.59234    0.064
 5276.00    1.78158   1.62370    0.063
 5277.00    1.79505   1.64780    0.063
 5278.00    1.81592   1.66919    0.063
 5279.00    1.83484   1.68240    0.063
 5280.00    1.83487   1.69306    0.063
 5281.00    1.83807   1.70291    0.062
 5282.00    1.86365   1.71153    0.062
 5283.00    1.88203   1.72631    0.062
 5284.00    1.86133   1.74436    0.061
 5285.00    1.84533   1.76165    0.061
 5286.00    1.84972   1.78106    0.060
 5287.00    1.86066   1.79972    0.060
 5288.00    1.89501   1.81325    0.061
 5289.00    1.92115   1.82012    0.061
 5290.00    1.92261   1.81925    0.061
 5291.00    1.92357   1.81056    0.061
 5292.00    1.92324   1.79592    0.061
 5293.00    1.91693   1.77548    0.061
 5294.00    1.89743   1.75062    0.061
 5295.00    1.87752   1.72614    0.062
 5296.00    1.85682   1.70519    0.061
 5297.00    1.82877   1.69252    0.060
 5298.00    1.78852   1.68731    0.060
 5299.00    1.78170   1.68800    0.060
 5300.00    1.82368   1.70115    0.060
 5301.00    1.85755   1.72280    0.060
 5302.00    1.88101   1.74595    0.061
 5303.00    1.91401   1.77213    0.061
 5304.00    1.95780   1.79869    0.061
 5305.00    1.97984   1.82159    0.061
 5306.00    1.98019   1.84112    0.061
 5307.00    1.99828   1.85637    0.061
 5308.00    2.03195   1.86520    0.061
 5309.00    2.03991   1.86954    0.062
 5310.00    2.02794   1.87081    0.063
 5311.00    2.01263   1.86724    0.063
 5312.00    1.99505   1.86063    0.063
 5313.00    1.97322   1.85260    0.062
 5314.00    1.94885   1.84131    0.062
 5315.00    1.92271   1.82935    0.061
 5316.00    1.89564   1.81764    0.061
 5317.00    1.90708   1.80184    0.061
 5318.00    1.93591   1.78482    0.061
 5319.00    1.91247   1.76689    0.061
 5320.00    1.86871   1.74441    0.061
 5321.00    1.85681   1.71884    0.061
 5322.00    1.85546   1.68992    0.061
 5323.00    1.84682   1.66132    0.061
 5324.00    1.83615   1.63541    0.061
 5325.00    1.80111   1.60882    0.061
 5326.00    1.76050   1.58732    0.061
 5327.00    1.70544   1.58056    0.060
 5328.00    1.64774   1.58353    0.059
 5329.00    1.67844   1.59163    0.059
 5330.00    1.72153   1.61072    0.060
 5331.00    1.76213   1.63750    0.060
 5332.00    1.80247   1.66659    0.060
 5333.00    1.81032   1.69256    0.060
 5334.00    1.81609   1.71217    0.059
 5335.00    1.83600   1.72779    0.059
 5336.00    1.85619   1.73746    0.059
 5337.00    1.82252   1.73966    0.059
 5338.00    1.79076   1.73481    0.058
 5339.00    1.81356   1.72963    0.058
 5340.00    1.83349   1.72787    0.058
 5341.00    1.81213   1.72222    0.058
 5342.00    1.79536   1.71922    0.057
 5343.00    1.82155   1.72183    0.058
 5344.00    1.84749   1.72347    0.058
 5345.00    1.87175   1.73010    0.058
 5346.00    1.88801   1.73710    0.058
 5347.00    1.86211   1.74449    0.058
 5348.00    1.84188   1.76047    0.057
 5349.00    1.84576   1.77787    0.057
 5350.00    1.85514   1.79665    0.058
 5351.00    1.88380   1.81877    0.058
 5352.00    1.91631   1.84221    0.058
 5353.00    1.96019   1.86598    0.059
 5354.00    1.98928   1.88400    0.059
 5355.00    1.98119   1.89820    0.058
 5356.00    1.98307   1.90874    0.058
 5357.00    2.00654   1.91074    0.058
 5358.00    2.01921   1.90702    0.059
 5359.00    2.01162   1.89711    0.059
 5360.00    1.99578   1.88064    0.059
 5361.00    1.96642   1.86234    0.059
 5362.00    1.93994   1.83996    0.059
 5363.00    1.91761   1.81321    0.059
 5364.00    1.89335   1.78881    0.059
 5365.00    1.86664   1.76428    0.059
 5366.00    1.83649   1.74052    0.059
 5367.00    1.80251   1.72161    0.059
 5368.00    1.78755   1.70591   -2.000
 5369.00    1.79132   1.69697   -2.000
 5370.00    1.78003   1.69712   -2.000
 5371.00    1.75569   1.70534   -2.000
 5372.00    1.79491   1.71812   -2.000
 5373.00    1.88270   1.73692   -2.000
 5374.00    1.92990   1.76010   -2.000
 5375.00    1.94986   1.78017   -2.000
 5376.00    1.94898   1.79886   -2.000
 5377.00    1.93585   1.81391   -2.000
 5378.00    1.94365   1.82224   -2.000
 5379.00    1.96218   1.82779   -2.000
 5380.00    1.95665   1.82991   -2.000
 5381.00    1.94043   1.82675   -2.000
 5382.00    1.94048   1.82199   -2.000
 5383.00    1.94673   1.81650    0.060
 5384.00    1.92939   1.80736    0.060
 5385.00    1.90439   1.79736    0.059
 5386.00    1.90369   1.78644    0.059
 5387.00    1.90959   1.77162    0.058
 5388.00    1.88976   1.75598    0.058
 5389.00    1.86419   1.73932    0.058
 5390.00    1.84035   1.72054    0.058
 5391.00    1.81681   1.70408    0.058
 5392.00    1.79880   1.68834    0.057
 5393.00    1.78154   1.67403    0.057
 5394.00    1.78660   1.66336    0.056
 5395.00    1.79381   1.65297    0.056
 5396.00    1.78492   1.64872    0.056
 5397.00    1.77507   1.64733    0.056
 5398.00    1.76618   1.64168    0.056
 5399.00    1.75756   1.63940    0.056
 5400.00    1.79088   1.63865    0.056
 5401.00    1.82192   1.63233    0.056
 5402.00    1.79425   1.62288    0.057
 5403.00    1.76751   1.61327    0.057
 5404.00    1.75340   1.60575    0.056
 5405.00    1.73879   1.60205    0.055
 5406.00    1.71979   1.60138    0.055
 5407.00    1.70230   1.60527    0.056
 5408.00    1.69485   1.61724    0.056
 5409.00    1.69780   1.63752    0.056
 5410.00    1.75422   1.66033    0.056
 5411.00    1.80261   1.68371    0.057
 5412.00    1.81766   1.71044    0.057
 5413.00    1.83284   1.73622    0.057
 5414.00    1.84848   1.75950    0.057
 5415.00    1.86591   1.77882    0.057
 5416.00    1.88851   1.79088    0.058
 5417.00    1.90542   1.79951    0.058
 5418.00    1.90827   1.80503    0.057
 5419.00    1.91427   1.80507    0.057
 5420.00    1.92697   1.80332    0.057
 5421.00    1.92538   1.79830    0.058
 5422.00    1.89736   1.78871    0.058
 5423.00    1.87611   1.78273    0.058
 5424.00    1.86577   1.77597    0.057
 5425.00    1.86206   1.76306    0.057
 5426.00    1.86773   1.75131    0.057
 5427.00    1.86514   1.73652    0.057
 5428.00    1.85227   1.72184    0.057
 5429.00    1.84746   1.71212    0.058
 5430.00    1.85153   1.69697    0.058
 5431.00    1.83548   1.68688    0.057
 5432.00    1.79995   1.68726    0.057
 5433.00    1.81435   1.68964    0.057
 5434.00    1.87146   1.69949    0.057
 5435.00    1.89244   1.71400    0.057
 5436.00    1.88622   1.73324    0.057
 5437.00    1.88203   1.75706    0.057
 5438.00    1.87918   1.77773    0.056
 5439.00    1.89456   1.79446    0.056
 5440.00    1.92051   1.80503    0.056
 5441.00    1.91586   1.80996    0.055
 5442.00    1.89577   1.80666    0.055
 5443.00    1.89678   1.79584    0.055
 5444.00    1.90700   1.78201    0.056
 5445.00    1.89213   1.76537    0.055
 5446.00    1.86784   1.75195    0.055
 5447.00    1.87157   1.73899    0.055
 5448.00    1.88422   1.72630    0.055
 5449.00    1.90083   1.72011    0.055
 5450.00    1.91849   1.71568    0.055
 5451.00    1.89125   1.71090    0.055
 5452.00    1.85425   1.70666    0.054
 5453.00    1.83604   1.70149    0.054
 5454.00    1.82108   1.69982    0.054
 5455.00    1.84434   1.70179    0.055
 5456.00    1.87262   1.70144    0.055
 5457.00    1.87159   1.70398    0.055
 5458.00    1.86784   1.70918    0.055
 5459.00    1.86919   1.71288    0.056
 5460.00    1.87083   1.71784    0.056
 5461.00    1.87629   1.71973    0.056
 5462.00    1.88169   1.72186    0.055
 5463.00    1.87240   1.72574    0.056
 5464.00    1.86349   1.72597    0.056
 5465.00    1.86324   1.72723    0.056
 5466.00    1.86194   1.72737    0.057
 5467.00    1.84715   1.72432    0.056
 5468.00    1.83405   1.72025    0.056
 5469.00    1.83559   1.71224    0.057
 5470.00    1.83643   1.70317    0.057
 5471.00    1.83285   1.69256    0.057
 5472.00    1.82493   1.67977    0.056
 5473.00    1.79526   1.66903    0.057
 5474.00    1.77433   1.65686    0.057
 5475.00    1.78893   1.64786    0.056
 5476.00    1.79919   1.64568    0.056
 5477.00    1.79484   1.64397    0.056
 5478.00    1.79140   1.64586   -2.000
 5479.00    1.79057   1.65161   -2.000
 5480.00    1.79615   1.66031   -2.000
 5481.00    1.81727   1.67208   -2.000
 5482.00    1.84568   1.68208   -2.000
 5483.00    1.88939   1.69190   -2.000
 5484.00    1.90287   1.70269   -2.000
 5485.00    1.86131   1.71177   -2.000
 5486.00    1.83878   1.71861   -2.000
 5487.00    1.84652   1.72446   -2.000
 5488.00    1.81671   1.72760   -2.000
 5489.00    1.73444   1.73010   -2.000
 5490.00    1.72588   1.73337   -2.000
 5491.00    1.80795   1.73435   -2.000
 5492.00    1.84811   1.73594   -2.000
 5493.00    1.84283   1.73689   -2.000
 5494.00    1.84641   1.73560   -2.000
 5495.00    1.85843   1.73468   -2.000
 5496.00    1.87328   1.73392   -2.000
 5497.00    1.89050   1.73248   -2.000
 5498.00    1.88969   1.72858   -2.000
 5499.00    1.87548   1.72262   -2.000
 5500.00    1.86412   1.71807   -2.000
 5501.00    1.85460   1.71382   -2.000
 5502.00    1.83928   1.70660    0.054
 5503.00    1.82065   1.69997    0.055
 5504.00    1.82087   1.69398    0.054
 5505.00    1.83045   1.68865    0.054
 5506.00    1.82592   1.68617    0.054
 5507.00    1.81533   1.68050    0.054
 5508.00    1.80640   1.67545    0.054
 5509.00    1.79810   1.67418    0.054
 5510.00    1.78346   1.67102    0.054
 5511.00    1.76684   1.67130    0.055
 5512.00    1.76266   1.67382    0.055
 5513.00    1.76172   1.67712    0.055
 5514.00    1.78530   1.68696    0.055
 5515.00    1.81408   1.69845    0.055
 5516.00    1.83391   1.71207    0.055
 5517.00    1.85223   1.72724    0.055
 5518.00    1.83231   1.73935    0.055
 5519.00    1.80754   1.75084    0.055
 5520.00    1.85761   1.75871    0.056
 5521.00    1.91428   1.76101    0.056
 5522.00    1.91548   1.76030    0.056
 5523.00    1.91378   1.75545    0.055
 5524.00    1.88622   1.74776    0.055
 5525.00    1.85824   1.73993    0.054
 5526.00    1.83576   1.73137    0.054
 5527.00    1.81456   1.72546    0.055
 5528.00    1.82118   1.72201    0.054
 5529.00    1.82646   1.71953    0.054
 5530.00    1.81547   1.72070    0.054
 5531.00    1.80706   1.72373    0.054
 5532.00    1.82003   1.72867    0.053
 5533.00    1.83263   1.73361    0.053
 5534.00    1.84298   1.73858    0.052
 5535.00    1.85748   1.74515    0.052
 5536.00    1.89230   1.75053    0.053
 5537.00    1.91733   1.75762    0.054
 5538.00    1.90350   1.76437    0.053
 5539.00    1.89276   1.76930    0.060
 5540.00    1.89218   1.77553    0.142
 5541.00    1.89475   1.78064   -1.000
 5542.00    1.90610   1.78555   -1.000
 5543.00    1.91169   1.79089   -1.000
 5544.00    1.90356   1.79472   -1.000
 5545.00    1.89578   1.79941   -1.000
 5546.00    1.88871   1.80506   -1.000
 5547.00    1.88803   1.80900   -1.000
 5548.00    1.89882   1.81229   -1.000
 5549.00    1.91029   1.81483   -1.000
 5550.00    1.92282   1.81473   -1.000
 5551.00    1.92578   1.81322   -1.000
 5552.00    1.91554   1.80996   -1.000
 5553.00    1.90954   1.80469    0.234
 5554.00    1.90867   1.79909    0.073
 5555.00    1.89628   1.79241    0.054
 5556.00    1.87156   1.78522    0.054
 5557.00    1.85433   1.77921    0.054
 5558.00    1.84416   1.77201    0.053
 5559.00    1.84144   1.76427    0.053
 5560.00    1.84491   1.75750    0.054
 5561.00    1.84158   1.74961    0.054
 5562.00    1.83327   1.74258    0.055
 5563.00    1.83107   1.73532    0.055
 5564.00    1.83281   1.72815    0.054
 5565.00    1.81978   1.72309    0.054
 5566.00    1.79846   1.71860    0.053
 5567.00    1.79186   1.71640    0.053
 5568.00    1.79245   1.71492    0.053
 5569.00    1.80596   1.71542    0.053
 5570.00    1.82492   1.71815    0.053
 5571.00    1.83073   1.72087    0.053
 5572.00    1.83180   1.72673    0.053
 5573.00    1.83047   1.73243    0.053
 5574.00    1.82842   1.73653    0.052
 5575.00    1.81159   1.74231    0.052
 5576.00    1.79100   1.74646    0.052
 5577.00    1.79194   1.74748    0.052
 5578.00    1.79735   1.74700    0.052
 5579.00    1.82061   1.74221    0.052
 5580.00    1.84678   1.73314    0.052
 5581.00    1.82727   1.72246    0.052
 5582.00    1.80218   1.70692    0.051
 5583.00    1.76134   1.68851    0.052
 5584.00    1.71918   1.67086    0.052
 5585.00    1.71048   1.65204    0.052
 5586.00    1.70341   1.63719    0.051
 5587.00    1.69790   1.62630    0.051
 5588.00    1.69246   1.61848    0.051
 5589.00    1.68941   1.61769    0.051
 5590.00    1.68737   1.61980    0.051
 5591.00    1.70535   1.62634    0.052
 5592.00    1.72214   1.63677    0.052
 5593.00    1.72511   1.64585    0.053
 5594.00    1.72463   1.65501    0.053
 5595.00    1.69645   1.66181    0.054
 5596.00    1.67602   1.66603    0.054
 5597.00    1.70241   1.67080    0.054
 5598.00    1.72620   1.67364    0.055
 5599.00    1.73766   1.67548    0.055
 5600.00    1.74815   1.68073    0.055
 5601.00    1.75488   1.68786    0.055
 5602.00    1.76387   1.69914    0.055
 5603.00    1.78019   1.71344    0.055
 5604.00    1.80033   1.72801    0.055
 5605.00    1.83093   1.74449    0.054
 5606.00    1.85455   1.75860    0.054
 5607.00    1.86179   1.77013    0.053
 5608.00    1.87011   1.77716    0.053
 5609.00    1.88059   1.77844    0.053
 5610.00    1.86978   1.77464    0.053
 5611.00    1.82138   1.76394    0.052
 5612.00    1.78764   1.75120    0.052
 5613.00    1.77654   1.73692    0.052
 5614.00    1.76820   1.72256    0.051
 5615.00    1.76360   1.70999    0.052
 5616.00    1.75449   1.69696    0.052
 5617.00    1.73998   1.68846    0.052
 5618.00    1.74307   1.68404    0.052
 5619.00    1.76469   1.68169    0.052
 5620.00    1.78591   1.68082    0.051
 5621.00    1.80673   1.67989    0.051
 5622.00    1.80801   1.68125    0.050
 5623.00    1.79326   1.68436    0.051
 5624.00    1.78509   1.68924    0.051
 5625.00    1.78166   1.69523    0.051
 5626.00    1.79164   1.70203    0.051
 5627.00    1.81010   1.71121    0.051
 5628.00    1.81803   1.72042    0.051
 5629.00    1.82014   1.72881    0.050
 5630.00    1.82429   1.73541    0.050
 5631.00    1.82944   1.73877    0.051
 5632.00    1.82628   1.73921    0.051
 5633.00    1.81968   1.73667    0.051
 5634.00    1.81588   1.73181    0.051
 5635.00    1.81308   1.72568    0.052
 5636.00    1.78364   1.71920    0.052
 5637.00    1.74620   1.71235    0.052
 5638.00    1.74212   1.70712    0.052
 5639.00    1.74635   1.70346    0.052
 5640.00    1.74286   1.70174    0.053
 5641.00    1.73780   1.70265    0.053
 5642.00    1.76769   1.70407    0.053
 5643.00    1.80312   1.70784    0.053
 5644.00    1.80773   1.71246    0.053
 5645.00    1.80872   1.71699    0.053
 5646.00    1.79709   1.72245    0.052
 5647.00    1.78446   1.72714    0.052
 5648.00    1.79900   1.73108    0.052
 5649.00    1.81475   1.73334    0.053
 5650.00    1.83235   1.73273    0.052
 5651.00    1.84920   1.72999    0.052
 5652.00    1.82893   1.72589    0.052
 5653.00    1.80849   1.71898    0.051
 5654.00    1.78490   1.70935    0.051
 5655.00    1.76094   1.69930    0.051
 5656.00    1.73303   1.68959    0.050
 5657.00    1.70700   1.68164    0.050
 5658.00    1.69550   1.67562    0.050
 5659.00    1.68626   1.67129    0.050
 5660.00    1.69030   1.67109    0.049
 5661.00    1.69721   1.67448    0.049
 5662.00    1.71755   1.68030    0.049
 5663.00    1.73482   1.68768    0.050
 5664.00    1.74043   1.69601    0.050
 5665.00    1.74565   1.70478    0.050
 5666.00    1.74964   1.71412    0.049
 5667.00    1.75169   1.72395    0.049
 5668.00    1.74852   1.73367    0.049
 5669.00    1.75072   1.74359    0.049
 5670.00    1.76531   1.75317    0.049
 5671.00    1.78533   1.76244    0.050
 5672.00    1.81621   1.77152    0.051
 5673.00    1.83864   1.77926    0.051
 5674.00    1.84640   1.78483    0.051
 5675.00    1.84795   1.78804    0.052
 5676.00    1.84007   1.78823    0.052
 5677.00    1.84807   1.78593    0.052
 5678.00    1.87732   1.78022    0.052
 5679.00    1.87701   1.77290    0.053
 5680.00    1.84188   1.76514    0.053
 5681.00    1.81457   1.75701    0.053
 5682.00    1.79538   1.74927    0.052
 5683.00    1.78252   1.74193    0.052
 5684.00    1.77545   1.73700    0.052
 5685.00    1.77169   1.73470    0.052
 5686.00    1.77059   1.73564    0.052
 5687.00    1.77624   1.73881    0.051
 5688.00    1.78667   1.74418    0.051
 5689.00    1.80159   1.75024    0.051
 5690.00    1.81930   1.75636    0.052
 5691.00    1.83954   1.76268    0.052
 5692.00    1.86115   1.76684    0.051
 5693.00    1.86409   1.76926    0.051
 5694.00    1.85819   1.76712    0.051
 5695.00    1.84319   1.76227    0.051
 5696.00    1.82447   1.75485    0.051
 5697.00    1.82057   1.74387    0.051
 5698.00    1.82185   1.73257    0.051
 5699.00    1.81859   1.71967    0.050
 5700.00    1.81401   1.70752    0.050
 5701.00    1.80711   1.69581    0.050
 5702.00    1.79965   1.68304    0.050
 5703.00    1.79248   1.67212    0.050
 5704.00    1.78536   1.66195    0.049
 5705.00    1.77034   1.65279    0.049
 5706.00    1.75411   1.64717    0.049
 5707.00    1.73393   1.64276    0.049
 5708.00    1.71331   1.64133    0.049
 5709.00    1.71011   1.64512    0.049
 5710.00    1.70823   1.65189    0.049
 5711.00    1.74962   1.66415    0.050
 5712.00    1.79276   1.67973    0.050
 5713.00    1.81691   1.69702    0.050
 5714.00    1.84013   1.71703    0.050
 5715.00    1.83121   1.73671    0.051
 5716.00    1.82360   1.75588    0.051
 5717.00    1.83857   1.77400    0.051
 5718.00    1.85479   1.78900    0.051
 5719.00    1.88430   1.80178    0.051
 5720.00    1.91140   1.81164    0.051
 5721.00    1.92039   1.81836    0.052
 5722.00    1.92738   1.82207    0.052
 5723.00    1.92289   1.82227    0.052
 5724.00    1.91561   1.82127    0.052
 5725.00    1.89560   1.81914    0.051
 5726.00    1.87757   1.81576    0.051
 5727.00    1.86694   1.81095    0.051
 5728.00    1.86225   1.80649    0.051
 5729.00    1.87604   1.80438    0.051
 5730.00    1.88858   1.80309    0.050
 5731.00    1.89779   1.80342    0.050
 5732.00    1.90304   1.80404    0.050
 5733.00    1.89929   1.80476    0.050
 5734.00    1.88922   1.80616    0.050
 5735.00    1.86675   1.80730    0.050
 5736.00    1.85733   1.80919    0.050
 5737.00    1.87028   1.81038    0.049
 5738.00    1.88069   1.81015    0.049
 5739.00    1.88726   1.80949    0.049
 5740.00    1.88411   1.80907    0.000
 5741.00    1.86811   1.80945    0.000
 5742.00    1.85600   1.80940    0.000
 5743.00    1.84839   1.80796    0.000
 5744.00    1.85247   1.80510    0.000
 5745.00    1.86851   1.80280    0.000
 5746.00    1.88406   1.80068    0.000
 5747.00    1.89916   1.79774    0.000
 5748.00    1.89229   1.79355    0.000
 5749.00    1.86791   1.78789    0.000
 5750.00    1.85894   1.78259    0.000
 5751.00    1.86076   1.77895    0.000
 5752.00    1.86690   1.77722    0.000
 5753.00    1.87569   1.77618    0.000
 5754.00    1.85985   1.77538    0.000
 5755.00    1.83080   1.77411    0.000
 5756.00    1.83211   1.77340    0.000
 5757.00    1.84757   1.77327    0.000
 5758.00    1.85561   1.77345    0.000
 5759.00    1.86067   1.77418    0.000
 5760.00    1.85138   1.77599    0.000
 5761.00    1.83719   1.77837    0.000
 5762.00    1.84717   1.78171    0.000
 5763.00    1.86411   1.78662    0.000
 5764.00    1.88595   1.79280    0.000
 5765.00    1.90894   1.79994    0.000
 5766.00    1.92488   1.80659    0.000
 5767.00    1.93947   1.81263    0.000
 5768.00    1.93845   1.81612    0.000
 5769.00    1.93510   1.81761    0.000
 5770.00    1.94438   1.81645    0.000
 5771.00    1.95504   1.81318    0.000
 5772.00    1.93980   1.80868    0.000
 5773.00    1.92271   1.80165    0.000
 5774.00    1.88648   1.79299    0.000
 5775.00    1.84954   1.78208    0.000
 5776.00    1.84021   1.76840    0.000
 5777.00    1.83117   1.75276    0.000
 5778.00    1.82825   1.73666    0.000
 5779.00    1.82501   1.72123    0.000
 5780.00    1.81651   1.70649    0.000
 5781.00    1.80916   1.69205    0.000
 5782.00    1.81343   1.68196    0.000
 5783.00    1.81790   1.67750    0.000
 5784.00    1.82376   1.67667    0.000
 5785.00    1.82676   1.68183    0.000
 5786.00    1.81382   1.68991    0.000
 5787.00    1.80735   1.70030    0.000
 5788.00    1.82956   1.71421    0.000
 5789.00    1.84375   1.72851    0.000
 5790.00    1.82873   1.74430    0.000
 5791.00    1.82071   1.75888   -2.000
 5792.00    1.83403   1.77109   -2.000
 5793.00    1.84517   1.78213   -2.000
 5794.00    1.85061   1.79071   -2.000
 5795.00    1.85185   1.80106   -2.000
 5796.00    1.84371   1.81048   -2.000
 5797.00    1.84389   1.81740   -2.000
 5798.00    1.86016   1.82369   -2.000
 5799.00    1.87056   1.82775   -2.000
 5800.00    1.87109   1.83012   -2.000
 5801.00    1.88470   1.83182   -2.000
 5802.00    1.91766   1.83298   -2.000
 5803.00    1.93543   1.83330   -2.000
 5804.00    1.93344   1.83185   -2.000
 5805.00    1.92121   1.82918   -2.000
 5806.00    1.89726   1.82722   -2.000
 5807.00    1.88349   1.82510   -2.000
 5808.00    1.88000   1.82347   -2.000
 5809.00    1.87914   1.82271   -2.000
 5810.00    1.88061   1.82168   -2.000
 5811.00    1.88169   1.82049    0.000
 5812.00    1.88248   1.81924    0.000
 5813.00    1.89184   1.81895    0.000
 5814.00    1.90712   1.82066    0.000
 5815.00    1.91392   1.82239    0.000
 5816.00    1.91558   1.82512    0.000
 5817.00    1.91839   1.82877    0.000
 5818.00    1.92179   1.83281    0.000
 5819.00    1.92616   1.83790    0.000
 5820.00    1.93099   1.84296    0.000
 5821.00    1.92586   1.84862    0.000
 5822.00    1.91680   1.85277    0.000
 5823.00    1.90956   1.85566    0.000
 5824.00    1.90293   1.85775    0.000
 5825.00    1.89772   1.85914    0.000
 5826.00    1.89293   1.86023    0.000
 5827.00    1.90032   1.85990    0.000
 5828.00    1.91056   1.85947    0.000
 5829.00    1.90769   1.85821    0.000
 5830.00    1.90237   1.85605    0.000
 5831.00    1.88774   1.85346    0.000
 5832.00    1.87176   1.85150    0.000
 5833.00    1.88017   1.84976    0.000
 5834.00    1.89113   1.84726    0.000
 5835.00    1.89649   1.84601    0.000
 5836.00    1.90147   1.84603    0.000
 5837.00    1.89503   1.84674    0.000
 5838.00    1.88821   1.84758    0.000
 5839.00    1.87346   1.84864    0.000
 5840.00    1.85931   1.84922    0.000
 5841.00    1.86389   1.84776    0.000
 5842.00    1.86888   1.84530    0.000
 5843.00    1.87986   1.84099    0.000
 5844.00    1.88934   1.83516    0.000
 5845.00    1.88431   1.82736    0.000
 5846.00    1.87783   1.81776    0.000
 5847.00    1.86119   1.80700    0.000
 5848.00    1.84706   1.79479    0.000
 5849.00    1.84652   1.78215    0.000
 5850.00    1.84436   1.76998    0.000
 5851.00    1.83517   1.75853    0.000
 5852.00    1.82307   1.74733    0.000
 5853.00    1.80062   1.73614    0.000
 5854.00    1.78546   1.72628    0.000
 5855.00    1.79214   1.71960    0.000
 5856.00    1.79666   1.71433    0.000
 5857.00    1.79568   1.71262    0.000
 5858.00    1.79087   1.71231    0.000
 5859.00    1.77765   1.71390    0.000
 5860.00    1.77580   1.71748    0.000
 5861.00    1.79557   1.72237    0.000
 5862.00    1.81072   1.72913    0.000
 5863.00    1.81817   1.73527    0.000
 5864.00    1.82350   1.74285    0.000
 5865.00    1.82576   1.74943    0.000
 5866.00    1.82975   1.75584    0.000
 5867.00    1.83596   1.76161    0.000
 5868.00    1.84291   1.76673    0.000
 5869.00    1.85069   1.77040    0.000
 5870.00    1.85514   1.77282    0.000
 5871.00    1.85628   1.77495    0.000
 5872.00    1.84612   1.77421    0.000
 5873.00    1.82605   1.77146    0.000
 5874.00    1.81552   1.76604    0.000
 5875.00    1.81238   1.75909    0.000
 5876.00    1.80156   1.74974    0.000
 5877.00    1.78553   1.73892    0.000
 5878.00    1.77240   1.72690    0.000
 5879.00    1.76101   1.71135    0.000
 5880.00    1.74644   1.69286    0.000
 5881.00    1.73021   1.67110    0.000
 5882.00    1.70777   1.64543    0.000
 5883.00    1.68252   1.61417    0.000
 5884.00    1.65970   1.57730    0.000
 5885.00    1.63782   1.53588    0.000
 5886.00    1.60304   1.49147    0.000
 5887.00    1.56401   1.44950    0.000
 5888.00    1.51563   1.41096    0.000
 5889.00    1.46465   1.37601    0.000
 5890.00    1.43980   1.34765    0.000
 5891.00    1.42089   1.32645    0.000
 5892.00    1.41389   1.31496    0.000
 5893.00    1.40905   1.31738    0.000
 5894.00    1.42781   1.33309    0.000
 5895.00    1.44988   1.35765    0.000
 5896.00    1.47245   1.38710    0.000
 5897.00    1.49508   1.42159    0.000
 5898.00    1.53212   1.45925    0.000
 5899.00    1.57008   1.49745    0.000
 5900.00    1.61885   1.53826    0.000
 5901.00    1.66785   1.57726    0.048
 5902.00    1.68280   1.61007    0.048
 5903.00    1.69730   1.63795    0.048
 5904.00    1.69887   1.66109    0.047
 5905.00    1.70122   1.67889    0.047
 5906.00    1.71467   1.69188    0.047
 5907.00    1.72694   1.70159    0.047
 5908.00    1.72826   1.70759    0.047
 5909.00    1.72950   1.71053    0.047
 5910.00    1.73022   1.71111    0.047
 5911.00    1.72993   1.71093    0.046
 5912.00    1.72429   1.70960    0.046
 5913.00    1.71915   1.70812    0.046
 5914.00    1.71610   1.70759    0.045
 5915.00    1.71906   1.70710    0.045
 5916.00    1.74304   1.70817    0.046
 5917.00    1.76527   1.70943    0.046
 5918.00    1.78232   1.71253    0.046
 5919.00    1.78819   1.71645    0.046
 5920.00    1.76600   1.72092    0.046
 5921.00    1.74702   1.72523    0.046
 5922.00    1.73498   1.72859    0.046
 5923.00    1.73620   1.73115    0.047
 5924.00    1.76226   1.73240    0.048
 5925.00    1.77927   1.73291    0.048
 5926.00    1.78144   1.73257    0.048
 5927.00    1.77445   1.73281    0.048
 5928.00    1.75429   1.73212    0.047
 5929.00    1.74145   1.73118    0.047
 5930.00    1.73785   1.73025    0.048
 5931.00    1.74198   1.72894    0.048
 5932.00    1.75471   1.72936    0.047
 5933.00    1.76365   1.72972    0.047
 5934.00    1.76885   1.73100    0.048
 5935.00    1.77429   1.73292    0.048
 5936.00    1.77993   1.73392    0.048
 5937.00    1.78339   1.73463    0.067
 5938.00    1.78518   1.73553    0.234
 5939.00    1.78463   1.73763   -1.000
 5940.00    1.78251   1.73952   -1.000
 5941.00    1.78147   1.74070   -1.000
 5942.00    1.78106   1.74177   -1.000
 5943.00    1.77701   1.74209   -1.000
 5944.00    1.77111   1.74121   -1.000
 5945.00    1.77545   1.74032   -1.000
 5946.00    1.78432   1.73946   -1.000
 5947.00    1.79637   1.73776   -1.000
 5948.00    1.80963   1.73532   -1.000
 5949.00    1.81235   1.73208    0.122
 5950.00    1.81166   1.72904    0.053
 5951.00    1.79470   1.72607    0.047
 5952.00    1.77334   1.72352    0.047
 5953.00    1.75822   1.72270    0.047
 5954.00    1.74449   1.72361    0.047
 5955.00    1.74573   1.72534    0.047
 5956.00    1.74963   1.72790    0.047
 5957.00    1.75546   1.73261    0.047
 5958.00    1.76155   1.73852    0.048
 5959.00    1.76604   1.74392    0.048
 5960.00    1.77038   1.74951    0.048
 5961.00    1.78591   1.75585    0.048
 5962.00    1.80210   1.76151    0.048
 5963.00    1.80274   1.76735    0.048
 5964.00    1.80297   1.77202    0.048
 5965.00    1.80216   1.77618    0.048
 5966.00    1.80145   1.77915    0.048
 5967.00    1.80338   1.78155    0.047
 5968.00    1.80590   1.78305    0.046
 5969.00    1.81616   1.78269    0.047
 5970.00    1.82576   1.78195    0.047
 5971.00    1.82948   1.77923    0.046
 5972.00    1.83131   1.77490    0.046
 5973.00    1.82069   1.76928    0.046
 5974.00    1.80947   1.76333    0.046
 5975.00    1.79519   1.75638    0.046
 5976.00    1.78118   1.74977    0.046
 5977.00    1.76826   1.74320    0.046
 5978.00    1.75786   1.73665    0.045
 5979.00    1.75609   1.73108    0.045
 5980.00    1.75730   1.72652    0.045
 5981.00    1.76711   1.72368    0.045
 5982.00    1.77191   1.72209    0.045
 5983.00    1.76435   1.72179    0.046
 5984.00    1.75607   1.72266    0.046
 5985.00    1.74624   1.72420    0.046
 5986.00    1.74644   1.72705    0.046
 5987.00    1.76515   1.73068    0.047
 5988.00    1.77553   1.73541    0.047
 5989.00    1.77247   1.74143    0.047
 5990.00    1.77155   1.74587    0.047
 5991.00    1.77362   1.74924    0.047
 5992.00    1.77196   1.75147    0.048
 5993.00    1.76564   1.75225    0.047
 5994.00    1.75793   1.75156    0.047
 5995.00    1.74869   1.74959    0.047
 5996.00    1.74763   1.74730    0.047
 5997.00    1.75449   1.74390    0.046
 5998.00    1.75958   1.73992    0.046
 5999.00    1.76318   1.73521    0.047
 6000.00    1.75558   1.73056    0.046
 6001.00    1.73957   1.72600    0.046
 6002.00    1.72754   1.72148    0.045
 6003.00    1.71815   1.71784    0.045
 6004.00    1.72460   1.71426    0.045
 6005.00    1.74020   1.71129    0.045
 6006.00    1.74726   1.70836    0.045
 6007.00    1.75002   1.70643    0.045
 6008.00    1.74342   1.70530    0.045
 6009.00    1.73274   1.70376    0.045
 6010.00    1.71905   1.70291    0.045
 6011.00    1.70423   1.70178    0.045
 6012.00    1.70023   1.70138    0.045
 6013.00    1.69967   1.70130    0.046
 6014.00    1.69986   1.70021    0.046
 6015.00    1.70025   1.69891    0.046
 6016.00    1.69025   1.69753    0.046
 6017.00    1.67800   1.69753    0.047
 6018.00    1.66382   1.69857    0.047
 6019.00    1.64930   1.70077    0.047
 6020.00    1.66810   1.70389    0.047
 6021.00    1.69124   1.70885    0.048
 6022.00    1.72981   1.71548    0.048
 6023.00    1.76979   1.72249    0.048
 6024.00    1.76909   1.73135    0.047
 6025.00    1.76612   1.74036    0.047
 6026.00    1.76587   1.75024    0.047
 6027.00    1.76574   1.75951    0.046
 6028.00    1.77148   1.76859    0.046
 6029.00    1.77779   1.77716    0.046
 6030.00    1.79763   1.78405    0.046
 6031.00    1.81691   1.79053    0.045
 6032.00    1.82909   1.79578    0.045
 6033.00    1.83951   1.79978    0.045
 6034.00    1.83472   1.80235    0.045
 6035.00    1.83029   1.80465    0.045
 6036.00    1.82819   1.80593    0.045
 6037.00    1.82592   1.80724    0.045
 6038.00    1.82280   1.80817    0.045
 6039.00    1.81758   1.80938    0.046
 6040.00    1.80384   1.81112    0.045
 6041.00    1.79521   1.81286    0.045
 6042.00    1.80369   1.81549    0.045
 6043.00    1.80918   1.81722    0.046
 6044.00    1.80614   1.82026    0.046
 6045.00    1.80414   1.82189    0.046
 6046.00    1.80462   1.82341    0.046
 6047.00    1.80797   1.82358    0.046
 6048.00    1.81732   1.82232    0.047
 6049.00    1.81792   1.82012    0.047
 6050.00    1.80263   1.81609    0.047
 6051.00    1.78632   1.81186    0.047
 6052.00    1.76839   1.80614    0.047
 6053.00    1.76184   1.80139    0.048
 6054.00    1.77114   1.79607    0.048
 6055.00    1.77844   1.79125    0.048
 6056.00    1.78330   1.78656    0.048
 6057.00    1.78333   1.78239    0.047
 6058.00    1.77813   1.77911    0.046
 6059.00    1.77468   1.77560    0.046
 6060.00    1.77292   1.77366    0.046
 6061.00    1.77010   1.77305    0.046
 6062.00    1.76639   1.77356    0.046
 6063.00    1.76479   1.77556    0.046
 6064.00    1.76476   1.77869    0.045
 6065.00    1.76337   1.78379    0.045
 6066.00    1.76111   1.78998    0.045
 6067.00    1.76185   1.79752    0.045
 6068.00    1.76429   1.80511    0.044
 6069.00    1.77241   1.81252    0.044
 6070.00    1.78334   1.81913    0.045
 6071.00    1.79252   1.82327    0.045
 6072.00    1.80095   1.82439    0.045
 6073.00    1.80871   1.82263    0.046
 6074.00    1.81621   1.81870    0.046
 6075.00    1.80335   1.81215    0.046
 6076.00    1.78413   1.80382    0.046
 6077.00    1.77024   1.79463    0.046
 6078.00    1.75773   1.78553    0.046
 6079.00    1.74694   1.77609    0.046
 6080.00    1.73651   1.76784    0.046
 6081.00    1.73693   1.76081    0.046
 6082.00    1.73917   1.75508    0.046
 6083.00    1.74461   1.75118    0.046
 6084.00    1.75046   1.74770    0.047
 6085.00    1.75319   1.74542    0.047
 6086.00    1.75565   1.74423    0.047
 6087.00    1.75642   1.74380    0.046
 6088.00    1.75710   1.74356    0.046
 6089.00    1.75006   1.74437    0.045
 6090.00    1.74271   1.74528    0.045
 6091.00    1.72338   1.74660    0.045
 6092.00    1.70554   1.74813    0.044
 6093.00    1.71956   1.74952    0.044
 6094.00    1.73392   1.75075    0.045
 6095.00    1.75250   1.75123    0.044
 6096.00    1.76843   1.74999    0.044
 6097.00    1.76244   1.74731    0.044
 6098.00    1.75490   1.74536    0.044
 6099.00    1.73775   1.74165    0.044
 6100.00    1.72083   1.73827    0.045
 6101.00    1.70497   1.73501    0.045
 6102.00    1.69173   1.73321    0.045
 6103.00    1.68883   1.73351    0.045
 6104.00    1.68896   1.73541    0.045
 6105.00    1.69910   1.73873    0.046
 6106.00    1.71110   1.74320    0.047
 6107.00    1.72829   1.75033    0.046
 6108.00    1.73906   1.75730    0.046
 6109.00    1.73457   1.76364    0.046
 6110.00    1.73307   1.76861    0.046
 6111.00    1.73772   1.77156    0.047
 6112.00    1.74672   1.77325    0.047
 6113.00    1.76351   1.77241    0.047
 6114.00    1.77158   1.76880    0.047
 6115.00    1.76599   1.76346    0.046
 6116.00    1.75549   1.75608    0.046
 6117.00    1.73824   1.74819    0.046
 6118.00    1.72337   1.74015    0.045
 6119.00    1.71136   1.73196    0.045
 6120.00    1.70446   1.72485    0.045
 6121.00    1.70301   1.71978    0.045
 6122.00    1.70442   1.71672    0.044
 6123.00    1.70851   1.71566    0.044
 6124.00    1.71209   1.71695    0.044
 6125.00    1.71523   1.71922    0.045
 6126.00    1.71484   1.72231    0.045
 6127.00    1.71189   1.72577    0.044
 6128.00    1.71469   1.72699    0.044
 6129.00    1.72119   1.72627    0.044
 6130.00    1.72223   1.72294    0.044
 6131.00    1.72022   1.71693    0.044
 6132.00    1.70218   1.71015    0.045
 6133.00    1.67633   1.70261    0.045
 6134.00    1.65516   1.69538    0.045
 6135.00    1.63595   1.68886    0.046
 6136.00    1.63969   1.68488    0.046
 6137.00    1.65171   1.68431    0.046
 6138.00    1.66510   1.68701    0.047
 6139.00    1.67891   1.69304    0.047
 6140.00    1.68454   1.70131    0.047
 6141.00    1.68808   1.71166    0.047
 6142.00    1.68843   1.72271    0.046
 6143.00    1.68812   1.73251    0.046
 6144.00    1.69586   1.74032    0.046
 6145.00    1.70490   1.74540    0.045
 6146.00    1.71339   1.74789    0.045
 6147.00    1.72181   1.74813    0.045
 6148.00    1.71878   1.74570    0.044
 6149.00    1.71480   1.74151    0.044
 6150.00    1.70253   1.73538    0.044
 6151.00    1.68987   1.72766    0.044
 6152.00    1.67761   1.71834    0.044
 6153.00    1.66545   1.70696    0.044
 6154.00    1.65832   1.69394    0.044
 6155.00    1.65146   1.67838    0.044
 6156.00    1.64979   1.66149    0.044
 6157.00    1.64735   1.64320    0.044
 6158.00    1.63603   1.62440    0.045
 6159.00    1.62385   1.60653    0.045
 6160.00    1.60482   1.58974    0.045
 6161.00    1.58529   1.57599    0.045
 6162.00    1.56276   1.56542    0.045
 6163.00    1.54269   1.55867    0.045
 6164.00    1.53433   1.55562    0.045
 6165.00    1.53012   1.55647    0.045
 6166.00    1.54203   1.56081    0.045
 6167.00    1.55755   1.56736    0.045
 6168.00    1.58477   1.57621    0.046
 6169.00    1.60428   1.58575    0.046
 6170.00    1.60273   1.59606    0.046
 6171.00    1.60107   1.60641    0.045
 6172.00    1.59915   1.61648    0.045
 6173.00    1.60031   1.62687    0.045
 6174.00    1.60773   1.63675    0.044
 6175.00    1.60856   1.64638    0.044
 6176.00    1.59778   1.65503    0.044
 6177.00    1.59118   1.66267    0.044
 6178.00    1.59101   1.66818    0.043
 6179.00    1.59362   1.67200    0.043
 6180.00    1.59998   1.67373    0.043
 6181.00    1.60757   1.67333    0.044
 6182.00    1.61664   1.67070    0.044
 6183.00    1.62457   1.66540    0.044
 6184.00    1.63131   1.65865    0.043
 6185.00    1.63375   1.65023    0.044
 6186.00    1.63220   1.64129    0.045
 6187.00    1.62750   1.63281    0.045
 6188.00    1.62021   1.62526    0.046
 6189.00    1.60913   1.61956    0.046
 6190.00    1.59532   1.61615    0.045
 6191.00    1.58351   1.61542    0.045
 6192.00    1.57295   1.61687    0.045
 6193.00    1.57228   1.62091    0.045
 6194.00    1.57707   1.62623    0.046
 6195.00    1.57495   1.63257    0.047
 6196.00    1.56951   1.63939   -2.000
 6197.00    1.57975   1.64580   -2.000
 6198.00    1.59648   1.65244   -2.000
 6199.00    1.63644   1.65815   -2.000
 6200.00    1.68463   1.66304   -2.000
 6201.00    1.68243   1.66732   -2.000
 6202.00    1.66515   1.67069   -2.000
 6203.00    1.62958   1.67294   -2.000
 6204.00    1.58947   1.67383   -2.000
 6205.00    1.58875   1.67262   -2.000
 6206.00    1.59596   1.66946   -2.000
 6207.00    1.60182   1.66375   -2.000
 6208.00    1.60748   1.65533    0.045
 6209.00    1.59998   1.64479    0.044
 6210.00    1.59095   1.63254    0.044
 6211.00    1.58009   1.61929    0.044
 6212.00    1.56909   1.60588    0.043
 6213.00    1.55985   1.59323    0.043
 6214.00    1.55069   1.58211    0.043
 6215.00    1.55534   1.57317    0.043
 6216.00    1.56036   1.56625    0.043
 6217.00    1.57650   1.56206    0.044
 6218.00    1.59190   1.56006    0.045
 6219.00    1.59403   1.55982    0.045
 6220.00    1.59530   1.56116    0.045
 6221.00    1.58696   1.56310    0.045
 6222.00    1.57899   1.56471    0.045
 6223.00    1.57393   1.56585    0.045
 6224.00    1.56984   1.56627    0.045
 6225.00    1.57146   1.56550    0.044
 6226.00    1.57109   1.56476    0.044
 6227.00    1.56147   1.56330    0.044
 6228.00    1.55312   1.56220    0.044
 6229.00    1.54952   1.56123    0.044
 6230.00    1.55056   1.56125    0.044
 6231.00    1.56632   1.56266    0.043
 6232.00    1.57888   1.56436    0.043
 6233.00    1.58287   1.56710    0.043
 6234.00    1.58432   1.56916    0.043
 6235.00    1.57992   1.57056    0.043
 6236.00    1.57717   1.57056    0.043
 6237.00    1.57774   1.56983    0.043
 6238.00    1.57541   1.56732    0.043
 6239.00    1.56809   1.56366    0.043
 6240.00    1.56284   1.55997    0.043
 6241.00    1.56076   1.55585    0.043
 6242.00    1.55454   1.55274    0.044
 6243.00    1.54278   1.55066    0.044
 6244.00    1.53688   1.54967    0.044
 6245.00    1.53788   1.54964    0.044
 6246.00    1.54199   1.54983    0.044
 6247.00    1.54934   1.55008    0.044
 6248.00    1.54744   1.54845    0.045
 6249.00    1.53708   1.54566    0.044
 6250.00    1.52333   1.54171    0.044
 6251.00    1.50685   1.53590    0.044
 6252.00    1.49745   1.52996    0.044
 6253.00    1.49308   1.52379    0.044
 6254.00    1.49189   1.51888    0.044
 6255.00    1.49267   1.51519    0.044
 6256.00    1.50072   1.51473    0.044
 6257.00    1.51271   1.51643    0.043
 6258.00    1.52187   1.52159    0.044
 6259.00    1.52970   1.52955    0.045
 6260.00    1.54562   1.53926    0.046
 6261.00    1.56484   1.55021    0.048
 6262.00    1.58216   1.56110    0.050
 6263.00    1.59882   1.57214    0.051
 6264.00    1.59003   1.58196    0.051
 6265.00    1.57378   1.59120    0.049
 6266.00    1.56590   1.59860    0.047
 6267.00    1.56006   1.60471    0.046
 6268.00    1.56393   1.60993    0.045
 6269.00    1.56969   1.61410    0.044
 6270.00    1.58547   1.61724    0.044
 6271.00    1.60277   1.62009    0.044
 6272.00    1.62013   1.62246    0.044
 6273.00    1.63750   1.62421    0.044
 6274.00    1.63030   1.62524    0.044
 6275.00    1.62126   1.62591    0.044
 6276.00    1.60734   1.62643    0.044
 6277.00    1.59323   1.62674    0.044
 6278.00    1.58669   1.62753    0.044
 6279.00    1.58035   1.62862    0.044
 6280.00    1.57998   1.63065    0.000
 6281.00    1.58014   1.63358    0.000
 6282.00    1.58926   1.63739    0.000
 6283.00    1.59824   1.64178    0.000
 6284.00    1.60571   1.64647    0.000
 6285.00    1.61364   1.65088    0.000
 6286.00    1.62506   1.65446    0.000
 6287.00    1.63561   1.65715    0.000
 6288.00    1.64116   1.65800    0.000
 6289.00    1.64488   1.65726    0.000
 6290.00    1.64026   1.65452    0.000
 6291.00    1.63438   1.65015    0.000
 6292.00    1.62384   1.64464    0.000
 6293.00    1.61396   1.63823    0.000
 6294.00    1.60612   1.63149    0.000
 6295.00    1.60064   1.62497    0.000
 6296.00    1.60135   1.61896    0.000
 6297.00    1.60409   1.61435    0.000
 6298.00    1.61142   1.61112    0.000
 6299.00    1.61597   1.60975    0.000
 6300.00    1.61507   1.61013    0.000
 6301.00    1.61150   1.61205    0.000
 6302.00    1.60333   1.61539    0.000
 6303.00    1.59758   1.62000    0.000
 6304.00    1.59542   1.62512    0.000
 6305.00    1.59463   1.63004    0.000
 6306.00    1.59562   1.63423    0.000
 6307.00    1.59626   1.63698    0.000
 6308.00    1.59650   1.63825    0.000
 6309.00    1.59838   1.63754    0.000
 6310.00    1.60195   1.63515    0.000
 6311.00    1.60081   1.63105    0.000
 6312.00    1.59541   1.62610    0.000
 6313.00    1.58415   1.62071    0.000
 6314.00    1.56823   1.61568    0.000
 6315.00    1.55966   1.61155    0.000
 6316.00    1.55624   1.60909    0.000
 6317.00    1.55564   1.60849    0.000
 6318.00    1.55676   1.61033    0.000
 6319.00    1.55909   1.61408    0.000
 6320.00    1.56208   1.61965    0.000
 6321.00    1.56799   1.62665    0.043
 6322.00    1.57526   1.63448    0.043
 6323.00    1.58092   1.64252    0.044
 6324.00    1.58594   1.65001    0.044
 6325.00    1.59411   1.65694    0.044
 6326.00    1.60335   1.66202    0.044
 6327.00    1.62471   1.66584    0.044
 6328.00    1.64957   1.66752    0.044
 6329.00    1.65227   1.66748    0.043
 6330.00    1.64970   1.66577    0.043
 6331.00    1.63039   1.66249    0.043
 6332.00    1.60788   1.65840    0.043
 6333.00    1.59522   1.65348    0.043
 6334.00    1.58402   1.64877    0.042
 6335.00    1.58179   1.64431    0.042
 6336.00    1.58054   1.64064    0.042
 6337.00    1.57808   1.63819    0.042
 6338.00    1.57554   1.63656    0.042
 6339.00    1.57392   1.63640    0.042
 6340.00    1.57232   1.63688    0.041
 6341.00    1.57204   1.63845    0.042
 6342.00    1.57184   1.64070    0.042
 6343.00    1.57431   1.64352    0.042
 6344.00    1.57694   1.64672    0.043
 6345.00    1.58215   1.64982    0.043
 6346.00    1.58706   1.65274    0.043
 6347.00    1.58899   1.65469    0.043
 6348.00    1.59089   1.65568    0.043
 6349.00    1.59265   1.65493    0.043
 6350.00    1.59470   1.65240    0.043
 6351.00    1.59836   1.64779    0.044
 6352.00    1.60052   1.64109    0.045
 6353.00    1.59606   1.63257    0.044
 6354.00    1.58695   1.62253    0.044
 6355.00    1.56094   1.61163    0.043
 6356.00    1.53840   1.60072    0.043
 6357.00    1.52642   1.59057    0.043
 6358.00    1.51897   1.58202    0.043
 6359.00    1.52324   1.57582    0.042
 6360.00    1.52661   1.57258    0.042
 6361.00    1.52800   1.57266    0.042
 6362.00    1.53442   1.57621    0.043
 6363.00    1.55054   1.58301    0.043
 6364.00    1.56923   1.59272    0.043
 6365.00    1.59225   1.60452    0.043
 6366.00    1.61176   1.61772    0.043
 6367.00    1.62608   1.63163    0.043
 6368.00    1.63511   1.64531    0.044
 6369.00    1.63727   1.65802    0.044
 6370.00    1.63674   1.66927    0.044
 6371.00    1.63315   1.67871    0.044
 6372.00    1.62667   1.68599    0.044
 6373.00    1.61729   1.69115    0.044
 6374.00    1.60490   1.69430    0.044
 6375.00    1.58983   1.69576    0.044
 6376.00    1.57716   1.69583    0.044
 6377.00    1.56637   1.69494    0.044
 6378.00    1.56149   1.69353    0.043
 6379.00    1.56068   1.69215    0.043
 6380.00    1.56614   1.69079    0.043
 6381.00    1.57538   1.68978    0.043
 6382.00    1.58512   1.68900    0.043
 6383.00    1.59513   1.68863    0.042
 6384.00    1.60576   1.68821    0.042
 6385.00    1.61667   1.68756    0.042
 6386.00    1.61855   1.68640    0.042
 6387.00    1.61688   1.68466    0.042
 6388.00    1.61210   1.68216    0.042
 6389.00    1.60628   1.67904    0.042
 6390.00    1.59704   1.67545    0.042
 6391.00    1.58682   1.67170    0.042
 6392.00    1.58593   1.66799    0.042
 6393.00    1.58720   1.66498    0.043
 6394.00    1.59648   1.66249    0.044
 6395.00    1.60725   1.66105    0.045
 6396.00    1.60058   1.66048    0.045
 6397.00    1.59141   1.66099    0.045
 6398.00    1.58125   1.66244    0.044
 6399.00    1.57099   1.66446    0.044
 6400.00    1.57023   1.66718    0.044
 6401.00    1.57010   1.66997    0.044
 6402.00    1.59296   1.67300    0.044
 6403.00    1.61656   1.67539    0.044
 6404.00    1.62315   1.67722    0.043
 6405.00    1.62912   1.67817    0.043
 6406.00    1.61595   1.67832    0.043
 6407.00    1.60304   1.67772    0.043
 6408.00    1.59413   1.67673    0.042
 6409.00    1.58489   1.67554    0.042
 6410.00    1.57259   1.67410    0.042
 6411.00    1.56034   1.67275    0.041
 6412.00    1.54837   1.67153    0.042
 6413.00    1.54127   1.67054    0.042
 6414.00    1.56040   1.66972    0.042
 6415.00    1.57669   1.66922    0.042
 6416.00    1.58073   1.66896    0.042
 6417.00    1.58249   1.66925    0.043
 6418.00    1.57616   1.66989    0.043
 6419.00    1.57030   1.67127    0.043
 6420.00    1.56587   1.67336    0.043
 6421.00    1.56374   1.67597    0.044
 6422.00    1.56746   1.67905    0.043
 6423.00    1.57475   1.68207    0.043
 6424.00    1.58988   1.68487    0.044
 6425.00    1.60205   1.68687    0.044
 6426.00    1.60860   1.68811    0.044
 6427.00    1.61231   1.68832    0.044
 6428.00    1.61133   1.68777    0.044
 6429.00    1.60899   1.68673    0.044
 6430.00    1.60471   1.68539    0.044
 6431.00    1.59784   1.68436    0.044
 6432.00    1.58766   1.68353    0.043
 6433.00    1.58062   1.68361    0.043
 6434.00    1.57713   1.68425    0.042
 6435.00    1.57883   1.68592    0.042
 6436.00    1.58570   1.68822    0.042
 6437.00    1.58772   1.69129    0.042
 6438.00    1.58550   1.69469    0.042
 6439.00    1.58674   1.69825    0.042
 6440.00    1.59067   1.70147    0.043
 6441.00    1.60004   1.70388    0.043
 6442.00    1.61312   1.70501    0.043
 6443.00    1.61621   1.70441    0.043
 6444.00    1.61337   1.70198    0.043
 6445.00    1.59904   1.69782    0.043
 6446.00    1.57876   1.69235    0.043
 6447.00    1.55613   1.68624    0.044
 6448.00    1.53246   1.68034    0.045
 6449.00    1.53263   1.67538    0.047
 6450.00    1.54203   1.67217    0.050
 6451.00    1.56124   1.67078    0.050
 6452.00    1.58367   1.67159    0.050
 6453.00    1.59639   1.67406    0.049
 6454.00    1.60642   1.67790    0.049
 6455.00    1.60008   1.68228    0.046
 6456.00    1.59003   1.68666    0.043
 6457.00    1.58604   1.69047    0.042
 6458.00    1.58314   1.69341    0.042
 6459.00    1.58104   1.69547    0.042
 6460.00    1.57906   1.69680    0.042
 6461.00    1.57733   1.69772    0.041
 6462.00    1.57563   1.69831    0.041
 6463.00    1.58288   1.69918    0.041
 6464.00    1.59071   1.70019    0.042
 6465.00    1.60415   1.70177    0.042
 6466.00    1.61770   1.70342    0.043
 6467.00    1.61849   1.70540    0.043
 6468.00    1.61916   1.70699    0.043
 6469.00    1.61652   1.70843    0.044
 6470.00    1.61458   1.70923    0.044
 6471.00    1.62253   1.70948    0.044
 6472.00    1.62981   1.70907    0.044
 6473.00    1.63089   1.70793    0.045
 6474.00    1.63144   1.70619    0.045
 6475.00    1.62840   1.70354    0.044
 6476.00    1.62537   1.70043    0.044
 6477.00    1.62233   1.69656    0.044
 6478.00    1.61649   1.69240    0.044
 6479.00    1.59877   1.68789    0.043
 6480.00    1.58112   1.68336    0.043
 6481.00    1.56372   1.67883    0.042
 6482.00    1.55345   1.67431    0.042
 6483.00    1.56406   1.66966    0.042
 6484.00    1.57701   1.66439    0.042
 6485.00    1.59580   1.65825    0.041
 6486.00    1.60472   1.65046    0.041
 6487.00    1.59237   1.64087    0.041
 6488.00    1.57310   1.62902    0.042
 6489.00    1.54090   1.61530    0.041
 6490.00    1.51732   1.59998    0.041
 6491.00    1.50782   1.58412    0.042
 6492.00    1.49844   1.56878    0.043
 6493.00    1.48921   1.55534    0.043
 6494.00    1.48266   1.54495    0.043
 6495.00    1.47948   1.53875    0.043
 6496.00    1.47722   1.53713    0.043
 6497.00    1.47600   1.54049    0.043
 6498.00    1.48517   1.54815    0.043
 6499.00    1.50455   1.55981    0.043
 6500.00    1.52535   1.57388    0.043
 6501.00    1.54740   1.58976    0.042
 6502.00    1.55899   1.60578    0.042
 6503.00    1.56264   1.62136    0.042
 6504.00    1.56720   1.63540    0.042
 6505.00    1.57239   1.64762    0.042
 6506.00    1.57742   1.65760    0.041
 6507.00    1.58235   1.66544    0.041
 6508.00    1.58777   1.67116    0.041
 6509.00    1.59344   1.67500    0.041
 6510.00    1.59592   1.67726    0.041
 6511.00    1.59699   1.67824    0.041
 6512.00    1.58546   1.67834    0.041
 6513.00    1.56914   1.67781    0.042
 6514.00    1.56755   1.67707    0.042
 6515.00    1.57071   1.67639    0.042
 6516.00    1.57424   1.67605    0.043
 6517.00    1.57787   1.67626    0.043
 6518.00    1.57361   1.67702    0.043
 6519.00    1.56761   1.67843    0.044
 6520.00    1.57338   1.68016    0.044
 6521.00    1.58123   1.68223    0.043
 6522.00    1.57665   1.68413    0.043
 6523.00    1.57040   1.68593    0.043
 6524.00    1.56422   1.68719    0.043
 6525.00    1.55805   1.68812    0.043
 6526.00    1.56540   1.68854    0.043
 6527.00    1.57354   1.68874    0.042
 6528.00    1.57432   1.68881    0.000
 6529.00    1.57499   1.68895    0.000
 6530.00    1.58747   1.68941    0.000
 6531.00    1.60011   1.69014    0.000
 6532.00    1.61654   1.69135    0.000
 6533.00    1.63170   1.69273    0.000
 6534.00    1.62981   1.69435    0.000
 6535.00    1.62799   1.69564    0.000
 6536.00    1.62681   1.69659    0.000
 6537.00    1.62536   1.69657    0.000
 6538.00    1.62206   1.69559    0.000
 6539.00    1.61876   1.69322    0.000
 6540.00    1.61545   1.68966    0.000
 6541.00    1.61047   1.68474    0.000
 6542.00    1.59858   1.67896    0.000
 6543.00    1.58843   1.67230    0.000
 6544.00    1.58420   1.66538    0.000
 6545.00    1.58381   1.65815    0.000
 6546.00    1.59451   1.65111    0.000
 6547.00    1.60421   1.64399    0.000
 6548.00    1.61141   1.63702    0.000
 6549.00    1.61220   1.62973    0.000
 6550.00    1.59939   1.62212    0.000
 6551.00    1.58566   1.61367    0.000
 6552.00    1.57022   1.60430    0.000
 6553.00    1.55383   1.59365    0.000
 6554.00    1.53593   1.58177    0.000
 6555.00    1.51713   1.56859    0.000
 6556.00    1.49706   1.55455    0.000
 6557.00    1.48513   1.54002    0.000
 6558.00    1.48329   1.52590    0.000
 6559.00    1.48836   1.51302    0.000
 6560.00    1.50098   1.50248    0.000
 6561.00    1.50623   1.49517    0.000
 6562.00    1.50437   1.49169    0.000
 6563.00    1.49968   1.49249    0.000
 6564.00    1.49260   1.49718    0.000
 6565.00    1.48938   1.50539    0.000
 6566.00    1.48906   1.51588    0.000
 6567.00    1.49551   1.52784    0.000
 6568.00    1.50642   1.54000    0.000
 6569.00    1.50636   1.55175    0.000
 6570.00    1.49998   1.56241    0.000
 6571.00    1.50560   1.57194    0.000
 6572.00    1.51726   1.58027    0.000
 6573.00    1.52899   1.58779    0.000
 6574.00    1.54076   1.59460    0.000
 6575.00    1.54345   1.60116    0.000
 6576.00    1.54275   1.60735    0.000
 6577.00    1.55833   1.61348    0.000
 6578.00    1.57907   1.61919    0.000
 6579.00    1.61481   1.62466    0.000
 6580.00    1.65452   1.62946    0.000
 6581.00    1.68365   1.63372    0.000
 6582.00    1.71049   1.63704    0.000
 6583.00    1.71449   1.63951    0.000
 6584.00    1.71457   1.64078    0.000
 6585.00    1.70126   1.64091    0.000
 6586.00    1.68622   1.63966    0.000
 6587.00    1.66373   1.63727    0.000
 6588.00    1.64056   1.63363    0.000
 6589.00    1.61741   1.62934    0.000
 6590.00    1.59426   1.62453    0.000
 6591.00    1.55816   1.62004    0.000
 6592.00    1.52196   1.61605    0.000
 6593.00    1.50130   1.61330    0.000
 6594.00    1.48209   1.61185    0.000
 6595.00    1.49599   1.61195    0.000
 6596.00    1.51071   1.61331    0.000
 6597.00    1.53568   1.61569    0.000
 6598.00    1.55826   1.61855    0.000
 6599.00    1.56034   1.62139    0.000
 6600.00    1.56014   1.62374    0.000
 6601.00    1.54549   1.62529    0.000
 6602.00    1.53371   1.62586    0.000
 6603.00    1.53627   1.62558    0.000
 6604.00    1.53979   1.62462    0.000
 6605.00    1.54719   1.62347    0.000
 6606.00    1.55098   1.62248    0.000
 6607.00    1.54275   1.62217    0.000
 6608.00    1.53553   1.62278    0.000
 6609.00    1.53118   1.62454    0.043
 6610.00    1.53062   1.62740    0.043
 6611.00    1.53922   1.63115    0.043
 6612.00    1.54687   1.63553    0.044
 6613.00    1.55252   1.64003    0.044
 6614.00    1.55400   1.64431    0.044
 6615.00    1.54791   1.64784    0.043
 6616.00    1.54531   1.65042    0.043
 6617.00    1.54822   1.65168    0.042
 6618.00    1.55382   1.65161    0.042
 6619.00    1.56316   1.65013    0.042
 6620.00    1.56890   1.64737    0.042
 6621.00    1.57024   1.64356    0.042
 6622.00    1.56517   1.63885    0.041
 6623.00    1.55320   1.63364    0.041
 6624.00    1.54054   1.62804    0.041
 6625.00    1.52725   1.62247    0.042
 6626.00    1.51850   1.61695    0.042
 6627.00    1.51357   1.61182    0.042
 6628.00    1.50891   1.60707    0.042
 6629.00    1.50445   1.60295    0.042
 6630.00    1.49478   1.59949    0.043
 6631.00    1.48173   1.59684    0.043
 6632.00    1.47758   1.59508    0.043
 6633.00    1.47850   1.59418    0.043
 6634.00    1.48633   1.59413    0.043
 6635.00    1.49759   1.59476    0.043
 6636.00    1.50733   1.59591    0.043
 6637.00    1.51643   1.59733    0.043
 6638.00    1.51340   1.59882    0.043
 6639.00    1.50593   1.60019    0.043
 6640.00    1.49728   1.60133    0.042
 6641.00    1.48825   1.60222    0.042
 6642.00    1.48782   1.60286    0.041
 6643.00    1.48960   1.60331    0.041
 6644.00    1.49430   1.60364    0.041
 6645.00    1.49961   1.60389    0.041
 6646.00    1.50270   1.60412    0.041
 6647.00    1.50542   1.60424    0.041
 6648.00    1.50847   1.60430    0.042
 6649.00    1.51155   1.60412    0.042
 6650.00    1.50775   1.60374    0.042
 6651.00    1.50334   1.60295    0.042
 6652.00    1.48871   1.60177    0.042
 6653.00    1.47355   1.60007    0.043
 6654.00    1.46857   1.59784    0.042
 6655.00    1.46393   1.59505    0.042
 6656.00    1.47021   1.59171    0.043
 6657.00    1.47602   1.58796    0.043
 6658.00    1.47196   1.58386    0.043
 6659.00    1.46683   1.57975    0.042
 6660.00    1.44867   1.57582    0.042
 6661.00    1.43360   1.57243    0.041
 6662.00    1.44400   1.56984    0.041
 6663.00    1.45301   1.56830    0.041
 6664.00    1.45341   1.56795    0.041
 6665.00    1.45414   1.56871    0.041
 6666.00    1.45648   1.57053    0.041
 6667.00    1.46140   1.57295    0.041
 6668.00    1.47649   1.57575    0.041
 6669.00    1.48873   1.57832    0.042
 6670.00    1.49164   1.58041    0.042
 6671.00    1.49216   1.58155    0.042
 6672.00    1.48607   1.58170    0.042
 6673.00    1.47579   1.58077    0.042
 6674.00    1.45552   1.57903    0.042
 6675.00    1.43783   1.57678    0.043
 6676.00    1.42545   1.57443    0.043
 6677.00    1.42319   1.57245    0.043
 6678.00    1.43903   1.57109    0.043
 6679.00    1.45486   1.57071    0.043
 6680.00    1.47067   1.57127    0.043
 6681.00    1.47974   1.57278    0.043
 6682.00    1.47958   1.57492    0.043
 6683.00    1.47611   1.57749    0.042
 6684.00    1.46864   1.58007    0.042
 6685.00    1.46748   1.58243    0.042
 6686.00    1.47304   1.58422    0.042
 6687.00    1.47449   1.58530    0.042
 6688.00    1.47206   1.58557    0.041
 6689.00    1.47027   1.58498    0.041
 6690.00    1.46901   1.58365    0.041
 6691.00    1.46723   1.58166    0.042
 6692.00    1.46507   1.57928    0.042
 6693.00    1.45965   1.57666    0.042
 6694.00    1.45214   1.57410    0.042
 6695.00    1.45209   1.57179    0.043
 6696.00    1.45621   1.56992    0.000
 6697.00    1.45789   1.56855    0.000
 6698.00    1.45838   1.56773    0.000
 6699.00    1.45330   1.56735    0.000
 6700.00    1.44588   1.56732    0.000
 6701.00    1.44027   1.56740    0.000
 6702.00    1.43531   1.56747    0.000
 6703.00    1.43229   1.56724    0.000
 6704.00    1.42986   1.56664    0.000
 6705.00    1.43498   1.56538    0.000
 6706.00    1.44200   1.56346    0.000
 6707.00    1.45075   1.56070    0.000
 6708.00    1.45985   1.55718    0.000
 6709.00    1.45855   1.55286    0.000
 6710.00    1.45556   1.54797    0.000
 6711.00    1.46150   1.54271    0.000
 6712.00    1.46851   1.53745    0.000
 6713.00    1.49267   1.53249    0.000
 6714.00    1.51825   1.52832    0.000
 6715.00    1.52845   1.52515    0.000
 6716.00    1.53792   1.52338    0.000
 6717.00    1.52500   1.52295    0.000
 6718.00    1.51157   1.52404    0.000
 6719.00    1.48742   1.52626    0.000
 6720.00    1.46413   1.52957    0.000
 6721.00    1.45779   1.53346    0.000
 6722.00    1.45210   1.53770    0.000
 6723.00    1.45386   1.54199    0.000
 6724.00    1.45601   1.54600    0.000
 6725.00    1.46121   1.54971    0.000
 6726.00    1.46657   1.55279    0.000
 6727.00    1.47278   1.55543    0.000
 6728.00    1.48133   1.55729    0.000
 6729.00    1.50097   1.55866    0.000
 6730.00    1.51573   1.55921    0.000
 6731.00    1.51160   1.55924    0.000
 6732.00    1.50517   1.55849    0.000
 6733.00    1.49130   1.55724    0.000
 6734.00    1.48157   1.55536    0.000
 6735.00    1.48316   1.55308    0.000
 6736.00    1.47844   1.55045    0.000
 6737.00    1.45902   1.54760    0.000
 6738.00    1.43942   1.54472    0.000
 6739.00    1.41945   1.54179    0.000
 6740.00    1.40869   1.53905    0.000
 6741.00    1.41410   1.53640    0.000
 6742.00    1.41757   1.53407    0.000
 6743.00    1.41807   1.53188    0.000
 6744.00    1.41696   1.53010    0.000
 6745.00    1.41369   1.52859    0.000
 6746.00    1.41368   1.52759    0.000
 6747.00    1.41756   1.52710    0.000
 6748.00    1.41575   1.52727    0.000
 6749.00    1.40796   1.52827    0.000
 6750.00    1.39987   1.53005    0.000
 6751.00    1.39149   1.53283    0.000
 6752.00    1.39322   1.53634    0.000
 6753.00    1.40319   1.54065    0.044
 6754.00    1.39523   1.54539    0.045
 6755.00    1.37438   1.55036    0.045
 6756.00    1.35787   1.55521    0.046
 6757.00    1.34409   1.55952    0.046
 6758.00    1.35635   1.56315    0.047
 6759.00    1.38297   1.56565    0.047
 6760.00    1.45989   1.56714    0.048
 6761.00    1.56091   1.56736    0.050
 6762.00    1.61978   1.56666    0.051
 6763.00    1.66120   1.56508    0.052
 6764.00    1.66260   1.56309    0.052
 6765.00    1.64985   1.56098    0.051
 6766.00    1.64211   1.55916    0.050
 6767.00    1.63586   1.55796    0.050
 6768.00    1.62790   1.55760    0.049
 6769.00    1.61952   1.55825    0.048
 6770.00    1.59905   1.55982    0.047
 6771.00    1.57616   1.56221    0.046
 6772.00    1.56020   1.56507    0.045
 6773.00    1.54533   1.56802    0.045
 6774.00    1.52915   1.57066    0.045
 6775.00    1.51282   1.57250    0.045
 6776.00    1.47640   1.57331    0.045
 6777.00    1.43839   1.57273    0.045
 6778.00    1.45889   1.57089    0.045
 6779.00    1.48193   1.56772    0.046
 6780.00    1.47656   1.56366    0.047
 6781.00    1.47095   1.55899    0.048
 6782.00    1.46745   1.55421    0.048
 6783.00    1.46473   1.54975    0.047
 6784.00    1.47624   1.54592    0.047
 6785.00    1.48692   1.54302    0.047
 6786.00    1.48852   1.54108    0.047
 6787.00    1.49045   1.54011    0.047
 6788.00    1.49484   1.53995    0.047
 6789.00    1.49957   1.54039    0.046
 6790.00    1.50629   1.54129    0.046
 6791.00    1.50711   1.54239    0.046
 6792.00    1.48068   1.54370    0.045
 6793.00    1.46160   1.54502    0.045
 6794.00    1.47036   1.54645    0.045
 6795.00    1.47646   1.54791    0.044
 6796.00    1.47414   1.54941    0.044
 6797.00    1.47811   1.55097    0.044
 6798.00    1.49897   1.55244    0.044
 6799.00    1.51034   1.55388    0.045
 6800.00    1.49993   1.55505    0.046
 6801.00    1.49273   1.55604    0.046
 6802.00    1.49194   1.55664    0.046
 6803.00    1.48543   1.55698    0.047
 6804.00    1.46904   1.55696    0.046
 6805.00    1.45629   1.55672    0.046
 6806.00    1.44907   1.55627    0.046
 6807.00    1.44264   1.55575    0.046
 6808.00    1.43725   1.55522    0.045
 6809.00    1.43696   1.55483    0.045
 6810.00    1.44266   1.55458    0.045
 6811.00    1.44455   1.55465    0.045
 6812.00    1.44252   1.55499    0.046
 6813.00    1.45107   1.55571    0.046
 6814.00    1.46926   1.55676    0.046
 6815.00    1.47006   1.55814    0.046
 6816.00    1.45685   1.55981    0.046
 6817.00    1.44792   1.56166    0.045
 6818.00    1.44202   1.56367    0.044
 6819.00    1.44334   1.56561    0.044
 6820.00    1.44914   1.56751    0.045
 6821.00    1.46459   1.56912    0.045
 6822.00    1.48528   1.57049    0.046
 6823.00    1.49018   1.57143    0.046
 6824.00    1.48763   1.57206    0.046
 6825.00    1.47608   1.57227    0.046
 6826.00    1.46087   1.57220    0.046
 6827.00    1.46735   1.57181    0.046
 6828.00    1.48137   1.57118    0.047
 6829.00    1.49706   1.57027    0.047
 6830.00    1.51324   1.56904    0.047
 6831.00    1.52331   1.56743    0.046
 6832.00    1.53190   1.56531    0.046
 6833.00    1.51470   1.56269    0.045
 6834.00    1.49246   1.55948    0.045
 6835.00    1.47039   1.55584    0.045
 6836.00    1.44835   1.55192    0.045
 6837.00    1.46279   1.54797    0.046
 6838.00    1.48133   1.54437    0.046
 6839.00    1.46553   1.54136    0.047
 6840.00    1.44717   1.53933    0.047
 6841.00    1.45081   1.53830    0.047
 6842.00    1.45532   1.53844    0.047
 6843.00    1.44958   1.53949    0.046
 6844.00    1.44411   1.54128    0.046
 6845.00    1.45178   1.54340    0.046
 6846.00    1.45827   1.54543    0.045
 6847.00    1.44484   1.54706    0.046
 6848.00    1.43401   1.54788    0.046
 6849.00    1.45045   1.54782    0.046
 6850.00    1.46447   1.54671    0.046
 6851.00    1.46052   1.54470    0.046
 6852.00    1.45497   1.54195    0.045
 6853.00    1.44041   1.53871    0.045
 6854.00    1.42682   1.53534    0.044
 6855.00    1.41762   1.53204    0.044
 6856.00    1.40493   1.52920    0.044
 6857.00    1.37931   1.52685    0.044
 6858.00    1.36261   1.52521    0.044
 6859.00    1.37355   1.52422    0.044
 6860.00    1.38289   1.52382    0.044
 6861.00    1.38805   1.52391    0.045
 6862.00    1.39210   1.52427    0.045
 6863.00    1.39364   1.52484    0.045
 6864.00    1.39526   1.52535    0.045
 6865.00    1.39703   1.52592    0.046
 6866.00    1.39977   1.52633    0.047
 6867.00    1.40416   1.52684    0.047
 6868.00    1.40226   1.52728    0.047
 6869.00    1.39096   1.52802    0.047
 6870.00    1.38845   1.52886    0.046
 6871.00    1.39749   1.53014    0.046
 6872.00    1.41065   1.53157    0.045
 6873.00    1.42857   1.53340    0.045
 6874.00    1.43406   1.53529    0.044
 6875.00    1.42688   1.53738    0.045
 6876.00    1.42823   1.53943    0.045
 6877.00    1.43726   1.54146    0.046
 6878.00    1.44155   1.54349    0.046
 6879.00    1.44209   1.54545    0.046
 6880.00    1.43565   1.54763    0.047
 6881.00    1.42436   1.54988    0.048
 6882.00    1.40920   1.55262    0.047
 6883.00    1.39169   1.55556    0.045
 6884.00    1.39715   1.55906    0.045
 6885.00    1.41488   1.56275    0.046
 6886.00    1.43197   1.56673    0.046
 6887.00    1.44876   1.57069    0.047
 6888.00    1.44558   1.57448    0.046
 6889.00    1.43442   1.57798    0.046
 6890.00    1.43891   1.58091    0.046
 6891.00    1.44873   1.58342    0.046
 6892.00    1.44596   1.58523    0.046
 6893.00    1.43958   1.58671    0.046
 6894.00    1.42992   1.58767    0.045
 6895.00    1.41949   1.58850    0.045
 6896.00    1.42174   1.58916    0.044
 6897.00    1.42640   1.58987    0.044
 6898.00    1.41540   1.59069    0.044
 6899.00    1.40209   1.59161    0.044
 6900.00    1.39061   1.59275    0.045
 6901.00    1.37933   1.59385    0.045
 6902.00    1.39128   1.59511    0.045
 6903.00    1.40488   1.59607    0.045
 6904.00    1.40793   1.59698    0.046
 6905.00    1.41060   1.59734    0.046
 6906.00    1.41213   1.59743    0.046
 6907.00    1.41319   1.59686    0.047
 6908.00    1.39791   1.59592    0.046
 6909.00    1.38315   1.59446    0.046
 6910.00    1.37665   1.59272    0.045
 6911.00    1.37015   1.59081    0.045
 6912.00    1.36364   1.58882    0.045
 6913.00    1.35985   1.58703    0.045
 6914.00    1.37563   1.58538    0.045
 6915.00    1.38790   1.58405    0.044
 6916.00    1.38077   1.58294    0.044
 6917.00    1.37225   1.58194    0.044
 6918.00    1.35760   1.58109    0.044
 6919.00    1.34735   1.58000    0.044
 6920.00    1.35303   1.57896    0.044
 6921.00    1.35867   1.57754    0.044
 6922.00    1.36420   1.57615    0.045
 6923.00    1.37065   1.57462    0.045
 6924.00    1.37950   1.57321    0.046
 6925.00    1.38404   1.57208    0.046
 6926.00    1.37902   1.57115    0.046
 6927.00    1.37636   1.57087    0.046
 6928.00    1.37825   1.57082    0.046
 6929.00    1.38260   1.57147    0.047
 6930.00    1.39109   1.57234    0.047
 6931.00    1.39010   1.57364    0.047
 6932.00    1.37517   1.57509    0.046
 6933.00    1.36046   1.57660    0.046
 6934.00    1.34605   1.57815    0.045
 6935.00    1.34366   1.57941    0.045
 6936.00    1.35496   1.58056    0.045
 6937.00    1.36764   1.58116    0.045
 6938.00    1.38172   1.58147    0.045
 6939.00    1.39147   1.58122    0.045
 6940.00    1.39739   1.58058    0.045
 6941.00    1.39555   1.57961    0.045
 6942.00    1.38765   1.57840    0.046
 6943.00    1.37463   1.57714    0.046
 6944.00    1.35810   1.57588    0.046
 6945.00    1.35290   1.57485    0.046
 6946.00    1.35453   1.57400    0.046
 6947.00    1.35074   1.57350    0.047
 6948.00    1.34409   1.57329    0.047
 6949.00    1.34271   1.57344    0.047
 6950.00    1.34372   1.57403    0.047
 6951.00    1.34262   1.57495    0.047
 6952.00    1.34069   1.57644    0.046
 6953.00    1.36069   1.57825    0.046
 6954.00    1.38803   1.58068    0.046
 6955.00    1.39585   1.58337    0.046
 6956.00    1.39819   1.58657    0.046
 6957.00    1.39304   1.58987    0.046
 6958.00    1.38615   1.59342    0.045
 6959.00    1.37428   1.59687    0.045
 6960.00    1.36149   1.60019    0.045
 6961.00    1.35665   1.60321    0.045
 6962.00    1.35295   1.60583    0.046
 6963.00    1.36568   1.60800    0.046
 6964.00    1.38011   1.60957    0.045
 6965.00    1.38061   1.61051    0.046
 6966.00    1.38018   1.61062    0.047
 6967.00    1.38790   1.60990    0.047
 6968.00    1.39588   1.60822    0.048
 6969.00    1.37058   1.60558    0.047
 6970.00    1.34604   1.60199    0.047
 6971.00    1.34482   1.59770    0.047
 6972.00    1.34488   1.59279    0.046
 6973.00    1.36399   1.58770    0.047
 6974.00    1.37895   1.58270    0.047
 6975.00    1.35419   1.57846    0.047
 6976.00    1.33155   1.57512    0.046
 6977.00    1.32364   1.57335    0.046
 6978.00    1.31725   1.57306    0.045
 6979.00    1.31900   1.57458    0.045
 6980.00    1.32282   1.57744    0.045
 6981.00    1.33558   1.58166    0.046
 6982.00    1.34699   1.58663    0.046
 6983.00    1.35359   1.59203    0.046
 6984.00    1.36042   1.59727    0.046
 6985.00    1.36797   1.60206    0.047
 6986.00    1.37286   1.60610    0.047
 6987.00    1.37099   1.60931    0.047
 6988.00    1.36795   1.61158    0.047
 6989.00    1.36239   1.61300    0.048
 6990.00    1.35879   1.61350    0.048
 6991.00    1.35894   1.61330    0.048
 6992.00    1.35831   1.61250    0.048
 6993.00    1.35640   1.61125    0.047
 6994.00    1.35367   1.60948    0.047
 6995.00    1.34975   1.60731    0.046
 6996.00    1.35303   1.60490    0.046
 6997.00    1.36549   1.60230    0.046
 6998.00    1.36718   1.59977    0.046
 6999.00    1.35678   1.59725    0.045
 7000.00    1.34473   1.59508    0.045
 7001.00    1.33106   1.59315    0.046
 7002.00    1.33223   1.59156    0.046
 7003.00    1.34639   1.59043    0.047
 7004.00    1.35340   1.58956    0.047
 7005.00    1.35489   1.58907    0.048
 7006.00    1.35301   1.58845    0.048
 7007.00    1.34884   1.58792    0.049
 7008.00    1.34407   1.58715    0.049
 7009.00    1.33894   1.58644    0.049
 7010.00    1.34220   1.58539    0.049
 7011.00    1.34979   1.58436    0.049
 7012.00    1.32466   1.58318    0.049
 7013.00    1.28485   1.58220    0.048
 7014.00    1.29840   1.58127    0.047
 7015.00    1.33254   1.58082    0.047
 7016.00    1.34722   1.58066    0.047
 7017.00    1.35552   1.58113    0.047
 7018.00    1.35286   1.58188    0.047
 7019.00    1.34720   1.58315    0.047
 7020.00    1.32984   1.58458    0.047
 7021.00    1.30984   1.58631    0.047
 7022.00    1.30396   1.58819    0.047
 7023.00    1.30064   1.59023    0.048
 7024.00    1.31397   1.59242    0.048
 7025.00    1.32961   1.59475    0.049
 7026.00    1.32783   1.59723    0.049
 7027.00    1.32431   1.59987    0.049
 7028.00    1.32267   1.60253    0.049
 7029.00    1.32115   1.60516    0.049
 7030.00    1.33809   1.60774    0.049
 7031.00    1.35545   1.61027    0.049
 7032.00    1.34474   1.61285    0.050
 7033.00    1.33502   1.61565    0.050
 7034.00    1.35267   1.61858    0.049
 7035.00    1.36836   1.62186    0.049
 7036.00    1.35660   1.62532    0.049
 7037.00    1.34687   1.62943    0.048
 7038.00    1.35586   1.63356    0.048
 7039.00    1.36422   1.63838    0.049
 7040.00    1.36832   1.64283    0.048
 7041.00    1.37454   1.64737    0.048
 7042.00    1.39182   1.65090    0.049
 7043.00    1.40709   1.65349    0.049
 7044.00    1.41383   1.65449    0.050
 7045.00    1.41349   1.65359    0.050
 7046.00    1.38847   1.65062    0.050
 7047.00    1.37091   1.64543    0.051
 7048.00    1.37518   1.63815    0.051
 7049.00    1.37399   1.62887    0.052
 7050.00    1.35918   1.61783   -2.000
 7051.00    1.35590   1.60551   -2.000
 7052.00    1.37740   1.59216   -2.000
 7053.00    1.38847   1.57861   -2.000
 7054.00    1.38006   1.56510   -2.000
 7055.00    1.38301   1.55251   -2.000
 7056.00    1.40451   1.54062   -2.000
 7057.00    1.41765   1.53022   -2.000
 7058.00    1.41885   1.52097   -2.000
 7059.00    1.41903   1.51317   -2.000
 7060.00    1.41794   1.50664   -2.000
 7061.00    1.42372   1.50143   -2.000
 7062.00    1.43712   1.49757   -2.000
 7063.00    1.46433   1.49504   -2.000
 7064.00    1.50507   1.49378   -2.000
 7065.00    1.48896   1.49347   -2.000
 7066.00    1.42384   1.49437   -2.000
 7067.00    1.38562   1.49626   -2.000
 7068.00    1.36784   1.49909   -2.000
 7069.00    1.39074   1.50266   -2.000
 7070.00    1.44080   1.50671   -2.000
 7071.00    1.46881   1.51116   -2.000
 7072.00    1.48393   1.51532   -2.000
 7073.00    1.50514   1.51923   -2.000
 7074.00    1.52946   1.52224   -2.000
 7075.00    1.53426   1.52405   -2.000
 7076.00    1.53045   1.52427   -2.000
 7077.00    1.50837   1.52272   -2.000
 7078.00    1.47934   1.51938   -2.000
 7079.00    1.48276   1.51452   -2.000
 7080.00    1.49663   1.50782   -2.000
 7081.00    1.48049   1.49967   -2.000
 7082.00    1.45627   1.49034   -2.000
 7083.00    1.43814   1.48036   -2.000
 7084.00    1.42134   1.46998   -2.000
 7085.00    1.40083   1.46009   -2.000
 7086.00    1.37966   1.45037   -2.000
 7087.00    1.38052   1.44208   -2.000
 7088.00    1.38432   1.43458   -2.000
 7089.00    1.36882   1.42887   -2.000
 7090.00    1.35147   1.42439   -2.000
 7091.00    1.34350   1.42158   -2.000
 7092.00    1.33607   1.42018   -2.000
 7093.00    1.33533   1.41987   -2.000
 7094.00    1.33478   1.42080   -2.000
 7095.00    1.33916   1.42202   -2.000
 7096.00    1.34222   1.42424   -2.000
 7097.00    1.31255   1.42632   -2.000
 7098.00    1.28388   1.42902   -2.000
 7099.00    1.26847   1.43100   -2.000
 7100.00    1.25149   1.43295   -2.000
 7101.00    1.22051   1.43427   -2.000
 7102.00    1.19600   1.43540   -2.000
 7103.00    1.21374   1.43585   -2.000
 7104.00    1.23119   1.43587   -2.000
 7105.00    1.24712   1.43564   -2.000
 7106.00    1.25472   1.43517   -2.000
 7107.00    1.22802   1.43479   -2.000
 7108.00    1.20982   1.43424   -2.000
 7109.00    1.22056   1.43410   -2.000
 7110.00    1.23394   1.43389   -2.000
 7111.00    1.25487   1.43405   -2.000
 7112.00    1.27147   1.43425   -2.000
 7113.00    1.27747   1.43449   -2.000
 7114.00    1.27503   1.43477   -2.000
 7115.00    1.25477   1.43453   -2.000
 7116.00    1.24065   1.43418   -2.000
 7117.00    1.23782   1.43311   -2.000
 7118.00    1.25684   1.43138   -2.000
 7119.00    1.31097   1.42891   -2.000
 7120.00    1.35140   1.42555   -2.000
 7121.00    1.37253   1.42183   -2.000
 7122.00    1.37391   1.41721   -2.000
 7123.00    1.35081   1.41254   -2.000
 7124.00    1.32893   1.40733   -2.000
 7125.00    1.30840   1.40270   -2.000
 7126.00    1.29543   1.39812   -2.000
 7127.00    1.28977   1.39466   -2.000
 7128.00    1.27656   1.39189   -2.000
 7129.00    1.25695   1.39016   -2.000
 7130.00    1.25806   1.38978   -2.000
 7131.00    1.27469   1.39009   -2.000
 7132.00    1.28080   1.39171   -2.000
 7133.00    1.28000   1.39366   -2.000
 7134.00    1.24933   1.39668   -2.000
 7135.00    1.20147   1.39946   -2.000
 7136.00    1.22196   1.40269   -2.000
 7137.00    1.27673   1.40545   -2.000
 7138.00    1.29124   1.40785   -2.000
 7139.00    1.28826   1.40980   -2.000
 7140.00    1.30079   1.41102   -2.000
 7141.00    1.31910   1.41168   -2.000
 7142.00    1.29285   1.41196   -2.000
 7143.00    1.25253   1.41187   -2.000
 7144.00    1.24902   1.41180   -2.000
 7145.00    1.25522   1.41195   -2.000
 7146.00    1.24309   1.41242   -2.000
 7147.00    1.22700   1.41339   -2.000
 7148.00    1.21854   1.41488   -2.000
 7149.00    1.21138   1.41682   -2.000
 7150.00    1.22349   1.41941   -2.000
 7151.00    1.23811   1.42210   -2.000
 7152.00    1.22835   1.42529   -2.000
 7153.00    1.21638   1.42789   -2.000
 7154.00    1.23846   1.43029   -2.000
 7155.00    1.26240   1.43215   -2.000
 7156.00    1.25617   1.43325   -2.000
 7157.00    1.24927   1.43391   -2.000
 7158.00    1.23948   1.43337   -2.000
 7159.00    1.23240   1.43285   -2.000
 7160.00    1.28704   1.43162   -2.000
 7161.00    1.33830   1.43118   -2.000
 7162.00    1.34692   1.43065   -2.000
 7163.00    1.35202   1.43096   -2.000
 7164.00    1.32707   1.43171   -2.000
 7165.00    1.30173   1.43312   -2.000
 7166.00    1.27399   1.43550   -2.000
 7167.00    1.26284   1.43827   -2.000
 7168.00    1.33410   1.44158   -2.000
 7169.00    1.38331   1.44439   -2.000
 7170.00    1.34375   1.44732   -2.000
 7171.00    1.30843   1.44956   -2.000
 7172.00    1.28723   1.45125   -2.000
 7173.00    1.26970   1.45231   -2.000
 7174.00    1.26256   1.45215   -2.000
 7175.00    1.26991   1.45127   -2.000
 7176.00    1.31224   1.44972   -2.000
 7177.00    1.33135   1.44794   -2.000
 7178.00    1.30209   1.44601   -2.000
 7179.00    1.28900   1.44368   -2.000
 7180.00    1.30522   1.44102   -2.000
 7181.00    1.29839   1.43838   -2.000
 7182.00    1.25507   1.43561   -2.000
 7183.00    1.22406   1.43296   -2.000
 7184.00    1.21013   1.43075   -2.000
 7185.00    1.20202   1.42862   -2.000
 7186.00    1.20099   1.42714   -2.000
 7187.00    1.21901   1.42568   -2.000
 7188.00    1.25756   1.42485   -2.000
 7189.00    1.27306   1.42449   -2.000
 7190.00    1.26662   1.42477   -2.000
 7191.00    1.26345   1.42568   -2.000
 7192.00    1.26300   1.42660   -2.000
 7193.00    1.25319   1.42832   -2.000
 7194.00    1.23645   1.43001   -2.000
 7195.00    1.22171   1.43189   -2.000
 7196.00    1.20826   1.43358   -2.000
 7197.00    1.19700   1.43507   -2.000
 7198.00    1.18697   1.43652   -2.000
 7199.00    1.18637   1.43756   -2.000
 7200.00    1.19043   1.43806   -2.000
 7201.00    1.22102   1.43798   -2.000
 7202.00    1.26293   1.43706   -2.000
 7203.00    1.25409   1.43647   -2.000
 7204.00    1.22669   1.43592   -2.000
 7205.00    1.17922   1.43557   -2.000
 7206.00    1.12552   1.43580   -2.000
 7207.00    1.11816   1.43597   -2.000
 7208.00    1.12275   1.43682   -2.000
 7209.00    1.13933   1.43792   -2.000
 7210.00    1.15843   1.44008   -2.000
 7211.00    1.16338   1.44254   -2.000
 7212.00    1.16597   1.44572   -2.000
 7213.00    1.14991   1.44934   -2.000
 7214.00    1.13151   1.45278   -2.000
 7215.00    1.14986   1.45642   -2.000
 7216.00    1.17139   1.45985   -2.000
 7217.00    1.16199   1.46359   -2.000
 7218.00    1.15103   1.46711   -2.000
