###################################################################
## OUTPUT of StarlightChains_v04.for    [Cid@UFSC - 01/Apr/2007] ##
###################################################################

## Some input info
KUG0210-078._22_29.txt                   [arq_obs]
Base.CB07.vall.4m                        [arq_base]
Masks.EmLines.NEW.gm                     [arq_masks]
StCv04.C11.config                        [arq_config]
   66                                    [N_base]
    0                                    [N_YAV_components = # of components with extra extinction!]
    0                                    [i_FitPowerLaw (1/0 = Yes/No)]
-9.99                                    [alpha_PowerLaw]
CCM                                      [red_law_option]
 1.458241                                [q_norm = A(l_norm)/A(V)]

## (Re)Sampling Parameters
 3741.00                                 [l_ini (A)]
 7218.00                                 [l_fin (A)]
    1.00                                 [dl    (A)]     (OBS: dl_cushion =    50.00 A)

## Normalization info
 4020.00                                 [l_norm (A) - for base]
 4010.00                                 [llow_norm (A) - window for f_obs]
 4060.00                                 [lupp_norm (A) - window for f_obs]
6.279075E-18                             [fobs_norm (in input units)]

## S/N
 3691.00                                 [llow_SN (A) - window for S/N]
 7268.00                                 [lupp_SN (A) - window for S/N]
   3.480                                 [S/N in S/N window]
   2.217                                 [S/N in norm. window]
   0.016                                 [S/N_err in S/N window]
   0.010                                 [S/N_err in norm. window]
  1.0000                                 [fscale_chi2]

## etc...
    -2007245                             [idum_orig]
  2381                                   [NOl_eff]
  1898                                   [Nl_eff]
   483    NSIGMA                         [Ntot_cliped & clip_method]
 24559150                                [Nglobal_steps]
   7                                     [N_chains]
   7                                     [NEX0s_base = N_base in EX0s-fits]
 0   0   0        0   2.0   6.226E+03    [Clip-Bug, RC-Crash & Burn-In warning-flags, n_censored_weights, wei_nsig_threshold & wei_limit]
   254    251.827    250.077      1.750  [idt_all, wdt_TotTime, wdt_UsrTime & wdt_SysTime (sec)]

## Synthesis Results - Best model ##

 1.64874E-04                             [chi2/Nl_eff]
    19.09659                             [adev (%)]

   130.00000                             [sum-of-x (%)]
 2.87575E-16                             [Flux_tot (units of input spectrum!)]
 9.42660E-13                             [Mini_tot (???)]
 4.78875E-13                             [Mcor_tot (???)]

 252.10                                  [v0_min  (km/s)]
  41.22                                  [vd_min  (km/s)]
 2.6520                                  [AV_min  (mag)]
 0.0000                                  [YAV_min (mag)]

# j     x_j(%)      Mini_j(%)     Mcor_j(%)     age_j(yr)     Z_j      (L/M)_j    YAV?  Mstars   component_j        a/Fe...       SSP_chi2r SSP_adev(%)   SSP_AV   SSP_x(%)
  1     15.5580     3.3372E-01    6.5693E-01    1.000000E+06  0.00400  1.094E-02    0   1.0000   age020_m42            0.0000     3.6829E-05    28.3622   1.1789   295.1716
  2      0.0000     0.0000E+00    0.0000E+00    3.160000E+06  0.00400  4.007E-02    0   0.9999   age045_m42            0.0000     3.3700E-05    26.6310   0.6171   298.5280
  3      0.0000     0.0000E+00    0.0000E+00    5.010000E+06  0.00400  2.539E-02    0   0.9488   age055_m42            0.0000     3.5629E-05    27.4908   0.8528   299.8637
  4      0.0000     0.0000E+00    0.0000E+00    6.610000E+06  0.00400  2.620E-02    0   0.9220   age061_m42            0.0000     3.3555E-05    26.4245   0.5521   298.9200
  5      0.0000     0.0000E+00    0.0000E+00    1.000000E+07  0.00400  1.322E-02    0   0.8862   age070_m42            0.0000     3.2163E-05    24.9431   0.3142   304.6626
  6      0.0000     0.0000E+00    0.0000E+00    1.445000E+07  0.00400  7.883E-03    0   0.8571   age078_m42            0.0000     3.3129E-05    25.5968   0.5993   300.7009
  7      0.0000     0.0000E+00    0.0000E+00    2.512000E+07  0.00400  5.251E-03    0   0.8174   age090_m42            0.0000     3.1616E-05    24.4204   0.2119   304.3616
  8      0.0000     0.0000E+00    0.0000E+00    4.000000E+07  0.00400  3.649E-03    0   0.7851   age104_m42            0.0000     3.0980E-05    24.2908  -0.0001   304.2002
  9      0.0000     0.0000E+00    0.0000E+00    5.500000E+07  0.00400  3.098E-03    0   0.7629   age110_m42            0.0000     3.1225E-05    24.6478   0.1673   301.5280
 10      0.0000     0.0000E+00    0.0000E+00    1.015200E+08  0.00400  2.228E-03    0   0.7207   age116_m42            0.0000     3.1595E-05    24.9743   0.1841   301.3780
 11      0.0000     0.0000E+00    0.0000E+00    2.861200E+08  0.00400  1.093E-03    0   0.6648   age125_m42            0.0000     3.0737E-05    24.3374  -0.3425   307.4336
 12      0.0000     0.0000E+00    0.0000E+00    5.088000E+08  0.00400  6.597E-04    0   0.6365   age130_m42            0.0000     3.0394E-05    24.5430  -0.3362   306.4379
 13      0.0000     0.0000E+00    0.0000E+00    1.434000E+09  0.00400  2.132E-04    0   0.5798   age139_m42            0.0000     2.8967E-05    22.2005  -1.0000   293.1877
 14      0.0000     0.0000E+00    0.0000E+00    4.250000E+09  0.00400  5.895E-05    0   0.5377   age158_m42            0.0000     4.0135E-05    26.0902  -1.0000   264.2842
 15      0.0000     0.0000E+00    0.0000E+00    7.500000E+09  0.00400  3.510E-05    0   0.5212   age171_m42            0.0000     4.5379E-05    28.9596  -1.0000   252.0242
 16      0.0000     0.0000E+00    0.0000E+00    1.300000E+10  0.00400  2.005E-05    0   0.5034   age193_m42            0.0000     5.0492E-05    31.7686  -1.0000   240.9997
 17      0.0000     0.0000E+00    0.0000E+00    1.800000E+10  0.00400  1.525E-05    0   0.4967   age213_m42            0.0000     5.2606E-05    32.6002  -1.0000   239.5164
 18     14.8163     2.8085E-01    5.5285E-01    1.000000E+06  0.00800  1.238E-02    0   1.0000   age020_m52            0.0000     3.6750E-05    28.3398   1.1775   295.5033
 19      0.0000     0.0000E+00    0.0000E+00    3.160000E+06  0.00800  3.074E-02    0   0.9966   age045_m52            0.0000     3.6508E-05    28.2131   1.1112   296.9592
 20      0.0000     0.0000E+00    0.0000E+00    5.010000E+06  0.00800  2.668E-02    0   0.9443   age055_m52            0.0000     3.5235E-05    27.3995   0.9364   297.2812
 21      0.0000     0.0000E+00    0.0000E+00    6.610000E+06  0.00800  2.136E-02    0   0.9177   age061_m52            0.0000     3.1258E-05    24.8945  -0.1873   307.5900
 22      0.0000     0.0000E+00    0.0000E+00    1.000000E+07  0.00800  1.215E-02    0   0.8827   age070_m52            0.0000     3.1910E-05    24.6583   0.5014   304.3097
 23      0.0000     0.0000E+00    0.0000E+00    1.445000E+07  0.00800  8.717E-03    0   0.8552   age078_m52            0.0000     3.2695E-05    25.2889   0.5851   302.9271
 24      0.0000     0.0000E+00    0.0000E+00    2.512000E+07  0.00800  5.592E-03    0   0.8162   age090_m52            0.0000     3.1296E-05    24.1481   0.2972   305.8636
 25      0.0000     0.0000E+00    0.0000E+00    4.000000E+07  0.00800  3.896E-03    0   0.7841   age104_m52            0.0000     3.1332E-05    24.2288   0.2269   305.5145
 26      0.0000     0.0000E+00    0.0000E+00    1.015200E+08  0.00800  2.148E-03    0   0.7226   age116_m52            0.0000     3.1528E-05    24.7011   0.1625   303.4515
 27      0.0000     0.0000E+00    0.0000E+00    2.861200E+08  0.00800  9.925E-04    0   0.6683   age125_m52            0.0000     3.0264E-05    24.2953  -0.2576   307.9068
 28      0.0000     0.0000E+00    0.0000E+00    9.047900E+08  0.00800  3.141E-04    0   0.6138   age135_m52            0.0000     2.9849E-05    24.3154  -0.9981   311.0166
 29      0.0000     0.0000E+00    0.0000E+00    1.434000E+09  0.00800  1.719E-04    0   0.5853   age139_m52            0.0000     3.5900E-05    23.8347  -1.0000   279.9077
 30      0.0000     0.0000E+00    0.0000E+00    2.500000E+09  0.00800  7.872E-05    0   0.5600   age150_m52            0.0000     4.4861E-05    28.2348  -1.0000   258.6279
 31      0.0000     0.0000E+00    0.0000E+00    4.250000E+09  0.00800  4.336E-05    0   0.5426   age158_m52            0.0000     4.6420E-05    28.7815  -1.0000   255.9592
 32      0.0000     0.0000E+00    0.0000E+00    6.250000E+09  0.00800  3.159E-05    0   0.5319   age166_m52            0.0000     5.3202E-05    32.2376  -1.0000   243.7764
 33      0.0000     0.0000E+00    0.0000E+00    1.300000E+10  0.00800  1.361E-05    0   0.5073   age193_m52            0.0000     7.6022E-05    41.4194  -1.0000   214.5148
 34      4.1293     9.8019E+01    9.6282E+01    1.800000E+10  0.00800  9.886E-06    0   0.4990   age213_m52            0.0000     8.3121E-05    43.2778  -1.0000   206.4513
 35     23.1917     3.5248E-01    6.9386E-01    1.000000E+06  0.02000  1.544E-02    0   1.0000   age020_m62            0.0000     3.6505E-05    28.3057   1.1752   296.0370
 36      0.0000     0.0000E+00    0.0000E+00    3.160000E+06  0.02000  3.762E-02    0   0.9858   age045_m62            0.0000     3.5931E-05    28.1668   1.1258   297.4023
 37      0.0000     0.0000E+00    0.0000E+00    5.010000E+06  0.02000  3.296E-02    0   0.9342   age055_m62            0.0000     3.4312E-05    27.1121   0.8531   298.9456
 38      0.0000     0.0000E+00    0.0000E+00    8.710000E+06  0.02000  1.154E-02    0   0.8861   age067_m62            0.0000     2.8968E-05    22.0625  -0.0002   314.7844
 39      0.0000     0.0000E+00    0.0000E+00    1.445000E+07  0.02000  7.663E-03    0   0.8472   age078_m62            0.0000     3.0262E-05    23.5451   0.1995   308.2459
 40      0.0000     0.0000E+00    0.0000E+00    2.512000E+07  0.02000  4.532E-03    0   0.8099   age090_m62            0.0000     3.0400E-05    23.4035   0.2005   306.9461
 41      0.0000     0.0000E+00    0.0000E+00    5.500000E+07  0.02000  2.733E-03    0   0.7595   age110_m62            0.0000     3.1422E-05    24.3976   0.1936   305.0234
 42      0.0000     0.0000E+00    0.0000E+00    1.609000E+08  0.02000  1.369E-03    0   0.6985   age120_m62            0.0000     3.1025E-05    25.1080  -0.0000   310.2031
 43      0.0000     0.0000E+00    0.0000E+00    2.861200E+08  0.02000  9.013E-04    0   0.6714   age125_m62            0.0000     3.0270E-05    24.1666  -0.1390   310.5186
 44      0.0000     0.0000E+00    0.0000E+00    5.088000E+08  0.02000  5.028E-04    0   0.6449   age130_m62            0.0000     2.9767E-05    24.3417  -0.4699   310.6626
 45      0.0000     0.0000E+00    0.0000E+00    9.047900E+08  0.02000  2.428E-04    0   0.6179   age135_m62            0.0000     3.1628E-05    24.4813  -1.0000   306.6337
 46      0.0000     0.0000E+00    0.0000E+00    1.434000E+09  0.02000  1.263E-04    0   0.5908   age139_m62            0.0000     3.7807E-05    24.2352  -1.0000   283.1946
 47      0.0000     0.0000E+00    0.0000E+00    2.500000E+09  0.02000  5.985E-05    0   0.5673   age150_m62            0.0000     4.9842E-05    29.2344  -1.0000   261.0363
 48      0.0000     0.0000E+00    0.0000E+00    4.250000E+09  0.02000  3.271E-05    0   0.5468   age158_m62            0.0000     6.0627E-05    34.3601  -1.0000   239.9772
 49      0.0000     0.0000E+00    0.0000E+00    1.000000E+10  0.02000  1.360E-05    0   0.5167   age181_m62            0.0000     8.0281E-05    40.9095  -1.0000   217.5555
 50      0.0000     0.0000E+00    0.0000E+00    1.800000E+10  0.02000  7.124E-06    0   0.5013   age213_m62            0.0000     9.6675E-05    44.7441  -1.0000   202.8262
 51     21.5404     1.9502E-01    3.8381E-01    1.000000E+06  0.05000  2.592E-02    0   0.9998   age020_m72            0.0000     3.6620E-05    28.3537   1.1583   297.0900
 52      0.0000     0.0000E+00    0.0000E+00    3.160000E+06  0.05000  4.845E-02    0   0.9577   age045_m72            0.0000     3.5506E-05    27.8808   1.0473   297.1297
 53      0.0000     0.0000E+00    0.0000E+00    5.010000E+06  0.05000  3.072E-02    0   0.9147   age055_m72            0.0000     3.2621E-05    25.6107   0.6984   302.3042
 54     50.7644     8.1874E-01    1.4307E+00    6.610000E+06  0.05000  1.455E-02    0   0.8877   age061_m72            0.0000     2.7931E-05    21.5556   0.1267   314.4914
 55      0.0000     0.0000E+00    0.0000E+00    1.000000E+07  0.05000  9.074E-03    0   0.8524   age070_m72            0.0000     3.2750E-05    26.0840   0.8971   300.0072
 56      0.0000     0.0000E+00    0.0000E+00    2.512000E+07  0.05000  4.250E-03    0   0.7902   age090_m72            0.0000     3.2092E-05    25.0664   0.6445   301.0127
 57      0.0000     0.0000E+00    0.0000E+00    4.000000E+07  0.05000  3.087E-03    0   0.7618   age104_m72            0.0000     3.1398E-05    24.4427   0.4508   303.2532
 58      0.0000     0.0000E+00    0.0000E+00    1.015200E+08  0.05000  1.700E-03    0   0.7096   age116_m72            0.0000     3.1145E-05    24.2771   0.2131   307.1975
 59      0.0000     0.0000E+00    0.0000E+00    2.861200E+08  0.05000  7.384E-04    0   0.6633   age125_m72            0.0000     3.1350E-05    24.5743  -0.2705   313.0623
 60      0.0000     0.0000E+00    0.0000E+00    5.088000E+08  0.05000  3.819E-04    0   0.6372   age130_m72            0.0000     3.1876E-05    25.0931  -0.7570   314.2371
 61      0.0000     0.0000E+00    0.0000E+00    9.047900E+08  0.05000  1.676E-04    0   0.6110   age135_m72            0.0000     3.9864E-05    24.8277  -1.0000   289.7681
 62      0.0000     0.0000E+00    0.0000E+00    1.434000E+09  0.05000  8.837E-05    0   0.5874   age139_m72            0.0000     4.9196E-05    28.8593  -1.0000   263.5055
 63      0.0000     0.0000E+00    0.0000E+00    2.500000E+09  0.05000  4.233E-05    0   0.5598   age150_m72            0.0000     6.3072E-05    34.5506  -1.0000   242.0093
 64      0.0000     0.0000E+00    0.0000E+00    6.250000E+09  0.05000  1.435E-05    0   0.5249   age166_m72            0.0000     8.7470E-05    42.7327  -1.0000   210.7376
 65      0.0000     0.0000E+00    0.0000E+00    1.300000E+10  0.05000  6.513E-06    0   0.5036   age193_m72            0.0000     1.1135E-04    47.5649  -1.0000   195.0365
 66      0.0000     0.0000E+00    0.0000E+00    1.800000E+10  0.05000  4.527E-06    0   0.4945   age213_m72            0.0000     1.2783E-04    49.9297  -1.0000   184.3544


## Synthesis Results - Average & Chains ##

# j      x_j: min, <> & last-chain-values for 1 ...  7 chains
  1     15.5580     14.8045     16.2996     11.5780     15.2157     12.1379     12.9319     16.0276     19.4405
  2      0.0000      0.0000      0.0002      0.0000      0.0000      0.0000      0.0000      0.0000      0.0000
  3      0.0000      0.0000      0.0000      0.0000      0.0000      0.0000      0.0000      0.0001      0.0000
  4      0.0000      0.0000      0.0002      0.0000      0.0000      0.0000      0.0000      0.0001      0.0000
  5      0.0000      0.0000      0.0002      0.0000      0.0000      0.0000      0.0000      0.0000      0.0001
  6      0.0000      0.0001      0.0001      0.0000      0.0001      0.0000      0.0001      0.0000      0.0001
  7      0.0000      0.0000      0.0001      0.0001      0.0000      0.0000      0.0000      0.0000      0.0000
  8      0.0000      0.0000      0.0001      0.0000      0.0000      0.0000      0.0000      0.0000      0.0000
  9      0.0000      0.0000      0.0001      0.0000      0.0000      0.0000      0.0000      0.0000      0.0000
 10      0.0000      0.0000      0.0000      0.0000      0.0000      0.0000      0.0000      0.0000      0.0000
 11      0.0000      0.0000      0.0001      0.0000      0.0000      0.0000      0.0000      0.0000      0.0000
 12      0.0000      0.0000      0.0001      0.0000      0.0000      0.0000      0.0000      0.0000      0.0000
 13      0.0000      0.0000      0.0000      0.0000      0.0000      0.0000      0.0000      0.0000      0.0000
 14      0.0000      0.0000      0.0002      0.0000      0.0001      0.0000      0.0000      0.0000      0.0000
 15      0.0000      0.0000      0.0001      0.0000      0.0000      0.0000      0.0000      0.0000      0.0000
 16      0.0000      0.0000      0.0002      0.0000      0.0000      0.0000      0.0000      0.0000      0.0000
 17      0.0000      0.0000      0.0003      0.0000      0.0000      0.0001      0.0000      0.0000      0.0000
 18     14.8163     16.1435     10.0551     15.5818     14.4903     17.4104     14.3998     25.5569     15.5101
 19      0.0000      0.1290      0.0008      0.1600      0.1171      0.1559      0.0582      0.1140      0.2973
 20      0.0000      0.0001      0.0001      0.0000      0.0001      0.0002      0.0000      0.0000      0.0000
 21      0.0000      0.0001      0.0002      0.0000      0.0000      0.0001      0.0000      0.0000      0.0000
 22      0.0000      0.0000      0.0002      0.0000      0.0000      0.0000      0.0000      0.0000      0.0000
 23      0.0000      0.0000      0.0001      0.0000      0.0000      0.0000      0.0000      0.0000      0.0000
 24      0.0000      0.0000      0.0002      0.0000      0.0000      0.0000      0.0000      0.0000      0.0000
 25      0.0000      0.0000      0.0000      0.0000      0.0000      0.0000      0.0000      0.0000      0.0000
 26      0.0000      0.0000      0.0000      0.0000      0.0000      0.0000      0.0000      0.0000      0.0000
 27      0.0000      0.0000      0.0001      0.0000      0.0000      0.0000      0.0000      0.0000      0.0000
 28      0.0000      0.0000      0.0000      0.0000      0.0000      0.0000      0.0000      0.0000      0.0000
 29      0.0000      0.0000      0.0000      0.0000      0.0000      0.0000      0.0000      0.0000      0.0000
 30      0.0000      0.0000      0.0002      0.0000      0.0000      0.0000      0.0000      0.0000      0.0000
 31      0.0000      0.0000      0.0001      0.0000      0.0000      0.0000      0.0000      0.0000      0.0000
 32      0.0000      0.0000      0.0001      0.0000      0.0000      0.0000      0.0000      0.0000      0.0000
 33      0.0000      3.2367      0.9772      7.9977      0.0000      3.5501      0.6819      5.9860      3.4640
 34      4.1293      4.4015      6.3086      1.4621      4.0385      7.2073      5.5307      0.2386      6.0247
 35     23.1917     17.9429     23.6329     12.9718     22.6815     15.9076     16.9550     16.7682     16.6832
 36      0.0000      0.2480      0.0005      0.3495      0.2303      0.2455      0.2277      0.2062      0.4761
 37      0.0000      0.0000      0.0001      0.0000      0.0000      0.0000      0.0000      0.0000      0.0000
 38      0.0000      0.0002      0.0003      0.0001      0.0000      0.0008      0.0002      0.0001      0.0000
 39      0.0000      0.0001      0.0004      0.0000      0.0000      0.0000      0.0000      0.0000      0.0001
 40      0.0000      0.0000      0.0001      0.0000      0.0001      0.0000      0.0000      0.0000      0.0000
 41      0.0000      0.0000      0.0001      0.0000      0.0000      0.0000      0.0000      0.0000      0.0000
 42      0.0000      0.0000      0.0001      0.0000      0.0000      0.0000      0.0000      0.0000      0.0000
 43      0.0000      0.0000      0.0001      0.0000      0.0000      0.0000      0.0000      0.0000      0.0000
 44      0.0000      0.0000      0.0001      0.0000      0.0000      0.0000      0.0000      0.0000      0.0000
 45      0.0000      0.0000      0.0000      0.0000      0.0000      0.0000      0.0000      0.0000      0.0000
 46      0.0000      0.0000      0.0001      0.0000      0.0000      0.0000      0.0000      0.0000      0.0000
 47      0.0000      0.0000      0.0002      0.0000      0.0000      0.0000      0.0000      0.0000      0.0000
 48      0.0000      0.0000      0.0001      0.0000      0.0000      0.0000      0.0000      0.0000      0.0000
 49      0.0000      0.0000      0.0002      0.0000      0.0001      0.0000      0.0000      0.0000      0.0000
 50      0.0000      0.2087      0.0003      0.0001      0.5195      0.3454      0.0000      0.5959      0.0000
 51     21.5404     26.1551     27.3588     31.6714     21.0665     28.0545     29.7509     21.7017     23.4820
 52      0.0000      0.0001      0.0003      0.0000      0.0000      0.0001      0.0002      0.0002      0.0001
 53      0.0000      0.0001      0.0002      0.0000      0.0000      0.0000      0.0000      0.0001      0.0001
 54     50.7644     43.8112     33.7637     47.1509     49.6476     42.9221     49.4627     41.3129     42.4184
 55      0.0000      0.0001      0.0003      0.0002      0.0001      0.0001      0.0000      0.0000      0.0002
 56      0.0000      0.0000      0.0001      0.0000      0.0000      0.0000      0.0000      0.0000      0.0000
 57      0.0000      0.0000      0.0002      0.0000      0.0000      0.0000      0.0000      0.0000      0.0000
 58      0.0000      0.0000      0.0001      0.0000      0.0000      0.0000      0.0000      0.0000      0.0000
 59      0.0000      0.0000      0.0000      0.0000      0.0000      0.0000      0.0000      0.0000      0.0000
 60      0.0000      0.0000      0.0000      0.0000      0.0000      0.0000      0.0000      0.0000      0.0000
 61      0.0000      0.0000      0.0000      0.0000      0.0000      0.0000      0.0000      0.0000      0.0000
 62      0.0000      0.0000      0.0001      0.0000      0.0000      0.0000      0.0000      0.0000      0.0000
 63      0.0000      0.0000      0.0001      0.0000      0.0000      0.0000      0.0000      0.0000      0.0000
 64      0.0000      0.0000      0.0001      0.0000      0.0000      0.0000      0.0001      0.0000      0.0000
 65      0.0000      0.0001      0.0002      0.0000      0.0000      0.0000      0.0000      0.0001      0.0000
 66      0.0000      2.9170     11.5956      1.0760      1.9922      2.0618      0.0001      1.4910      2.2025

# j      m_j: min, <> & last-chain-values for 1 ...  7 chains
  1  6.5693E-01  1.9794E-01  9.1489E-02  2.1306E-01  2.9852E-01  1.4736E-01  3.7862E-01  3.2705E-01  2.6077E-01
  2  0.0000E+00  1.1426E-07  2.6528E-07  0.0000E+00  1.3348E-07  0.0000E+00  1.5619E-07  8.5390E-09  0.0000E+00
  3  0.0000E+00  9.1234E-08  4.6046E-08  2.3770E-08  1.0883E-07  0.0000E+00  2.4971E-07  4.9368E-07  0.0000E+00
  4  0.0000E+00  2.1836E-07  3.8306E-07  1.3453E-07  0.0000E+00  0.0000E+00  0.0000E+00  4.0351E-07  2.5477E-07
  5  0.0000E+00  3.8061E-07  6.3991E-07  0.0000E+00  3.2670E-07  1.3959E-07  5.0896E-07  0.0000E+00  5.3291E-07
  6  0.0000E+00  9.4656E-07  8.2045E-07  0.0000E+00  1.4162E-06  2.6009E-07  2.7610E-06  9.4934E-07  1.5422E-06
  7  0.0000E+00  7.1476E-07  7.8611E-07  2.3076E-06  1.3613E-06  2.1595E-07  7.3749E-08  2.5334E-07  8.9308E-08
  8  0.0000E+00  7.4890E-07  1.9370E-06  0.0000E+00  8.0315E-08  0.0000E+00  4.0769E-07  3.0295E-07  1.8957E-07
  9  0.0000E+00  1.3195E-06  2.2404E-06  1.3115E-06  1.5953E-06  0.0000E+00  2.5971E-06  6.2082E-08  6.3535E-07
 10  0.0000E+00  2.8197E-07  8.1388E-07  0.0000E+00  0.0000E+00  0.0000E+00  0.0000E+00  5.2187E-08  9.0932E-10
 11  0.0000E+00  8.1417E-07  2.0482E-06  0.0000E+00  0.0000E+00  4.8405E-07  0.0000E+00  4.3851E-07  0.0000E+00
 12  0.0000E+00  3.0985E-06  8.1835E-06  0.0000E+00  0.0000E+00  0.0000E+00  1.7204E-06  1.2060E-06  6.2259E-07
 13  0.0000E+00  7.0730E-06  7.8802E-06  0.0000E+00  2.5353E-06  9.1301E-06  3.0020E-05  7.0320E-07  4.8027E-06
 14  0.0000E+00  5.5138E-05  1.0620E-04  6.6675E-05  1.1251E-04  0.0000E+00  0.0000E+00  1.2029E-05  0.0000E+00
 15  0.0000E+00  6.6050E-05  1.3513E-04  1.2057E-05  8.0749E-05  0.0000E+00  1.5399E-04  9.6998E-06  0.0000E+00
 16  0.0000E+00  1.6220E-04  2.6623E-04  2.3418E-04  1.9684E-05  1.0333E-04  2.1408E-04  6.2230E-05  6.5516E-05
 17  0.0000E+00  2.3664E-04  5.0803E-04  0.0000E+00  0.0000E+00  3.3845E-04  0.0000E+00  2.6631E-05  5.6334E-05
 18  5.5285E-01  1.9074E-01  4.9874E-02  2.5339E-01  2.5122E-01  1.8679E-01  3.7255E-01  4.6084E-01  1.8385E-01
 19  0.0000E+00  6.1193E-04  1.5326E-06  1.0442E-03  8.1483E-04  6.7133E-04  6.0434E-04  8.2510E-04  1.4146E-03
 20  0.0000E+00  3.8077E-07  3.1143E-07  3.4122E-07  4.0920E-07  8.6634E-07  6.4804E-08  2.5634E-07  2.4596E-07
 21  0.0000E+00  3.1694E-07  5.4557E-07  0.0000E+00  1.0817E-08  5.4383E-07  6.8596E-08  2.4033E-09  2.8071E-07
 22  0.0000E+00  3.8294E-07  8.5744E-07  4.1749E-07  4.1034E-08  0.0000E+00  5.1014E-07  1.1276E-07  0.0000E+00
 23  0.0000E+00  3.7219E-07  8.5174E-07  4.6338E-07  0.0000E+00  0.0000E+00  1.3816E-07  4.6821E-08  1.4650E-07
 24  0.0000E+00  6.9444E-07  1.3873E-06  1.2673E-06  0.0000E+00  1.4876E-07  0.0000E+00  2.5119E-08  4.5684E-07
 25  0.0000E+00  4.7822E-07  4.1891E-07  6.3451E-07  1.0764E-07  1.5145E-07  2.2045E-06  1.5268E-07  5.4351E-07
 26  0.0000E+00  2.8321E-07  6.3117E-07  0.0000E+00  4.3290E-07  0.0000E+00  0.0000E+00  2.8082E-07  0.0000E+00
 27  0.0000E+00  1.2262E-06  2.6312E-06  0.0000E+00  0.0000E+00  0.0000E+00  6.2074E-07  3.2183E-07  1.8277E-06
 28  0.0000E+00  9.1262E-07  1.4256E-06  0.0000E+00  0.0000E+00  0.0000E+00  4.5162E-06  1.4196E-06  0.0000E+00
 29  0.0000E+00  4.5902E-06  5.5188E-06  0.0000E+00  0.0000E+00  1.0365E-05  1.0514E-05  1.0216E-06  2.1071E-06
 30  0.0000E+00  3.2689E-05  8.2189E-05  0.0000E+00  0.0000E+00  0.0000E+00  3.3822E-05  2.6863E-05  0.0000E+00
 31  0.0000E+00  3.3398E-05  8.4676E-05  2.7809E-06  0.0000E+00  0.0000E+00  6.0910E-05  0.0000E+00  2.2578E-06
 32  0.0000E+00  3.8825E-05  9.1500E-05  0.0000E+00  2.0843E-05  0.0000E+00  5.5265E-05  5.3920E-06  1.0880E-05
 33  0.0000E+00  1.7647E+01  2.2367E+00  6.0015E+01  0.0000E+00  1.7576E+01  8.1415E+00  4.9809E+01  1.8948E+01
 34  9.6282E+01  3.2497E+01  1.9553E+01  1.4857E+01  4.3752E+01  4.8319E+01  8.9415E+01  2.6889E+00  4.4626E+01
 35  6.9386E-01  1.6998E-01  9.3989E-02  1.6914E-01  3.1530E-01  1.3684E-01  3.5172E-01  2.4244E-01  1.5856E-01
 36  0.0000E+00  9.5043E-04  7.9426E-07  1.8440E-03  1.2953E-03  8.5430E-04  1.9112E-03  1.2060E-03  1.8308E-03
 37  0.0000E+00  1.0059E-07  2.3603E-07  6.1113E-09  1.2098E-07  0.0000E+00  9.7570E-08  1.5937E-08  0.0000E+00
 38  0.0000E+00  2.6600E-06  1.2084E-06  1.2394E-06  6.8831E-07  8.6253E-06  6.0365E-06  2.4948E-06  4.8341E-07
 39  0.0000E+00  1.2294E-06  2.5680E-06  0.0000E+00  1.7545E-07  5.9793E-08  0.0000E+00  1.1231E-06  1.5723E-06
 40  0.0000E+00  6.4539E-07  7.2855E-07  0.0000E+00  2.3900E-06  0.0000E+00  1.6841E-06  9.5223E-08  3.2311E-07
 41  0.0000E+00  6.8073E-07  1.2688E-06  0.0000E+00  4.9386E-07  0.0000E+00  2.2585E-06  1.6965E-07  2.6447E-07
 42  0.0000E+00  1.2334E-06  1.6070E-06  1.2517E-06  8.0693E-07  0.0000E+00  4.7393E-07  2.0833E-06  1.7707E-06
 43  0.0000E+00  2.2800E-06  5.3131E-06  3.0560E-06  0.0000E+00  0.0000E+00  2.4179E-07  1.4852E-06  0.0000E+00
 44  0.0000E+00  3.1346E-06  5.3240E-06  0.0000E+00  3.4922E-06  0.0000E+00  1.3054E-05  8.3162E-07  3.7531E-07
 45  0.0000E+00  1.4684E-06  3.0738E-06  0.0000E+00  0.0000E+00  0.0000E+00  6.4756E-06  0.0000E+00  0.0000E+00
 46  0.0000E+00  1.3660E-05  2.9867E-05  1.8916E-05  0.0000E+00  0.0000E+00  0.0000E+00  1.3851E-06  9.8578E-06
 47  0.0000E+00  4.7076E-05  9.5148E-05  6.9486E-05  4.2335E-05  0.0000E+00  0.0000E+00  4.4458E-06  2.0707E-05
 48  0.0000E+00  3.2959E-05  8.5616E-05  0.0000E+00  3.0098E-05  0.0000E+00  0.0000E+00  9.5556E-06  0.0000E+00
 49  0.0000E+00  2.7552E-04  5.2972E-04  5.7118E-05  5.0996E-04  1.0306E-04  1.7395E-04  6.6223E-06  8.0781E-05
 50  0.0000E+00  2.1485E+00  1.2475E-03  7.9724E-04  7.8458E+00  3.2280E+00  0.0000E+00  9.3611E+00  3.3376E-04
 51  3.8381E-01  1.4757E-01  6.4801E-02  2.4594E-01  1.7441E-01  1.4373E-01  3.6756E-01  1.8687E-01  1.3292E-01
 52  0.0000E+00  3.9835E-07  3.0715E-07  0.0000E+00  0.0000E+00  3.8279E-07  1.2948E-06  9.8466E-07  4.0007E-07
 53  0.0000E+00  2.5611E-07  4.3964E-07  0.0000E+00  2.3107E-07  0.0000E+00  6.6686E-08  4.4134E-07  2.6930E-07
 54  1.4307E+00  3.9097E-01  1.2649E-01  5.7914E-01  6.5013E-01  3.4781E-01  9.6657E-01  5.6266E-01  3.7978E-01
 55  0.0000E+00  1.7639E-06  1.7371E-06  3.8368E-06  1.0162E-06  1.1054E-06  1.4963E-06  8.7370E-07  2.2638E-06
 56  0.0000E+00  1.0082E-06  7.9450E-07  1.5196E-06  1.6204E-06  0.0000E+00  2.4206E-06  1.1889E-06  1.0752E-06
 57  0.0000E+00  1.0427E-06  2.6022E-06  0.0000E+00  7.5058E-07  0.0000E+00  1.0547E-06  1.5647E-07  4.9308E-09
 58  0.0000E+00  1.2919E-06  2.8697E-06  0.0000E+00  7.2307E-08  6.5697E-07  4.4795E-07  1.3534E-06  3.4479E-07
 59  0.0000E+00  1.2194E-07  2.9374E-07  0.0000E+00  0.0000E+00  0.0000E+00  0.0000E+00  2.3489E-07  0.0000E+00
 60  0.0000E+00  2.1939E-06  2.9558E-06  1.8791E-06  6.3433E-06  0.0000E+00  3.0957E-06  1.1117E-06  4.8782E-07
 61  0.0000E+00  2.0651E-06  3.9144E-06  0.0000E+00  3.4153E-06  0.0000E+00  2.5822E-06  2.4791E-06  0.0000E+00
 62  0.0000E+00  1.6652E-05  4.4709E-05  0.0000E+00  0.0000E+00  0.0000E+00  1.2291E-05  6.8012E-06  0.0000E+00
 63  0.0000E+00  6.1064E-05  1.1959E-04  1.2832E-05  7.9651E-05  3.0837E-05  2.4132E-05  5.1876E-05  0.0000E+00
 64  0.0000E+00  1.6359E-04  2.4856E-04  0.0000E+00  4.4344E-05  1.8201E-05  7.5660E-04  2.2114E-04  1.2427E-05
 65  0.0000E+00  6.3982E-04  1.0441E-03  6.3815E-04  4.5651E-04  0.0000E+00  3.9550E-04  1.1181E-03  3.0463E-04
 66  0.0000E+00  4.6607E+01  7.7779E+01  2.3662E+01  4.6709E+01  2.9913E+01  1.8055E-03  3.6358E+01  3.5306E+01

# AV, chi2 & Mass for <> & i_chain = 1 ...  7 solutions
AV       2.6520      1.9897      1.6663      2.1002      2.2611      1.9704      2.3171      2.2654      2.0473
chi2 1.6487E-04  1.7108E-04  1.7309E-04  1.6916E-04  1.6843E-04  1.6998E-04  1.6753E-04  1.6785E-04  1.6950E-04
Mass 4.7888E-13  6.2133E-13  9.5863E-13  5.2369E-13  6.0966E-13  6.6672E-13  4.4044E-13  5.8960E-13  6.6915E-13
 252.10                                  [v0_min (km/s) before EX0s...]
  41.22                                  [vd_min (km/s) before EX0s...]


## Synthetic spectrum (Best Model) ##l_obs f_obs f_syn wei
 3478    [Nl_obs]
 3741.00    1.99161   1.13913    0.000
 3742.00    1.23295   1.17662    0.000
 3743.00    0.13758   1.20173    0.000
 3744.00   -0.18132   1.21724    0.000
 3745.00   -0.04783   1.22349    0.000
 3746.00    2.57067   1.21987   -1.000
 3747.00    6.45108   1.20703   -1.000
 3748.00    5.54755   1.18501   -1.000
 3749.00    2.54040   1.15575   -1.000
 3750.00    1.21555   1.11884   -1.000
 3751.00    0.52581   1.06781   -1.000
 3752.00   -0.78679   1.00867    0.000
 3753.00   -2.29901   0.97371    0.000
 3754.00   -0.75763   0.99074    0.000
 3755.00    1.60205   1.04524   -1.000
 3756.00    2.35692   1.09957   -1.000
 3757.00    2.75956   1.13546   -1.000
 3758.00    2.57887   1.16168   -1.000
 3759.00    2.29635   1.18483   -1.000
 3760.00    1.73930   1.19929   -1.000
 3761.00    1.14577   1.20658   -1.000
 3762.00    0.52998   1.20660   -1.000
 3763.00   -0.08791   1.20756    0.000
 3764.00    1.07404   1.21985   -1.000
 3765.00    2.33866   1.22883   -1.000
 3766.00    3.16552   1.22740   -1.000
 3767.00    3.97427   1.22187   -1.000
 3768.00    3.84784   1.20795   -1.000
 3769.00    3.70573   1.17994   -1.000
 3770.00    3.18285   1.14014   -1.000
 3771.00    2.65402   1.08884   -1.000
 3772.00    2.04724   1.02442   -1.000
 3773.00    1.55626   0.96397   -1.000
 3774.00    2.08190   0.94619   -1.000
 3775.00    2.49306   0.98580   -1.000
 3776.00    2.16192   1.04952   -1.000
 3777.00    1.66258   1.10727   -1.000
 3778.00    0.31201   1.15681   -1.000
 3779.00   -0.46124   1.19565    0.000
 3780.00    1.12860   1.21969   -1.000
 3781.00    2.34733   1.23486   -1.000
 3782.00    2.30740   1.24962   -1.000
 3783.00    2.59022   1.26554   -1.000
 3784.00    3.79612   1.27786   -1.000
 3785.00    4.46769   1.28394   -1.000
 3786.00    3.83374   1.28532   -1.000
 3787.00    3.46785   1.28248   -1.000
 3788.00    3.66695   1.27738   -1.000
 3789.00    3.18932   1.27393   -1.000
 3790.00    1.47212   1.27095   -1.000
 3791.00   -0.13960   1.26598    0.000
 3792.00   -1.58248   1.25670    0.000
 3793.00   -1.21298   1.23854    0.000
 3794.00    1.70224   1.21305   -1.000
 3795.00    4.06503   1.19158   -1.000
 3796.00    5.74501   1.17131   -1.000
 3797.00    5.15344   1.13571   -1.000
 3798.00    2.08703   1.07884   -1.000
 3799.00    0.92906   1.00479   -1.000
 3800.00    1.60507   0.92960   -1.000
 3801.00    1.74619   0.89205   -1.000
 3802.00    1.43406   0.92218   -1.000
 3803.00    0.08352   0.99848   -1.000
 3804.00   -2.04187   1.07678    0.000
 3805.00   -3.00271   1.13592    0.000
 3806.00   -3.20012   1.17800    0.000
 3807.00   -2.83992   1.20716    0.000
 3808.00   -2.15976   1.21957    0.000
 3809.00   -1.28044   1.21953    0.000
 3810.00   -0.30158   1.22883    0.000
 3811.00   -0.30583   1.25311    0.000
 3812.00   -0.73521   1.27408    0.000
 3813.00   -0.28670   1.28394    0.000
 3814.00    0.48738   1.28763   -1.000
 3815.00    1.70465   1.28823   -1.000
 3816.00    3.06124   1.28585   -1.000
 3817.00    2.33005   1.28251   -1.000
 3818.00    1.05118   1.27906   -1.000
 3819.00    1.31502   1.27324   -1.000
 3820.00    1.90940   1.25891   -1.000
 3821.00    2.47026   1.22058   -1.000
 3822.00    3.02543   1.16136   -1.000
 3823.00    2.25067   1.13448   -1.000
 3824.00    1.30526   1.17032   -1.000
 3825.00    2.34459   1.22476   -1.000
 3826.00    3.56208   1.25589   -1.000
 3827.00    1.80731   1.26275   -1.000
 3828.00   -0.10722   1.25823    0.000
 3829.00   -0.79540   1.25104    0.000
 3830.00   -1.41823   1.24175    0.000
 3831.00    1.40009   1.22831   -1.000
 3832.00    4.03682   1.20857   -1.000
 3833.00    2.63945   1.18114   -1.000
 3834.00    1.30860   1.14306   -1.000
 3835.00    0.80509   1.09000   -1.000
 3836.00    0.19448   1.02003   -1.000
 3837.00   -1.32144   0.93702    0.000
 3838.00   -2.45931   0.86962    0.000
 3839.00   -1.21889   0.86329    0.000
 3840.00   -0.00300   0.92095    0.000
 3841.00    1.09186   1.00000   -1.000
 3842.00    1.81130   1.07240   -1.000
 3843.00    1.02786   1.13128   -1.000
 3844.00    0.58654   1.17399   -1.000
 3845.00    1.28265   1.20410   -1.000
 3846.00    1.83604   1.22640   -1.000
 3847.00    1.98866   1.24388    0.000
 3848.00    2.10773   1.25698    0.000
 3849.00    2.14623   1.26586    0.000
 3850.00    2.30049   1.27158    0.000
 3851.00    2.69482   1.27511    0.000
 3852.00    3.28259   1.27663    0.000
 3853.00    4.21927   1.27395    0.000
 3854.00    4.26667   1.27237    0.000
 3855.00    2.91162   1.27872    0.000
 3856.00    1.50598   1.28531    0.000
 3857.00    0.03032   1.28381    0.000
 3858.00   -0.48890   1.27590    0.000
 3859.00    0.15728   1.26829    0.000
 3860.00    1.51141   1.26915    0.000
 3861.00    3.62599   1.27594    0.000
 3862.00    3.59089   1.27855    0.000
 3863.00    1.51896   1.27583    0.000
 3864.00    0.74573   1.27457    0.000
 3865.00    1.05743   1.27585    0.000
 3866.00    1.41185   1.27409    0.000
 3867.00    1.79769   1.26935    0.000
 3868.00    2.22495   1.26832    0.000
 3869.00    2.67896   1.26797    0.000
 3870.00    1.87995   1.25991    0.000
 3871.00    0.37281   1.25796    0.000
 3872.00    0.28586   1.27055    0.000
 3873.00    0.89751   1.27624    0.000
 3874.00    1.06384   1.26179    0.000
 3875.00    1.04080   1.24498    0.000
 3876.00    1.61103   1.24741    0.000
 3877.00    2.39736   1.25916    0.000
 3878.00    2.78035   1.25627    0.000
 3879.00    3.03902   1.24032    0.000
 3880.00    2.24655   1.23363    0.000
 3881.00    1.18425   1.23864   -1.000
 3882.00    1.49316   1.24128   -1.000
 3883.00    2.08874   1.23633   -1.000
 3884.00    1.65197   1.22196   -1.000
 3885.00    1.04498   1.19920   -1.000
 3886.00    1.14417   1.17570   -1.000
 3887.00    1.33081   1.15208   -1.000
 3888.00    2.14329   1.11558   -1.000
 3889.00    3.00933   1.05734   -1.000
 3890.00    1.74639   0.97828   -1.000
 3891.00    0.37733   0.88840   -1.000
 3892.00    1.11554   0.82899   -1.000
 3893.00    1.86447   0.84854   -1.000
 3894.00    1.07741   0.93259   -1.000
 3895.00    0.35651   1.02477   -1.000
 3896.00    0.98911   1.09571   -1.000
 3897.00    1.49235   1.14559   -1.000
 3898.00    0.46582   1.18008   -1.000
 3899.00   -0.32519   1.20549    0.000
 3900.00    0.80251   1.22456   -1.000
 3901.00    1.66496   1.23432   -1.000
 3902.00    0.90733   1.23799   -1.000
 3903.00    0.71392   1.24692   -1.000
 3904.00    3.23568   1.26171   -1.000
 3905.00    4.71333   1.27292   -1.000
 3906.00    2.10202   1.27833   -1.000
 3907.00    0.20177   1.28194   -1.000
 3908.00    0.61925   1.28372   -1.000
 3909.00    0.68512   1.28384   -1.000
 3910.00   -0.21857   1.28584    0.000
 3911.00   -0.94159   1.29101    0.000
 3912.00   -1.23797   1.29640    0.000
 3913.00   -0.69554   1.29718    0.000
 3914.00    1.55877   1.29053   -1.000
 3915.00    2.57830   1.28337   -1.000
 3916.00    1.40465   1.28599   -1.000
 3917.00    0.63459   1.29419   -1.000
 3918.00    0.49163   1.29866   -1.000
 3919.00    0.32758   1.29804   -1.000
 3920.00    0.13472   1.29193   -1.000
 3921.00    0.38096   1.27421   -1.000
 3922.00    1.15463   1.24622   -1.000
 3923.00    1.87752   1.22510   -1.000
 3924.00    2.54663   1.22532   -1.000
 3925.00    2.05394   1.23983   -1.000
 3926.00    0.47594   1.24719   -1.000
 3927.00   -0.28045   1.24297    0.000
 3928.00   -0.36018   1.23703    0.000
 3929.00   -0.06506   1.23086    0.000
 3930.00    0.50179   1.23016   -1.000
 3931.00    0.82247   1.24073   -1.000
 3932.00    0.98647   1.25411   -1.000
 3933.00    1.19954   1.26337   -1.000
 3934.00    1.43991   1.26562   -1.000
 3935.00    1.28614   1.25895   -1.000
 3936.00    0.94158   1.24533   -1.000
 3937.00    1.32001   1.23565   -1.000
 3938.00    2.00072   1.23963   -1.000
 3939.00    2.29587   1.25250   -1.000
 3940.00    2.45311   1.26553   -1.000
 3941.00    1.73850   1.27435   -1.000
 3942.00    0.76037   1.27965   -1.000
 3943.00    0.93245   1.28386   -1.000
 3944.00    1.39343   1.28603   -1.000
 3945.00    1.02273   1.28542   -1.000
 3946.00    0.48244   1.28150   -1.000
 3947.00    0.48264   1.27336   -1.000
 3948.00    0.56937   1.26702   -1.000
 3949.00    1.49448   1.27035   -1.000
 3950.00    2.51968   1.27673   -1.000
 3951.00    1.69376   1.27853   -1.000
 3952.00    0.71711   1.28068   -1.000
 3953.00    0.42450   1.28501   -1.000
 3954.00    0.16333   1.28658   -1.000
 3955.00    1.21380   1.28236   -1.000
 3956.00    2.25167   1.27367   -1.000
 3957.00    1.75823   1.26340   -1.000
 3958.00    1.31456   1.25771   -1.000
 3959.00    1.81392   1.25832   -1.000
 3960.00    2.26077   1.26053    0.000
 3961.00    2.11584   1.26103    0.000
 3962.00    1.97501   1.25708    0.000
 3963.00    1.86640   1.24328    0.000
 3964.00    1.73247   1.21734    0.000
 3965.00    1.44824   1.19124    0.000
 3966.00    1.09993   1.17105    0.000
 3967.00    0.45072   1.14191    0.000
 3968.00    0.09623   1.10474    0.000
 3969.00    0.87122   1.07189    0.000
 3970.00    1.38822   1.02820    0.000
 3971.00    1.08060   0.95492    0.000
 3972.00    0.93365   0.86321    0.000
 3973.00    1.22187   0.79910    0.000
 3974.00    1.39314   0.81188    0.000
 3975.00    1.29285   0.89089    0.000
 3976.00    1.10766   0.98146    0.000
 3977.00    0.75195   1.05655    0.000
 3978.00    1.02884   1.11646    0.000
 3979.00    2.41227   1.15990    0.000
 3980.00    2.70131   1.18939    0.000
 3981.00    1.31486   1.21105   -1.000
 3982.00    0.79294   1.22756   -1.000
 3983.00    1.43366   1.24077   -1.000
 3984.00    1.91989   1.24975   -1.000
 3985.00    2.22317   1.25140   -1.000
 3986.00    2.14379   1.25072   -1.000
 3987.00    1.66482   1.25735   -1.000
 3988.00    1.16418   1.26969   -1.000
 3989.00    0.64359   1.27966   -1.000
 3990.00    0.71604   1.28606   -1.000
 3991.00    1.26999   1.29103   -1.000
 3992.00    1.55430   1.29340   -1.000
 3993.00    1.64595   1.29357   -1.000
 3994.00    1.50972   1.29458   -1.000
 3995.00    1.23060   1.29705   -1.000
 3996.00    2.13981   1.29692   -1.000
 3997.00    3.70024   1.28899   -1.000
 3998.00    3.09299   1.27944   -1.000
 3999.00    1.45320   1.28012   -1.000
 4000.00    0.73930   1.28712   -1.000
 4001.00    0.40595   1.28958   -1.000
 4002.00    0.91621   1.29075   -1.000
 4003.00    1.72276   1.29553   -1.000
 4004.00    1.89236   1.29931   -1.000
 4005.00    1.87322   1.29851   -1.000
 4006.00    1.37422   1.29397   -1.000
 4007.00    0.75734   1.28749   -1.000
 4008.00    1.41422   1.28132   -1.000
 4009.00    2.32434   1.27814   -1.000
 4010.00    1.80026   1.27478   -1.000
 4011.00    1.05333   1.26103   -1.000
 4012.00    1.70148   1.24097   -1.000
 4013.00    2.51003   1.23826   -1.000
 4014.00    1.97631   1.25867   -1.000
 4015.00    1.33881   1.28181   -1.000
 4016.00    1.22337   1.29484   -1.000
 4017.00    1.12992   1.30059   -1.000
 4018.00    0.91944   1.30359   -1.000
 4019.00    0.71086   1.30455   -1.000
 4020.00    0.63191   1.30304   -1.000
 4021.00    0.56666   1.30152   -1.000
 4022.00    0.74283   1.30179   -1.000
 4023.00    0.82827   1.30038   -1.000
 4024.00   -0.06250   1.29366    0.000
 4025.00   -0.71251   1.28108    0.000
 4026.00    0.46528   1.25953   -1.000
 4027.00    1.50564   1.21977   -1.000
 4028.00    1.75325   1.15648   -1.000
 4029.00    1.87147   1.09998   -1.000
 4030.00    1.39670   1.10595   -1.000
 4031.00    1.04502   1.17181   -1.000
 4032.00    1.15503   1.23632   -1.000
 4033.00    1.28348   1.26806   -1.000
 4034.00    1.46973   1.27787   -1.000
 4035.00    1.42775   1.28003   -1.000
 4036.00    0.77860   1.28047   -1.000
 4037.00    0.49016   1.28070   -1.000
 4038.00    1.02536   1.28244   -1.000
 4039.00    1.16533   1.29119   -1.000
 4040.00    0.52393   1.30497   -1.000
 4041.00    0.00888   1.31326   -1.000
 4042.00   -0.28854   1.31310    0.000
 4043.00    0.06294   1.30721   -1.000
 4044.00    1.39328   1.29943   -1.000
 4045.00    2.10757   1.29558   -1.000
 4046.00    2.00523   1.29415   -1.000
 4047.00    1.69990   1.28980   -1.000
 4048.00    1.15758   1.28497   -1.000
 4049.00    0.32427   1.28546   -1.000
 4050.00   -0.80863   1.29205    0.000
 4051.00   -1.08237   1.29980    0.000
 4052.00   -0.57590   1.30541    0.000
 4053.00    0.13160   1.31017   -1.000
 4054.00    1.00000   1.31330   -1.000
 4055.00    1.09549   1.31188   -1.000
 4056.00    0.64672   1.30569   -1.000
 4057.00    0.38110   1.29785   -1.000
 4058.00    0.22859   1.29302   -1.000
 4059.00    0.39174   1.29362   -1.000
 4060.00    0.72520   1.29795   -1.000
 4061.00    0.69744   1.30127   -1.000
 4062.00    0.50039   1.29907   -1.000
 4063.00    0.76706   1.29234   -1.000
 4064.00    1.22108   1.28766   -1.000
 4065.00    1.19855   1.28663   -1.000
 4066.00    1.01170   1.28533   -1.000
 4067.00    0.97460   1.28610   -1.000
 4068.00    0.98099   1.29240   -1.000
 4069.00    1.20871   1.29714   -1.000
 4070.00    1.48959   1.28983   -1.000
 4071.00    1.34705   1.26958   -1.000
 4072.00    1.12246   1.24483   -1.000
 4073.00    1.49197   1.22887   -1.000
 4074.00    1.95100   1.22993   -1.000
 4075.00    1.46038   1.24203   -1.000
 4076.00    0.86473   1.25818   -1.000
 4077.00    1.07817   1.26823   -1.000
 4078.00    1.35086   1.25961   -1.000
 4079.00    1.26581   1.24586   -1.000
 4080.00    1.16706   1.24885   -1.000
 4081.00    0.33259   1.26221   -1.000
 4082.00   -0.46278   1.27243    0.000
 4083.00    0.36944   1.28064   -1.000
 4084.00    1.16293   1.28723   -1.000
 4085.00    1.31832   1.28851   -1.000
 4086.00    1.42369   1.28408   -1.000
 4087.00    1.01440   1.27547   -1.000
 4088.00    0.65152   1.26842   -1.000
 4089.00    0.62913   1.26796   -1.000
 4090.00    0.71346   1.26712   -1.000
 4091.00    1.39649   1.25428   -1.000
 4092.00    1.88274   1.23725    0.000
 4093.00    1.48839   1.23844    0.000
 4094.00    1.08689   1.25288    0.000
 4095.00    0.65912   1.25490    0.000
 4096.00    0.35626   1.24303    0.000
 4097.00    0.43758   1.22836    0.000
 4098.00    0.42840   1.20583    0.000
 4099.00    0.18269   1.16766    0.000
 4100.00    0.14315   1.12106    0.000
 4101.00    0.56662   1.07819    0.000
 4102.00    0.68781   1.03213    0.000
 4103.00    0.22080   0.96085    0.000
 4104.00    0.58149   0.86968    0.000
 4105.00    2.34658   0.81381    0.000
 4106.00    3.01171   0.84155    0.000
 4107.00    2.04178   0.92967    0.000
 4108.00    0.90308   1.02322    0.000
 4109.00   -0.45616   1.09792    0.000
 4110.00   -0.25435   1.15167    0.000
 4111.00    1.74428   1.18654    0.000
 4112.00    2.55912   1.20821    0.000
 4113.00    2.17230   1.22114   -1.000
 4114.00    1.11506   1.23006   -1.000
 4115.00   -0.54244   1.24094    0.000
 4116.00   -0.99799   1.25464    0.000
 4117.00   -0.50524   1.26411    0.000
 4118.00   -0.19453   1.26214    0.000
 4119.00   -0.01016   1.25547    0.000
 4120.00    0.05123   1.25883   -1.000
 4121.00    0.03779   1.26482   -1.000
 4122.00    0.42586   1.25352   -1.000
 4123.00    1.02725   1.22841   -1.000
 4124.00    0.89394   1.21366   -1.000
 4125.00    0.42188   1.22802   -1.000
 4126.00    0.43257   1.26199   -1.000
 4127.00    0.63495   1.29027   -1.000
 4128.00    1.24400   1.30443   -1.000
 4129.00    1.99067   1.30751   -1.000
 4130.00    1.70017   1.30043   -1.000
 4131.00    1.11457   1.28896   -1.000
 4132.00    1.26584   1.28327   -1.000
 4133.00    1.59010   1.28201   -1.000
 4134.00    1.57413   1.27784   -1.000
 4135.00    1.49393   1.27345   -1.000
 4136.00    0.94346   1.27524   -1.000
 4137.00    0.32432   1.28450   -1.000
 4138.00    0.37104   1.29740   -1.000
 4139.00    0.48852   1.30670   -1.000
 4140.00    0.37647   1.30817   -1.000
 4141.00    0.24854   1.30592   -1.000
 4142.00    0.69138   1.30461   -1.000
 4143.00    1.15390   1.30296   -1.000
 4144.00    1.48884   1.29589   -1.000
 4145.00    1.79114   1.27337   -1.000
 4146.00    1.02363   1.23301   -1.000
 4147.00    0.32126   1.20328   -1.000
 4148.00    0.62618   1.21597   -1.000
 4149.00    0.83908   1.25550   -1.000
 4150.00    0.14490   1.28669   -1.000
 4151.00   -0.48309   1.30094    0.000
 4152.00   -0.64115   1.30238    0.000
 4153.00   -0.64252   1.29687    0.000
 4154.00    0.21148   1.29431   -1.000
 4155.00    0.84093   1.29334   -1.000
 4156.00    0.48883   1.28787   -1.000
 4157.00    0.20621   1.28640   -1.000
 4158.00    0.17348   1.29336   -1.000
 4159.00    0.53021   1.29800   -1.000
 4160.00    2.06214   1.30003   -1.000
 4161.00    2.93703   1.30734   -1.000
 4162.00    2.12460   1.31617   -1.000
 4163.00    1.32503   1.31966   -1.000
 4164.00    0.55387   1.31783   -1.000
 4165.00    0.21542   1.31310   -1.000
 4166.00    0.70589   1.30778   -1.000
 4167.00    1.09638   1.30445   -1.000
 4168.00    1.31976   1.30417   -1.000
 4169.00    1.45791   1.30597   -1.000
 4170.00    1.47122   1.30551   -1.000
 4171.00    1.52361   1.29855   -1.000
 4172.00    1.62635   1.29094   -1.000
 4173.00    1.59644   1.29285   -1.000
 4174.00    1.41602   1.29921   -1.000
 4175.00    1.33209   1.29857   -1.000
 4176.00    1.34475   1.29435   -1.000
 4177.00    1.40859   1.29416   -1.000
 4178.00    1.51763   1.29683   -1.000
 4179.00    1.74215   1.29898   -1.000
 4180.00    2.05649   1.30056   -1.000
 4181.00    2.26550   1.30308   -1.000
 4182.00    2.40246   1.30677   -1.000
 4183.00    2.53753   1.31104   -1.000
 4184.00    2.67145   1.31411   -1.000
 4185.00    2.15625   1.31438   -1.000
 4186.00    1.30154   1.31357   -1.000
 4187.00    1.27535   1.31196   -1.000
 4188.00    1.62495   1.30692   -1.000
 4189.00    1.78828   1.29971   -1.000
 4190.00    1.87893   1.29536   -1.000
 4191.00    2.59156   1.29621   -1.000
 4192.00    3.51079   1.29677   -1.000
 4193.00    3.08000   1.29459   -1.000
 4194.00    2.27293   1.29812   -1.000
 4195.00    1.76033   1.30839   -1.000
 4196.00    1.31529   1.31687   -1.000
 4197.00    1.30089   1.31842   -1.000
 4198.00    1.36563   1.31203   -1.000
 4199.00    1.28380   1.30128   -1.000
 4200.00    1.18125   1.29002   -1.000
 4201.00    1.37502   1.27485   -1.000
 4202.00    1.59901   1.25312   -1.000
 4203.00    1.58872   1.23605   -1.000
 4204.00    1.56318   1.23890   -1.000
 4205.00    1.78456   1.25885   -1.000
 4206.00    2.01255   1.28086   -1.000
 4207.00    1.61670   1.29673   -1.000
 4208.00    1.21711   1.30592   -1.000
 4209.00    0.70758   1.31210   -1.000
 4210.00    0.32474   1.31829   -1.000
 4211.00    1.78634   1.32357   -1.000
 4212.00    3.10062   1.32575    0.298
 4213.00    3.02198   1.32397    0.026
 4214.00    2.82952   1.32009    0.014
 4215.00    1.85471   1.31603    0.014
 4216.00    1.06781   1.31428    0.014
 4217.00    1.27962   1.31509    0.014
 4218.00    1.54253   1.31366    0.014
 4219.00    2.02369   1.31030    0.014
 4220.00    2.37369   1.31237    0.014
 4221.00    2.26157   1.31937    0.014
 4222.00    2.19173   1.32442    0.014
 4223.00    2.24710   1.32606    0.014
 4224.00    2.26497   1.32444    0.014
 4225.00    2.18818   1.31845    0.014
 4226.00    2.05168   1.31119    0.014
 4227.00    1.78541   1.30588    0.014
 4228.00    1.47790   1.29910    0.014
 4229.00    1.09262   1.28908    0.013
 4230.00    0.99705   1.28099    0.013
 4231.00    1.37844   1.28323    0.013
 4232.00    1.83347   1.29646    0.013
 4233.00    2.39481   1.31008    0.013
 4234.00    2.53764   1.31698    0.013
 4235.00    2.14910   1.31793    0.013
 4236.00    1.85009   1.31534    0.013
 4237.00    1.65123   1.31358    0.013
 4238.00    1.72694   1.31397    0.013
 4239.00    2.07358   1.31069    0.013
 4240.00    2.26722   1.30482    0.013
 4241.00    2.32771   1.30532    0.013
 4242.00    2.38767   1.31175    0.013
 4243.00    2.44723   1.31587    0.014
 4244.00    2.02624   1.31449    0.014
 4245.00    1.28140   1.31216    0.014
 4246.00    1.04824   1.31653    0.014
 4247.00    1.11719   1.32722    0.014
 4248.00    1.23341   1.33428    0.014
 4249.00    1.37397   1.33152    0.014
 4250.00    1.41322   1.32415    0.014
 4251.00    1.40726   1.32025    0.014
 4252.00    0.98420   1.31960    0.014
 4253.00    0.40121   1.31741    0.014
 4254.00    0.79758   1.31481    0.014
 4255.00    1.51313   1.31363    0.014
 4256.00    2.12397   1.30596    0.014
 4257.00    2.70623   1.29319    0.014
 4258.00    2.65509   1.29308    0.014
 4259.00    2.46201   1.30720    0.015
 4260.00    2.13876   1.31962    0.015
 4261.00    1.79223   1.32277    0.015
 4262.00    1.74681   1.31976    0.015
 4263.00    1.74259   1.31531    0.015
 4264.00    1.94141   1.31357    0.015
 4265.00    2.16006   1.31807    0.015
 4266.00    1.66119   1.32702    0.014
 4267.00    1.11844   1.33427    0.014
 4268.00    1.53651   1.33286    0.014
 4269.00    1.98103   1.31247    0.014
 4270.00    2.53008   1.27682    0.014
 4271.00    3.03738   1.26132    0.014
 4272.00    2.44089   1.28241    0.014
 4273.00    1.88532   1.30722    0.014
 4274.00    1.89229   1.31173    0.014
 4275.00    1.85895   1.30653    0.014
 4276.00    1.45936   1.30399    0.014
 4277.00    1.08072   1.30192    0.014
 4278.00    0.84155   1.29441    0.014
 4279.00    0.70034   1.28586    0.014
 4280.00    1.06631   1.28732    0.014
 4281.00    1.46820   1.30201    0.014
 4282.00    2.02007   1.32030   -2.000
 4283.00    2.63849   1.32880   -2.000
 4284.00    3.48668   1.32552   -2.000
 4285.00    3.90112   1.31747   -2.000
 4286.00    3.05478   1.30962   -2.000
 4287.00    2.21834   1.30476   -2.000
 4288.00    1.40644   1.30357   -2.000
 4289.00    0.86821   1.30712   -2.000
 4290.00    0.91505   1.31470   -2.000
 4291.00    1.01165   1.31722   -2.000
 4292.00    1.20062   1.30913   -2.000
 4293.00    1.42626   1.29953   -2.000
 4294.00    1.71135   1.29927   -2.000
 4295.00    1.82463   1.30940   -2.000
 4296.00    1.69346   1.32141   -2.000
 4297.00    1.51770   1.32304   -2.000
 4298.00    1.28612   1.31609    0.014
 4299.00    1.21427   1.31466    0.014
 4300.00    1.31863   1.31924    0.014
 4301.00    1.39029   1.32042    0.013
 4302.00    1.43014   1.31523    0.013
 4303.00    1.60182   1.30825    0.013
 4304.00    1.88659   1.30579    0.013
 4305.00    1.76740   1.30465    0.013
 4306.00    1.34295   1.29666    0.013
 4307.00    1.44427   1.28804    0.013
 4308.00    1.89474   1.29042    0.013
 4309.00    1.85625   1.29843    0.013
 4310.00    1.53341   1.29969    0.013
 4311.00    1.06815   1.29382    0.013
 4312.00    0.53070   1.28991    0.013
 4313.00    0.86027   1.29423    0.013
 4314.00    1.57028   1.30479    0.013
 4315.00    1.66436   1.31334    0.013
 4316.00    1.52641   1.31383    0.013
 4317.00    1.51497   1.30996    0.013
 4318.00    1.54398   1.31082    0.013
 4319.00    1.40700   1.31783    0.013
 4320.00    1.22567   1.32394    0.013
 4321.00    1.65285   1.32526    0.013
 4322.00    2.21319   1.32351    0.013
 4323.00    2.27954   1.32207    0.013
 4324.00    2.25996   1.32544    0.013
 4325.00    1.42879   1.33148    0.013
 4326.00    0.49028   1.33144    0.013
 4327.00    0.56852   1.32057    0.013
 4328.00    0.74176   1.30052    0.013
 4329.00    1.25542   1.28290    0.013
 4330.00    1.78855   1.28278    0.000
 4331.00    1.43088   1.29713    0.000
 4332.00    1.05554   1.30889    0.000
 4333.00    1.03301   1.30940    0.000
 4334.00    1.02997   1.30059    0.000
 4335.00    1.49535   1.28689    0.000
 4336.00    1.92353   1.27222    0.000
 4337.00    1.86763   1.25831    0.000
 4338.00    1.79903   1.24186    0.000
 4339.00    1.61945   1.21147    0.000
 4340.00    1.49740   1.15585    0.000
 4341.00    1.74693   1.07706    0.000
 4342.00    1.98905   0.98429    0.000
 4343.00    2.19381   0.89292    0.000
 4344.00    2.26327   0.84856    0.000
 4345.00    1.78048   0.89251    0.000
 4346.00    1.42759   0.99300    0.000
 4347.00    1.51421   1.08460    0.000
 4348.00    1.41553   1.14565    0.000
 4349.00    0.78811   1.18762    0.000
 4350.00    0.56603   1.21864    0.000
 4351.00    1.33217   1.24280    0.014
 4352.00    1.88562   1.26278    0.014
 4353.00    1.99172   1.27502    0.014
 4354.00    2.13880   1.27562    0.014
 4355.00    2.36076   1.27317    0.014
 4356.00    2.12999   1.28198    0.014
 4357.00    1.17585   1.30097    0.014
 4358.00    0.87586   1.31976    0.014
 4359.00    1.49303   1.33476    0.014
 4360.00    1.68863   1.34514    0.014
 4361.00    1.36411   1.34856    0.014
 4362.00    1.54963   1.34562    0.014
 4363.00    2.28985   1.34255    0.014
 4364.00    2.40468   1.34389    0.014
 4365.00    1.91958   1.34912    0.014
 4366.00    1.73980   1.35638    0.013
 4367.00    1.81827   1.36190    0.013
 4368.00    1.63371   1.36333    0.013
 4369.00    1.25323   1.35852    0.013
 4370.00    1.24171   1.34708    0.013
 4371.00    1.47162   1.33933    0.013
 4372.00    1.54971   1.34188    0.013
 4373.00    1.54085   1.34826    0.013
 4374.00    1.58987   1.35034    0.013
 4375.00    1.66777   1.34594    0.014
 4376.00    1.69699   1.34021    0.014
 4377.00    1.70521   1.33713    0.014
 4378.00    1.58126   1.33583    0.014
 4379.00    1.40840   1.33885    0.013
 4380.00    1.71421   1.34836    0.013
 4381.00    2.17013   1.35722    0.014
 4382.00    2.24475   1.35793    0.013
 4383.00    2.21961   1.35573    0.013
 4384.00    2.25272   1.35700    0.013
 4385.00    2.29827   1.35331    0.013
 4386.00    2.65694   1.33657    0.014
 4387.00    3.06856   1.31651    0.014
 4388.00    2.89239   1.30862    0.014
 4389.00    2.64113   1.31025    0.014
 4390.00    2.55967   1.29839    0.014
 4391.00    2.49336   1.27083    0.014
 4392.00    2.61606   1.26453    0.013
 4393.00    2.74882   1.29346    0.013
 4394.00    2.02234   1.32785    0.013
 4395.00    1.29218   1.35070    0.013
 4396.00    1.63045   1.36449    0.013
 4397.00    1.94975   1.36690    0.012
 4398.00    1.85195   1.35877    0.013
 4399.00    1.75023   1.35317    0.013
 4400.00    1.60017   1.36214    0.012
 4401.00    1.47121   1.37714    0.012
 4402.00    1.51978   1.38166    0.013
 4403.00    1.52209   1.37476    0.013
 4404.00    1.23449   1.36851    0.013
 4405.00    0.98954   1.37131    0.012
 4406.00    0.95430   1.37482    0.013
 4407.00    1.06924   1.36526    0.013
 4408.00    1.78371   1.34905    0.013
 4409.00    2.26101   1.34340    0.013
 4410.00    1.95179   1.34952    0.012
 4411.00    1.78371   1.35633    0.012
 4412.00    2.01104   1.36102    0.013
 4413.00    2.01379   1.36771    0.013
 4414.00    1.47828   1.37318    0.012
 4415.00    1.18782   1.37567    0.012
 4416.00    1.40455   1.37763    0.012
 4417.00    1.55137   1.36843    0.012
 4418.00    1.57233   1.34461    0.012
 4419.00    1.65359   1.32787    0.012
 4420.00    1.82975   1.33128    0.012
 4421.00    1.79157   1.34778    0.012
 4422.00    1.45720   1.36754    0.012
 4423.00    1.40277   1.38127    0.012
 4424.00    1.68884   1.38606    0.012
 4425.00    1.95223   1.38498    0.012
 4426.00    2.19131   1.38188    0.012
 4427.00    2.21695   1.38259    0.012
 4428.00    2.04073   1.38562    0.013
 4429.00    2.03573   1.38425    0.012
 4430.00    2.17351   1.37885    0.012
 4431.00    2.08454   1.37610    0.012
 4432.00    1.82909   1.37806    0.012
 4433.00    1.88747   1.37767    0.012
 4434.00    2.14820   1.37327    0.012
 4435.00    2.31613   1.37264    0.012
 4436.00    2.43171   1.37424    0.013
 4437.00    2.12561   1.37090    0.013
 4438.00    1.61250   1.36448    0.013
 4439.00    1.57373   1.35966    0.013
 4440.00    1.73623   1.35884    0.012
 4441.00    2.08875   1.36548    0.013
 4442.00    2.51033   1.38093    0.013
 4443.00    2.06801   1.39303    0.013
 4444.00    1.36003   1.38895    0.013
 4445.00    0.99864   1.37423    0.013
 4446.00    0.72599   1.36429    0.012
 4447.00    0.95868   1.36845    0.012
 4448.00    1.29668   1.38318    0.012
 4449.00    1.25293   1.39383    0.012
 4450.00    1.14646   1.39084    0.012
 4451.00    1.79594   1.38429    0.012
 4452.00    2.53863   1.38671    0.012
 4453.00    2.31912   1.39356    0.012
 4454.00    2.01776   1.39640    0.012
 4455.00    1.97788   1.39452    0.012
 4456.00    1.95090   1.39050    0.012
 4457.00    2.30225   1.38673    0.012
 4458.00    2.64487   1.38191    0.012
 4459.00    2.06166   1.37769    0.012
 4460.00    1.51992   1.37934    0.012
 4461.00    1.81787   1.38393    0.000
 4462.00    2.07343   1.38543    0.000
 4463.00    1.83062   1.38346    0.000
 4464.00    1.65576   1.38006    0.000
 4465.00    2.03198   1.37696    0.000
 4466.00    2.29751   1.37922    0.000
 4467.00    1.88935   1.38705    0.000
 4468.00    1.61539   1.39043    0.000
 4469.00    1.98530   1.38499    0.000
 4470.00    2.22505   1.37676    0.000
 4471.00    1.95651   1.36824    0.000
 4472.00    1.70864   1.35383    0.000
 4473.00    1.52800   1.32085    0.000
 4474.00    1.52471   1.26317    0.000
 4475.00    2.00937   1.21947    0.000
 4476.00    2.34750   1.24604    0.000
 4477.00    2.34036   1.32175    0.000
 4478.00    2.25689   1.37827    0.000
 4479.00    2.01797   1.40097    0.000
 4480.00    1.83329   1.41240    0.000
 4481.00    1.74475   1.41965    0.000
 4482.00    1.68893   1.41445    0.012
 4483.00    1.68385   1.39044    0.012
 4484.00    1.67793   1.35858    0.012
 4485.00    1.67085   1.34680    0.012
 4486.00    1.56083   1.36792    0.012
 4487.00    1.32738   1.40083    0.012
 4488.00    1.30208   1.42232    0.012
 4489.00    1.49686   1.43122    0.012
 4490.00    1.63691   1.43090    0.012
 4491.00    1.72594   1.42129    0.012
 4492.00    1.78995   1.40699    0.012
 4493.00    1.83340   1.39866    0.012
 4494.00    1.83225   1.40317    0.012
 4495.00    1.79885   1.41495    0.012
 4496.00    1.89929   1.42263    0.012
 4497.00    2.08476   1.42045    0.012
 4498.00    2.28480   1.41171    0.012
 4499.00    2.49295   1.40534    0.013
 4500.00    2.53078   1.40613    0.013
 4501.00    2.48633   1.41344    0.012
 4502.00    2.41479   1.42308    0.012
 4503.00    2.33193   1.42767    0.012
 4504.00    2.17291   1.42480    0.012
 4505.00    1.98671   1.42228    0.012
 4506.00    2.16347   1.42975    0.012
 4507.00    2.44966   1.44382    0.012
 4508.00    2.20833   1.45130    0.012
 4509.00    1.83488   1.44786    0.012
 4510.00    2.15543   1.43953    0.012
 4511.00    2.61707   1.43348    0.012
 4512.00    2.35474   1.43300    0.012
 4513.00    1.97692   1.43479    0.012
 4514.00    1.74660   1.43248    0.012
 4515.00    1.53381   1.42483    0.012
 4516.00    1.72880   1.41625    0.012
 4517.00    1.95678   1.41038    0.012
 4518.00    2.26260   1.40774    0.012
 4519.00    2.57197   1.41075    0.012
 4520.00    2.45486   1.41789    0.012
 4521.00    2.32997   1.42166    0.012
 4522.00    2.07532   1.42401    0.012
 4523.00    1.83141   1.43144    0.012
 4524.00    1.78900   1.44046    0.012
 4525.00    1.78732   1.44184    0.012
 4526.00    2.24207   1.43244    0.012
 4527.00    2.56772   1.42163    0.012
 4528.00    1.88306   1.41735    0.012
 4529.00    1.37786   1.41596    0.012
 4530.00    1.93382   1.41147    0.012
 4531.00    2.34259   1.40117    0.012
 4532.00    2.06238   1.38797    0.012
 4533.00    1.95489   1.38197    0.012
 4534.00    2.50751   1.38989    0.012
 4535.00    2.82494   1.40572    0.012
 4536.00    2.39250   1.41581    0.012
 4537.00    2.08511   1.41131    0.012
 4538.00    2.11567   1.39955    0.012
 4539.00    2.27108   1.39683    0.012
 4540.00    2.71580   1.40958    0.012
 4541.00    2.82078   1.42514    0.012
 4542.00    2.24473   1.42467    0.012
 4543.00    1.92128   1.40235    0.012
 4544.00    2.03883   1.36765    0.012
 4545.00    2.15744   1.34446    0.012
 4546.00    2.27767   1.35317    0.012
 4547.00    2.27470   1.38170    0.012
 4548.00    2.10635   1.40323    0.012
 4549.00    2.11211   1.41465    0.012
 4550.00    2.32369   1.42452    0.000
 4551.00    2.35665   1.43052    0.000
 4552.00    2.20341   1.42821    0.000
 4553.00    2.19122   1.42417    0.000
 4554.00    2.30869   1.42536    0.000
 4555.00    2.27039   1.42072    0.000
 4556.00    2.10583   1.40561    0.000
 4557.00    1.87424   1.39844    0.000
 4558.00    1.59483   1.40644    0.000
 4559.00    1.69158   1.42012    0.000
 4560.00    2.02372   1.43552    0.000
 4561.00    2.24014   1.44997    0.000
 4562.00    2.39326   1.45805    0.000
 4563.00    2.31242   1.46015    0.000
 4564.00    2.12036   1.46012    0.000
 4565.00    2.05622   1.45974    0.000
 4566.00    2.04454   1.45639    0.000
 4567.00    2.01074   1.44836    0.000
 4568.00    1.96920   1.44194    0.000
 4569.00    2.09062   1.44227    0.000
 4570.00    2.26021   1.44498    0.000
 4571.00    2.13518   1.44457    0.000
 4572.00    1.93797   1.44461    0.000
 4573.00    1.76318   1.44875    0.000
 4574.00    1.59283   1.44990    0.000
 4575.00    1.93630   1.44665    0.000
 4576.00    2.35930   1.44937    0.000
 4577.00    2.00109   1.45582    0.000
 4578.00    1.55348   1.45496    0.000
 4579.00    1.87336   1.45313    0.000
 4580.00    2.25218   1.45902    0.000
 4581.00    2.49210   1.46401    0.000
 4582.00    2.72624   1.45942    0.000
 4583.00    2.12145   1.44910    0.000
 4584.00    1.52799   1.44365    0.000
 4585.00    1.73409   1.44759    0.000
 4586.00    1.92498   1.45407    0.000
 4587.00    1.84992   1.45518    0.000
 4588.00    1.77535   1.45183    0.000
 4589.00    1.70590   1.44854    0.000
 4590.00    1.65805   1.44828    0.000
 4591.00    1.77351   1.45307    0.000
 4592.00    1.90675   1.45995    0.000
 4593.00    2.14219   1.45904    0.000
 4594.00    2.31919   1.44625    0.000
 4595.00    2.22912   1.43489    0.000
 4596.00    2.19831   1.43706    0.000
 4597.00    2.38917   1.44448    0.000
 4598.00    2.39084   1.44389    0.000
 4599.00    1.80081   1.43636    0.000
 4600.00    1.43234   1.43400    0.000
 4601.00    1.65197   1.44287    0.000
 4602.00    1.89670   1.45491    0.000
 4603.00    2.19864   1.45823    0.000
 4604.00    2.28424   1.44978    0.000
 4605.00    1.94299   1.43873    0.000
 4606.00    1.79886   1.43842    0.000
 4607.00    1.99367   1.44785    0.000
 4608.00    2.10149   1.45572    0.000
 4609.00    2.07834   1.45604    0.000
 4610.00    2.14576   1.45336    0.000
 4611.00    2.33304   1.45646    0.000
 4612.00    2.30901   1.46499    0.000
 4613.00    2.03872   1.46938    0.000
 4614.00    2.02535   1.46884    0.000
 4615.00    2.27602   1.47012    0.000
 4616.00    2.37080   1.47046    0.000
 4617.00    2.32427   1.46847    0.000
 4618.00    2.27820   1.47234    0.000
 4619.00    2.23251   1.48101    0.000
 4620.00    2.16012   1.48549    0.000
 4621.00    2.06896   1.48192    0.000
 4622.00    2.32375   1.46889    0.000
 4623.00    2.79183   1.45703    0.000
 4624.00    2.72227   1.45996    0.000
 4625.00    2.36317   1.47171    0.000
 4626.00    2.21141   1.48079    0.000
 4627.00    2.15663   1.48669    0.000
 4628.00    2.24802   1.48840    0.000
 4629.00    2.39834   1.48446    0.000
 4630.00    2.09700   1.47947    0.000
 4631.00    1.64029   1.47676    0.000
 4632.00    1.49313   1.47203    0.000
 4633.00    1.43563   1.46114    0.000
 4634.00    1.96521   1.45123    0.000
 4635.00    2.63542   1.45189    0.000
 4636.00    2.37236   1.45916    0.000
 4637.00    1.92907   1.46294    0.000
 4638.00    1.79952   1.46404    0.000
 4639.00    1.71706   1.46692    0.000
 4640.00    2.02772   1.46814    0.000
 4641.00    2.38165   1.46006    0.000
 4642.00    2.46883   1.44510    0.000
 4643.00    2.53662   1.43458    0.000
 4644.00    2.32893   1.43208    0.000
 4645.00    2.11082   1.43296    0.000
 4646.00    2.05818   1.43833    0.000
 4647.00    2.00628   1.45018    0.000
 4648.00    1.95034   1.45954    0.000
 4649.00    1.91523   1.45191    0.000
 4650.00    2.22050   1.42521    0.000
 4651.00    2.47874   1.39944    0.000
 4652.00    2.25565   1.39026    0.000
 4653.00    2.07935   1.38956    0.000
 4654.00    2.24507   1.39167    0.000
 4655.00    2.31627   1.40783    0.000
 4656.00    1.85904   1.43637    0.000
 4657.00    1.50703   1.45507    0.000
 4658.00    1.62449   1.45509    0.000
 4659.00    1.76483   1.45381    0.000
 4660.00    1.98897   1.46153    0.000
 4661.00    2.05549   1.47484    0.000
 4662.00    1.63844   1.49032    0.000
 4663.00    1.33971   1.50162    0.000
 4664.00    1.34955   1.49992    0.000
 4665.00    1.58575   1.48602    0.000
 4666.00    2.32926   1.47329    0.000
 4667.00    2.62183   1.47029    0.000
 4668.00    2.03865   1.47095    0.000
 4669.00    1.62086   1.46633    0.000
 4670.00    1.48318   1.45505    0.000
 4671.00    1.43166   1.44369    0.000
 4672.00    1.50797   1.44180    0.000
 4673.00    1.61694   1.45250    0.000
 4674.00    1.76850   1.46945    0.000
 4675.00    1.99261   1.48095    0.000
 4676.00    2.30008   1.47868    0.000
 4677.00    2.33758   1.46747    0.000
 4678.00    2.10151   1.46019    0.000
 4679.00    1.87158   1.46099    0.000
 4680.00    1.64713   1.46648    0.000
 4681.00    1.82259   1.47254    0.000
 4682.00    2.31301   1.47601    0.000
 4683.00    2.17791   1.47495    0.000
 4684.00    1.60952   1.47054    0.000
 4685.00    1.37507   1.46433    0.000
 4686.00    1.34345   1.45811    0.000
 4687.00    1.36134   1.44580    0.000
 4688.00    1.40549   1.41289    0.000
 4689.00    1.61811   1.37078    0.000
 4690.00    1.90826   1.36261    0.000
 4691.00    1.96526   1.39964    0.000
 4692.00    1.92987   1.44490    0.000
 4693.00    1.83125   1.47066    0.000
 4694.00    1.71127   1.47828    0.000
 4695.00    1.68717   1.47899    0.000
 4696.00    1.69027   1.48322    0.000
 4697.00    1.85915   1.49071    0.000
 4698.00    2.06684   1.49717    0.000
 4699.00    2.01117   1.50213    0.000
 4700.00    1.90596   1.50346    0.000
 4701.00    2.12215   1.49519    0.000
 4702.00    2.38508   1.47706    0.000
 4703.00    2.07770   1.46451    0.000
 4704.00    1.71003   1.46824    0.000
 4705.00    1.94195   1.47667    0.000
 4706.00    2.21505   1.47799    0.000
 4707.00    1.99085   1.47635    0.000
 4708.00    1.74973   1.47602    0.000
 4709.00    1.74046   1.47682    0.000
 4710.00    1.73086   1.47884    0.000
 4711.00    1.69895   1.48129    0.000
 4712.00    1.68259   1.48081    0.000
 4713.00    1.90486   1.47987    0.000
 4714.00    2.07338   1.48417    0.000
 4715.00    1.71484   1.48409    0.000
 4716.00    1.43408   1.46092    0.000
 4717.00    1.70324   1.43381    0.000
 4718.00    1.88092   1.43760    0.000
 4719.00    1.56088   1.46398    0.000
 4720.00    1.31858   1.48386    0.000
 4721.00    1.41502   1.49683    0.000
 4722.00    1.51642   1.50878    0.000
 4723.00    1.63558   1.51850    0.000
 4724.00    1.67131   1.52344    0.000
 4725.00    1.45590   1.52264    0.000
 4726.00    1.32170   1.51834    0.000
 4727.00    1.39561   1.51727    0.000
 4728.00    1.46495   1.52235    0.000
 4729.00    1.52419   1.52641    0.000
 4730.00    1.58526   1.51994    0.000
 4731.00    1.64983   1.50382    0.000
 4732.00    1.69382   1.49053    0.000
 4733.00    1.70348   1.48779    0.000
 4734.00    1.86859   1.49153    0.000
 4735.00    2.26099   1.49707    0.000
 4736.00    2.38562   1.50335    0.000
 4737.00    2.16599   1.50888    0.000
 4738.00    1.96744   1.51319    0.000
 4739.00    1.79277   1.51581    0.000
 4740.00    1.77865   1.51396    0.000
 4741.00    1.92494   1.51199    0.000
 4742.00    1.84174   1.51559    0.000
 4743.00    1.55635   1.51879    0.000
 4744.00    1.40930   1.51517    0.000
 4745.00    1.36965   1.50935    0.000
 4746.00    1.53175   1.50963    0.000
 4747.00    1.83155   1.51620    0.000
 4748.00    2.11634   1.52152    0.000
 4749.00    2.39213   1.52339    0.000
 4750.00    2.35742   1.52679    0.000
 4751.00    2.16063   1.53090    0.000
 4752.00    2.07970   1.53196    0.000
 4753.00    2.05120   1.53169    0.000
 4754.00    1.86625   1.53119    0.000
 4755.00    1.62038   1.52869    0.000
 4756.00    1.58341   1.52494    0.000
 4757.00    1.61566   1.52319    0.000
 4758.00    1.66723   1.52374    0.000
 4759.00    1.72416   1.52530    0.000
 4760.00    1.82723   1.52543    0.000
 4761.00    1.94085   1.52319    0.011
 4762.00    1.70490   1.52039    0.011
 4763.00    1.40493   1.51943    0.011
 4764.00    1.44708   1.51806    0.011
 4765.00    1.53741   1.51105    0.011
 4766.00    1.23280   1.50049    0.011
 4767.00    0.88812   1.49314    0.010
 4768.00    1.33024   1.48934    0.011
 4769.00    1.82323   1.48605    0.011
 4770.00    1.80469   1.48525    0.011
 4771.00    1.77036   1.49003    0.011
 4772.00    1.57915   1.49814    0.011
 4773.00    1.40192   1.50556    0.011
 4774.00    1.62974   1.50849    0.011
 4775.00    1.85026   1.50553    0.010
 4776.00    1.96544   1.50198    0.010
 4777.00    2.06975   1.50466    0.011
 4778.00    2.07174   1.51248    0.011
 4779.00    2.06056   1.51874    0.010
 4780.00    1.95916   1.52079    0.010
 4781.00    1.89554   1.52066    0.010
 4782.00    2.03202   1.51761    0.010
 4783.00    2.10599   1.51158    0.010
 4784.00    1.91372   1.50746    0.010
 4785.00    1.71951   1.50663    0.010
 4786.00    1.51846   1.50478    0.010
 4787.00    1.40854   1.50183    0.010
 4788.00    1.56785   1.50282    0.010
 4789.00    1.65068   1.50531    0.010
 4790.00    1.54093   1.50392    0.010
 4791.00    1.44614   1.50200    0.010
 4792.00    1.38377   1.50268    0.010
 4793.00    1.50645   1.50447    0.010
 4794.00    1.97739   1.50803    0.010
 4795.00    2.15072   1.51233    0.011
 4796.00    1.83499   1.51731    0.010
 4797.00    1.70604   1.52571    0.010
 4798.00    1.84620   1.53586    0.010
 4799.00    1.84179   1.54177    0.010
 4800.00    1.65417   1.54076    0.010
 4801.00    1.62633   1.53495    0.010
 4802.00    1.77694   1.52710    0.010
 4803.00    1.98044   1.52064    0.010
 4804.00    2.23603   1.52051    0.010
 4805.00    2.22645   1.52618    0.010
 4806.00    1.98650   1.53040    0.010
 4807.00    1.92671   1.52932    0.010
 4808.00    2.00480   1.52426    0.010
 4809.00    2.03287   1.51786    0.010
 4810.00    2.02732   1.51322    0.010
 4811.00    1.89317   1.51090    0.010
 4812.00    1.68325   1.51040    0.010
 4813.00    1.44660   1.51255    0.010
 4814.00    1.19623   1.51599    0.010
 4815.00    1.35913   1.51734    0.010
 4816.00    1.70603   1.51468    0.010
 4817.00    1.71436   1.51158    0.010
 4818.00    1.59317   1.51217    0.010
 4819.00    1.44128   1.51621    0.010
 4820.00    1.27941   1.52260    0.010
 4821.00    1.41945   1.53001    0.010
 4822.00    1.64170   1.53225    0.010
 4823.00    1.56107   1.52769    0.010
 4824.00    1.41276   1.52516    0.010
 4825.00    1.47426   1.52860    0.010
 4826.00    1.57316   1.52828    0.010
 4827.00    1.58171   1.51982    0.010
 4828.00    1.57795   1.51556    0.010
 4829.00    1.59228   1.52230    0.010
 4830.00    1.60837   1.52981    0.010
 4831.00    1.46097   1.52713    0.010
 4832.00    1.30365   1.51661    0.010
 4833.00    1.43898   1.51137    0.010
 4834.00    1.58088   1.51553    0.010
 4835.00    1.50879   1.51789    0.010
 4836.00    1.43885   1.51538    0.010
 4837.00    1.42498   1.51868    0.010
 4838.00    1.42365   1.52742    0.010
 4839.00    1.59336   1.53192    0.010
 4840.00    1.73139   1.53143    0.010
 4841.00    1.58302   1.53056    0.010
 4842.00    1.46241   1.52799    0.010
 4843.00    1.52599   1.52223    0.010
 4844.00    1.57620   1.51805    0.010
 4845.00    1.55741   1.51768    0.010
 4846.00    1.59317   1.51524    0.010
 4847.00    1.85599   1.50928    0.010
 4848.00    1.98982   1.50834    0.000
 4849.00    1.67950   1.51448    0.000
 4850.00    1.44990   1.51734    0.000
 4851.00    1.45438   1.50940    0.000
 4852.00    1.42544   1.49524    0.000
 4853.00    1.31381   1.48548    0.000
 4854.00    1.30096   1.48152    0.000
 4855.00    1.49888   1.47562    0.000
 4856.00    1.64560   1.46573    0.000
 4857.00    1.69745   1.45158    0.000
 4858.00    1.76274   1.42735    0.000
 4859.00    1.84980   1.39383    0.000
 4860.00    1.83586   1.35999    0.000
 4861.00    1.67850   1.32283    0.000
 4862.00    1.53814   1.26518    0.000
 4863.00    1.41900   1.17701    0.000
 4864.00    1.40497   1.07082    0.000
 4865.00    1.50668   0.99645    0.000
 4866.00    1.41678   1.01129    0.000
 4867.00    1.14078   1.10582    0.000
 4868.00    1.10191   1.21282    0.000
 4869.00    1.26613   1.29296    0.000
 4870.00    1.29139   1.34756    0.000
 4871.00    1.21184   1.38569    0.000
 4872.00    1.13419   1.41563    0.000
 4873.00    1.05779   1.43969    0.000
 4874.00    1.22709   1.44997    0.000
 4875.00    1.53900   1.44885    0.009
 4876.00    1.54901   1.45465    0.009
 4877.00    1.40632   1.47299    0.010
 4878.00    1.44735   1.49014    0.010
 4879.00    1.56883   1.49910    0.010
 4880.00    1.57335   1.50713    0.010
 4881.00    1.53390   1.51731    0.010
 4882.00    1.44894   1.52702    0.010
 4883.00    1.34946   1.53490    0.010
 4884.00    1.33438   1.53546    0.010
 4885.00    1.34180   1.52822    0.010
 4886.00    1.31459   1.52508    0.010
 4887.00    1.27983   1.52956    0.009
 4888.00    1.36208   1.53135    0.009
 4889.00    1.46461   1.52644    0.009
 4890.00    1.53349   1.52302    0.010
 4891.00    1.59793   1.52708    0.010
 4892.00    1.47194   1.53328    0.010
 4893.00    1.32825   1.53166    0.010
 4894.00    1.42519   1.52003    0.010
 4895.00    1.53578   1.51183    0.010
 4896.00    1.34023   1.52272    0.010
 4897.00    1.14175   1.54619    0.010
 4898.00    1.38692   1.56619    0.010
 4899.00    1.61882   1.57912    0.009
 4900.00    1.53549   1.58618    0.009
 4901.00    1.45862   1.58805    0.010
 4902.00    1.46530   1.58381    0.010
 4903.00    1.46415   1.57228    0.010
 4904.00    1.39481   1.56143    0.010
 4905.00    1.32091   1.56056    0.010
 4906.00    1.21767   1.56342    0.010
 4907.00    1.13374   1.56193    0.010
 4908.00    1.14685   1.56242    0.010
 4909.00    1.19979   1.57021    0.010
 4910.00    1.41476   1.57710    0.010
 4911.00    1.62022   1.57638    0.010
 4912.00    1.79357   1.57112    0.010
 4913.00    1.91654   1.56495    0.010
 4914.00    1.89607   1.56052    0.010
 4915.00    1.90293   1.56255    0.010
 4916.00    1.97624   1.56925    0.010
 4917.00    1.87744   1.57494    0.010
 4918.00    1.41732   1.57992    0.010
 4919.00    1.26326   1.58609    0.010
 4920.00    1.66761   1.58772    0.010
 4921.00    1.75541   1.57751    0.010
 4922.00    1.33838   1.55475    0.010
 4923.00    1.22700   1.52339    0.010
 4924.00    1.54338   1.48627    0.010
 4925.00    1.68241   1.45162    0.010
 4926.00    1.60302   1.44478    0.010
 4927.00    1.65333   1.47033    0.009
 4928.00    1.84445   1.50269    0.009
 4929.00    1.79556   1.52799    0.010
 4930.00    1.51684   1.55651    0.010
 4931.00    1.54373   1.58442    0.010
 4932.00    1.82866   1.60137    0.010
 4933.00    1.78298   1.61010    0.010
 4934.00    1.49150   1.61364    0.010
 4935.00    1.41538   1.61135    0.010
 4936.00    1.47992   1.60088    0.010
 4937.00    1.54341   1.58354    0.010
 4938.00    1.60629   1.57341    0.010
 4939.00    1.54445   1.57995    0.010
 4940.00    1.42053   1.58840    0.000
 4941.00    1.50839   1.58174    0.000
 4942.00    1.68746   1.56541    0.000
 4943.00    1.84828   1.55704    0.000
 4944.00    2.00236   1.56281    0.000
 4945.00    1.98491   1.57282    0.000
 4946.00    1.91379   1.57750    0.000
 4947.00    1.70321   1.58360    0.000
 4948.00    1.45625   1.59517    0.000
 4949.00    1.44306   1.60420    0.000
 4950.00    1.47965   1.60772    0.000
 4951.00    1.65367   1.61166    0.000
 4952.00    1.85085   1.61657    0.000
 4953.00    1.82965   1.62054    0.000
 4954.00    1.78068   1.62500    0.000
 4955.00    1.70234   1.62828    0.000
 4956.00    1.62139   1.62484    0.000
 4957.00    1.64431   1.61249    0.000
 4958.00    1.67272   1.59342    0.000
 4959.00    1.92150   1.57010    0.000
 4960.00    2.16875   1.54420    0.000
 4961.00    1.96576   1.52134    0.000
 4962.00    1.76807   1.51574    0.000
 4963.00    1.68586   1.53220    0.000
 4964.00    1.59900   1.55366    0.000
 4965.00    1.45512   1.56385    0.000
 4966.00    1.34678   1.56457    0.000
 4967.00    1.53607   1.56312    0.000
 4968.00    1.68783   1.55930    0.000
 4969.00    1.60531   1.55182    0.000
 4970.00    1.54854   1.54593    0.000
 4971.00    1.61804   1.54564    0.000
 4972.00    1.68306   1.54934    0.000
 4973.00    1.73019   1.55541    0.000
 4974.00    1.74587   1.56194    0.000
 4975.00    1.65752   1.56803    0.000
 4976.00    1.64195   1.57426    0.000
 4977.00    1.82981   1.57996    0.000
 4978.00    1.83787   1.58445    0.000
 4979.00    1.41590   1.58661    0.000
 4980.00    1.13808   1.58513    0.000
 4981.00    1.15802   1.57977    0.000
 4982.00    1.29011   1.57159    0.000
 4983.00    1.62370   1.56447    0.000
 4984.00    1.85329   1.55885    0.000
 4985.00    1.91949   1.54822    0.000
 4986.00    1.87265   1.53302    0.000
 4987.00    1.66992   1.52612    0.000
 4988.00    1.48447   1.53399    0.000
 4989.00    1.32000   1.54765    0.000
 4990.00    1.37499   1.55895    0.000
 4991.00    1.66491   1.56861    0.000
 4992.00    1.74371   1.57516    0.000
 4993.00    1.62318   1.57464    0.000
 4994.00    1.64272   1.56864    0.000
 4995.00    1.77886   1.56448    0.000
 4996.00    1.91573   1.56742    0.000
 4997.00    2.05314   1.57052    0.000
 4998.00    1.97361   1.56912    0.000
 4999.00    1.75446   1.57106    0.000
 5000.00    1.62135   1.57798    0.000
 5001.00    1.53666   1.58103    0.000
 5002.00    1.58202   1.57499    0.000
 5003.00    1.69109   1.55929    0.000
 5004.00    1.72838   1.53763    0.000
 5005.00    1.73528   1.52197    0.000
 5006.00    1.67049   1.52157    0.000
 5007.00    1.57970   1.53192    0.000
 5008.00    1.54876   1.53606    0.000
 5009.00    1.53617   1.52854    0.000
 5010.00    1.48168   1.52051    0.000
 5011.00    1.41650   1.52428    0.000
 5012.00    1.45511   1.53897    0.000
 5013.00    1.51528   1.55154    0.000
 5014.00    1.49525   1.55359    0.000
 5015.00    1.46208   1.54821    0.000
 5016.00    1.40124   1.53869    0.000
 5017.00    1.33701   1.52321    0.000
 5018.00    1.09267   1.49805    0.000
 5019.00    0.83310   1.47005    0.000
 5020.00    1.08317   1.46667    0.000
 5021.00    1.35814   1.49447    0.000
 5022.00    1.59136   1.52688    0.000
 5023.00    1.81466   1.54582    0.000
 5024.00    1.47266   1.55564    0.000
 5025.00    1.15288   1.55783    0.000
 5026.00    1.27873   1.55349    0.000
 5027.00    1.40806   1.55336    0.000
 5028.00    1.57810   1.56074    0.000
 5029.00    1.74113   1.56647    0.009
 5030.00    1.84747   1.56556    0.009
 5031.00    1.90583   1.56163    0.009
 5032.00    1.67328   1.56265    0.009
 5033.00    1.44920   1.57181    0.009
 5034.00    1.26563   1.58131    0.009
 5035.00    1.14733   1.58624    0.009
 5036.00    1.28328   1.59062    0.009
 5037.00    1.35141   1.59654    0.009
 5038.00    1.19961   1.59642    0.009
 5039.00    1.14228   1.58355    0.009
 5040.00    1.34431   1.56824    0.009
 5041.00    1.50616   1.56506    0.009
 5042.00    1.57354   1.56624    0.009
 5043.00    1.64146   1.55443    0.009
 5044.00    1.71047   1.52936    0.009
 5045.00    1.72191   1.51318    0.009
 5046.00    1.63147   1.52606    0.009
 5047.00    1.53611   1.55800    0.009
 5048.00    1.43310   1.58306    0.009
 5049.00    1.42045   1.59602    0.009
 5050.00    1.53062   1.59900    0.010
 5051.00    1.62155   1.58706    0.010
 5052.00    1.68943   1.56809    0.010
 5053.00    1.67137   1.55956    0.010
 5054.00    1.56260   1.56356    0.009
 5055.00    1.61986   1.56953    0.009
 5056.00    1.83168   1.57700    0.009
 5057.00    1.96283   1.58780    0.009
 5058.00    2.02779   1.59487    0.009
 5059.00    1.93763   1.59041    0.009
 5060.00    1.73545   1.58359    0.009
 5061.00    1.81824   1.58826    0.009
 5062.00    2.08171   1.60251    0.009
 5063.00    1.93664   1.61242    0.009
 5064.00    1.56509   1.61715    0.009
 5065.00    1.46415   1.62192    0.009
 5066.00    1.49368   1.62221    0.009
 5067.00    1.62742   1.61095    0.009
 5068.00    1.80456   1.59012    0.009
 5069.00    1.83116   1.57465    0.009
 5070.00    1.80415   1.57596    0.009
 5071.00    1.69253   1.58414    0.009
 5072.00    1.55546   1.58720    0.009
 5073.00    1.51273   1.58975    0.009
 5074.00    1.49356   1.59608    0.009
 5075.00    1.43998   1.59770    0.009
 5076.00    1.37942   1.59163    0.009
 5077.00    1.49863   1.58877    0.009
 5078.00    1.64643   1.59345    0.009
 5079.00    1.65054   1.59655    0.009
 5080.00    1.63766   1.59563    0.009
 5081.00    1.55260   1.59572    0.009
 5082.00    1.46173   1.59206    0.009
 5083.00    1.41205   1.57645    0.009
 5084.00    1.36423   1.56056    0.009
 5085.00    1.52606   1.55922    0.009
 5086.00    1.68718   1.56668    0.009
 5087.00    1.68860   1.57259    0.009
 5088.00    1.69824   1.57904    0.008
 5089.00    1.86068   1.58832    0.009
 5090.00    1.98734   1.59496    0.009
 5091.00    1.71535   1.59736    0.009
 5092.00    1.43920   1.60015    0.009
 5093.00    1.13060   1.60436    0.008
 5094.00    0.90383   1.60539    0.008
 5095.00    1.15915   1.60468    0.008
 5096.00    1.41081   1.60888    0.009
 5097.00    1.64539   1.61714    0.009
 5098.00    1.85392   1.61986    0.009
 5099.00    1.96312   1.61319    0.009
 5100.00    2.01032   1.60404    0.009
 5101.00    1.86027   1.59702    0.008
 5102.00    1.68791   1.58869    0.008
 5103.00    1.45542   1.57910    0.009
 5104.00    1.27504   1.57793    0.009
 5105.00    1.21517   1.58799    0.009
 5106.00    1.32918   1.59801    0.009
 5107.00    1.79104   1.59987    0.009
 5108.00    1.97707   1.59662    0.009
 5109.00    1.68247   1.59419    0.009
 5110.00    1.44618   1.59205    0.009
 5111.00    1.29881   1.58752    0.009
 5112.00    1.29699   1.58439    0.009
 5113.00    1.49018   1.58454    0.009
 5114.00    1.50767   1.58430    0.009
 5115.00    1.31784   1.58625    0.009
 5116.00    1.33583   1.59151    0.009
 5117.00    1.57004   1.59486    0.009
 5118.00    1.70942   1.59898    0.009
 5119.00    1.76176   1.60837    0.009
 5120.00    1.77857   1.61992    0.009
 5121.00    1.76664   1.62971    0.009
 5122.00    1.68113   1.63410    0.009
 5123.00    1.54323   1.63025    0.009
 5124.00    1.48951   1.62031    0.009
 5125.00    1.48836   1.60706    0.009
 5126.00    1.51899   1.59194    0.009
 5127.00    1.56696   1.57739    0.009
 5128.00    1.46765   1.57044    0.009
 5129.00    1.29848   1.57405    0.009
 5130.00    1.41856   1.57745    0.009
 5131.00    1.65703   1.57354    0.009
 5132.00    1.55232   1.57016    0.009
 5133.00    1.32763   1.57414    0.009
 5134.00    1.22660   1.58306    0.009
 5135.00    1.16202   1.59350    0.009
 5136.00    1.22471   1.59967    0.009
 5137.00    1.31850   1.60027    0.009
 5138.00    1.26092   1.60517    0.009
 5139.00    1.17345   1.61767    0.009
 5140.00    1.46132   1.62413    0.009
 5141.00    1.80708   1.61759    0.009
 5142.00    1.70234   1.60541    0.009
 5143.00    1.54629   1.59673    0.009
 5144.00    1.69958   1.59916    0.009
 5145.00    1.87646   1.60599    0.009
 5146.00    1.65980   1.59998    0.009
 5147.00    1.42694   1.58671    0.009
 5148.00    1.43181   1.58180    0.009
 5149.00    1.44076   1.58215    0.009
 5150.00    1.53888   1.58146    0.009
 5151.00    1.63603   1.58419    0.009
 5152.00    1.71649   1.59133    0.009
 5153.00    1.76931   1.59738    0.009
 5154.00    1.52812   1.59444    0.009
 5155.00    1.29335   1.58327    0.009
 5156.00    1.10684   1.57459    0.009
 5157.00    0.99610   1.57413    0.009
 5158.00    1.31927   1.57978    0.009
 5159.00    1.56045   1.58965    0.009
 5160.00    1.42807   1.60517    0.009
 5161.00    1.33665   1.62434    0.009
 5162.00    1.39804   1.63939    0.009
 5163.00    1.47747   1.64285    0.009
 5164.00    1.61323   1.64119    0.009
 5165.00    1.66351   1.64226    0.009
 5166.00    1.48740   1.64122    0.009
 5167.00    1.31914   1.63549    0.009
 5168.00    1.16873   1.62538    0.009
 5169.00    1.08280   1.60199    0.009
 5170.00    1.12383   1.56069    0.009
 5171.00    1.15156   1.51599    0.009
 5172.00    1.15645   1.48993    0.009
 5173.00    1.10680   1.49161    0.009
 5174.00    0.97519   1.50717    0.009
 5175.00    1.02767   1.51085    0.009
 5176.00    1.32328   1.49526    0.009
 5177.00    1.52539   1.48440    0.009
 5178.00    1.61872   1.49960    0.009
 5179.00    1.54599   1.52856    0.009
 5180.00    1.30289   1.54990    0.008
 5181.00    1.14225   1.56096    0.008
 5182.00    1.05622   1.56694    0.008
 5183.00    1.11729   1.56738    0.008
 5184.00    1.29567   1.56226    0.008
 5185.00    1.47762   1.55210    0.008
 5186.00    1.66207   1.53249    0.008
 5187.00    1.62791   1.50635    0.008
 5188.00    1.45920   1.49534    0.008
 5189.00    1.40901   1.51576    0.008
 5190.00    1.42252   1.55289    0.000
 5191.00    1.17345   1.58099    0.000
 5192.00    0.80181   1.59262    0.000
 5193.00    0.71788   1.59606    0.000
 5194.00    0.74968   1.59520    0.000
 5195.00    0.85600   1.58277    0.000
 5196.00    0.98790   1.56203    0.000
 5197.00    1.16665   1.55151    0.000
 5198.00    1.35894   1.55777    0.000
 5199.00    1.57080   1.57045    0.000
 5200.00    1.78735   1.58376    0.000
 5201.00    1.66557   1.59710    0.000
 5202.00    1.47867   1.60672    0.000
 5203.00    1.39984   1.61046    0.000
 5204.00    1.33716   1.60731    0.000
 5205.00    1.35325   1.59992    0.000
 5206.00    1.37796   1.59363    0.000
 5207.00    1.33183   1.58692    0.000
 5208.00    1.28059   1.57067    0.000
 5209.00    1.25590   1.54656    0.000
 5210.00    1.23221   1.53019    0.000
 5211.00    1.25683   1.52728    0.009
 5212.00    1.28757   1.52871    0.009
 5213.00    1.53269   1.53190    0.009
 5214.00    1.75374   1.54305    0.009
 5215.00    1.58434   1.56202    0.009
 5216.00    1.44584   1.58400    0.009
 5217.00    1.62191   1.60523    0.009
 5218.00    1.77579   1.61974    0.009
 5219.00    1.76813   1.62120    0.009
 5220.00    1.71454   1.61439    0.009
 5221.00    1.40504   1.61331    0.009
 5222.00    1.20262   1.62226    0.009
 5223.00    1.47655   1.63341    0.009
 5224.00    1.63904   1.64149    0.009
 5225.00    1.39439   1.64708    0.009
 5226.00    1.17434   1.64763    0.009
 5227.00    1.02956   1.63765    0.009
 5228.00    0.98346   1.61716    0.009
 5229.00    1.19415   1.59211    0.009
 5230.00    1.38389   1.57025    0.009
 5231.00    1.52682   1.56326    0.009
 5232.00    1.64288   1.58183    0.009
 5233.00    1.70690   1.61632    0.009
 5234.00    1.62402   1.64407    0.009
 5235.00    1.29287   1.65588    0.009
 5236.00    1.17159   1.65204    0.009
 5237.00    1.36114   1.63657    0.009
 5238.00    1.55885   1.62403    0.009
 5239.00    1.76718   1.62668    0.009
 5240.00    1.86374   1.64215    0.009
 5241.00    1.83211   1.65878    0.009
 5242.00    1.76879   1.66631    0.009
 5243.00    1.67341   1.66325    0.008
 5244.00    1.50724   1.65586    0.008
 5245.00    1.27791   1.65115    0.008
 5246.00    1.32352   1.65031    0.008
 5247.00    1.58530   1.65202    0.008
 5248.00    1.74765   1.65722    0.008
 5249.00    1.84127   1.65997    0.008
 5250.00    1.65786   1.64588    0.008
 5251.00    1.30653   1.61967    0.008
 5252.00    1.32864   1.60607    0.008
 5253.00    1.54837   1.60899    0.009
 5254.00    1.55036   1.60990    0.008
 5255.00    1.45237   1.60677    0.008
 5256.00    1.26273   1.61263    0.008
 5257.00    1.03685   1.62528    0.008
 5258.00    1.20991   1.63098    0.008
 5259.00    1.51736   1.62893    0.009
 5260.00    1.53042   1.63461    0.009
 5261.00    1.46014   1.65416    0.009
 5262.00    1.43023   1.67360    0.009
 5263.00    1.40975   1.67902    0.009
 5264.00    1.44444   1.66968    0.009
 5265.00    1.48949   1.65248    0.009
 5266.00    1.35853   1.63216    0.009
 5267.00    1.20208   1.60902    0.009
 5268.00    1.35076   1.58653    0.009
 5269.00    1.53153   1.57159    0.009
 5270.00    1.47921   1.57055    0.009
 5271.00    1.41100   1.58393    0.009
 5272.00    1.53024   1.59234    0.009
 5273.00    1.65575   1.57478    0.010
 5274.00    1.65784   1.55124    0.009
 5275.00    1.65761   1.55851    0.009
 5276.00    1.58760   1.59185    0.009
 5277.00    1.52545   1.62059    0.009
 5278.00    1.58316   1.63311    0.009
 5279.00    1.62272   1.63475    0.009
 5280.00    1.48530   1.63634    0.009
 5281.00    1.36931   1.65064    0.009
 5282.00    1.40420   1.67320    0.009
 5283.00    1.45326   1.68562    0.009
 5284.00    1.57914   1.68118    0.009
 5285.00    1.67994   1.66667    0.009
 5286.00    1.67179   1.65061    0.009
 5287.00    1.61704   1.63953    0.009
 5288.00    1.39557   1.64051    0.009
 5289.00    1.25457   1.65884    0.009
 5290.00    1.35527   1.68604    0.009
 5291.00    1.49888   1.70337    0.009
 5292.00    1.75220   1.70356    0.009
 5293.00    1.84486   1.69675    0.009
 5294.00    1.58409   1.69449    0.009
 5295.00    1.43490   1.69676    0.009
 5296.00    1.49863   1.69724    0.009
 5297.00    1.58737   1.69494    0.009
 5298.00    1.71775   1.69352    0.009
 5299.00    1.75383   1.68913    0.009
 5300.00    1.65225   1.67136    0.009
 5301.00    1.62070   1.64179    0.009
 5302.00    1.67903   1.62058    0.009
 5303.00    1.67258   1.62380    0.009
 5304.00    1.59289   1.64138    0.008
 5305.00    1.54520   1.65285    0.008
 5306.00    1.52943   1.65790    0.008
 5307.00    1.65264   1.67002    0.008
 5308.00    1.89808   1.69109    0.008
 5309.00    1.88860   1.70865    0.008
 5310.00    1.68156   1.71065    0.008
 5311.00    1.55487   1.70040    0.008
 5312.00    1.48291   1.69316    0.008
 5313.00    1.51233   1.69662    0.008
 5314.00    1.60228   1.70292    0.008
 5315.00    1.66897   1.70352    0.008
 5316.00    1.72353   1.69936    0.008
 5317.00    1.73864   1.69470    0.008
 5318.00    1.73593   1.69234    0.008
 5319.00    1.70063   1.69153    0.008
 5320.00    1.65268   1.68873    0.008
 5321.00    1.65418   1.68499    0.008
 5322.00    1.67203   1.68442    0.008
 5323.00    1.68812   1.68488    0.008
 5324.00    1.70372   1.68211    0.009
 5325.00    1.72891   1.67953    0.009
 5326.00    1.75630   1.67950    0.009
 5327.00    1.49963   1.67658    0.009
 5328.00    1.19110   1.66958    0.009
 5329.00    1.24507   1.66648    0.009
 5330.00    1.34987   1.66375    0.009
 5331.00    1.38110   1.64140    0.009
 5332.00    1.40490   1.60153    0.009
 5333.00    1.43636   1.58142    0.009
 5334.00    1.46831   1.60201    0.009
 5335.00    1.41127   1.63890    0.009
 5336.00    1.35199   1.66266    0.009
 5337.00    1.45879   1.67184    0.009
 5338.00    1.56544   1.68021    0.009
 5339.00    1.66769   1.69096    0.009
 5340.00    1.75440   1.69561    0.009
 5341.00    1.61793   1.69291    0.009
 5342.00    1.49564   1.68831    0.009
 5343.00    1.50604   1.67915    0.009
 5344.00    1.50345   1.66154    0.009
 5345.00    1.41225   1.64693    0.009
 5346.00    1.34036   1.65026    0.008
 5347.00    1.37041   1.66600    0.009
 5348.00    1.40162   1.67708    0.009
 5349.00    1.43770   1.67472    0.009
 5350.00    1.43846   1.66726    0.009
 5351.00    1.31538   1.66759    0.009
 5352.00    1.27835   1.67043    0.009
 5353.00    1.49497   1.66668    0.009
 5354.00    1.65006   1.66675    0.009
 5355.00    1.65055   1.68207    0.009
 5356.00    1.69411   1.70357    0.009
 5357.00    1.83091   1.71831    0.008
 5358.00    1.91195   1.72735    0.008
 5359.00    1.88829   1.73564    0.008
 5360.00    1.83961   1.74056    0.008
 5361.00    1.74990   1.74120    0.008
 5362.00    1.65765   1.74064    0.008
 5363.00    1.56174   1.73852    0.008
 5364.00    1.48506   1.73193    0.008
 5365.00    1.43269   1.72005    0.008
 5366.00    1.33795   1.70715    0.008
 5367.00    1.19595   1.69987    0.008
 5368.00    1.26848   1.69822   -2.000
 5369.00    1.55197   1.69720   -2.000
 5370.00    1.62905   1.69635   -2.000
 5371.00    1.52715   1.69716   -2.000
 5372.00    1.32133   1.69671   -2.000
 5373.00    1.03612   1.68750   -2.000
 5374.00    0.92304   1.66513   -2.000
 5375.00    0.92554   1.64056   -2.000
 5376.00    1.18514   1.63667   -2.000
 5377.00    1.59597   1.66213   -2.000
 5378.00    1.88658   1.69799   -2.000
 5379.00    2.11555   1.72065   -2.000
 5380.00    1.98388   1.72447   -2.000
 5381.00    1.69197   1.72052   -2.000
 5382.00    1.55244   1.72232   -2.000
 5383.00    1.47108   1.72937    0.009
 5384.00    1.41134   1.73054    0.009
 5385.00    1.35862   1.72305    0.008
 5386.00    1.48016   1.71414    0.008
 5387.00    1.64902   1.70843    0.009
 5388.00    1.84424   1.70727    0.009
 5389.00    2.04533   1.71122    0.009
 5390.00    1.84086   1.71654    0.009
 5391.00    1.56436   1.71883    0.009
 5392.00    1.66899   1.71640    0.009
 5393.00    1.82533   1.70771    0.009
 5394.00    1.66745   1.69454    0.009
 5395.00    1.47921   1.68469    0.008
 5396.00    1.42322   1.68348    0.009
 5397.00    1.37519   1.68712    0.009
 5398.00    1.56264   1.68838    0.009
 5399.00    1.75385   1.68310    0.009
 5400.00    1.55026   1.66843    0.009
 5401.00    1.36329   1.65047    0.009
 5402.00    1.60479   1.65040    0.009
 5403.00    1.81953   1.67320    0.009
 5404.00    1.67137   1.69451    0.008
 5405.00    1.53672   1.70001    0.008
 5406.00    1.52353   1.69934    0.008
 5407.00    1.49675   1.69624    0.008
 5408.00    1.38014   1.68044    0.008
 5409.00    1.32029   1.65197    0.008
 5410.00    1.55239   1.63023    0.008
 5411.00    1.73326   1.63034    0.008
 5412.00    1.70142   1.63894    0.008
 5413.00    1.66810   1.62913    0.008
 5414.00    1.62965   1.59833    0.008
 5415.00    1.59495   1.57520    0.008
 5416.00    1.57114   1.58401    0.008
 5417.00    1.56981   1.61886    0.008
 5418.00    1.62402   1.65740    0.008
 5419.00    1.60342   1.68590    0.008
 5420.00    1.42356   1.70687    0.008
 5421.00    1.32438   1.72412    0.008
 5422.00    1.37441   1.73344    0.008
 5423.00    1.51365   1.73191    0.008
 5424.00    1.79705   1.72444    0.008
 5425.00    1.90549   1.72047    0.008
 5426.00    1.76594   1.72422    0.008
 5427.00    1.60211   1.72672    0.008
 5428.00    1.40803   1.72005    0.008
 5429.00    1.39164   1.71442    0.008
 5430.00    1.57055   1.72175    0.008
 5431.00    1.60452   1.73495    0.008
 5432.00    1.49798   1.73281    0.008
 5433.00    1.43720   1.70531    0.008
 5434.00    1.41555   1.67618    0.008
 5435.00    1.39981   1.67254    0.008
 5436.00    1.38851   1.68178    0.008
 5437.00    1.43991   1.68009    0.008
 5438.00    1.53279   1.66985    0.008
 5439.00    1.53334   1.66523    0.008
 5440.00    1.48040   1.67172    0.008
 5441.00    1.62864   1.68681    0.008
 5442.00    1.87843   1.70690    0.008
 5443.00    1.81047   1.72811    0.008
 5444.00    1.60366   1.74583    0.009
 5445.00    1.57873   1.75704    0.009
 5446.00    1.62201   1.76262    0.009
 5447.00    1.69281   1.76508    0.009
 5448.00    1.77235   1.76147    0.009
 5449.00    1.53585   1.74218    0.009
 5450.00    1.21534   1.70448    0.008
 5451.00    1.40179   1.66552    0.009
 5452.00    1.69852   1.64878    0.009
 5453.00    1.58392   1.65494    0.009
 5454.00    1.39827   1.66521    0.008
 5455.00    1.42623   1.66798    0.008
 5456.00    1.48221   1.66375    0.008
 5457.00    1.53950   1.65432    0.008
 5458.00    1.59691   1.64008    0.008
 5459.00    1.63983   1.62408    0.008
 5460.00    1.68194   1.61746    0.008
 5461.00    1.62944   1.62977    0.008
 5462.00    1.57420   1.65338    0.008
 5463.00    1.45284   1.67098    0.008
 5464.00    1.33981   1.67378    0.008
 5465.00    1.42225   1.66796    0.008
 5466.00    1.49486   1.66247    0.008
 5467.00    1.44127   1.65984    0.008
 5468.00    1.37730   1.66166    0.008
 5469.00    1.22357   1.66792    0.008
 5470.00    1.11574   1.67289    0.008
 5471.00    1.30218   1.67632    0.008
 5472.00    1.48192   1.68251    0.008
 5473.00    1.62804   1.68685    0.008
 5474.00    1.74419   1.68322    0.008
 5475.00    1.73875   1.67668    0.008
 5476.00    1.69690   1.67266    0.008
 5477.00    1.53254   1.66711    0.008
 5478.00    1.43225   1.66017   -2.000
 5479.00    1.51397   1.65662   -2.000
 5480.00    1.43025   1.65138   -2.000
 5481.00    0.94492   1.64341   -2.000
 5482.00    1.73137   1.64780   -2.000
 5483.00    5.18205   1.66683   -2.000
 5484.00    6.58564   1.67987   -2.000
 5485.00    4.26131   1.67452   -2.000
 5486.00    1.57287   1.66402   -2.000
 5487.00   -1.69516   1.66649   -2.000
 5488.00   -2.76969   1.68200   -2.000
 5489.00   -0.77999   1.69841   -2.000
 5490.00    0.68208   1.70452   -2.000
 5491.00    1.49550   1.69799   -2.000
 5492.00    2.59316   1.68872   -2.000
 5493.00    3.99886   1.68690   -2.000
 5494.00    3.95576   1.68969   -2.000
 5495.00    2.52776   1.69260   -2.000
 5496.00    1.81606   1.69733   -2.000
 5497.00    1.70808   1.70075   -2.000
 5498.00    1.51628   1.69955   -2.000
 5499.00    1.26226   1.69760   -2.000
 5500.00    1.26143   1.69428   -2.000
 5501.00    1.42564   1.68517   -2.000
 5502.00    1.50914   1.67807    0.008
 5503.00    1.54657   1.68300    0.008
 5504.00    1.52879   1.69013    0.008
 5505.00    1.48357   1.68523    0.008
 5506.00    1.53110   1.67453    0.008
 5507.00    1.61849   1.67208    0.008
 5508.00    1.54945   1.67713    0.008
 5509.00    1.42278   1.67825    0.008
 5510.00    1.31025   1.66986    0.008
 5511.00    1.20212   1.66125    0.008
 5512.00    1.31021   1.66586    0.008
 5513.00    1.47454   1.67919    0.008
 5514.00    1.47926   1.68621    0.008
 5515.00    1.45010   1.68202    0.008
 5516.00    1.52352   1.66986    0.008
 5517.00    1.61418   1.65753    0.008
 5518.00    1.66026   1.65225    0.008
 5519.00    1.70071   1.65475    0.008
 5520.00    1.60792   1.66366    0.008
 5521.00    1.50338   1.67843    0.008
 5522.00    1.54398   1.69726    0.008
 5523.00    1.59216   1.71478    0.008
 5524.00    1.48055   1.72371    0.008
 5525.00    1.36655   1.72357    0.008
 5526.00    1.29757   1.72109    0.008
 5527.00    1.23692   1.72020    0.008
 5528.00    1.35574   1.71921    0.008
 5529.00    1.46938   1.71506    0.008
 5530.00    1.51964   1.70628    0.008
 5531.00    1.56788   1.69358    0.008
 5532.00    1.59936   1.68123    0.008
 5533.00    1.62653   1.67918    0.008
 5534.00    1.62694   1.69234    0.008
 5535.00    1.62453   1.70922    0.008
 5536.00    1.60835   1.71605    0.008
 5537.00    1.57319   1.71269    0.008
 5538.00    1.46266   1.70571    0.008
 5539.00    1.42142   1.69940    0.008
 5540.00    1.60888   1.69810    0.008
 5541.00    1.73861   1.70324    0.008
 5542.00    1.70738   1.70927    0.008
 5543.00    1.64866   1.71404    0.008
 5544.00    1.52436   1.72213    0.008
 5545.00    1.43321   1.73195    0.008
 5546.00    1.41040   1.73515    0.008
 5547.00    1.36139   1.72901    0.008
 5548.00    1.26540   1.72071    0.008
 5549.00    1.36203   1.71658    0.008
 5550.00    1.76072   1.71530    0.008
 5551.00    1.92945   1.71678    0.008
 5552.00    1.78156   1.72437    0.008
 5553.00    1.72749   1.73478    0.008
 5554.00    1.78716   1.74061    0.008
 5555.00    1.70766   1.74037    0.008
 5556.00    1.47947   1.73641    0.008
 5557.00    1.44119   1.72941    0.008
 5558.00    1.58191   1.72103    0.008
 5559.00    1.64115   1.71527    0.008
 5560.00    1.63269   1.71313    0.008
 5561.00    1.53180   1.71161    0.008
 5562.00    1.36329   1.71043    0.008
 5563.00    1.38796   1.71231    0.008
 5564.00    1.53672   1.71539    0.008
 5565.00    1.58215   1.71521    0.008
 5566.00    1.56953   1.71140    0.008
 5567.00    1.49240   1.70707    0.008
 5568.00    1.38373   1.70456    0.008
 5569.00    1.43544   1.70220    0.008
 5570.00    1.55491   1.69778    0.008
 5571.00    1.55267   1.69502    0.008
 5572.00    1.50640   1.69717    0.008
 5573.00    1.48945   1.70033    0.008
 5574.00    1.48146   1.70272    0.008
 5575.00    1.39105   1.70708    0.008
 5576.00    1.27966   1.70951    0.008
 5577.00    1.29839   1.70537    0.008
 5578.00    1.34408   1.70341    0.008
 5579.00    1.33818   1.70935    0.008
 5580.00    1.32387   1.71527    0.008
 5581.00    1.32318   1.71765    0.008
 5582.00    1.32415   1.71884    0.008
 5583.00    1.43489   1.71873    0.008
 5584.00    1.55486   1.71948    0.009
 5585.00    1.51703   1.72081    0.008
 5586.00    1.47157   1.71779    0.008
 5587.00    1.56487   1.71293    0.008
 5588.00    1.65609   1.71082    0.008
 5589.00    1.50041   1.70732    0.008
 5590.00    1.35173   1.69739    0.008
 5591.00    1.34203   1.68135    0.008
 5592.00    1.34852   1.66536    0.008
 5593.00    1.54294   1.65799    0.008
 5594.00    1.69135   1.66121    0.009
 5595.00    1.46999   1.66607    0.008
 5596.00    1.30434   1.66394    0.008
 5597.00    1.47520   1.66097    0.009
 5598.00    1.59648   1.66837    0.009
 5599.00    1.48139   1.68642    0.008
 5600.00    1.39365   1.70519    0.008
 5601.00    1.41213   1.71190    0.008
 5602.00    1.41234   1.69713    0.008
 5603.00    1.35341   1.67293    0.008
 5604.00    1.34156   1.66020    0.008
 5605.00    1.45863   1.66029    0.008
 5606.00    1.56277   1.66286    0.008
 5607.00    1.63654   1.66529    0.008
 5608.00    1.65741   1.67155    0.008
 5609.00    1.57098   1.68226    0.008
 5610.00    1.53344   1.69402    0.008
 5611.00    1.58222   1.70506    0.008
 5612.00    1.59955   1.71364    0.008
 5613.00    1.56827   1.71742    0.008
 5614.00    1.56310   1.71646    0.008
 5615.00    1.59337   1.71586    0.008
 5616.00    1.57933   1.71977    0.008
 5617.00    1.51235   1.72362    0.008
 5618.00    1.56327   1.71580    0.008
 5619.00    1.73839   1.69208    0.008
 5620.00    1.68510   1.66844    0.008
 5621.00    1.41956   1.66459    0.008
 5622.00    1.39084   1.67601    0.008
 5623.00    1.55610   1.68442    0.008
 5624.00    1.60105   1.68548    0.008
 5625.00    1.55924   1.68789    0.008
 5626.00    1.50498   1.69515    0.008
 5627.00    1.44285   1.69807    0.008
 5628.00    1.43260   1.68801    0.008
 5629.00    1.45104   1.67303    0.008
 5630.00    1.40405   1.66986    0.008
 5631.00    1.32557   1.68017    0.008
 5632.00    1.27442   1.69068    0.008
 5633.00    1.23463   1.69401    0.008
 5634.00    1.39236   1.69357    0.008
 5635.00    1.62026   1.69452    0.008
 5636.00    1.62680   1.69875    0.008
 5637.00    1.56693   1.70414    0.008
 5638.00    1.65780   1.70720    0.008
 5639.00    1.78623   1.70524    0.008
 5640.00    1.61724   1.69780    0.008
 5641.00    1.38817   1.68836    0.008
 5642.00    1.40480   1.68181    0.008
 5643.00    1.46033   1.67768    0.008
 5644.00    1.52838   1.67212    0.008
 5645.00    1.59790   1.66694    0.008
 5646.00    1.64860   1.66824    0.008
 5647.00    1.69780   1.67635    0.008
 5648.00    1.64461   1.68358    0.008
 5649.00    1.58686   1.68664    0.008
 5650.00    1.31565   1.68790    0.008
 5651.00    1.04806   1.68916    0.008
 5652.00    1.07592   1.69107    0.008
 5653.00    1.11361   1.69437    0.008
 5654.00    1.33269   1.70037    0.008
 5655.00    1.54064   1.70969    0.008
 5656.00    1.62533   1.72028    0.008
 5657.00    1.65421   1.72809    0.008
 5658.00    1.25010   1.72909    0.008
 5659.00    0.94424   1.72412    0.008
 5660.00    1.21519   1.71860    0.008
 5661.00    1.43007   1.71048    0.008
 5662.00    1.38408   1.69197    0.008
 5663.00    1.35237   1.67272    0.008
 5664.00    1.37494   1.67224    0.008
 5665.00    1.43808   1.68399    0.008
 5666.00    1.62995   1.68572    0.008
 5667.00    1.71557   1.67857    0.008
 5668.00    1.51534   1.67928    0.008
 5669.00    1.45175   1.68903    0.008
 5670.00    1.70341   1.69500    0.008
 5671.00    1.84680   1.69227    0.008
 5672.00    1.77399   1.68603    0.008
 5673.00    1.71598   1.68348    0.008
 5674.00    1.68369   1.68676    0.008
 5675.00    1.57669   1.69197    0.008
 5676.00    1.35593   1.69899    0.008
 5677.00    1.32055   1.71025    0.008
 5678.00    1.53313   1.72107    0.008
 5679.00    1.59970   1.72353    0.008
 5680.00    1.49428   1.72082    0.008
 5681.00    1.42877   1.72194    0.008
 5682.00    1.40474   1.72435    0.008
 5683.00    1.51010   1.71999    0.008
 5684.00    1.73402   1.71273    0.008
 5685.00    1.79356   1.71096    0.008
 5686.00    1.72036   1.71225    0.008
 5687.00    1.70894   1.71174    0.008
 5688.00    1.74143   1.71407    0.008
 5689.00    1.68039   1.72116    0.008
 5690.00    1.56103   1.72286    0.008
 5691.00    1.49781   1.71424    0.008
 5692.00    1.46517   1.70395    0.008
 5693.00    1.50302   1.70299    0.008
 5694.00    1.57423   1.71255    0.008
 5695.00    1.59761   1.72650    0.008
 5696.00    1.60146   1.73927    0.008
 5697.00    1.56552   1.74771    0.008
 5698.00    1.51570   1.74839    0.008
 5699.00    1.54146   1.73982    0.008
 5700.00    1.58946   1.72728    0.008
 5701.00    1.67374   1.71880    0.008
 5702.00    1.76685   1.71550    0.008
 5703.00    1.65166   1.71443    0.008
 5704.00    1.49545   1.71374    0.008
 5705.00    1.52579   1.71078    0.008
 5706.00    1.58479   1.70522    0.008
 5707.00    1.59022   1.70288    0.008
 5708.00    1.58959   1.70887    0.008
 5709.00    1.49320   1.71830    0.008
 5710.00    1.38955   1.72048    0.008
 5711.00    1.51456   1.71182    0.008
 5712.00    1.64887   1.69856    0.008
 5713.00    1.70455   1.68758    0.008
 5714.00    1.75432   1.68377    0.008
 5715.00    1.58543   1.68753    0.008
 5716.00    1.42787   1.69331    0.008
 5717.00    1.46491   1.70224    0.007
 5718.00    1.50167   1.71841    0.007
 5719.00    1.53555   1.73425    0.007
 5720.00    1.56544   1.74234    0.008
 5721.00    1.56546   1.74296    0.008
 5722.00    1.58063   1.73865    0.008
 5723.00    1.68224   1.73480    0.008
 5724.00    1.76666   1.73679    0.008
 5725.00    1.77296   1.74304    0.007
 5726.00    1.79927   1.74898    0.007
 5727.00    1.90001   1.75304    0.008
 5728.00    1.92163   1.75465    0.008
 5729.00    1.69701   1.75280    0.008
 5730.00    1.49104   1.74516    0.007
 5731.00    1.33439   1.73112    0.007
 5732.00    1.29158   1.72041    0.007
 5733.00    1.50713   1.72369    0.007
 5734.00    1.65506   1.73476    0.007
 5735.00    1.67013   1.73857    0.007
 5736.00    1.71949   1.73558    0.007
 5737.00    1.82756   1.73853    0.008
 5738.00    1.84054   1.74911    0.008
 5739.00    1.71084   1.75757    0.008
 5740.00    1.58163   1.75876    0.000
 5741.00    1.45304   1.75498    0.000
 5742.00    1.37056   1.74944    0.000
 5743.00    1.34162   1.74285    0.000
 5744.00    1.39036   1.73727    0.000
 5745.00    1.51862   1.73753    0.000
 5746.00    1.62451   1.74402    0.000
 5747.00    1.71018   1.74954    0.000
 5748.00    1.71128   1.75199    0.000
 5749.00    1.64508   1.75885    0.000
 5750.00    1.63740   1.76889    0.000
 5751.00    1.67071   1.77097    0.000
 5752.00    1.67152   1.76086    0.000
 5753.00    1.65238   1.75062    0.000
 5754.00    1.68657   1.75367    0.000
 5755.00    1.74937   1.76515    0.000
 5756.00    1.72898   1.76900    0.000
 5757.00    1.66984   1.75915    0.000
 5758.00    1.65480   1.74533    0.000
 5759.00    1.65745   1.74165    0.000
 5760.00    1.60211   1.75286    0.000
 5761.00    1.52690   1.77044    0.000
 5762.00    1.47888   1.78206    0.000
 5763.00    1.43871   1.78113    0.000
 5764.00    1.58422   1.76722    0.000
 5765.00    1.77395   1.74587    0.000
 5766.00    1.66754   1.72585    0.000
 5767.00    1.50431   1.71539    0.000
 5768.00    1.44779   1.72038    0.000
 5769.00    1.40716   1.73714    0.000
 5770.00    1.34946   1.75260    0.000
 5771.00    1.28990   1.75930    0.000
 5772.00    1.27987   1.76030    0.000
 5773.00    1.27340   1.75980    0.000
 5774.00    1.33766   1.75904    0.000
 5775.00    1.40453   1.75825    0.000
 5776.00    1.69424   1.75693    0.000
 5777.00    1.97442   1.75525    0.000
 5778.00    1.88020   1.75399    0.000
 5779.00    1.78038   1.75320    0.000
 5780.00    1.59059   1.75364    0.000
 5781.00    1.42691   1.75578    0.000
 5782.00    1.52757   1.75811    0.000
 5783.00    1.61223   1.75741    0.000
 5784.00    1.58101   1.74905    0.000
 5785.00    1.55009   1.73178    0.000
 5786.00    1.52088   1.71419    0.000
 5787.00    1.47664   1.70720    0.000
 5788.00    1.36566   1.70880    0.000
 5789.00    1.26239   1.70921    0.000
 5790.00    1.18716   1.70910    0.000
 5791.00    1.14167   1.71736   -2.000
 5792.00    1.18700   1.73288   -2.000
 5793.00    1.21960   1.74569   -2.000
 5794.00    1.21915   1.74963   -2.000
 5795.00    1.20559   1.74541   -2.000
 5796.00    1.16279   1.74266   -2.000
 5797.00    1.22317   1.75169   -2.000
 5798.00    1.48314   1.76943   -2.000
 5799.00    1.62381   1.78525   -2.000
 5800.00    1.56320   1.79138   -2.000
 5801.00    1.55268   1.78427   -2.000
 5802.00    1.61619   1.76977   -2.000
 5803.00    1.69609   1.76327   -2.000
 5804.00    1.79729   1.77042   -2.000
 5805.00    1.89596   1.78061   -2.000
 5806.00    1.99174   1.78778   -2.000
 5807.00    1.96944   1.79390   -2.000
 5808.00    1.82791   1.79576   -2.000
 5809.00    1.72199   1.79049   -2.000
 5810.00    1.64778   1.78591   -2.000
 5811.00    1.61763   1.78738    0.000
 5812.00    1.62203   1.79116    0.000
 5813.00    1.62206   1.79296    0.000
 5814.00    1.61907   1.79035    0.000
 5815.00    1.56183   1.78120    0.000
 5816.00    1.47175   1.76815    0.000
 5817.00    1.51770   1.75885    0.000
 5818.00    1.63548   1.75617    0.000
 5819.00    1.60205   1.75402    0.000
 5820.00    1.49933   1.74763    0.000
 5821.00    1.51570   1.74389    0.000
 5822.00    1.57905   1.74896    0.000
 5823.00    1.60004   1.75882    0.000
 5824.00    1.60681   1.76651    0.000
 5825.00    1.65624   1.77075    0.000
 5826.00    1.71770   1.77230    0.000
 5827.00    1.80133   1.77029    0.000
 5828.00    1.89012   1.76713    0.000
 5829.00    1.74161   1.76840    0.000
 5830.00    1.54876   1.77516    0.000
 5831.00    1.44994   1.78155    0.000
 5832.00    1.36468   1.78367    0.000
 5833.00    1.44732   1.78390    0.000
 5834.00    1.54752   1.78572    0.000
 5835.00    1.65453   1.78850    0.000
 5836.00    1.76200   1.78977    0.000
 5837.00    1.66278   1.78847    0.000
 5838.00    1.55672   1.78325    0.000
 5839.00    1.64791   1.77620    0.000
 5840.00    1.73840   1.77443    0.000
 5841.00    1.80292   1.77912    0.000
 5842.00    1.86639   1.78048    0.000
 5843.00    1.91396   1.77438    0.000
 5844.00    1.94248   1.77012    0.000
 5845.00    1.78609   1.77537    0.000
 5846.00    1.64669   1.78598    0.000
 5847.00    1.62650   1.79413    0.000
 5848.00    1.60983   1.79626    0.000
 5849.00    1.61217   1.79271    0.000
 5850.00    1.63064   1.78468    0.000
 5851.00    1.71896   1.77263    0.000
 5852.00    1.75637   1.75892    0.000
 5853.00    1.61211   1.74879    0.000
 5854.00    1.49594   1.74361    0.000
 5855.00    1.46393   1.73868    0.000
 5856.00    1.48917   1.72920    0.000
 5857.00    1.66048   1.71614    0.000
 5858.00    1.76938   1.70719    0.000
 5859.00    1.74125   1.70903    0.000
 5860.00    1.72813   1.71532    0.000
 5861.00    1.74358   1.71343    0.000
 5862.00    1.73906   1.70443    0.000
 5863.00    1.70135   1.70186    0.000
 5864.00    1.67882   1.71114    0.000
 5865.00    1.67841   1.72326    0.000
 5866.00    1.64519   1.72766    0.000
 5867.00    1.56996   1.72266    0.000
 5868.00    1.53407   1.71675    0.000
 5869.00    1.54259   1.71654    0.000
 5870.00    1.57189   1.71713    0.000
 5871.00    1.62188   1.71332    0.000
 5872.00    1.63233   1.71093    0.000
 5873.00    1.60807   1.71679    0.000
 5874.00    1.66635   1.72757    0.000
 5875.00    1.78848   1.73507    0.000
 5876.00    1.88226   1.73369    0.000
 5877.00    1.95674   1.72110    0.000
 5878.00    1.90912   1.68943    0.000
 5879.00    1.78872   1.63051    0.000
 5880.00    1.73663   1.57132    0.000
 5881.00    1.72006   1.55739    0.000
 5882.00    1.75512   1.59871    0.000
 5883.00    1.81345   1.65429    0.000
 5884.00    1.68158   1.68035    0.000
 5885.00    1.47596   1.68480    0.000
 5886.00    1.43942   1.68986    0.000
 5887.00    1.45864   1.69822    0.000
 5888.00    1.33278   1.70234    0.000
 5889.00    1.16679   1.70134    0.000
 5890.00    1.29436   1.69883    0.000
 5891.00    1.48870   1.69218    0.000
 5892.00    1.46672   1.66906    0.000
 5893.00    1.40539   1.61592    0.000
 5894.00    1.36394   1.54513    0.000
 5895.00    1.32527   1.50265    0.000
 5896.00    1.30289   1.51998    0.000
 5897.00    1.28214   1.57118    0.000
 5898.00    1.34579   1.60762    0.000
 5899.00    1.41481   1.60567    0.000
 5900.00    1.39742   1.57389    0.000
 5901.00    1.37768   1.55138    0.006
 5902.00    1.42128   1.56721    0.007
 5903.00    1.46032   1.60310    0.007
 5904.00    1.37052   1.62969    0.007
 5905.00    1.29593   1.64579    0.006
 5906.00    1.43801   1.66031    0.006
 5907.00    1.56264   1.67281    0.007
 5908.00    1.52487   1.68087    0.006
 5909.00    1.49442   1.68347    0.006
 5910.00    1.51368   1.68089    0.006
 5911.00    1.52809   1.67806    0.006
 5912.00    1.51692   1.68033    0.007
 5913.00    1.53272   1.68577    0.007
 5914.00    1.66269   1.68969    0.007
 5915.00    1.74811   1.69225    0.006
 5916.00    1.67778   1.69464    0.007
 5917.00    1.61592   1.69275    0.007
 5918.00    1.57902   1.68368    0.007
 5919.00    1.57403   1.67379    0.007
 5920.00    1.64906   1.67102    0.007
 5921.00    1.65878   1.67521    0.007
 5922.00    1.52744   1.68186    0.007
 5923.00    1.45051   1.68658    0.007
 5924.00    1.47557   1.68883    0.007
 5925.00    1.57274   1.69081    0.007
 5926.00    1.78796   1.69070    0.007
 5927.00    1.89365   1.68806    0.007
 5928.00    1.84213   1.68745    0.007
 5929.00    1.78546   1.69068    0.007
 5930.00    1.72229   1.69494    0.007
 5931.00    1.66970   1.69780    0.007
 5932.00    1.62888   1.69736    0.007
 5933.00    1.60092   1.69283    0.007
 5934.00    1.58559   1.68733    0.007
 5935.00    1.61309   1.68629    0.007
 5936.00    1.67767   1.69258    0.007
 5937.00    1.70207   1.70140    0.007
 5938.00    1.69584   1.70369    0.006
 5939.00    1.70208   1.69909    0.006
 5940.00    1.71668   1.69654    0.006
 5941.00    1.72479   1.70216    0.006
 5942.00    1.72909   1.71146    0.006
 5943.00    1.70367   1.71769    0.006
 5944.00    1.66304   1.71708    0.006
 5945.00    1.61745   1.70757    0.006
 5946.00    1.56966   1.69557    0.006
 5947.00    1.52207   1.69365    0.006
 5948.00    1.47456   1.70301    0.006
 5949.00    1.54416   1.71533    0.006
 5950.00    1.65166   1.72587    0.006
 5951.00    1.54007   1.73187    0.006
 5952.00    1.36915   1.72813    0.006
 5953.00    1.30708   1.71459    0.007
 5954.00    1.26918   1.70150    0.007
 5955.00    1.26923   1.69756    0.007
 5956.00    1.27601   1.69894    0.007
 5957.00    1.33627   1.69802    0.007
 5958.00    1.40376   1.69706    0.007
 5959.00    1.44808   1.69985    0.007
 5960.00    1.49018   1.69890    0.007
 5961.00    1.54653   1.68953    0.007
 5962.00    1.60373   1.68197    0.007
 5963.00    1.55597   1.68618    0.007
 5964.00    1.50548   1.69978    0.007
 5965.00    1.44697   1.71444    0.007
 5966.00    1.39719   1.72414    0.007
 5967.00    1.56988   1.72765    0.007
 5968.00    1.73281   1.72672    0.006
 5969.00    1.76430   1.72364    0.006
 5970.00    1.79141   1.72001    0.006
 5971.00    1.77920   1.71957    0.006
 5972.00    1.76336   1.72535    0.006
 5973.00    1.72360   1.73378    0.006
 5974.00    1.69939   1.74021    0.006
 5975.00    1.75495   1.74386    0.006
 5976.00    1.79352   1.74425    0.006
 5977.00    1.76182   1.74130    0.006
 5978.00    1.69731   1.73711    0.006
 5979.00    1.52039   1.73231    0.006
 5980.00    1.39045   1.72532    0.006
 5981.00    1.39617   1.71626    0.006
 5982.00    1.43175   1.70710    0.006
 5983.00    1.54093   1.70086    0.006
 5984.00    1.62175   1.70258    0.006
 5985.00    1.64229   1.71245    0.006
 5986.00    1.65961   1.72265    0.006
 5987.00    1.67095   1.72398    0.007
 5988.00    1.67825   1.71521    0.007
 5989.00    1.67904   1.70590    0.007
 5990.00    1.65835   1.70854    0.007
 5991.00    1.60726   1.72209    0.007
 5992.00    1.62046   1.73284    0.007
 5993.00    1.71369   1.73553    0.007
 5994.00    1.74971   1.73660    0.007
 5995.00    1.72296   1.73919    0.006
 5996.00    1.67463   1.74223    0.006
 5997.00    1.60541   1.74827    0.006
 5998.00    1.55250   1.75955    0.006
 5999.00    1.51351   1.77000    0.006
 6000.00    1.48495   1.77171    0.006
 6001.00    1.46423   1.76468    0.006
 6002.00    1.45567   1.75501    0.006
 6003.00    1.45514   1.74753    0.006
 6004.00    1.49695   1.74329    0.006
 6005.00    1.56325   1.74123    0.006
 6006.00    1.56146   1.73879    0.006
 6007.00    1.52537   1.73494    0.006
 6008.00    1.47740   1.73436    0.006
 6009.00    1.42424   1.74003    0.006
 6010.00    1.44036   1.74378    0.006
 6011.00    1.48240   1.73772    0.006
 6012.00    1.55157   1.72581    0.006
 6013.00    1.62936   1.71945    0.006
 6014.00    1.62370   1.72683    0.007
 6015.00    1.59590   1.74266    0.007
 6016.00    1.54417   1.75226    0.007
 6017.00    1.48724   1.74921    0.007
 6018.00    1.51799   1.74218    0.007
 6019.00    1.56382   1.74173    0.007
 6020.00    1.59260   1.74568    0.007
 6021.00    1.61915   1.74536    0.007
 6022.00    1.58960   1.74176    0.007
 6023.00    1.55490   1.74143    0.007
 6024.00    1.58694   1.74373    0.007
 6025.00    1.62269   1.74533    0.007
 6026.00    1.69657   1.74729    0.006
 6027.00    1.76982   1.75082    0.006
 6028.00    1.69649   1.75456    0.006
 6029.00    1.61722   1.75864    0.006
 6030.00    1.40022   1.76465    0.006
 6031.00    1.21122   1.77054    0.006
 6032.00    1.37945   1.77436    0.006
 6033.00    1.54297   1.77903    0.006
 6034.00    1.66596   1.78427    0.006
 6035.00    1.75499   1.78453    0.006
 6036.00    1.62714   1.77992    0.006
 6037.00    1.50946   1.77850    0.006
 6038.00    1.44258   1.78454    0.006
 6039.00    1.41174   1.79226    0.006
 6040.00    1.52680   1.79461    0.006
 6041.00    1.62510   1.79148    0.006
 6042.00    1.66710   1.78786    0.006
 6043.00    1.69372   1.78665    0.006
 6044.00    1.67675   1.78625    0.006
 6045.00    1.67830   1.78622    0.006
 6046.00    1.72470   1.78893    0.006
 6047.00    1.77797   1.79481    0.006
 6048.00    1.84560   1.80309    0.006
 6049.00    1.86324   1.81170    0.006
 6050.00    1.79000   1.81775    0.006
 6051.00    1.73492   1.82054    0.006
 6052.00    1.70869   1.82032    0.006
 6053.00    1.64028   1.81753    0.006
 6054.00    1.51304   1.81523    0.007
 6055.00    1.45818   1.81641    0.007
 6056.00    1.49213   1.81795    0.007
 6057.00    1.50813   1.81521    0.007
 6058.00    1.50471   1.80943    0.007
 6059.00    1.52245   1.80413    0.007
 6060.00    1.56039   1.79943    0.006
 6061.00    1.61758   1.79388    0.006
 6062.00    1.69096   1.78872    0.006
 6063.00    1.74804   1.78827    0.006
 6064.00    1.79303   1.79522    0.006
 6065.00    1.78055   1.80502    0.006
 6066.00    1.73067   1.80939    0.006
 6067.00    1.67372   1.80426    0.006
 6068.00    1.61275   1.79124    0.006
 6069.00    1.63910   1.77498    0.006
 6070.00    1.70876   1.76438    0.006
 6071.00    1.70059   1.77135    0.006
 6072.00    1.65904   1.79498    0.006
 6073.00    1.63416   1.81837    0.006
 6074.00    1.61540   1.83094    0.006
 6075.00    1.55655   1.83598    0.006
 6076.00    1.48522   1.83828    0.006
 6077.00    1.47013   1.83864    0.006
 6078.00    1.46964   1.83747    0.006
 6079.00    1.42320   1.83682    0.006
 6080.00    1.36704   1.83663    0.006
 6081.00    1.39820   1.83410    0.006
 6082.00    1.44397   1.82683    0.006
 6083.00    1.52717   1.81581    0.006
 6084.00    1.61510   1.80618    0.006
 6085.00    1.62149   1.79997    0.006
 6086.00    1.62074   1.79326    0.006
 6087.00    1.63096   1.78763    0.006
 6088.00    1.64175   1.79014    0.006
 6089.00    1.62239   1.79845    0.006
 6090.00    1.60329   1.80357    0.006
 6091.00    1.64298   1.80598    0.006
 6092.00    1.68054   1.81058    0.006
 6093.00    1.67263   1.81373    0.006
 6094.00    1.66508   1.80832    0.006
 6095.00    1.66202   1.79707    0.006
 6096.00    1.65234   1.79119    0.006
 6097.00    1.58774   1.79458    0.006
 6098.00    1.53136   1.80240    0.006
 6099.00    1.52589   1.81376    0.006
 6100.00    1.51481   1.82661    0.006
 6101.00    1.47636   1.83202    0.006
 6102.00    1.45177   1.82876    0.006
 6103.00    1.48202   1.82771    0.006
 6104.00    1.50094   1.83377    0.006
 6105.00    1.48257   1.83626    0.006
 6106.00    1.45054   1.82018    0.006
 6107.00    1.38054   1.78737    0.006
 6108.00    1.37378   1.76466    0.006
 6109.00    1.51765   1.77306    0.006
 6110.00    1.62960   1.79910    0.006
 6111.00    1.67589   1.81757    0.006
 6112.00    1.68911   1.82157    0.006
 6113.00    1.64317   1.82027    0.006
 6114.00    1.62328   1.82188    0.006
 6115.00    1.64418   1.82308    0.006
 6116.00    1.63007   1.81997    0.006
 6117.00    1.56783   1.82058    0.006
 6118.00    1.50341   1.83126    0.006
 6119.00    1.43634   1.84364    0.006
 6120.00    1.39014   1.84632    0.006
 6121.00    1.36619   1.83953    0.006
 6122.00    1.36786   1.83344    0.006
 6123.00    1.39364   1.83059    0.006
 6124.00    1.42619   1.82016    0.006
 6125.00    1.46435   1.79654    0.006
 6126.00    1.53374   1.76960    0.006
 6127.00    1.62592   1.75702    0.006
 6128.00    1.67773   1.77161    0.006
 6129.00    1.70368   1.80238    0.006
 6130.00    1.66251   1.82204    0.006
 6131.00    1.58371   1.82146    0.006
 6132.00    1.52094   1.81230    0.006
 6133.00    1.46597   1.80723    0.006
 6134.00    1.42467   1.81375    0.006
 6135.00    1.38912   1.83103    0.006
 6136.00    1.40839   1.84727    0.006
 6137.00    1.44745   1.85172    0.006
 6138.00    1.47239   1.84348    0.006
 6139.00    1.49303   1.82316    0.006
 6140.00    1.51889   1.79011    0.006
 6141.00    1.54609   1.75213    0.006
 6142.00    1.52813   1.72983    0.006
 6143.00    1.50086   1.74372    0.006
 6144.00    1.54153   1.78541    0.006
 6145.00    1.59325   1.81803    0.006
 6146.00    1.59249   1.82128    0.006
 6147.00    1.58535   1.81434    0.006
 6148.00    1.56913   1.82291    0.006
 6149.00    1.55215   1.84482    0.006
 6150.00    1.50996   1.86121    0.006
 6151.00    1.46655   1.86298    0.006
 6152.00    1.33747   1.85234    0.006
 6153.00    1.20941   1.83008    0.006
 6154.00    1.21275   1.79942    0.006
 6155.00    1.21795   1.77611    0.006
 6156.00    1.25986   1.77550    0.006
 6157.00    1.29833   1.79256    0.006
 6158.00    1.29730   1.80760    0.006
 6159.00    1.30802   1.80767    0.006
 6160.00    1.41272   1.79777    0.006
 6161.00    1.50534   1.78852    0.006
 6162.00    1.52516   1.77819    0.006
 6163.00    1.52257   1.75975    0.006
 6164.00    1.41344   1.73271    0.006
 6165.00    1.31334   1.69880    0.006
 6166.00    1.24821   1.65990    0.006
 6167.00    1.20973   1.62795    0.006
 6168.00    1.25727   1.62005    0.006
 6169.00    1.32029   1.63618    0.006
 6170.00    1.42558   1.65896    0.006
 6171.00    1.49168   1.67541    0.006
 6172.00    1.46602   1.68354    0.006
 6173.00    1.42078   1.68069    0.006
 6174.00    1.33592   1.66709    0.006
 6175.00    1.29605   1.65931    0.006
 6176.00    1.33549   1.67164    0.006
 6177.00    1.36366   1.69200    0.006
 6178.00    1.37446   1.70045    0.006
 6179.00    1.38420   1.69657    0.006
 6180.00    1.39251   1.69226    0.006
 6181.00    1.37947   1.69372    0.006
 6182.00    1.34097   1.70057    0.006
 6183.00    1.33359   1.71079    0.006
 6184.00    1.35891   1.71989    0.006
 6185.00    1.36260   1.72459    0.006
 6186.00    1.34621   1.72765    0.006
 6187.00    1.36672   1.73071    0.006
 6188.00    1.41741   1.73030    0.006
 6189.00    1.42838   1.72455    0.006
 6190.00    1.41076   1.71324    0.006
 6191.00    1.35722   1.69597    0.006
 6192.00    1.28100   1.67794    0.006
 6193.00    1.29856   1.66673    0.006
 6194.00    1.36792   1.66004    0.006
 6195.00    1.45434   1.64877    0.006
 6196.00    1.54894   1.63413   -2.000
 6197.00    1.01945   1.63065   -2.000
 6198.00    0.23125   1.64487   -2.000
 6199.00   -0.39932   1.66516   -2.000
 6200.00   -0.97402   1.68069   -2.000
 6201.00   -0.32351   1.69105   -2.000
 6202.00    0.69365   1.69679   -2.000
 6203.00    1.68276   1.69485   -2.000
 6204.00    2.66489   1.68522   -2.000
 6205.00    2.76208   1.67707   -2.000
 6206.00    2.68109   1.68076   -2.000
 6207.00    2.20497   1.69444   -2.000
 6208.00    1.66651   1.70720    0.007
 6209.00    1.49220   1.71243    0.006
 6210.00    1.36056   1.71297    0.006
 6211.00    1.38020   1.71501    0.006
 6212.00    1.41184   1.71966    0.006
 6213.00    1.48272   1.72299    0.006
 6214.00    1.55533   1.72119    0.006
 6215.00    1.51254   1.71345    0.006
 6216.00    1.47002   1.70218    0.006
 6217.00    1.50048   1.68881    0.006
 6218.00    1.53358   1.67101    0.006
 6219.00    1.61478   1.65020    0.006
 6220.00    1.67735   1.63428    0.006
 6221.00    1.53481   1.62999    0.006
 6222.00    1.40725   1.63747    0.006
 6223.00    1.39538   1.64787    0.006
 6224.00    1.39249   1.65176    0.006
 6225.00    1.44208   1.65075    0.006
 6226.00    1.48408   1.65033    0.006
 6227.00    1.49087   1.64915    0.006
 6228.00    1.49618   1.64377    0.006
 6229.00    1.49594   1.63701    0.006
 6230.00    1.48564   1.63547    0.006
 6231.00    1.44350   1.64013    0.006
 6232.00    1.41930   1.64524    0.006
 6233.00    1.44326   1.64470    0.006
 6234.00    1.45065   1.63445    0.006
 6235.00    1.41984   1.61685    0.006
 6236.00    1.40103   1.60499    0.006
 6237.00    1.40611   1.60953    0.006
 6238.00    1.39494   1.62696    0.006
 6239.00    1.35556   1.64838    0.006
 6240.00    1.33114   1.66607    0.006
 6241.00    1.32946   1.67339    0.006
 6242.00    1.32047   1.66876    0.006
 6243.00    1.30174   1.65536    0.006
 6244.00    1.31207   1.63887    0.006
 6245.00    1.35655   1.62822    0.006
 6246.00    1.34987   1.62847    0.006
 6247.00    1.29012   1.63113    0.006
 6248.00    1.28042   1.62755    0.006
 6249.00    1.31650   1.62492    0.006
 6250.00    1.37408   1.63057    0.006
 6251.00    1.44900   1.64126    0.006
 6252.00    1.41301   1.65508    0.006
 6253.00    1.29837   1.67061    0.006
 6254.00    1.30375   1.68164    0.006
 6255.00    1.38383   1.68384    0.006
 6256.00    1.45368   1.67673    0.006
 6257.00    1.51796   1.66371    0.006
 6258.00    1.46976   1.65442    0.006
 6259.00    1.36843   1.65485    0.007
 6260.00    1.16275   1.65836    0.007
 6261.00    0.91454   1.65405    0.007
 6262.00    0.82930   1.63930    0.007
 6263.00    0.80076   1.62414    0.008
 6264.00    1.04700   1.62400    0.008
 6265.00    1.37384   1.64144    0.007
 6266.00    1.71383   1.66322    0.007
 6267.00    2.05703   1.68193    0.007
 6268.00    2.08053   1.69814    0.007
 6269.00    2.04129   1.70587    0.006
 6270.00    1.83611   1.70186    0.006
 6271.00    1.60555   1.69586    0.006
 6272.00    1.57144   1.69462    0.006
 6273.00    1.55950   1.69294    0.006
 6274.00    1.64309   1.68890    0.006
 6275.00    1.73387   1.68979    0.006
 6276.00    1.61706   1.69831    0.006
 6277.00    1.49191   1.70781    0.006
 6278.00    1.46267   1.71136    0.006
 6279.00    1.43653   1.70841    0.006
 6280.00    1.50758   1.70416    0.000
 6281.00    1.57329   1.70314    0.000
 6282.00    1.54808   1.70549    0.000
 6283.00    1.52199   1.70838    0.000
 6284.00    1.48673   1.70709    0.000
 6285.00    1.45598   1.70023    0.000
 6286.00    1.45889   1.69507    0.000
 6287.00    1.47450   1.69932    0.000
 6288.00    1.56234   1.71081    0.000
 6289.00    1.62114   1.72146    0.000
 6290.00    1.54844   1.72712    0.000
 6291.00    1.47833   1.73273    0.000
 6292.00    1.41780   1.74374    0.000
 6293.00    1.36499   1.75633    0.000
 6294.00    1.33610   1.76333    0.000
 6295.00    1.33474   1.76200    0.000
 6296.00    1.40596   1.75441    0.000
 6297.00    1.45094   1.74482    0.000
 6298.00    1.43646   1.73771    0.000
 6299.00    1.44226   1.73455    0.000
 6300.00    1.48785   1.72933    0.000
 6301.00    1.49851   1.71733    0.000
 6302.00    1.44946   1.70778    0.000
 6303.00    1.44784   1.71215    0.000
 6304.00    1.51723   1.72599    0.000
 6305.00    1.57768   1.73521    0.000
 6306.00    1.62636   1.73428    0.000
 6307.00    1.64186   1.73100    0.000
 6308.00    1.61889   1.73380    0.000
 6309.00    1.57221   1.73976    0.000
 6310.00    1.50129   1.74245    0.000
 6311.00    1.41957   1.74603    0.000
 6312.00    1.32811   1.75873    0.000
 6313.00    1.31443   1.77561    0.000
 6314.00    1.36255   1.78362    0.000
 6315.00    1.38983   1.77935    0.000
 6316.00    1.40254   1.76958    0.000
 6317.00    1.43172   1.76304    0.000
 6318.00    1.47099   1.76318    0.000
 6319.00    1.50692   1.76466    0.000
 6320.00    1.54106   1.76347    0.000
 6321.00    1.56304   1.76333    0.006
 6322.00    1.57938   1.76370    0.006
 6323.00    1.56018   1.76039    0.006
 6324.00    1.52673   1.75986    0.006
 6325.00    1.51506   1.76781    0.006
 6326.00    1.51084   1.77625    0.006
 6327.00    1.43218   1.77925    0.006
 6328.00    1.33213   1.78218    0.006
 6329.00    1.30923   1.78802    0.006
 6330.00    1.30466   1.79224    0.006
 6331.00    1.36233   1.79421    0.006
 6332.00    1.43190   1.79753    0.006
 6333.00    1.46885   1.80271    0.006
 6334.00    1.50096   1.80638    0.006
 6335.00    1.54852   1.80610    0.006
 6336.00    1.59776   1.80787    0.006
 6337.00    1.52638   1.81725    0.006
 6338.00    1.44643   1.82584    0.006
 6339.00    1.39605   1.81998    0.006
 6340.00    1.34675   1.79818    0.006
 6341.00    1.35373   1.77779    0.006
 6342.00    1.36236   1.77738    0.006
 6343.00    1.42137   1.79383    0.006
 6344.00    1.47724   1.81163    0.006
 6345.00    1.48296   1.82456    0.006
 6346.00    1.49020   1.83222    0.006
 6347.00    1.51292   1.82978    0.006
 6348.00    1.53065   1.81464    0.006
 6349.00    1.51240   1.79307    0.006
 6350.00    1.48015   1.77622    0.006
 6351.00    1.37044   1.77150    0.006
 6352.00    1.28945   1.78001    0.006
 6353.00    1.33544   1.79710    0.006
 6354.00    1.38100   1.81603    0.006
 6355.00    1.42497   1.82927    0.006
 6356.00    1.46752   1.83208    0.006
 6357.00    1.50577   1.82625    0.006
 6358.00    1.54158   1.81506    0.006
 6359.00    1.57106   1.80087    0.006
 6360.00    1.55009   1.78893    0.006
 6361.00    1.41678   1.78400    0.006
 6362.00    1.31613   1.77984    0.006
 6363.00    1.27855   1.76727    0.006
 6364.00    1.30679   1.75192    0.006
 6365.00    1.44588   1.74521    0.006
 6366.00    1.53525   1.74607    0.006
 6367.00    1.55126   1.74736    0.006
 6368.00    1.51860   1.74948    0.006
 6369.00    1.42280   1.75680    0.006
 6370.00    1.34988   1.76950    0.006
 6371.00    1.30310   1.78509    0.006
 6372.00    1.38605   1.80256    0.006
 6373.00    1.59975   1.81946    0.006
 6374.00    1.73311   1.82905    0.006
 6375.00    1.79504   1.82789    0.006
 6376.00    1.73132   1.82498    0.006
 6377.00    1.56919   1.83145    0.006
 6378.00    1.48613   1.84577    0.006
 6379.00    1.45755   1.85711    0.006
 6380.00    1.46105   1.85999    0.006
 6381.00    1.48392   1.85848    0.006
 6382.00    1.54543   1.85360    0.006
 6383.00    1.62731   1.84072    0.006
 6384.00    1.61344   1.82349    0.006
 6385.00    1.55579   1.81395    0.006
 6386.00    1.47863   1.81630    0.006
 6387.00    1.39380   1.82489    0.006
 6388.00    1.40012   1.83159    0.006
 6389.00    1.43700   1.83092    0.006
 6390.00    1.51272   1.82626    0.006
 6391.00    1.59938   1.82560    0.006
 6392.00    1.48944   1.82919    0.006
 6393.00    1.33388   1.83168    0.006
 6394.00    1.23411   1.83283    0.006
 6395.00    1.14474   1.83497    0.006
 6396.00    1.27568   1.83465    0.006
 6397.00    1.43827   1.82447    0.006
 6398.00    1.56274   1.80659    0.006
 6399.00    1.68325   1.79863    0.006
 6400.00    1.64429   1.81316    0.006
 6401.00    1.59463   1.83998    0.006
 6402.00    1.55091   1.86043    0.006
 6403.00    1.50739   1.86306    0.006
 6404.00    1.56192   1.84500    0.006
 6405.00    1.61445   1.81943    0.006
 6406.00    1.60423   1.81320    0.006
 6407.00    1.59282   1.83514    0.006
 6408.00    1.56361   1.86491    0.006
 6409.00    1.52926   1.88313    0.006
 6410.00    1.44532   1.88672    0.006
 6411.00    1.36336   1.87989    0.006
 6412.00    1.29534   1.86869    0.006
 6413.00    1.26239   1.86165    0.006
 6414.00    1.41839   1.86535    0.006
 6415.00    1.54983   1.87208    0.006
 6416.00    1.57515   1.86710    0.006
 6417.00    1.58971   1.85243    0.006
 6418.00    1.56600   1.84280    0.006
 6419.00    1.55100   1.84505    0.006
 6420.00    1.56209   1.85548    0.006
 6421.00    1.56915   1.86668    0.006
 6422.00    1.56599   1.87144    0.006
 6423.00    1.55350   1.86595    0.006
 6424.00    1.52058   1.85083    0.006
 6425.00    1.50262   1.83071    0.006
 6426.00    1.51310   1.81717    0.006
 6427.00    1.53932   1.82357    0.006
 6428.00    1.59167   1.84727    0.006
 6429.00    1.60317   1.86856    0.006
 6430.00    1.55528   1.87689    0.006
 6431.00    1.53981   1.88027    0.006
 6432.00    1.56583   1.88525    0.006
 6433.00    1.62527   1.88624    0.006
 6434.00    1.72238   1.87444    0.006
 6435.00    1.74252   1.84992    0.006
 6436.00    1.68616   1.82816    0.006
 6437.00    1.59938   1.82789    0.006
 6438.00    1.48595   1.84754    0.006
 6439.00    1.44282   1.86872    0.006
 6440.00    1.45397   1.88115    0.006
 6441.00    1.44583   1.88724    0.006
 6442.00    1.42458   1.88636    0.007
 6443.00    1.38511   1.87354    0.007
 6444.00    1.33481   1.85821    0.007
 6445.00    1.26781   1.86162    0.007
 6446.00    1.19214   1.88647    0.007
 6447.00    1.27207   1.91346    0.007
 6448.00    1.42199   1.92908    0.006
 6449.00    1.44504   1.93453    0.006
 6450.00    1.41902   1.93465    0.006
 6451.00    1.42853   1.93121    0.006
 6452.00    1.44973   1.92011    0.006
 6453.00    1.49259   1.89348    0.006
 6454.00    1.54143   1.85195    0.006
 6455.00    1.52152   1.81584    0.006
 6456.00    1.48601   1.81064    0.006
 6457.00    1.41083   1.83694    0.006
 6458.00    1.32846   1.87169    0.006
 6459.00    1.36145   1.89311    0.006
 6460.00    1.41049   1.89464    0.006
 6461.00    1.43014   1.88878    0.006
 6462.00    1.44685   1.89428    0.006
 6463.00    1.41435   1.91354    0.006
 6464.00    1.37875   1.93293    0.006
 6465.00    1.41780   1.93809    0.006
 6466.00    1.45891   1.92084    0.006
 6467.00    1.47199   1.88580    0.006
 6468.00    1.48791   1.85776    0.006
 6469.00    1.58275   1.86093    0.006
 6470.00    1.66914   1.88786    0.006
 6471.00    1.63597   1.91403    0.006
 6472.00    1.60353   1.92929    0.006
 6473.00    1.57787   1.93606    0.006
 6474.00    1.54647   1.93595    0.006
 6475.00    1.47627   1.92966    0.006
 6476.00    1.42846   1.92073    0.006
 6477.00    1.49808   1.91321    0.006
 6478.00    1.54454   1.90553    0.006
 6479.00    1.49323   1.89189    0.006
 6480.00    1.44259   1.87700    0.006
 6481.00    1.39430   1.87595    0.006
 6482.00    1.37316   1.89060    0.006
 6483.00    1.43168   1.90502    0.006
 6484.00    1.51250   1.90671    0.006
 6485.00    1.64910   1.89453    0.006
 6486.00    1.72659   1.87051    0.006
 6487.00    1.67667   1.84216    0.006
 6488.00    1.61329   1.82474    0.006
 6489.00    1.52469   1.82693    0.006
 6490.00    1.49388   1.84187    0.006
 6491.00    1.55748   1.85836    0.006
 6492.00    1.52751   1.87098    0.006
 6493.00    1.36344   1.87737    0.006
 6494.00    1.26828   1.87550    0.006
 6495.00    1.25999   1.86646    0.006
 6496.00    1.28422   1.85601    0.006
 6497.00    1.34457   1.84581    0.006
 6498.00    1.37317   1.82584    0.006
 6499.00    1.37066   1.78934    0.006
 6500.00    1.41305   1.75004    0.006
 6501.00    1.49422   1.72875    0.006
 6502.00    1.51696   1.73128    0.006
 6503.00    1.49523   1.74880    0.006
 6504.00    1.44289   1.77017    0.006
 6505.00    1.37007   1.79221    0.006
 6506.00    1.38406   1.81663    0.006
 6507.00    1.44893   1.84013    0.006
 6508.00    1.53070   1.85729    0.006
 6509.00    1.62111   1.86737    0.006
 6510.00    1.64334   1.87413    0.006
 6511.00    1.63541   1.87935    0.006
 6512.00    1.61371   1.87840    0.006
 6513.00    1.58679   1.86918    0.006
 6514.00    1.62963   1.86126    0.006
 6515.00    1.69499   1.86525    0.006
 6516.00    1.66958   1.87775    0.006
 6517.00    1.61966   1.88679    0.006
 6518.00    1.58973   1.88746    0.006
 6519.00    1.56423   1.88249    0.006
 6520.00    1.57770   1.87434    0.006
 6521.00    1.59804   1.86524    0.006
 6522.00    1.55497   1.85832    0.007
 6523.00    1.50337   1.85502    0.007
 6524.00    1.56127   1.85777    0.006
 6525.00    1.62964   1.86883    0.006
 6526.00    1.62759   1.88353    0.006
 6527.00    1.62137   1.89382    0.006
 6528.00    1.51755   1.89734    0.000
 6529.00    1.41278   1.89752    0.000
 6530.00    1.52664   1.89646    0.000
 6531.00    1.63340   1.89252    0.000
 6532.00    1.56117   1.88754    0.000
 6533.00    1.48945   1.88882    0.000
 6534.00    1.42455   1.89847    0.000
 6535.00    1.37067   1.90797    0.000
 6536.00    1.41493   1.90826    0.000
 6537.00    1.45528   1.90086    0.000
 6538.00    1.47007   1.89615    0.000
 6539.00    1.48358   1.90229    0.000
 6540.00    1.49064   1.91650    0.000
 6541.00    1.52227   1.92794    0.000
 6542.00    1.65535   1.92966    0.000
 6543.00    1.75158   1.92678    0.000
 6544.00    1.72182   1.92969    0.000
 6545.00    1.70404   1.93857    0.000
 6546.00    1.72073   1.94204    0.000
 6547.00    1.75841   1.93179    0.000
 6548.00    1.84771   1.91057    0.000
 6549.00    1.91693   1.88701    0.000
 6550.00    1.94360   1.86660    0.000
 6551.00    1.94086   1.85102    0.000
 6552.00    1.88392   1.84511    0.000
 6553.00    1.78665   1.85082    0.000
 6554.00    1.62444   1.85720    0.000
 6555.00    1.50158   1.85242    0.000
 6556.00    1.43431   1.83873    0.000
 6557.00    1.43280   1.82576    0.000
 6558.00    1.51301   1.81592    0.000
 6559.00    1.62928   1.80241    0.000
 6560.00    1.78503   1.78204    0.000
 6561.00    2.02474   1.76128    0.000
 6562.00    2.34557   1.74572    0.000
 6563.00    2.59942   1.73147    0.000
 6564.00    2.79619   1.70892    0.000
 6565.00    2.81562   1.66425    0.000
 6566.00    2.70198   1.57751    0.000
 6567.00    2.53355   1.44928    0.000
 6568.00    2.32900   1.34244    0.000
 6569.00    2.14215   1.34369    0.000
 6570.00    1.96551   1.45608    0.000
 6571.00    1.73752   1.59509    0.000
 6572.00    1.48373   1.69496    0.000
 6573.00    1.44433   1.75002    0.000
 6574.00    1.49823   1.77704    0.000
 6575.00    1.46398   1.79230    0.000
 6576.00    1.39681   1.80394    0.000
 6577.00    1.35333   1.80731    0.000
 6578.00    1.31736   1.80003    0.000
 6579.00    1.48809   1.79341    0.000
 6580.00    1.71348   1.79902    0.000
 6581.00    1.80290   1.81523    0.000
 6582.00    1.86292   1.83169    0.000
 6583.00    2.00422   1.84090    0.000
 6584.00    2.15946   1.84295    0.000
 6585.00    2.23471   1.84153    0.000
 6586.00    2.29957   1.83934    0.000
 6587.00    2.19012   1.84098    0.000
 6588.00    2.06475   1.85191    0.000
 6589.00    1.93219   1.86829    0.000
 6590.00    1.79923   1.88172    0.000
 6591.00    1.64630   1.89001    0.000
 6592.00    1.49483   1.89796    0.000
 6593.00    1.52399   1.90993    0.000
 6594.00    1.55071   1.92091    0.000
 6595.00    1.52164   1.92256    0.000
 6596.00    1.50099   1.90977    0.000
 6597.00    1.58697   1.88122    0.000
 6598.00    1.65772   1.84737    0.000
 6599.00    1.59799   1.83024    0.000
 6600.00    1.54587   1.84123    0.000
 6601.00    1.54215   1.86631    0.000
 6602.00    1.54471   1.88249    0.000
 6603.00    1.57859   1.88191    0.000
 6604.00    1.59336   1.87575    0.000
 6605.00    1.53097   1.87957    0.000
 6606.00    1.49199   1.89543    0.000
 6607.00    1.53141   1.91087    0.000
 6608.00    1.58704   1.91531    0.000
 6609.00    1.68851   1.90838    0.006
 6610.00    1.73028   1.89529    0.006
 6611.00    1.62776   1.88233    0.006
 6612.00    1.55046   1.87258    0.006
 6613.00    1.52582   1.86353    0.007
 6614.00    1.50016   1.85489    0.007
 6615.00    1.47266   1.85595    0.007
 6616.00    1.52350   1.87275    0.007
 6617.00    1.69859   1.89304    0.007
 6618.00    1.78778   1.90092    0.007
 6619.00    1.75743   1.89897    0.007
 6620.00    1.68340   1.90097    0.007
 6621.00    1.55587   1.90946    0.007
 6622.00    1.51137   1.91491    0.007
 6623.00    1.55654   1.91299    0.007
 6624.00    1.57760   1.90895    0.007
 6625.00    1.57570   1.90836    0.007
 6626.00    1.54127   1.90995    0.007
 6627.00    1.47951   1.90728    0.006
 6628.00    1.45806   1.89560    0.006
 6629.00    1.46640   1.87650    0.006
 6630.00    1.54004   1.85852    0.006
 6631.00    1.65609   1.85210    0.007
 6632.00    1.61737   1.85873    0.007
 6633.00    1.49069   1.86900    0.006
 6634.00    1.40600   1.87460    0.006
 6635.00    1.34209   1.87560    0.007
 6636.00    1.37669   1.87566    0.007
 6637.00    1.45346   1.87492    0.007
 6638.00    1.51365   1.87018    0.007
 6639.00    1.56778   1.86291    0.007
 6640.00    1.56558   1.86004    0.007
 6641.00    1.54589   1.86463    0.007
 6642.00    1.67409   1.87266    0.007
 6643.00    1.84055   1.87884    0.007
 6644.00    1.70495   1.88090    0.007
 6645.00    1.50561   1.88103    0.007
 6646.00    1.52549   1.88289    0.007
 6647.00    1.58190   1.88392    0.007
 6648.00    1.64509   1.87757    0.007
 6649.00    1.70913   1.86781    0.007
 6650.00    1.73484   1.86711    0.007
 6651.00    1.75720   1.87633    0.007
 6652.00    1.70496   1.88373    0.007
 6653.00    1.64890   1.88355    0.007
 6654.00    1.67650   1.87858    0.007
 6655.00    1.70476   1.86844    0.007
 6656.00    1.67469   1.85060    0.007
 6657.00    1.64347   1.83114    0.007
 6658.00    1.58791   1.82148    0.015
 6659.00    1.52469   1.82425   -1.000
 6660.00    1.36918   1.83143   -1.000
 6661.00    1.22665   1.83561   -1.000
 6662.00    1.19122   1.83626   -1.000
 6663.00    1.18611   1.83661   -1.000
 6664.00    1.36825   1.83799   -1.000
 6665.00    1.52100   1.83887   -1.000
 6666.00    1.53095   1.83734   -1.000
 6667.00    1.53693   1.83192   -1.000
 6668.00    1.52728   1.82323   -1.000
 6669.00    1.49333   1.81812    0.060
 6670.00    1.37960   1.82259    0.011
 6671.00    1.31498   1.83046    0.007
 6672.00    1.38670   1.83398    0.007
 6673.00    1.45015   1.83739    0.007
 6674.00    1.49397   1.84744    0.007
 6675.00    1.55232   1.86205    0.007
 6676.00    1.64052   1.87422    0.007
 6677.00    1.66235   1.88020    0.007
 6678.00    1.56564   1.88065    0.007
 6679.00    1.51947   1.87757    0.007
 6680.00    1.55227   1.87062    0.007
 6681.00    1.59903   1.85214    0.007
 6682.00    1.66495   1.81375    0.007
 6683.00    1.67128   1.76818    0.007
 6684.00    1.60567   1.74561    0.007
 6685.00    1.58436   1.75528    0.007
 6686.00    1.61023   1.77421    0.007
 6687.00    1.57870   1.78173    0.007
 6688.00    1.49329   1.78412    0.007
 6689.00    1.52443   1.79229    0.007
 6690.00    1.65208   1.80269    0.007
 6691.00    1.64559   1.80864    0.008
 6692.00    1.54134   1.80973    0.008
 6693.00    1.50658   1.80975    0.007
 6694.00    1.51630   1.81241    0.007
 6695.00    1.55366   1.81788    0.007
 6696.00    1.60651   1.82288    0.000
 6697.00    1.61976   1.82519    0.000
 6698.00    1.61374   1.82545    0.000
 6699.00    1.54431   1.82443    0.000
 6700.00    1.44820   1.82092    0.000
 6701.00    1.39135   1.81487    0.000
 6702.00    1.34863   1.81099    0.000
 6703.00    1.36750   1.81414    0.000
 6704.00    1.40511   1.82337    0.000
 6705.00    1.42809   1.83488    0.000
 6706.00    1.44737   1.84492    0.000
 6707.00    1.43156   1.84958    0.000
 6708.00    1.40853   1.84756    0.000
 6709.00    1.45426   1.84183    0.000
 6710.00    1.51113   1.83793    0.000
 6711.00    1.54301   1.83916    0.000
 6712.00    1.57186   1.84339    0.000
 6713.00    1.58204   1.84694    0.000
 6714.00    1.59068   1.84814    0.000
 6715.00    1.77305   1.84658    0.000
 6716.00    1.96365   1.84362    0.000
 6717.00    1.79238   1.84087    0.000
 6718.00    1.62031   1.83472    0.000
 6719.00    1.68971   1.81958    0.000
 6720.00    1.75070   1.79644    0.000
 6721.00    1.64799   1.77212    0.000
 6722.00    1.55857   1.75251    0.000
 6723.00    1.62158   1.74206    0.000
 6724.00    1.65858   1.74467    0.000
 6725.00    1.48834   1.75662    0.000
 6726.00    1.34136   1.76734    0.000
 6727.00    1.33385   1.77254    0.000
 6728.00    1.36311   1.77633    0.000
 6729.00    1.56658   1.78169    0.000
 6730.00    1.74590   1.78561    0.000
 6731.00    1.83193   1.78628    0.000
 6732.00    1.88527   1.78740    0.000
 6733.00    1.83340   1.79210    0.000
 6734.00    1.80120   1.79853    0.000
 6735.00    1.82263   1.80340    0.000
 6736.00    1.79709   1.80610    0.000
 6737.00    1.66179   1.80747    0.000
 6738.00    1.52817   1.80827    0.000
 6739.00    1.39796   1.80927    0.000
 6740.00    1.31929   1.81125    0.000
 6741.00    1.33127   1.81408    0.000
 6742.00    1.36461   1.81564    0.000
 6743.00    1.43081   1.81305    0.000
 6744.00    1.49216   1.80714    0.000
 6745.00    1.54697   1.80354    0.000
 6746.00    1.58643   1.80557    0.000
 6747.00    1.60763   1.80784    0.000
 6748.00    1.54557   1.80467    0.000
 6749.00    1.39611   1.80168    0.000
 6750.00    1.41545   1.80511    0.000
 6751.00    1.59109   1.80883    0.000
 6752.00    1.58694   1.80442    0.000
 6753.00    1.43606   1.79272    0.008
 6754.00    1.32380   1.78138    0.008
 6755.00    1.23928   1.77702    0.009
 6756.00    1.26141   1.77934    0.009
 6757.00    1.35078   1.78132    0.009
 6758.00    1.40200   1.77887    0.009
 6759.00    1.43218   1.77886    0.009
 6760.00    1.42701   1.78817    0.009
 6761.00    1.40489   1.80302    0.009
 6762.00    1.59498   1.81723    0.009
 6763.00    1.87286   1.82822    0.010
 6764.00    1.94746   1.83494    0.009
 6765.00    1.95018   1.83805    0.009
 6766.00    1.77390   1.83906    0.009
 6767.00    1.54418   1.83870    0.009
 6768.00    1.75406   1.83869    0.009
 6769.00    2.07285   1.84069    0.008
 6770.00    2.11626   1.84194    0.008
 6771.00    2.10440   1.83776    0.008
 6772.00    1.82384   1.82971    0.008
 6773.00    1.50104   1.82634    0.008
 6774.00    1.50394   1.83148    0.008
 6775.00    1.54482   1.83817    0.008
 6776.00    1.48714   1.84041    0.008
 6777.00    1.42170   1.84248    0.008
 6778.00    1.46417   1.85012    0.008
 6779.00    1.51134   1.86146    0.009
 6780.00    1.55096   1.87200    0.009
 6781.00    1.58998   1.88007    0.009
 6782.00    1.60436   1.88482    0.009
 6783.00    1.62718   1.88566    0.009
 6784.00    1.80270   1.88348    0.009
 6785.00    1.96179   1.87809    0.009
 6786.00    1.94113   1.86545    0.009
 6787.00    1.89942   1.84215    0.009
 6788.00    1.69589   1.81268    0.009
 6789.00    1.49026   1.78779    0.009
 6790.00    1.27246   1.77540    0.008
 6791.00    1.14275   1.77659    0.008
 6792.00    1.42043   1.78775    0.008
 6793.00    1.65456   1.80215    0.008
 6794.00    1.72401   1.81218    0.008
 6795.00    1.74086   1.81481    0.008
 6796.00    1.59162   1.81427    0.008
 6797.00    1.45217   1.81518    0.008
 6798.00    1.33892   1.81606    0.008
 6799.00    1.30509   1.81523    0.008
 6800.00    1.45373   1.81645    0.008
 6801.00    1.57850   1.82275    0.008
 6802.00    1.65581   1.83173    0.008
 6803.00    1.63146   1.83920    0.009
 6804.00    1.43100   1.84380    0.008
 6805.00    1.34651   1.84829    0.008
 6806.00    1.43793   1.85471    0.009
 6807.00    1.55457   1.86091    0.009
 6808.00    1.70483   1.86415    0.008
 6809.00    1.78816   1.86379    0.008
 6810.00    1.79294   1.86189    0.008
 6811.00    1.75805   1.86041    0.008
 6812.00    1.68213   1.85952    0.008
 6813.00    1.62797   1.86073    0.008
 6814.00    1.59368   1.86449    0.008
 6815.00    1.66008   1.86776    0.008
 6816.00    1.80750   1.86955    0.008
 6817.00    1.92285   1.87129    0.008
 6818.00    2.01549   1.87158    0.008
 6819.00    2.00848   1.86692    0.008
 6820.00    1.93957   1.85677    0.008
 6821.00    1.87784   1.84840    0.008
 6822.00    1.82000   1.85062    0.008
 6823.00    1.78347   1.86065    0.008
 6824.00    1.75699   1.86762    0.008
 6825.00    1.71073   1.86748    0.008
 6826.00    1.65643   1.86629    0.008
 6827.00    1.49164   1.87034    0.008
 6828.00    1.28851   1.87828    0.008
 6829.00    1.21459   1.88508    0.008
 6830.00    1.17847   1.88928    0.008
 6831.00    1.28378   1.89139    0.008
 6832.00    1.42335   1.88904    0.008
 6833.00    1.51234   1.88098    0.008
 6834.00    1.59144   1.87338    0.008
 6835.00    1.54620   1.87347    0.008
 6836.00    1.48201   1.87969    0.008
 6837.00    1.44415   1.88410    0.008
 6838.00    1.40924   1.88437    0.008
 6839.00    1.40847   1.88774    0.008
 6840.00    1.41024   1.89830    0.008
 6841.00    1.53653   1.90954    0.008
 6842.00    1.66776   1.91439    0.008
 6843.00    1.82814   1.91215    0.008
 6844.00    1.97645   1.90455    0.008
 6845.00    1.63624   1.89320    0.008
 6846.00    1.31154   1.88091    0.008
 6847.00    1.24869   1.87309    0.008
 6848.00    1.20222   1.87609    0.008
 6849.00    1.32700   1.89031    0.008
 6850.00    1.45978   1.90720    0.008
 6851.00    1.65199   1.91685    0.008
 6852.00    1.78420   1.91771    0.008
 6853.00    1.57639   1.91499    0.008
 6854.00    1.39704   1.91007    0.008
 6855.00    1.34624   1.90061    0.008
 6856.00    1.33684   1.88956    0.008
 6857.00    1.48067   1.88278    0.008
 6858.00    1.59705   1.88021    0.008
 6859.00    1.62842   1.87693    0.008
 6860.00    1.64084   1.87046    0.008
 6861.00    1.60338   1.86504    0.008
 6862.00    1.58923   1.86620    0.008
 6863.00    1.62776   1.87284    0.008
 6864.00    1.66584   1.87899    0.008
 6865.00    1.70305   1.87898    0.008
 6866.00    1.64265   1.87137    0.008
 6867.00    1.41568   1.86426    0.008
 6868.00    1.31589   1.87050    0.008
 6869.00    1.40617   1.89084    0.008
 6870.00    1.42268   1.91016    0.009
 6871.00    1.34228   1.91528    0.009
 6872.00    1.36971   1.90652    0.008
 6873.00    1.52191   1.89225    0.008
 6874.00    1.56189   1.88257    0.008
 6875.00    1.48735   1.88286    0.008
 6876.00    1.53251   1.88744    0.008
 6877.00    1.68542   1.88847    0.008
 6878.00    1.72460   1.88859    0.008
 6879.00    1.67357   1.89406    0.008
 6880.00    1.62066   1.90374    0.008
 6881.00    1.56644   1.91388    0.008
 6882.00    1.62738   1.92422    0.008
 6883.00    1.75879   1.93495    0.008
 6884.00    1.76836   1.94355    0.008
 6885.00    1.71283   1.94624    0.008
 6886.00    1.65041   1.94059    0.008
 6887.00    1.58481   1.92787    0.008
 6888.00    1.64195   1.91350    0.008
 6889.00    1.74815   1.90492    0.008
 6890.00    1.72002   1.90609    0.008
 6891.00    1.64611   1.91350    0.008
 6892.00    1.56584   1.92199    0.008
 6893.00    1.48374   1.92992    0.008
 6894.00    1.49781   1.93624    0.009
 6895.00    1.53464   1.94079    0.009
 6896.00    1.68727   1.94482    0.009
 6897.00    1.86197   1.94805    0.008
 6898.00    1.73382   1.95052    0.008
 6899.00    1.56092   1.95414    0.009
 6900.00    1.49464   1.95844    0.009
 6901.00    1.43986   1.96062    0.008
 6902.00    1.47380   1.96144    0.008
 6903.00    1.51401   1.96426    0.008
 6904.00    1.51720   1.96690    0.008
 6905.00    1.51906   1.96359    0.008
 6906.00    1.39791   1.95770    0.008
 6907.00    1.28501   1.96023    0.008
 6908.00    1.47167   1.97173    0.008
 6909.00    1.64967   1.98067    0.008
 6910.00    1.69054   1.98238    0.008
 6911.00    1.69899   1.98519    0.008
 6912.00    1.38283   1.99455    0.008
 6913.00    1.12032   2.00493    0.008
 6914.00    1.24341   2.01048    0.008
 6915.00    1.07017   2.01140    0.008
 6916.00   -0.73711   2.00835    0.000
 6917.00   -1.83957   2.00124    0.000
 6918.00    0.16576   1.99223    0.011
 6919.00    1.72240   1.98494   -1.000
 6920.00    1.65259   1.98334   -1.000
 6921.00    1.61841   1.98835   -1.000
 6922.00    1.69252   1.99462   -1.000
 6923.00    1.73881   1.99623   -1.000
 6924.00    1.71324   1.99236   -1.000
 6925.00    1.67834   1.98770   -1.000
 6926.00    1.62274   1.98827   -1.000
 6927.00    1.61320   1.99333   -1.000
 6928.00    1.69242   1.99441   -1.000
 6929.00    1.72797   1.98534   -1.000
 6930.00    1.69014   1.97069   -1.000
 6931.00    1.71327   1.96238   -1.000
 6932.00    1.82618   1.96814   -1.000
 6933.00    1.83019   1.98422   -1.000
 6934.00    1.69316   1.99999   -1.000
 6935.00    1.63803   2.00819   -1.000
 6936.00    1.67633   2.00896   -1.000
 6937.00    1.69960   2.00490   -1.000
 6938.00    1.70776   1.99795   -1.000
 6939.00    1.69319   1.99331   -1.000
 6940.00    1.65844   1.99696   -1.000
 6941.00    1.60316   2.00621   -1.000
 6942.00    1.53181   2.01278   -1.000
 6943.00    1.58175   2.01448   -1.000
 6944.00    1.71509   2.01614   -1.000
 6945.00    1.73876   2.02228   -1.000
 6946.00    1.69633   2.03175   -1.000
 6947.00    1.70594   2.03809   -1.000
 6948.00    1.74293   2.03609   -1.000
 6949.00    1.75786   2.02656   -1.000
 6950.00    1.76272   2.01506   -1.000
 6951.00    1.76720   2.01100   -1.000
 6952.00    1.77154   2.02133   -1.000
 6953.00    1.80328   2.04027   -1.000
 6954.00    1.84418   2.05503   -1.000
 6955.00    1.77854   2.05929   -1.000
 6956.00    1.68296   2.05360   -1.000
 6957.00    1.67581   2.04117   -1.000
 6958.00    1.68912   2.02725   -1.000
 6959.00    1.68683   2.01754   -1.000
 6960.00    1.68164   2.01721   -1.000
 6961.00    1.65500   2.02767   -1.000
 6962.00    1.62529   2.04234   -1.000
 6963.00    1.68290   2.05271   -1.000
 6964.00    1.74954   2.05778   -1.000
 6965.00    1.67268   2.06206   -1.000
 6966.00    1.58625   2.06825   -1.000
 6967.00    1.48546   2.07506   -1.000
 6968.00    1.38425   2.08112   -1.000
 6969.00    1.44911   2.08606   -1.000
 6970.00    1.51542   2.08797   -1.000
 6971.00    1.62641   2.08628   -1.000
 6972.00    1.73108   2.08625   -1.000
 6973.00    1.74179   2.09288   -1.000
 6974.00    1.75217   2.10168   -1.000
 6975.00    1.75955   2.10339   -1.000
 6976.00    1.76064   2.09705   -1.000
 6977.00    1.71793   2.09081   -1.000
 6978.00    1.67028   2.09090   -1.000
 6979.00    1.59605   2.09465   -1.000
 6980.00    1.54423   2.09458   -1.000
 6981.00    1.58891   2.08665   -1.000
 6982.00    1.61656   2.07001   -1.000
 6983.00    1.58373   2.04434   -1.000
 6984.00    1.58140   2.01852   -1.000
 6985.00    1.67004   2.01251   -1.000
 6986.00    1.74465   2.03457   -1.000
 6987.00    1.78360   2.06931   -1.000
 6988.00    1.80360   2.09780   -1.000
 6989.00    1.78216   2.11430   -1.000
 6990.00    1.74540   2.12298   -1.000
 6991.00    1.67961   2.12841   -1.000
 6992.00    1.62645   2.12887   -1.000
 6993.00    1.59422   2.11924   -1.000
 6994.00    1.60241   2.09987   -1.000
 6995.00    1.66927   2.07988   -1.000
 6996.00    1.71286   2.07092   -1.000
 6997.00    1.72676   2.07702   -1.000
 6998.00    1.73928   2.09049   -1.000
 6999.00    1.75025   2.09954   -1.000
 7000.00    1.74560   2.10040   -1.000
 7001.00    1.72546   2.09858   -1.000
 7002.00    1.63690   2.09905   -1.000
 7003.00    1.48850   2.09996   -1.000
 7004.00    1.43908   2.09604   -1.000
 7005.00    1.46594   2.08750   -1.000
 7006.00    1.37817   2.08385   -1.000
 7007.00    1.21272   2.09206   -1.000
 7008.00    1.26865   2.10468   -1.000
 7009.00    1.45603   2.10818   -1.000
 7010.00    1.61765   2.10042   -1.000
 7011.00    1.76593   2.09281   -1.000
 7012.00    1.71529   2.09431   -1.000
 7013.00    1.57535   2.10251   -1.000
 7014.00    1.51587   2.11185   -1.000
 7015.00    1.48744   2.11910   -1.000
 7016.00    1.56464   2.12179   -1.000
 7017.00    1.67652   2.12264   -1.000
 7018.00    1.64964   2.12771   -1.000
 7019.00    1.58460   2.13159   -1.000
 7020.00    1.54149   2.11960   -1.000
 7021.00    1.50334   2.09131   -1.000
 7022.00    1.57023   2.07000   -1.000
 7023.00    1.65611   2.07903   -1.000
 7024.00    1.50927   2.11306   -1.000
 7025.00    1.33020   2.14621   -1.000
 7026.00    1.38494   2.16265   -1.000
 7027.00    1.46290   2.16246   -1.000
 7028.00    1.49152   2.14879   -1.000
 7029.00    1.51705   2.12839   -1.000
 7030.00    1.48579   2.11474   -1.000
 7031.00    1.45343   2.11537   -1.000
 7032.00    1.55702   2.12282   -1.000
 7033.00    1.65785   2.12733   -1.000
 7034.00    1.68272   2.13115   -1.000
 7035.00    1.69875   2.14066   -1.000
 7036.00    1.59065   2.15324   -1.000
 7037.00    1.50679   2.16109   -1.000
 7038.00    1.64629   2.16123   -1.000
 7039.00    1.75290   2.15802   -1.000
 7040.00    1.63787   2.15825   -1.000
 7041.00    1.56165   2.16221   -1.000
 7042.00    1.68831   2.16035   -1.000
 7043.00    1.78709   2.14432   -1.000
 7044.00    1.76849   2.12504   -1.000
 7045.00    1.73647   2.12764   -1.000
 7046.00    1.65778   2.15873   -1.000
 7047.00    1.57350   2.19734   -1.000
 7048.00    1.47286   2.22289   -1.000
 7049.00    1.40248   2.23069   -1.000
 7050.00    1.40762   2.22555   -2.000
 7051.00    1.45497   2.21827   -2.000
 7052.00    1.59310   2.22018   -2.000
 7053.00    1.75517   2.23227   -2.000
 7054.00    1.96196   2.24503   -2.000
 7055.00    2.03031   2.24758   -2.000
 7056.00    1.87287   2.23428   -2.000
 7057.00    1.77263   2.20389   -2.000
 7058.00    1.75420   2.15378   -2.000
 7059.00    1.81289   2.08304   -2.000
 7060.00    1.96859   2.00544   -2.000
 7061.00    1.96842   1.95084   -2.000
 7062.00    1.79539   1.93992   -2.000
 7063.00    1.72040   1.95802   -2.000
 7064.00    1.74132   1.97107   -2.000
 7065.00    1.67047   1.96245   -2.000
 7066.00    1.52048   1.94255   -2.000
 7067.00    1.54450   1.92931   -2.000
 7068.00    1.70073   1.92901   -2.000
 7069.00    1.78375   1.93624   -2.000
 7070.00    1.81789   1.94294   -2.000
 7071.00    1.72792   1.94341   -2.000
 7072.00    1.56536   1.93823   -2.000
 7073.00    1.66955   1.93342   -2.000
 7074.00    1.90973   1.93442   -2.000
 7075.00    1.87099   1.94550   -2.000
 7076.00    1.70908   1.96714   -2.000
 7077.00    1.68320   1.99187   -2.000
 7078.00    1.70890   2.01031   -2.000
 7079.00    1.70559   2.01957   -2.000
 7080.00    1.69293   2.02220   -2.000
 7081.00    1.63063   2.02206   -2.000
 7082.00    1.55495   2.02264   -2.000
 7083.00    1.60662   2.02594   -2.000
 7084.00    1.68641   2.03206   -2.000
 7085.00    1.64027   2.04058   -2.000
 7086.00    1.57199   2.04968   -2.000
 7087.00    1.55048   2.05308   -2.000
 7088.00    1.53523   2.04283   -2.000
 7089.00    1.36876   2.01810   -2.000
 7090.00    1.18793   1.98876   -2.000
 7091.00    1.48568   1.96540   -2.000
 7092.00    1.81151   1.94274   -2.000
 7093.00    1.54441   1.90536   -2.000
 7094.00    1.26534   1.85881   -2.000
 7095.00    1.34609   1.82944   -2.000
 7096.00    1.43091   1.82935   -2.000
 7097.00    1.61690   1.84594   -2.000
 7098.00    1.78522   1.86039   -2.000
 7099.00    1.71879   1.86267   -2.000
 7100.00    1.65372   1.85650   -2.000
 7101.00    1.60065   1.85041   -2.000
 7102.00    1.54555   1.85001   -2.000
 7103.00    1.47716   1.85667   -2.000
 7104.00    1.39384   1.86835   -2.000
 7105.00    1.23442   1.88058   -2.000
 7106.00    1.14993   1.88711   -2.000
 7107.00    1.37383   1.88488   -2.000
 7108.00    1.49146   1.87782   -2.000
 7109.00    1.24683   1.87489   -2.000
 7110.00    1.13522   1.88313   -2.000
 7111.00    1.40581   1.89976   -2.000
 7112.00    1.55065   1.91547   -2.000
 7113.00    1.38695   1.92590   -2.000
 7114.00    1.25780   1.93198   -2.000
 7115.00    1.20172   1.93155   -2.000
 7116.00    1.20393   1.92218   -2.000
 7117.00    1.31335   1.91081   -2.000
 7118.00    1.36557   1.90950   -2.000
 7119.00    1.32589   1.92002   -2.000
 7120.00    1.42214   1.93309   -2.000
 7121.00    1.71002   1.94347   -2.000
 7122.00    1.81934   1.95387   -2.000
 7123.00    1.70715   1.96453   -2.000
 7124.00    1.52228   1.97187   -2.000
 7125.00    1.25793   1.97572   -2.000
 7126.00    1.25412   1.97795   -2.000
 7127.00    1.50155   1.97846   -2.000
 7128.00    1.55347   1.97609   -2.000
 7129.00    1.43914   1.96717   -2.000
 7130.00    1.48526   1.93964   -2.000
 7131.00    1.65152   1.88679   -2.000
 7132.00    1.54173   1.82928   -2.000
 7133.00    1.25031   1.79783   -2.000
 7134.00    1.24684   1.79578   -2.000
 7135.00    1.40925   1.80107   -2.000
 7136.00    1.38135   1.79841   -2.000
 7137.00    1.25796   1.79183   -2.000
 7138.00    1.41016   1.79172   -2.000
 7139.00    1.68204   1.80064   -2.000
 7140.00    1.53131   1.81350   -2.000
 7141.00    1.22315   1.82430   -2.000
 7142.00    1.22608   1.83065   -2.000
 7143.00    1.32727   1.83285   -2.000
 7144.00    1.57065   1.83167   -2.000
 7145.00    1.85152   1.83162   -2.000
 7146.00    1.62507   1.83848   -2.000
 7147.00    1.28928   1.85069   -2.000
 7148.00    1.26866   1.86200   -2.000
 7149.00    1.30192   1.86963   -2.000
 7150.00    1.52993   1.87422   -2.000
 7151.00    1.78315   1.87633   -2.000
 7152.00    1.63304   1.87513   -2.000
 7153.00    1.44631   1.86934   -2.000
 7154.00    1.52234   1.86248   -2.000
 7155.00    1.61275   1.86249   -2.000
 7156.00    1.58261   1.87120   -2.000
 7157.00    1.54946   1.88473   -2.000
 7158.00    1.47130   1.90105   -2.000
 7159.00    1.38636   1.91752   -2.000
 7160.00    1.14771   1.92909   -2.000
 7161.00    0.92229   1.93602   -2.000
 7162.00    0.86356   1.94285   -2.000
 7163.00    0.85453   1.94616   -2.000
 7164.00    1.26942   1.93620   -2.000
 7165.00    1.66108   1.91587   -2.000
 7166.00    1.90552   1.90194   -2.000
 7167.00    2.02076   1.90415   -2.000
 7168.00    1.49451   1.91381   -2.000
 7169.00    1.05077   1.91539   -2.000
 7170.00    0.93914   1.90604   -2.000
 7171.00    0.93212   1.89915   -2.000
 7172.00    1.27465   1.90627   -2.000
 7173.00    1.56287   1.92195   -2.000
 7174.00    1.69792   1.93269   -2.000
 7175.00    1.69625   1.93541   -2.000
 7176.00    1.36481   1.93899   -2.000
 7177.00    1.17437   1.94856   -2.000
 7178.00    1.27750   1.95869   -2.000
 7179.00    1.28827   1.96313   -2.000
 7180.00    1.13180   1.96185   -2.000
 7181.00    1.06706   1.95885   -2.000
 7182.00    1.14752   1.95821   -2.000
 7183.00    1.20847   1.96173   -2.000
 7184.00    1.24230   1.96627   -2.000
 7185.00    1.28751   1.96519   -2.000
 7186.00    1.34661   1.95761   -2.000
 7187.00    1.30474   1.95309   -2.000
 7188.00    1.15403   1.96222   -2.000
 7189.00    1.10238   1.98402   -2.000
 7190.00    1.14493   2.00475   -2.000
 7191.00    1.17247   2.00904   -2.000
 7192.00    1.18744   1.99179   -2.000
 7193.00    1.17980   1.96294   -2.000
 7194.00    1.15546   1.94117   -2.000
 7195.00    1.26812   1.94035   -2.000
 7196.00    1.46960   1.95889   -2.000
 7197.00    1.43190   1.98155   -2.000
 7198.00    1.25852   1.99400   -2.000
 7199.00    1.25770   1.99744   -2.000
 7200.00    1.34210   2.00100   -2.000
 7201.00    1.05627   2.00325   -2.000
 7202.00    0.61236   1.99459   -2.000
 7203.00    0.55518   1.97531   -2.000
 7204.00    0.63950   1.96061   -2.000
 7205.00    1.08405   1.96120   -2.000
 7206.00    1.64017   1.96852   -2.000
 7207.00    1.56246   1.96979   -2.000
 7208.00    1.32116   1.96814   -2.000
 7209.00    0.64502   1.97530   -2.000
 7210.00   -0.12260   1.98906   -2.000
 7211.00    0.57594   1.99322   -2.000
 7212.00    1.51798   1.97842   -2.000
 7213.00    1.43770   1.95418   -2.000
 7214.00    1.22969   1.93970   -2.000
 7215.00    1.22072   1.94500   -2.000
 7216.00    1.22899   1.96606   -2.000
 7217.00    1.24693   1.99102   -2.000
 7218.00    1.26536   2.00629   -2.000
