###################################################################
## OUTPUT of StarlightChains_v04.for    [Cid@UFSC - 01/Apr/2007] ##
###################################################################

## Some input info
KUG0210-078._30_36.txt                   [arq_obs]
Base.CB07.vall.4m                        [arq_base]
Masks.EmLines.NEW.gm                     [arq_masks]
StCv04.C11.config                        [arq_config]
   66                                    [N_base]
    0                                    [N_YAV_components = # of components with extra extinction!]
    0                                    [i_FitPowerLaw (1/0 = Yes/No)]
-9.99                                    [alpha_PowerLaw]
CCM                                      [red_law_option]
 1.458241                                [q_norm = A(l_norm)/A(V)]

## (Re)Sampling Parameters
 3741.00                                 [l_ini (A)]
 7218.00                                 [l_fin (A)]
    1.00                                 [dl    (A)]     (OBS: dl_cushion =    50.00 A)

## Normalization info
 4020.00                                 [l_norm (A) - for base]
 4010.00                                 [llow_norm (A) - window for f_obs]
 4060.00                                 [lupp_norm (A) - window for f_obs]
1.294646E-16                             [fobs_norm (in input units)]

## S/N
 3691.00                                 [llow_SN (A) - window for S/N]
 7268.00                                 [lupp_SN (A) - window for S/N]
   5.713                                 [S/N in S/N window]
   5.627                                 [S/N in norm. window]
   0.235                                 [S/N_err in S/N window]
   0.231                                 [S/N_err in norm. window]
  1.0000                                 [fscale_chi2]

## etc...
    -2007437                             [idum_orig]
  2432                                   [NOl_eff]
  2404                                   [Nl_eff]
    28    NSIGMA                         [Ntot_cliped & clip_method]
 10793160                                [Nglobal_steps]
   7                                     [N_chains]
  31                                     [NEX0s_base = N_base in EX0s-fits]
 0   0   1       28   2.0   2.866E+04    [Clip-Bug, RC-Crash & Burn-In warning-flags, n_censored_weights, wei_nsig_threshold & wei_limit]
    89     88.360     87.433      0.926  [idt_all, wdt_TotTime, wdt_UsrTime & wdt_SysTime (sec)]

## Synthesis Results - Best model ##

 9.72199E-04                             [chi2/Nl_eff]
     7.47996                             [adev (%)]

   118.71688                             [sum-of-x (%)]
 6.61808E-17                             [Flux_tot (units of input spectrum!)]
 2.59122E-12                             [Mini_tot (???)]
 1.35877E-12                             [Mcor_tot (???)]

 264.70                                  [v0_min  (km/s)]
 123.65                                  [vd_min  (km/s)]
-0.6274                                  [AV_min  (mag)]
 0.0000                                  [YAV_min (mag)]

# j     x_j(%)      Mini_j(%)     Mcor_j(%)     age_j(yr)     Z_j      (L/M)_j    YAV?  Mstars   component_j        a/Fe...       SSP_chi2r SSP_adev(%)   SSP_AV   SSP_x(%)
  1      0.0000     0.0000E+00    0.0000E+00    1.000000E+06  0.00400  1.094E-02    0   1.0000   age020_m42            0.0000     2.3954E-03    12.6833   3.2136    90.2307
  2      0.0000     0.0000E+00    0.0000E+00    3.160000E+06  0.00400  4.007E-02    0   0.9999   age045_m42            0.0000     1.8105E-03    11.1799   2.4213    99.1082
  3      0.0000     0.0000E+00    0.0000E+00    5.010000E+06  0.00400  2.539E-02    0   0.9488   age055_m42            0.0000     2.0834E-03    11.9417   2.7753    95.3410
  4      0.0000     0.0000E+00    0.0000E+00    6.610000E+06  0.00400  2.620E-02    0   0.9220   age061_m42            0.0000     1.8729E-03    11.4525   2.3533    99.1339
  5      0.0000     0.0000E+00    0.0000E+00    1.000000E+07  0.00400  1.322E-02    0   0.8862   age070_m42            0.0000     2.2831E-03    13.5549   2.1258    99.2839
  6      0.0000     0.0000E+00    0.0000E+00    1.445000E+07  0.00400  7.883E-03    0   0.8571   age078_m42            0.0000     2.3821E-03    13.6272   2.4648    96.2197
  7      0.0000     0.0000E+00    0.0000E+00    2.512000E+07  0.00400  5.251E-03    0   0.8174   age090_m42            0.0000     2.3248E-03    13.8946   2.0007    99.7090
  8      0.0000     0.0000E+00    0.0000E+00    4.000000E+07  0.00400  3.649E-03    0   0.7851   age104_m42            0.0000     2.1897E-03    13.4948   1.7576   101.2045
  9      0.0000     0.0000E+00    0.0000E+00    5.500000E+07  0.00400  3.098E-03    0   0.7629   age110_m42            0.0000     1.9540E-03    12.3518   1.8736   102.6305
 10      0.0000     0.0000E+00    0.0000E+00    1.015200E+08  0.00400  2.228E-03    0   0.7207   age116_m42            0.0000     1.8354E-03    11.6554   1.8668   103.8560
 11      1.9797     3.8966E-02    4.9401E-02    2.861200E+08  0.00400  1.093E-03    0   0.6648   age125_m42            0.0000     1.9006E-03    12.1346   1.2940   107.1110
 12      5.7901     1.8882E-01    2.2920E-01    5.088000E+08  0.00400  6.597E-04    0   0.6365   age130_m42            0.0000     1.7144E-03    11.0731   1.2424   109.7343
 13      0.0000     0.0000E+00    0.0000E+00    1.434000E+09  0.00400  2.132E-04    0   0.5798   age139_m42            0.0000     1.3746E-03    10.4114   0.2481   113.0879
 14      2.9250     1.0675E+00    1.0946E+00    4.250000E+09  0.00400  5.895E-05    0   0.5377   age158_m42            0.0000     1.1984E-03     9.3361  -0.1951   108.7081
 15      0.7821     4.7935E-01    4.7645E-01    7.500000E+09  0.00400  3.510E-05    0   0.5212   age171_m42            0.0000     1.1711E-03     8.8442  -0.4001   108.6043
 16      0.0000     0.0000E+00    0.0000E+00    1.300000E+10  0.00400  2.005E-05    0   0.5034   age193_m42            0.0000     1.1992E-03     8.4989  -0.5778   108.4432
 17      0.0000     0.0000E+00    0.0000E+00    1.800000E+10  0.00400  1.525E-05    0   0.4967   age213_m42            0.0000     1.2123E-03     8.6374  -0.5932   107.6780
 18      0.0000     0.0000E+00    0.0000E+00    1.000000E+06  0.00800  1.238E-02    0   1.0000   age020_m52            0.0000     2.3889E-03    12.6577   3.2077    90.4798
 19      0.4356     3.0487E-04    5.7942E-04    3.160000E+06  0.00800  3.074E-02    0   0.9966   age045_m52            0.0000     2.3423E-03    12.5341   3.1285    91.4202
 20      0.0000     0.0000E+00    0.0000E+00    5.010000E+06  0.00800  2.668E-02    0   0.9443   age055_m52            0.0000     2.1900E-03    12.2697   2.8713    93.9963
 21      1.1416     1.1498E-03    2.0123E-03    6.610000E+06  0.00800  2.136E-02    0   0.9177   age061_m52            0.0000     2.2190E-03    13.4693   1.6329   100.2205
 22      0.0000     0.0000E+00    0.0000E+00    1.000000E+07  0.00800  1.215E-02    0   0.8827   age070_m52            0.0000     2.4984E-03    14.3252   2.3282    98.1196
 23      0.0000     0.0000E+00    0.0000E+00    1.445000E+07  0.00800  8.717E-03    0   0.8552   age078_m52            0.0000     2.3468E-03    13.6223   2.4264    97.7292
 24      0.0000     0.0000E+00    0.0000E+00    2.512000E+07  0.00800  5.592E-03    0   0.8162   age090_m52            0.0000     2.3288E-03    13.9826   2.0628   100.9506
 25      0.0000     0.0000E+00    0.0000E+00    4.000000E+07  0.00800  3.896E-03    0   0.7841   age104_m52            0.0000     2.1358E-03    13.3155   1.9504   102.6997
 26      0.0000     0.0000E+00    0.0000E+00    1.015200E+08  0.00800  2.148E-03    0   0.7226   age116_m52            0.0000     1.8909E-03    12.1851   1.8513   104.0081
 27      0.0000     0.0000E+00    0.0000E+00    2.861200E+08  0.00800  9.925E-04    0   0.6683   age125_m52            0.0000     1.7204E-03    11.2364   1.3068   110.7740
 28      0.0000     0.0000E+00    0.0000E+00    9.047900E+08  0.00800  3.141E-04    0   0.6138   age135_m52            0.0000     1.3375E-03     9.7016   0.4449   118.1846
 29      1.5392     1.9263E-01    2.1501E-01    1.434000E+09  0.00800  1.719E-04    0   0.5853   age139_m52            0.0000     1.1870E-03     9.4951  -0.1203   115.1122
 30      0.0000     0.0000E+00    0.0000E+00    2.500000E+09  0.00800  7.872E-05    0   0.5600   age150_m52            0.0000     1.0693E-03     8.3669  -0.4135   113.0005
 31      0.0000     0.0000E+00    0.0000E+00    4.250000E+09  0.00800  4.336E-05    0   0.5426   age158_m52            0.0000     1.1077E-03     8.3819  -0.4222   111.6472
 32      0.0000     0.0000E+00    0.0000E+00    6.250000E+09  0.00800  3.159E-05    0   0.5319   age166_m52            0.0000     1.0944E-03     7.7414  -0.6556   112.8510
 33      0.0000     0.0000E+00    0.0000E+00    1.300000E+10  0.00800  1.361E-05    0   0.5073   age193_m52            0.0000     1.2661E-03     9.6887  -1.0000   109.4196
 34      0.0000     0.0000E+00    0.0000E+00    1.800000E+10  0.00800  9.886E-06    0   0.4990   age213_m52            0.0000     1.5701E-03    11.6793  -1.0000   106.2368
 35      0.0000     0.0000E+00    0.0000E+00    1.000000E+06  0.02000  1.544E-02    0   1.0000   age020_m62            0.0000     2.4114E-03    12.7078   3.2059    90.6235
 36      0.0000     0.0000E+00    0.0000E+00    3.160000E+06  0.02000  3.762E-02    0   0.9858   age045_m62            0.0000     2.4332E-03    12.6396   3.1456    91.3907
 37      0.0000     0.0000E+00    0.0000E+00    5.010000E+06  0.02000  3.296E-02    0   0.9342   age055_m62            0.0000     1.9700E-03    11.5300   2.7178    97.2019
 38      0.0436     8.1251E-05    1.3730E-04    8.710000E+06  0.02000  1.154E-02    0   0.8861   age067_m62            0.0000     3.8475E-03    19.0264   1.8846    96.7457
 39      0.0000     0.0000E+00    0.0000E+00    1.445000E+07  0.02000  7.663E-03    0   0.8472   age078_m62            0.0000     2.7972E-03    15.5787   2.0029    99.2635
 40      0.0000     0.0000E+00    0.0000E+00    2.512000E+07  0.02000  4.532E-03    0   0.8099   age090_m62            0.0000     2.8289E-03    15.7526   1.9933    99.0196
 41      0.0000     0.0000E+00    0.0000E+00    5.500000E+07  0.02000  2.733E-03    0   0.7595   age110_m62            0.0000     2.1930E-03    13.4435   1.9408   101.6295
 42      0.0000     0.0000E+00    0.0000E+00    1.609000E+08  0.02000  1.369E-03    0   0.6985   age120_m62            0.0000     1.8802E-03    11.9395   1.7088   107.3612
 43      2.8224     6.7369E-02    8.6258E-02    2.861200E+08  0.02000  9.013E-04    0   0.6714   age125_m62            0.0000     1.7888E-03    11.2379   1.4101   112.5637
 44      0.0000     0.0000E+00    0.0000E+00    5.088000E+08  0.02000  5.028E-04    0   0.6449   age130_m62            0.0000     1.4996E-03     9.6298   0.9669   118.3763
 45      0.0000     0.0000E+00    0.0000E+00    9.047900E+08  0.02000  2.428E-04    0   0.6179   age135_m62            0.0000     1.1505E-03     8.7748   0.3735   117.9415
 46      0.0000     0.0000E+00    0.0000E+00    1.434000E+09  0.02000  1.263E-04    0   0.5908   age139_m62            0.0000     1.0853E-03     8.5717  -0.0650   115.9367
 47      0.0000     0.0000E+00    0.0000E+00    2.500000E+09  0.02000  5.985E-05    0   0.5673   age150_m62            0.0000     1.0566E-03     7.7252  -0.4578   115.3565
 48      0.0000     0.0000E+00    0.0000E+00    4.250000E+09  0.02000  3.271E-05    0   0.5468   age158_m62            0.0000     1.0868E-03     6.9614  -0.8123   116.3351
 49      0.0000     0.0000E+00    0.0000E+00    1.000000E+10  0.02000  1.360E-05    0   0.5167   age181_m62            0.0000     1.4385E-03     9.7759  -1.0000   112.2024
 50      1.0677     3.2242E+00    3.0823E+00    1.800000E+10  0.02000  7.124E-06    0   0.5013   age213_m62            0.0000     2.2470E-03    13.9749  -1.0000   105.5133
 51      0.0000     0.0000E+00    0.0000E+00    1.000000E+06  0.05000  2.592E-02    0   0.9998   age020_m72            0.0000     2.4744E-03    12.9148   3.2030    90.4774
 52      0.0000     0.0000E+00    0.0000E+00    3.160000E+06  0.05000  4.845E-02    0   0.9577   age045_m72            0.0000     2.2192E-03    12.0781   3.0074    93.3921
 53      0.0000     0.0000E+00    0.0000E+00    5.010000E+06  0.05000  3.072E-02    0   0.9147   age055_m72            0.0000     2.6639E-03    14.2937   2.5721    95.8220
 54      0.0000     0.0000E+00    0.0000E+00    6.610000E+06  0.05000  1.455E-02    0   0.8877   age061_m72            0.0000     4.6417E-03    20.8004   1.9504    96.1358
 55      0.0000     0.0000E+00    0.0000E+00    1.000000E+07  0.05000  9.074E-03    0   0.8524   age070_m72            0.0000     2.7447E-03    14.0695   2.7429    95.6194
 56      0.0000     0.0000E+00    0.0000E+00    2.512000E+07  0.05000  4.250E-03    0   0.7902   age090_m72            0.0000     2.4681E-03    13.8698   2.4236    98.5063
 57      0.0000     0.0000E+00    0.0000E+00    4.000000E+07  0.05000  3.087E-03    0   0.7618   age104_m72            0.0000     2.4609E-03    14.0531   2.1893   100.4995
 58      0.0000     0.0000E+00    0.0000E+00    1.015200E+08  0.05000  1.700E-03    0   0.7096   age116_m72            0.0000     2.0145E-03    12.5942   1.8700   106.0936
 59      0.0000     0.0000E+00    0.0000E+00    2.861200E+08  0.05000  7.384E-04    0   0.6633   age125_m72            0.0000     1.6081E-03    10.3937   1.2396   115.7577
 60      3.1904     1.7973E-01    2.1840E-01    5.088000E+08  0.05000  3.819E-04    0   0.6372   age130_m72            0.0000     1.2314E-03     8.9451   0.7080   119.3666
 61     48.1207     6.1769E+00    7.1974E+00    9.047900E+08  0.05000  1.676E-04    0   0.6110   age135_m72            0.0000     9.8048E-04     7.6067  -0.0170   118.3656
 62      0.0000     0.0000E+00    0.0000E+00    1.434000E+09  0.05000  8.837E-05    0   0.5874   age139_m72            0.0000     1.0504E-03     7.6504  -0.4783   117.9166
 63      0.0000     0.0000E+00    0.0000E+00    2.500000E+09  0.05000  4.233E-05    0   0.5598   age150_m72            0.0000     1.0945E-03     6.8060  -0.8340   118.1954
 64     40.5069     6.0729E+01    6.0789E+01    6.250000E+09  0.05000  1.435E-05    0   0.5249   age166_m72            0.0000     1.6462E-03    11.6329  -1.0000   109.1228
 65      8.3720     2.7654E+01    2.6559E+01    1.300000E+10  0.05000  6.513E-06    0   0.5036   age193_m72            0.0000     3.0887E-03    17.3881  -1.0000   101.8180
 66      0.0000     0.0000E+00    0.0000E+00    1.800000E+10  0.05000  4.527E-06    0   0.4945   age213_m72            0.0000     4.2228E-03    20.6251  -1.0000    96.5322


## Synthesis Results - Average & Chains ##

# j      x_j: min, <> & last-chain-values for 1 ...  7 chains
  1      0.0000      0.1483      0.0528      0.2327      0.5699      0.0000      0.5249      0.4190      0.0569
  2      0.0000      0.1746      0.1831      0.7758      0.0000      0.0000      0.0000      0.3200      0.0000
  3      0.0000      0.1303      0.0000      0.0918      0.0000      0.0372      0.0000      0.5295      0.0286
  4      0.0000      0.2034      0.2392      0.3249      0.0000      0.1039      0.7465      1.1078      0.0000
  5      0.0000      0.1704      0.0016      0.0000      0.1196      1.5709      0.8648      0.8335      0.0000
  6      0.0000      0.1783      0.3333      0.2290      0.0000      0.3085      0.3474      0.0383      0.1623
  7      0.0000      0.1824      0.0367      0.0000      0.0000      0.3707      0.2058      0.0000      0.3513
  8      0.0000      0.1573      0.1018      0.0000      0.3222      0.0000      0.3228      0.0000      0.2979
  9      0.0000      0.1660      0.0000      0.3636      0.0825      0.2220      0.0000      0.1859      0.2230
 10      0.0000      0.1565      0.0423      0.0000      0.6999      0.0727      0.4216      0.6728      0.0000
 11      1.9797      0.1624      0.0000      0.8949      0.0000      0.3802      1.1104      0.6806      0.0604
 12      5.7901      0.1812      0.0729      0.4938      0.3604      0.6900      0.0000      0.0000      0.0219
 13      0.0000      0.1610      0.0532      1.3758      0.0000      0.0000      0.9751      0.0579      0.0000
 14      2.9250      0.1371      0.2245      0.1832      0.2108      1.0176      0.4851      0.0000      0.1230
 15      0.7821      0.2016      0.3342      0.0257      0.2332      0.4760      1.7165      0.0000      0.1820
 16      0.0000      0.1473      0.0000      0.7056      0.1214      0.0000      0.6074      0.0000      0.3762
 17      0.0000      0.2568      0.1761      0.5826      0.2733      0.3235      0.5215      1.9564      0.2425
 18      0.0000      0.2025      0.0000      0.3455      0.5124      0.0000      0.0000      0.0000      0.5180
 19      0.4356      0.3113      0.6423      0.8101      0.0513      0.3401      2.1491      1.5047      0.6145
 20      0.0000      0.1966      0.2199      0.8021      0.4502      0.0000      0.0578      0.0000      0.0000
 21      1.1416      0.1879      0.4703      0.2285      0.9478      0.5048      0.0000      0.5190      0.0000
 22      0.0000      0.1988      0.0000      0.0294      0.1276      0.0000      0.0000      1.0910      0.0683
 23      0.0000      0.1396      0.1700      0.6351      0.8882      0.2813      0.0000      0.6653      0.0091
 24      0.0000      0.1429      0.0669      0.0000      0.0929      0.2066      0.0000      0.6074      0.4650
 25      0.0000      0.1756      0.0113      0.0548      0.1566      0.2997      0.1874      0.2807      0.0000
 26      0.0000      0.2621      0.0000      0.4227      0.0000      0.2696      1.5730      0.0000      0.0000
 27      0.0000      0.1896      0.2264      0.3234      0.4648      0.2412      0.6741      0.0000      0.3634
 28      0.0000      0.1533      0.5673      0.5171      0.0000      0.1231      0.4639      0.1948      0.3219
 29      1.5392      0.2130      0.3326      4.1087      0.0000      1.4268      0.0000      0.7631      0.4324
 30      0.0000      0.2407      0.0408      0.9920      0.2029      0.5028      0.0000      0.1031      0.5896
 31      0.0000      0.2376      0.0574      0.0000      0.8497      0.0838      0.4829      0.6936      0.1505
 32      0.0000      0.1537      0.1184      0.0398      0.1835      0.4406      0.3529      0.1433      0.0000
 33      0.0000      0.2082      0.0352      0.0000      0.3765      0.1614      0.5250      0.0909      0.0000
 34      0.0000      0.1401      0.1207      0.7559      0.1513      0.0153      0.0002      0.0000      0.0000
 35      0.0000      0.1847      0.0777      0.0000      0.0000      0.0000      0.0000      0.0000      0.0000
 36      0.0000      0.1763      0.1170      0.6502      0.0000      0.1099      0.3180      0.0000      0.3574
 37      0.0000      0.2059      0.0000      1.7145      0.2961      0.0198      1.1603      0.0000      0.2212
 38      0.0436      0.1544      0.0000      0.4570      0.0229      0.4473      0.0916      1.0983      0.6325
 39      0.0000      0.1988      0.5554      0.0000      0.5585      0.0592      0.7071      0.0000      0.0682
 40      0.0000      0.1674      0.0000      0.0000      0.8754      0.3747      0.6753      0.6153      0.0973
 41      0.0000      0.2022      0.2414      1.3415      0.1543      0.0373      0.0000      2.4608      0.0597
 42      0.0000      0.1773      0.0193      0.7086      0.2588      0.0000      0.4182      0.0090      0.3119
 43      2.8224      0.1620      0.1272      0.0000      0.0899      0.4832      0.8573      0.0000      0.0000
 44      0.0000      0.1596      0.1335      0.0000      0.5834      0.0000      0.0837      0.0000      0.3050
 45      0.0000      0.2001      0.0365      0.5668      0.1284      0.5859      0.0000      0.6836      0.0000
 46      0.0000      0.1490      0.0000      0.0791      0.3176      0.5145      0.8199      0.1371      0.0000
 47      0.0000      0.1442      0.0949      0.0000      0.1848      0.0000      0.3370      0.0000      0.8502
 48      0.0000      0.1738      0.1082      1.2769      0.2744      0.0000      0.9465      0.8222      0.1574
 49      0.0000      1.7928      1.1437      2.5451      1.8050      1.5751      3.2646      2.5717      1.8224
 50      1.0677      2.3427      2.5284      1.7665      2.0566      3.2488      2.8260      1.9447      2.6342
 51      0.0000      0.1910      0.0000      1.6958      0.0829      0.0000      0.1644      0.1274      0.9748
 52      0.0000      0.1655      0.0994      1.0616      0.5615      0.6573      0.0000      0.0000      0.1583
 53      0.0000      0.1752      0.2336      0.5397      0.0000      0.5600      0.9307      0.1271      0.1390
 54      0.0000      0.1586      0.1370      1.5002      0.0000      0.0000      0.1079      0.2693      0.0000
 55      0.0000      0.1253      0.1463      0.6198      0.5466      0.0000      1.1326      0.0000      0.0000
 56      0.0000      0.1726      0.2071      0.3426      0.3003      0.3148      0.7620      0.0000      0.0000
 57      0.0000      0.1900      0.3277      0.1379      0.4877      1.0176      0.4951      0.4934      0.0000
 58      0.0000      0.2094      0.0774      0.2937      0.4812      0.0531      1.2371      0.0000      0.0000
 59      0.0000      0.2160      0.2401      0.1623      0.5081      0.0000      1.2928      0.1212      0.1671
 60      3.1904      0.2612      0.1769      0.4243      0.5452      0.4384      0.2522      0.0000      0.0000
 61     48.1207     17.9388      9.5819     15.4007     19.9445     16.8264     15.3465     15.8958     15.4570
 62      0.0000     54.7447     61.9178     40.4598     53.3491     50.7969     34.6384     47.6223     56.6160
 63      0.0000     17.0578     20.8867     17.1562     12.7290     17.1974     19.1208     16.4987     17.6945
 64     40.5069      4.1152      4.5868      3.6831      3.7789      3.6691      4.2071      3.4707      4.4168
 65      8.3720      0.8816      0.7966      0.1197      0.4629      0.8947      0.6765      0.9171      1.0520
 66      0.0000      0.4652      0.4520      0.0000      0.3902      0.0000      1.5431      0.2974      0.2659

# j      m_j: min, <> & last-chain-values for 1 ...  7 chains
  1  0.0000E+00  1.1252E-03  3.8517E-04  2.0311E-03  4.7699E-03  0.0000E+00  3.5208E-03  3.3067E-03  4.2153E-04
  2  0.0000E+00  3.6161E-04  3.6472E-04  1.8483E-03  0.0000E+00  0.0000E+00  0.0000E+00  6.8948E-04  0.0000E+00
  3  0.0000E+00  4.0403E-04  0.0000E+00  3.2738E-04  0.0000E+00  1.1807E-04  0.0000E+00  1.7084E-03  8.6675E-05
  4  0.0000E+00  5.9414E-04  6.7190E-04  1.0915E-03  0.0000E+00  3.1081E-04  1.9278E-03  3.3662E-03  0.0000E+00
  5  0.0000E+00  9.4784E-04  8.7461E-06  0.0000E+00  7.3414E-04  8.9535E-03  4.2541E-03  4.8244E-03  0.0000E+00
  6  0.0000E+00  1.6089E-03  2.8931E-03  2.3773E-03  0.0000E+00  2.8520E-03  2.7717E-03  3.5995E-04  1.4296E-03
  7  0.0000E+00  2.3562E-03  4.5567E-04  0.0000E+00  0.0000E+00  4.9060E-03  2.3507E-03  0.0000E+00  4.4283E-03
  8  0.0000E+00  2.8080E-03  1.7486E-03  0.0000E+00  6.3473E-03  0.0000E+00  5.0961E-03  0.0000E+00  5.1902E-03
  9  0.0000E+00  3.3922E-03  0.0000E+00  8.5502E-03  1.8609E-03  4.6475E-03  0.0000E+00  3.9524E-03  4.4483E-03
 10  0.0000E+00  4.2019E-03  1.0914E-03  0.0000E+00  2.0729E-02  1.9998E-03  1.0008E-02  1.8791E-02  0.0000E+00
 11  4.9401E-02  8.1964E-03  0.0000E+00  5.1971E-02  0.0000E+00  1.9663E-02  4.9561E-02  3.5743E-02  2.9773E-03
 12  2.2920E-01  1.4506E-02  5.6120E-03  4.5494E-02  3.1837E-02  5.6601E-02  0.0000E+00  0.0000E+00  1.7089E-03
 13  0.0000E+00  3.6338E-02  1.1553E-02  3.5724E-01  0.0000E+00  0.0000E+00  1.9461E-01  1.3588E-02  0.0000E+00
 14  1.0946E+00  1.0379E-01  1.6345E-01  1.5953E-01  1.7608E-01  7.8921E-01  3.2468E-01  0.0000E+00  9.0833E-02
 15  4.7645E-01  2.4844E-01  3.9611E-01  3.6385E-02  3.1708E-01  6.0100E-01  1.8704E+00  0.0000E+00  2.1884E-01
 16  0.0000E+00  3.0696E-01  0.0000E+00  1.6914E+00  2.7917E-01  0.0000E+00  1.1190E+00  0.0000E+00  7.6489E-01
 17  0.0000E+00  6.9412E-01  4.5775E-01  1.8117E+00  8.1496E-01  8.9574E-01  1.2464E+00  5.5020E+00  6.3955E-01
 18  0.0000E+00  1.3576E-03  0.0000E+00  2.6650E-03  3.7897E-03  0.0000E+00  0.0000E+00  0.0000E+00  3.3888E-03
 19  5.7942E-04  8.3759E-04  1.6623E-03  2.5075E-03  1.5232E-04  9.3748E-04  5.1130E-03  4.2122E-03  1.6134E-03
 20  0.0000E+00  5.7758E-04  6.2143E-04  2.7105E-03  1.4589E-03  0.0000E+00  1.5007E-04  0.0000E+00  0.0000E+00
 21  2.0123E-03  6.7004E-04  1.6130E-03  9.3741E-04  3.7284E-03  1.8439E-03  0.0000E+00  1.9253E-03  0.0000E+00
 22  0.0000E+00  1.1987E-03  0.0000E+00  2.0380E-04  8.4887E-04  0.0000E+00  0.0000E+00  6.8439E-03  4.0158E-04
 23  0.0000E+00  1.1371E-03  1.3316E-03  5.9491E-03  7.9783E-03  2.3468E-03  0.0000E+00  5.6357E-03  7.2478E-05
 24  0.0000E+00  1.7309E-03  7.7969E-04  0.0000E+00  1.2417E-03  2.5633E-03  0.0000E+00  7.6545E-03  5.4969E-03
 25  0.0000E+00  2.9325E-03  1.8205E-04  1.0529E-03  2.8851E-03  5.1286E-03  2.7675E-03  4.8777E-03  0.0000E+00
 26  0.0000E+00  7.3181E-03  0.0000E+00  1.3576E-02  0.0000E+00  7.7121E-03  3.8830E-02  0.0000E+00  0.0000E+00
 27  0.0000E+00  1.0595E-02  1.2169E-02  2.0793E-02  2.8653E-02  1.3809E-02  3.3308E-02  0.0000E+00  1.9815E-02
 28  0.0000E+00  2.4865E-02  8.8499E-02  9.6476E-02  0.0000E+00  2.0450E-02  6.6524E-02  3.2862E-02  5.0947E-02
 29  2.1501E-01  6.0187E-02  9.0412E-02  1.3357E+00  0.0000E+00  4.1306E-01  0.0000E+00  2.2436E-01  1.1925E-01
 30  0.0000E+00  1.4212E-01  2.3144E-02  6.7381E-01  1.3213E-01  3.0409E-01  0.0000E+00  6.3313E-02  3.3969E-01
 31  0.0000E+00  2.4678E-01  5.7304E-02  0.0000E+00  9.7352E-01  8.9126E-02  4.4344E-01  7.4949E-01  1.5257E-01
 32  0.0000E+00  2.1483E-01  1.5909E-01  6.4009E-02  2.8289E-01  6.3079E-01  4.3600E-01  2.0839E-01  0.0000E+00
 33  0.0000E+00  6.4414E-01  1.0487E-01  0.0000E+00  1.2848E+00  5.1157E-01  1.4361E+00  2.9266E-01  0.0000E+00
 34  0.0000E+00  5.8686E-01  4.8621E-01  3.6430E+00  6.9928E-01  6.5709E-02  6.7250E-04  0.0000E+00  0.0000E+00
 35  0.0000E+00  9.9305E-04  4.0175E-04  0.0000E+00  0.0000E+00  0.0000E+00  0.0000E+00  0.0000E+00  0.0000E+00
 36  0.0000E+00  3.8347E-04  2.4479E-04  1.6267E-03  0.0000E+00  2.4483E-04  6.1153E-04  0.0000E+00  7.5849E-04
 37  0.0000E+00  4.8444E-04  0.0000E+00  4.6399E-03  7.6846E-04  4.7671E-05  2.4133E-03  0.0000E+00  5.0777E-04
 38  1.3730E-04  9.8409E-04  0.0000E+00  3.3505E-03  1.6096E-04  2.9201E-03  5.1588E-04  7.2819E-03  3.9333E-03
 39  0.0000E+00  1.8245E-03  4.9021E-03  0.0000E+00  5.6528E-03  5.5606E-04  5.7367E-03  0.0000E+00  6.1080E-04
 40  0.0000E+00  2.4835E-03  0.0000E+00  0.0000E+00  1.4323E-02  5.6932E-03  8.8562E-03  9.4952E-03  1.4080E-03
 41  0.0000E+00  4.6630E-03  5.3548E-03  3.5594E-02  3.9264E-03  8.8191E-04  0.0000E+00  5.9048E-02  1.3447E-03
 42  0.0000E+00  7.5058E-03  7.8745E-04  3.4520E-02  1.2088E-02  0.0000E+00  1.5658E-02  3.9608E-04  1.2887E-02
 43  8.6258E-02  1.0013E-02  7.5668E-03  0.0000E+00  6.1295E-03  3.0604E-02  4.6865E-02  0.0000E+00  0.0000E+00
 44  0.0000E+00  1.6994E-02  1.3666E-02  0.0000E+00  6.8509E-02  0.0000E+00  7.8816E-03  0.0000E+00  3.1681E-02
 45  0.0000E+00  4.2263E-02  7.4099E-03  1.3773E-01  2.9914E-02  1.2678E-01  0.0000E+00  1.5022E-01  0.0000E+00
 46  0.0000E+00  5.7834E-02  0.0000E+00  3.5326E-02  1.3602E-01  2.0462E-01  2.8144E-01  5.5380E-02  0.0000E+00
 47  0.0000E+00  1.1347E-01  7.1815E-02  0.0000E+00  1.6037E-01  0.0000E+00  2.3442E-01  0.0000E+00  6.5265E-01
 48  0.0000E+00  2.4119E-01  1.4434E-01  2.0381E+00  4.1999E-01  0.0000E+00  1.1611E+00  1.1868E+00  2.1306E-01
 49  0.0000E+00  5.6528E+00  3.4689E+00  9.2323E+00  6.2786E+00  5.0879E+00  9.1017E+00  8.4366E+00  5.6074E+00
 50  3.0823E+00  1.3682E+01  1.4203E+01  1.1868E+01  1.3250E+01  1.9437E+01  1.4593E+01  1.1816E+01  1.5012E+01
 51  0.0000E+00  6.1133E-04  0.0000E+00  6.2454E-03  2.9271E-04  0.0000E+00  4.6546E-04  4.2417E-04  3.0451E-03
 52  0.0000E+00  2.7151E-04  1.5678E-04  2.0036E-03  1.0163E-03  1.1047E-03  0.0000E+00  0.0000E+00  2.5335E-04
 53  0.0000E+00  4.3303E-04  5.5535E-04  1.5345E-03  0.0000E+00  1.4178E-03  2.0336E-03  3.2677E-04  3.3512E-04
 54  0.0000E+00  8.0306E-04  6.6712E-04  8.7391E-03  0.0000E+00  0.0000E+00  4.8296E-04  1.4189E-03  0.0000E+00
 55  0.0000E+00  9.7696E-04  1.0974E-03  5.5587E-03  4.7014E-03  0.0000E+00  7.8072E-03  0.0000E+00  0.0000E+00
 56  0.0000E+00  2.6632E-03  3.0737E-03  6.0828E-03  5.1112E-03  4.9758E-03  1.0397E-02  0.0000E+00  0.0000E+00
 57  0.0000E+00  3.8912E-03  6.4550E-03  3.2488E-03  1.1019E-02  2.1352E-02  8.9659E-03  1.0513E-02  0.0000E+00
 58  0.0000E+00  7.2556E-03  2.5784E-03  1.1706E-02  1.8390E-02  1.8861E-03  3.7892E-02  0.0000E+00  0.0000E+00
 59  0.0000E+00  1.6104E-02  1.7217E-02  1.3923E-02  4.1788E-02  0.0000E+00  8.5219E-02  9.3987E-03  1.2159E-02
 60  2.1840E-01  3.6176E-02  2.3559E-02  6.7595E-02  8.3281E-02  6.2197E-02  3.0885E-02  0.0000E+00  0.0000E+00
 61  7.1974E+00  5.4275E+00  2.7886E+00  5.3606E+00  6.6570E+00  5.2156E+00  4.1056E+00  5.0037E+00  4.5636E+00
 62  0.0000E+00  3.0200E+01  3.2855E+01  2.5678E+01  3.2467E+01  2.8708E+01  1.6896E+01  2.7333E+01  3.0478E+01
 63  0.0000E+00  1.8722E+01  2.2051E+01  2.1663E+01  1.5412E+01  1.9337E+01  1.8556E+01  1.8840E+01  1.8951E+01
 64  6.0789E+01  1.2493E+01  1.3394E+01  1.2863E+01  1.2655E+01  1.1411E+01  1.1293E+01  1.0962E+01  1.3084E+01
 65  2.6559E+01  5.6574E+00  4.9170E+00  8.8377E-01  3.2769E+00  5.8819E+00  3.8388E+00  6.1233E+00  6.5877E+00
 66  0.0000E+00  4.2170E+00  3.9413E+00  0.0000E+00  3.9024E+00  0.0000E+00  1.2369E+01  2.8046E+00  2.3526E+00

# AV, chi2 & Mass for <> & i_chain = 1 ...  7 solutions
AV      -0.6274     -0.3746     -0.3696     -0.1496     -0.2243     -0.2754     -0.1922     -0.2034     -0.3320
chi2 9.7220E-04  1.2102E-03  1.1821E-03  1.1519E-03  1.1557E-03  1.1470E-03  1.1722E-03  1.1728E-03  1.1655E-03
Mass 1.3588E-12  9.4327E-13  9.8723E-13  1.1092E-12  1.0463E-12  1.0518E-12  1.3629E-12  1.1409E-12  1.0234E-12
 264.70                                  [v0_min (km/s) before EX0s...]
 123.65                                  [vd_min (km/s) before EX0s...]


## Synthetic spectrum (Best Model) ##l_obs f_obs f_syn wei
 3478    [Nl_obs]
 3741.00    0.56881   0.50629    0.000
 3742.00    0.60396   0.57217    0.000
 3743.00    0.62729   0.62600    0.000
 3744.00    0.61621   0.65210    0.000
 3745.00    0.58509   0.64648    0.809
 3746.00    0.58007   0.61738    0.704
 3747.00    0.58830   0.57769    0.578
 3748.00    0.58504   0.53718    0.655
 3749.00    0.57672   0.49849    0.913
 3750.00    0.59015   0.46089    0.772
 3751.00    0.61180   0.42929    0.576
 3752.00    0.63667   0.41472    0.513
 3753.00    0.66258   0.42969    0.478
 3754.00    0.64968   0.47739    0.472
 3755.00    0.62638   0.54647    0.472
 3756.00    0.62478   0.61922    0.455
 3757.00    0.62794   0.67908    0.434
 3758.00    0.62502   0.71192    0.515
 3759.00    0.62104   0.70755    0.665
 3760.00    0.58925   0.67069    1.014
 3761.00    0.55376   0.62395    2.180
 3762.00    0.55015   0.59366    0.926
 3763.00    0.54954   0.59110    0.553
 3764.00    0.56465   0.60706    0.497
 3765.00    0.58065   0.62511    0.457
 3766.00    0.57746   0.63642    0.539
 3767.00    0.57364   0.63920    0.660
 3768.00    0.55048   0.63317    0.624
 3769.00    0.52769   0.62049    0.592
 3770.00    0.51373   0.60520    0.557
 3771.00    0.49937   0.59394    0.526
 3772.00    0.47987   0.59150    0.496
 3773.00    0.46131   0.59863    0.468
 3774.00    0.45100   0.61561    0.428
 3775.00    0.44394   0.64233    0.407
 3776.00    0.45792   0.67221    0.478
 3777.00    0.47382   0.69617    0.551
 3778.00    0.49947   0.71278    0.505
 3779.00    0.52610   0.72818    0.474
 3780.00    0.55673   0.74832    0.479
 3781.00    0.58678   0.77459    0.480
 3782.00    0.61490   0.80355    0.467
 3783.00    0.64150   0.83041    0.459
 3784.00    0.66374   0.85064    0.461
 3785.00    0.67216   0.86175    0.466
 3786.00    0.64681   0.86341    0.476
 3787.00    0.62960   0.85159    0.511
 3788.00    0.62956   0.82076    0.628
 3789.00    0.64217   0.77251    0.675
 3790.00    0.67796   0.71942    0.545
 3791.00    0.69927   0.67877    0.486
 3792.00    0.69740   0.65783    0.482
 3793.00    0.68446   0.65324    0.486
 3794.00    0.65595   0.65542    0.502
 3795.00    0.63369   0.65215    0.488
 3796.00    0.61915   0.63444    0.443
 3797.00    0.60996   0.60351    0.455
 3798.00    0.60658   0.56790    0.544
 3799.00    0.60931   0.53461    0.588
 3800.00    0.61792   0.50858    0.565
 3801.00    0.63895   0.49654    0.568
 3802.00    0.67050   0.50819    0.594
 3803.00    0.69119   0.54738    0.603
 3804.00    0.70378   0.60567    0.598
 3805.00    0.70278   0.66733    0.549
 3806.00    0.69288   0.71837    0.485
 3807.00    0.66443   0.75016    0.468
 3808.00    0.62536   0.75932    0.472
 3809.00    0.62360   0.75311    0.512
 3810.00    0.64051   0.74721    0.583
 3811.00    0.66204   0.75539    0.687
 3812.00    0.68557   0.77901    0.844
 3813.00    0.68626   0.80351    0.632
 3814.00    0.67849   0.81001    0.448
 3815.00    0.66031   0.78930    0.418
 3816.00    0.63886   0.74722    0.416
 3817.00    0.62585   0.70090    0.534
 3818.00    0.61506   0.66922    0.834
 3819.00    0.62302   0.65976    0.663
 3820.00    0.63501   0.66514    0.493
 3821.00    0.61467   0.67033    0.475
 3822.00    0.58884   0.66358    0.474
 3823.00    0.55267   0.64808    0.484
 3824.00    0.51517   0.63634    0.496
 3825.00    0.52409   0.63284    0.459
 3826.00    0.53718   0.62779    0.424
 3827.00    0.54726   0.60988    0.546
 3828.00    0.55718   0.58133    0.792
 3829.00    0.56042   0.55538    0.665
 3830.00    0.56350   0.54062    0.568
 3831.00    0.56446   0.53562    0.500
 3832.00    0.56689   0.53328    0.448
 3833.00    0.60220   0.52529    0.444
 3834.00    0.63403   0.50588    0.442
 3835.00    0.62250   0.47573    0.446
 3836.00    0.61378   0.44294    0.461
 3837.00    0.62876   0.41957    0.607
 3838.00    0.64283   0.41170    0.802
 3839.00    0.65116   0.41692    0.616
 3840.00    0.65776   0.42891    0.505
 3841.00    0.65577   0.44280    0.447
 3842.00    0.65333   0.45999    0.416
 3843.00    0.64905   0.48657    0.454
 3844.00    0.64603   0.52589    0.499
 3845.00    0.64716   0.57445    0.557
 3846.00    0.64544   0.62273    0.598
 3847.00    0.63568   0.66018    0.000
 3848.00    0.63465   0.68432    0.000
 3849.00    0.65457   0.69896    0.000
 3850.00    0.67618   0.70748    0.000
 3851.00    0.70133   0.71041    0.000
 3852.00    0.71448   0.70835    0.000
 3853.00    0.70603   0.70636    0.000
 3854.00    0.70093   0.71106    0.000
 3855.00    0.70113   0.72210    0.000
 3856.00    0.69441   0.73044    0.000
 3857.00    0.67812   0.72896    0.000
 3858.00    0.67140   0.71866    0.000
 3859.00    0.67634   0.70381    0.000
 3860.00    0.68437   0.68708    0.000
 3861.00    0.69572   0.67073    0.000
 3862.00    0.68410   0.65894    0.000
 3863.00    0.65071   0.66049    0.000
 3864.00    0.60508   0.68148    0.000
 3865.00    0.54922   0.71546    0.000
 3866.00    0.50223   0.74720    0.000
 3867.00    0.46177   0.76492    0.000
 3868.00    0.43325   0.76796    0.000
 3869.00    0.41246   0.76322    0.000
 3870.00    0.38438   0.75726    0.000
 3871.00    0.35217   0.75089    0.000
 3872.00    0.37487   0.73995    0.000
 3873.00    0.42458   0.72137    0.000
 3874.00    0.47131   0.69836    0.000
 3875.00    0.51676   0.68149    0.000
 3876.00    0.55408   0.68136    0.000
 3877.00    0.58843   0.69914    0.000
 3878.00    0.62852   0.72187    0.000
 3879.00    0.67040   0.73101    0.000
 3880.00    0.67644   0.71876    0.000
 3881.00    0.67330   0.69428    0.567
 3882.00    0.69541   0.67304    0.523
 3883.00    0.72279   0.66278    0.465
 3884.00    0.72096   0.65882    0.505
 3885.00    0.71431   0.65424    0.574
 3886.00    0.72295   0.64686    0.527
 3887.00    0.73347   0.63357    0.476
 3888.00    0.72155   0.60913    0.425
 3889.00    0.70771   0.57402    0.383
 3890.00    0.71389   0.53980    0.439
 3891.00    0.72107   0.52113    0.521
 3892.00    0.72512   0.52657    0.491
 3893.00    0.72904   0.55694    0.462
 3894.00    0.72780   0.60474    0.436
 3895.00    0.72597   0.65504    0.413
 3896.00    0.71215   0.69371    0.420
 3897.00    0.69736   0.71547    0.424
 3898.00    0.67120   0.72588    0.388
 3899.00    0.64374   0.73367    0.363
 3900.00    0.60569   0.74274    0.378
 3901.00    0.56672   0.75137    0.391
 3902.00    0.52209   0.75870    0.379
 3903.00    0.47915   0.76835    0.360
 3904.00    0.44440   0.78090    0.313
 3905.00    0.41734   0.79059    0.286
 3906.00    0.42045   0.78990    0.295
 3907.00    0.43002   0.77903    0.304
 3908.00    0.46062   0.76702    0.315
 3909.00    0.49777   0.76511    0.328
 3910.00    0.55300   0.78202    0.347
 3911.00    0.61128   0.81650    0.364
 3912.00    0.67681   0.85705    0.369
 3913.00    0.72884   0.89145    0.375
 3914.00    0.75331   0.91295    0.381
 3915.00    0.76722   0.92078    0.397
 3916.00    0.76237   0.91730    0.438
 3917.00    0.76469   0.90603    0.453
 3918.00    0.77817   0.89071    0.423
 3919.00    0.78609   0.87320    0.409
 3920.00    0.78644   0.85293    0.415
 3921.00    0.77426   0.82972    0.419
 3922.00    0.74703   0.80421    0.421
 3923.00    0.74958   0.78003    0.421
 3924.00    0.78367   0.76321    0.419
 3925.00    0.81234   0.75746    0.439
 3926.00    0.83594   0.75984    0.487
 3927.00    0.84282   0.76085    0.490
 3928.00    0.83594   0.75031    0.453
 3929.00    0.82597   0.72228    0.441
 3930.00    0.81377   0.67792    0.445
 3931.00    0.79391   0.62242    0.460
 3932.00    0.76918   0.56155    0.484
 3933.00    0.76749   0.50026    0.483
 3934.00    0.77862   0.44252    0.468
 3935.00    0.79484   0.39280    0.454
 3936.00    0.81352   0.35711    0.440
 3937.00    0.83383   0.34226    0.425
 3938.00    0.85482   0.35320    0.409
 3939.00    0.84156   0.38981    0.414
 3940.00    0.81604   0.44605    0.428
 3941.00    0.82425   0.51163    0.423
 3942.00    0.84266   0.57531    0.414
 3943.00    0.84535   0.62753    0.405
 3944.00    0.84409   0.66264    0.395
 3945.00    0.85451   0.68146    0.385
 3946.00    0.86731   0.69208    0.374
 3947.00    0.89206   0.70600    0.380
 3948.00    0.91871   0.73052    0.390
 3949.00    0.90549   0.76246    0.399
 3950.00    0.88751   0.79128    0.409
 3951.00    0.90900   0.81082    0.425
 3952.00    0.93370   0.82438    0.442
 3953.00    0.94416   0.83704    0.429
 3954.00    0.95397   0.84862    0.415
 3955.00    0.91854   0.85701    0.393
 3956.00    0.88316   0.86285    0.373
 3957.00    0.88048   0.86658    0.398
 3958.00    0.87729   0.86426    0.424
 3959.00    0.86456   0.85284    0.409
 3960.00    0.85252   0.83673    0.000
 3961.00    0.84830   0.82153    0.000
 3962.00    0.84387   0.80339    0.000
 3963.00    0.83766   0.77139    0.000
 3964.00    0.83149   0.72099    0.000
 3965.00    0.82561   0.66058    0.000
 3966.00    0.81531   0.60236    0.000
 3967.00    0.78431   0.54961    0.000
 3968.00    0.76825   0.49658    0.000
 3969.00    0.80943   0.43864    0.000
 3970.00    0.84864   0.37992    0.000
 3971.00    0.88155   0.33203    0.000
 3972.00    0.91456   0.30698    0.000
 3973.00    0.94784   0.31117    0.000
 3974.00    0.96630   0.34326    0.000
 3975.00    0.95036   0.39595    0.000
 3976.00    0.94458   0.46023    0.000
 3977.00    0.95922   0.52883    0.000
 3978.00    0.96136   0.59716    0.000
 3979.00    0.94165   0.66261    0.000
 3980.00    0.92576   0.72426    0.000
 3981.00    0.91573   0.78180    0.407
 3982.00    0.91812   0.83257    0.409
 3983.00    0.93721   0.87097    0.395
 3984.00    0.94951   0.89258    0.386
 3985.00    0.95376   0.90008    0.382
 3986.00    0.96633   0.90313    0.384
 3987.00    0.98758   0.91104    0.391
 3988.00    0.99985   0.92671    0.398
 3989.00    1.00384   0.94703    0.406
 3990.00    1.00251   0.96737    0.401
 3991.00    0.99685   0.98435    0.387
 3992.00    0.99550   0.99605    0.381
 3993.00    0.99723   1.00407    0.381
 3994.00    0.98853   1.01285    0.377
 3995.00    0.97328   1.02424    0.371
 3996.00    0.97618   1.03395    0.369
 3997.00    0.98901   1.03439    0.369
 3998.00    0.98472   1.02224    0.367
 3999.00    0.97227   1.00266    0.365
 4000.00    0.98024   0.98754    0.371
 4001.00    0.99661   0.98907    0.381
 4002.00    1.00356   1.01112    0.383
 4003.00    1.00720   1.04511    0.381
 4004.00    0.98914   1.07583    0.384
 4005.00    0.96466   1.09074    0.389
 4006.00    0.96916   1.08380    0.386
 4007.00    0.98077   1.05647    0.381
 4008.00    0.97962   1.02042    0.380
 4009.00    0.97594   0.99584    0.379
 4010.00    0.98307   0.99785    0.375
 4011.00    0.99187   1.02408    0.370
 4012.00    0.99619   1.05842    0.367
 4013.00    1.00000   1.08584    0.364
 4014.00    0.98991   1.10188    0.365
 4015.00    0.97874   1.11001    0.367
 4016.00    0.98894   1.11554    0.380
 4017.00    1.00004   1.12128    0.395
 4018.00    1.00403   1.12705    0.391
 4019.00    1.00808   1.13101    0.388
 4020.00    1.01770   1.13313    0.373
 4021.00    1.02717   1.13681    0.361
 4022.00    1.03392   1.14371    0.362
 4023.00    1.03998   1.14960    0.363
 4024.00    1.03865   1.14821    0.373
 4025.00    1.03777   1.13753    0.407
 4026.00    1.04027   1.12229    0.885
 4027.00    1.03310   1.11070   -1.000
 4028.00    0.97011   1.11055   -1.000
 4029.00    0.91679   1.12375   -1.000
 4030.00    0.90781   1.14128   -1.000
 4031.00    0.89143   1.14604   -1.000
 4032.00    0.84731   1.12338   -1.000
 4033.00    0.80916   1.07314   -1.000
 4034.00    0.78974   1.01226   -1.000
 4035.00    0.77534   0.96339   -1.000
 4036.00    0.77427   0.94216   -1.000
 4037.00    0.78687   0.95346    2.373
 4038.00    0.83067   0.99261    0.554
 4039.00    0.86641   1.04926    0.367
 4040.00    0.88624   1.10773    0.368
 4041.00    0.90797   1.15111    0.368
 4042.00    0.93297   1.16976    0.366
 4043.00    0.94991   1.16579    0.364
 4044.00    0.95470   1.14860    0.361
 4045.00    0.96593   1.12355    0.366
 4046.00    0.98569   1.08607    0.381
 4047.00    1.00530   1.03310    0.389
 4048.00    1.02472   0.97754    0.389
 4049.00    1.02900   0.94622    0.389
 4050.00    1.01769   0.95842    0.390
 4051.00    1.01076   1.00668    0.382
 4052.00    1.00780   1.06533    0.368
 4053.00    1.00786   1.11005    0.366
 4054.00    1.01033   1.12986    0.372
 4055.00    1.00767   1.12608    0.372
 4056.00    1.00141   1.10591    0.368
 4057.00    1.00801   1.07866    0.368
 4058.00    1.02256   1.05323    0.371
 4059.00    1.02847   1.03485    0.378
 4060.00    1.02972   1.02472    0.388
 4061.00    1.01629   1.02438    0.385
 4062.00    0.99596   1.03357    0.377
 4063.00    0.99441   1.04478    0.371
 4064.00    1.00043   1.04393    0.367
 4065.00    0.99702   1.02134    0.369
 4066.00    0.99036   0.98524    0.372
 4067.00    0.99681   0.95800    0.375
 4068.00    1.00707   0.95611    0.378
 4069.00    1.01982   0.97698    0.372
 4070.00    1.03317   1.00795    0.365
 4071.00    1.05054   1.03732    0.369
 4072.00    1.06869   1.05659    0.377
 4073.00    1.08263   1.05892    0.372
 4074.00    1.09593   1.04517    0.366
 4075.00    1.05310   1.02856    0.363
 4076.00    1.00406   1.02216    0.360
 4077.00    1.01866   1.02245    0.365
 4078.00    1.03792   1.01381    0.370
 4079.00    1.03611   0.98742    0.376
 4080.00    1.03349   0.95551    0.384
 4081.00    1.01860   0.94252    0.375
 4082.00    1.00531   0.96269    0.367
 4083.00    1.05520   1.00942    0.363
 4084.00    1.10108   1.06012    0.359
 4085.00    1.08095   1.09191    0.362
 4086.00    1.05842   1.09726    0.365
 4087.00    1.01123   1.08577    0.361
 4088.00    0.97463   1.07523    0.358
 4089.00    1.01573   1.08015    0.361
 4090.00    1.04987   1.10259    0.362
 4091.00    1.04492   1.13241    0.362
 4092.00    1.04372   1.15516    0.000
 4093.00    1.05932   1.16138    0.000
 4094.00    1.07340   1.15185    0.000
 4095.00    1.08192   1.13331    0.000
 4096.00    1.08979   1.11177    0.000
 4097.00    1.09567   1.08618    0.000
 4098.00    1.09020   1.05228    0.000
 4099.00    1.05506   1.01126    0.000
 4100.00    1.02230   0.96797    0.000
 4101.00    0.99488   0.92642    0.000
 4102.00    0.99204   0.88482    0.000
 4103.00    1.03702   0.84004    0.000
 4104.00    1.05891   0.79807    0.000
 4105.00    1.04161   0.77476    0.000
 4106.00    1.02399   0.78296    0.000
 4107.00    1.00588   0.82240    0.000
 4108.00    0.99478   0.87946    0.000
 4109.00    0.99283   0.93535    0.000
 4110.00    1.00501   0.97602    0.000
 4111.00    1.03345   0.99702    0.000
 4112.00    1.05380   1.00152    0.000
 4113.00    1.06595   0.99909    0.355
 4114.00    1.07441   1.00042    0.354
 4115.00    1.07958   1.01198    0.352
 4116.00    1.06799   1.03448    0.349
 4117.00    1.04318   1.06225    0.347
 4118.00    1.03030   1.08708    0.347
 4119.00    1.02570   1.10129    0.347
 4120.00    1.04240   1.09996    0.508
 4121.00    1.07206   1.08463    1.972
 4122.00    1.08169   1.06428   -1.000
 4123.00    1.08068   1.04936   -1.000
 4124.00    1.07276   1.04392   -1.000
 4125.00    1.06164   1.04666   -1.000
 4126.00    1.03973   1.05399   -1.000
 4127.00    1.01353   1.06421   -1.000
 4128.00    1.02149   1.07386    0.945
 4129.00    1.04102   1.07648    0.404
 4130.00    1.03677   1.06819    0.355
 4131.00    1.02577   1.05112    0.350
 4132.00    1.01884   1.03154    0.348
 4133.00    1.01288   1.01234    0.345
 4134.00    1.01998   0.99312    0.344
 4135.00    1.02955   0.97534    0.344
 4136.00    1.04295   0.96759    0.349
 4137.00    1.05690   0.97750    0.354
 4138.00    1.05933   1.00729    0.353
 4139.00    1.06054   1.04797    0.352
 4140.00    1.07681   1.08627    0.357
 4141.00    1.09413   1.11549    0.362
 4142.00    1.09755   1.13120    0.366
 4143.00    1.10048   1.12982    0.369
 4144.00    1.09152   1.10707    0.362
 4145.00    1.08252   1.06327    0.355
 4146.00    1.07307   1.01313    0.359
 4147.00    1.06404   0.98026    0.363
 4148.00    1.06138   0.97910    0.360
 4149.00    1.05931   1.00375    0.357
 4150.00    1.06312   1.03467    0.356
 4151.00    1.06478   1.05367    0.357
 4152.00    1.05118   1.05524    0.364
 4153.00    1.03899   1.04626    0.370
 4154.00    1.03453   1.03552    0.369
 4155.00    1.02682   1.02616    0.366
 4156.00    1.00494   1.01785    0.353
 4157.00    0.98519   1.00816    0.344
 4158.00    0.97312   0.99985    0.346
 4159.00    0.97464   0.99748    0.345
 4160.00    1.01716   1.00525    0.338
 4161.00    1.05457   1.02435    0.334
 4162.00    1.07882   1.04933    0.337
 4163.00    1.09396   1.07421    0.340
 4164.00    1.08894   1.09448    0.343
 4165.00    1.08151   1.11046    0.347
 4166.00    1.06947   1.12099    0.349
 4167.00    1.05090   1.12332    0.351
 4168.00    1.02141   1.11674    0.351
 4169.00    1.00248   1.10279    0.349
 4170.00    0.99901   1.08744    0.346
 4171.00    1.00527   1.07747    0.343
 4172.00    1.02406   1.07220    0.342
 4173.00    1.03024   1.06225    0.345
 4174.00    1.02211   1.03838    0.353
 4175.00    1.02939   1.00088    0.357
 4176.00    1.05209   0.96420    0.357
 4177.00    1.07364   0.94379    0.354
 4178.00    1.09417   0.94325    0.349
 4179.00    1.09161   0.95415    0.344
 4180.00    1.07108   0.96554    0.339
 4181.00    1.05975   0.97454    0.335
 4182.00    1.05470   0.98480    0.333
 4183.00    1.04503   0.99762    0.335
 4184.00    1.03258   1.00944    0.340
 4185.00    1.04166   1.01822    0.340
 4186.00    1.06199   1.02679    0.337
 4187.00    1.07034   1.03702    0.335
 4188.00    1.07326   1.04675    0.333
 4189.00    1.07139   1.04844    0.335
 4190.00    1.06765   1.04026    0.339
 4191.00    1.05796   1.03267    0.338
 4192.00    1.04629   1.03505    0.336
 4193.00    1.04100   1.04821    0.338
 4194.00    1.03750   1.06670    0.341
 4195.00    1.05632   1.08551    0.341
 4196.00    1.08025   1.09950    0.339
 4197.00    1.06381   1.10045    0.344
 4198.00    1.03995   1.08242    0.350
 4199.00    1.05609   1.04839    0.352
 4200.00    1.07789   1.00969    0.352
 4201.00    1.05718   0.97808    0.340
 4202.00    1.03214   0.96105    0.328
 4203.00    1.05169   0.95813    0.331
 4204.00    1.07414   0.96206    0.334
 4205.00    1.04936   0.96939    0.337
 4206.00    1.02321   0.98191    0.340
 4207.00    1.04495   1.00071    0.335
 4208.00    1.06622   1.02602    0.331
 4209.00    1.07333   1.05522    0.331
 4210.00    1.07861   1.08208    0.330
 4211.00    1.05728   1.10178    0.329
 4212.00    1.04065   1.11161    0.328
 4213.00    1.06857   1.11397    0.328
 4214.00    1.09015   1.11470    0.327
 4215.00    1.06823   1.11419    0.323
 4216.00    1.04331   1.10676    0.318
 4217.00    1.00247   1.08855    0.316
 4218.00    0.96947   1.06486    0.315
 4219.00    0.96994   1.05249    0.318
 4220.00    0.96983   1.06527    0.319
 4221.00    0.96767   1.09925    0.316
 4222.00    0.96742   1.13849    0.315
 4223.00    0.97283   1.16568    0.322
 4224.00    0.97975   1.17018    0.327
 4225.00    0.99045   1.14740    0.329
 4226.00    0.99780   1.09805    0.328
 4227.00    0.99789   1.02707    0.319
 4228.00    0.99777   0.94626    0.315
 4229.00    0.99725   0.87690    0.315
 4230.00    0.98087   0.84449    0.312
 4231.00    0.93836   0.86549    0.302
 4232.00    0.90825   0.93068    0.298
 4233.00    0.89603   1.01050    0.302
 4234.00    0.89842   1.07361    0.306
 4235.00    0.91936   1.10073    0.310
 4236.00    0.93368   1.09431    0.311
 4237.00    0.94059   1.07227    0.309
 4238.00    0.94259   1.04989    0.307
 4239.00    0.93974   1.03514    0.307
 4240.00    0.94952   1.03199    0.306
 4241.00    0.97030   1.03829    0.303
 4242.00    0.98817   1.05207    0.302
 4243.00    1.00380   1.07331    0.303
 4244.00    1.01794   1.10063    0.306
 4245.00    1.03108   1.13008    0.312
 4246.00    1.05209   1.15740    0.323
 4247.00    1.07775   1.17828    0.339
 4248.00    1.10733   1.18499    0.347
 4249.00    1.13893   1.17241    0.350
 4250.00    1.14437   1.14253    0.348
 4251.00    1.13814   1.10406    0.342
 4252.00    1.10183   1.06806    0.338
 4253.00    1.05398   1.04174    0.335
 4254.00    1.02995   1.02986    0.323
 4255.00    1.01368   1.03137    0.310
 4256.00    1.01276   1.03821    0.312
 4257.00    1.01603   1.04495    0.317
 4258.00    1.04340   1.05338    0.322
 4259.00    1.07617   1.06672    0.328
 4260.00    1.08237   1.08050    0.330
 4261.00    1.08381   1.08244    0.331
 4262.00    1.07642   1.06722    0.333
 4263.00    1.06782   1.04466    0.335
 4264.00    1.07700   1.03510    0.334
 4265.00    1.08791   1.05461    0.331
 4266.00    1.04865   1.10007    0.322
 4267.00    1.00632   1.15352    0.312
 4268.00    0.93135   1.19579    0.306
 4269.00    0.85571   1.21456    0.299
 4270.00    0.82014   1.20554    0.300
 4271.00    0.78713   1.17175    0.301
 4272.00    0.82192   1.11942    0.305
 4273.00    0.85851   1.05605    0.309
 4274.00    0.91968   0.99233    0.320
 4275.00    0.97986   0.94290    0.331
 4276.00    1.03100   0.92012    0.335
 4277.00    1.07981   0.92563    0.339
 4278.00    1.11303   0.95573    0.334
 4279.00    1.13418   1.00421    0.330
 4280.00    1.09283   1.05881    0.329
 4281.00    1.06250   1.10503    0.328
 4282.00    1.07814   1.13088   -2.000
 4283.00    1.08763   1.13260   -2.000
 4284.00    1.07586   1.11996   -2.000
 4285.00    1.06506   1.10527   -2.000
 4286.00    1.05711   1.09491   -2.000
 4287.00    1.06681   1.08914   -2.000
 4288.00    1.12027   1.08194   -2.000
 4289.00    1.15474   1.06891   -2.000
 4290.00    1.14861   1.04800   -2.000
 4291.00    1.15457   1.01787   -2.000
 4292.00    1.18300   0.98265   -2.000
 4293.00    1.18971   0.95468   -2.000
 4294.00    1.16120   0.94840   -2.000
 4295.00    1.14107   0.96675   -2.000
 4296.00    1.13283   0.99798   -2.000
 4297.00    1.12617   1.02346   -2.000
 4298.00    1.12149   1.03243    0.344
 4299.00    1.11141   1.02322    0.340
 4300.00    1.09536   0.99629    0.335
 4301.00    1.08942   0.95492    0.335
 4302.00    1.09331   0.90445    0.340
 4303.00    1.08953   0.85679    0.347
 4304.00    1.07916   0.82631    0.355
 4305.00    1.07698   0.81685    0.359
 4306.00    1.08100   0.82348    0.359
 4307.00    1.07672   0.83716    0.358
 4308.00    1.06693   0.84554    0.355
 4309.00    1.07925   0.84191    0.358
 4310.00    1.10442   0.82800    0.364
 4311.00    1.10970   0.81175    0.360
 4312.00    1.10491   0.80714    0.352
 4313.00    1.12175   0.82374    0.345
 4314.00    1.14808   0.85988    0.339
 4315.00    1.14285   0.90631    0.331
 4316.00    1.12573   0.95474    0.323
 4317.00    1.12057   1.00429    0.325
 4318.00    1.11923   1.06021    0.329
 4319.00    1.13302   1.12526    0.326
 4320.00    1.15085   1.18917    0.321
 4321.00    1.16787   1.23559    0.327
 4322.00    1.18473   1.25493    0.336
 4323.00    1.15694   1.24683    0.341
 4324.00    1.12138   1.21760    0.345
 4325.00    1.12706   1.17418    0.343
 4326.00    1.13820   1.11751    0.341
 4327.00    1.15788   1.05100    0.339
 4328.00    1.17837   0.99034    0.337
 4329.00    1.16341   0.95818    0.332
 4330.00    1.14643   0.97145    0.000
 4331.00    1.15930   1.02424    0.000
 4332.00    1.17268   1.09014    0.000
 4333.00    1.16572   1.14244    0.000
 4334.00    1.15912   1.17063    0.000
 4335.00    1.16101   1.18190    0.000
 4336.00    1.16242   1.18632    0.000
 4337.00    1.15764   1.18608    0.000
 4338.00    1.15399   1.17371    0.000
 4339.00    1.16017   1.13707    0.000
 4340.00    1.16634   1.07059    0.000
 4341.00    1.17238   0.98472    0.000
 4342.00    1.17962   0.90160    0.000
 4343.00    1.19290   0.84275    0.000
 4344.00    1.19872   0.82358    0.000
 4345.00    1.17407   0.84644    0.000
 4346.00    1.15504   0.89729    0.000
 4347.00    1.15503   0.95813    0.000
 4348.00    1.16027   1.01773    0.000
 4349.00    1.18044   1.06982    0.000
 4350.00    1.19750   1.11219    0.000
 4351.00    1.20695   1.14443    0.325
 4352.00    1.21129   1.16026    0.322
 4353.00    1.20486   1.15142    0.328
 4354.00    1.19721   1.11927    0.406
 4355.00    1.18732   1.08023    1.066
 4356.00    1.19152   1.05805   -1.000
 4357.00    1.21824   1.06559   -1.000
 4358.00    1.23632   1.09761   -1.000
 4359.00    1.24231   1.13838   -1.000
 4360.00    1.23931   1.17070   -1.000
 4361.00    1.22522   1.18597   -1.000
 4362.00    1.22797   1.18910    1.339
 4363.00    1.24902   1.19258    0.434
 4364.00    1.26035   1.20603    0.327
 4365.00    1.26235   1.23020    0.329
 4366.00    1.24529   1.25865    0.331
 4367.00    1.21210   1.28272    0.332
 4368.00    1.20912   1.29479    0.333
 4369.00    1.22863   1.28936    0.333
 4370.00    1.22469   1.26684    0.332
 4371.00    1.20540   1.23554    0.330
 4372.00    1.21005   1.20818    0.332
 4373.00    1.22842   1.19231    0.337
 4374.00    1.24818   1.18554    0.338
 4375.00    1.26863   1.17846    0.338
 4376.00    1.25672   1.16142    0.335
 4377.00    1.23084   1.13475    0.331
 4378.00    1.21596   1.11131    0.332
 4379.00    1.20514   1.10731    0.336
 4380.00    1.18623   1.12825    0.338
 4381.00    1.16479   1.16291    0.339
 4382.00    1.16201   1.18996    0.334
 4383.00    1.16411   1.19064    0.327
 4384.00    1.16227   1.15684    0.325
 4385.00    1.15958   1.09277    0.324
 4386.00    1.17598   1.01366    0.329
 4387.00    1.19562   0.94590    0.335
 4388.00    1.19590   0.91598    0.331
 4389.00    1.19372   0.93226    0.326
 4390.00    1.20247   0.97943    0.323
 4391.00    1.21221   1.03082    0.320
 4392.00    1.21784   1.06825    0.322
 4393.00    1.22326   1.08883    0.324
 4394.00    1.22757   1.09992    0.323
 4395.00    1.23182   1.10963    0.322
 4396.00    1.23306   1.11944    0.324
 4397.00    1.23323   1.12813    0.326
 4398.00    1.21004   1.13804    0.328
 4399.00    1.19003   1.15409    0.330
 4400.00    1.20922   1.17588    0.332
 4401.00    1.22598   1.19239    0.332
 4402.00    1.22221   1.19315    0.327
 4403.00    1.22071   1.17812    0.324
 4404.00    1.23349   1.15532    0.333
 4405.00    1.24499   1.13422    0.339
 4406.00    1.25021   1.11434    0.335
 4407.00    1.25143   1.08870    0.331
 4408.00    1.23665   1.06026    0.330
 4409.00    1.22128   1.04218    0.327
 4410.00    1.20388   1.04311    0.320
 4411.00    1.19852   1.06182    0.316
 4412.00    1.22686   1.09492    0.318
 4413.00    1.24858   1.13853    0.320
 4414.00    1.25444   1.18338    0.324
 4415.00    1.26173   1.21591    0.328
 4416.00    1.27199   1.22437    0.332
 4417.00    1.27404   1.20449    0.332
 4418.00    1.26132   1.16582    0.326
 4419.00    1.26082   1.13199    0.323
 4420.00    1.27957   1.12353    0.324
 4421.00    1.27859   1.14293    0.323
 4422.00    1.25033   1.17880    0.320
 4423.00    1.23291   1.21207    0.317
 4424.00    1.22869   1.22664    0.317
 4425.00    1.23826   1.22022    0.320
 4426.00    1.26264   1.20317    0.328
 4427.00    1.27832   1.18992    0.333
 4428.00    1.28579   1.18688    0.335
 4429.00    1.29538   1.19111    0.333
 4430.00    1.30674   1.19708    0.328
 4431.00    1.31371   1.20028    0.324
 4432.00    1.31745   1.19984    0.323
 4433.00    1.30789   1.19500    0.324
 4434.00    1.28974   1.18629    0.327
 4435.00    1.28010   1.17651    0.327
 4436.00    1.27526   1.16332    0.325
 4437.00    1.26981   1.14524    0.330
 4438.00    1.26407   1.12968    0.337
 4439.00    1.27249   1.12940    0.334
 4440.00    1.28693   1.15344    0.326
 4441.00    1.28431   1.19505    0.324
 4442.00    1.27547   1.23397    0.323
 4443.00    1.26922   1.25033    0.325
 4444.00    1.26377   1.23600    0.328
 4445.00    1.26807   1.20144    0.324
 4446.00    1.27487   1.16908    0.318
 4447.00    1.27495   1.15829    0.316
 4448.00    1.27363   1.17533    0.314
 4449.00    1.26873   1.21059    0.319
 4450.00    1.26325   1.24498    0.324
 4451.00    1.26129   1.26580    0.320
 4452.00    1.25976   1.27308    0.315
 4453.00    1.23233   1.26892    0.316
 4454.00    1.20269   1.25615    0.318
 4455.00    1.20725   1.23806    0.319
 4456.00    1.21349   1.21238    0.319
 4457.00    1.22411   1.17740    0.318
 4458.00    1.23433   1.13797    0.317
 4459.00    1.21541   1.10426    0.317
 4460.00    1.19815   1.08497    0.316
 4461.00    1.21460   1.07804    0.000
 4462.00    1.22977   1.07529    0.000
 4463.00    1.22997   1.07321    0.000
 4464.00    1.23268   1.07382    0.000
 4465.00    1.25578   1.08054    0.000
 4466.00    1.27693   1.09874    0.000
 4467.00    1.28616   1.12774    0.000
 4468.00    1.28681   1.15563    0.000
 4469.00    1.24623   1.17297    0.000
 4470.00    1.22056   1.17832    0.000
 4471.00    1.25316   1.17473    0.000
 4472.00    1.28556   1.16861    0.000
 4473.00    1.31730   1.16831    0.000
 4474.00    1.33299   1.18146    0.000
 4475.00    1.30455   1.20845    0.000
 4476.00    1.28096   1.24306    0.000
 4477.00    1.26881   1.27778    0.000
 4478.00    1.25953   1.30597    0.000
 4479.00    1.25610   1.32434    0.000
 4480.00    1.25725   1.33314    0.000
 4481.00    1.26650   1.32961    0.000
 4482.00    1.27705   1.30737    0.315
 4483.00    1.28962   1.26712    0.317
 4484.00    1.30631   1.22230    0.318
 4485.00    1.32860   1.19237    0.317
 4486.00    1.33416   1.19191    0.315
 4487.00    1.31963   1.22111    0.309
 4488.00    1.30905   1.26341    0.308
 4489.00    1.30264   1.29762    0.311
 4490.00    1.29023   1.30956    0.312
 4491.00    1.27221   1.29583    0.310
 4492.00    1.27494   1.26574    0.311
 4493.00    1.29471   1.23646    0.313
 4494.00    1.30312   1.22112    0.316
 4495.00    1.30331   1.22027    0.319
 4496.00    1.29050   1.22403    0.319
 4497.00    1.26943   1.22140    0.316
 4498.00    1.27553   1.21163    0.316
 4499.00    1.29670   1.20631    0.317
 4500.00    1.29176   1.21470    0.315
 4501.00    1.27419   1.23614    0.311
 4502.00    1.26575   1.26270    0.308
 4503.00    1.26111   1.28499    0.306
 4504.00    1.28152   1.30045    0.310
 4505.00    1.31087   1.31458    0.316
 4506.00    1.29277   1.33718    0.313
 4507.00    1.26037   1.36793    0.308
 4508.00    1.26239   1.39350    0.305
 4509.00    1.27303   1.40431    0.301
 4510.00    1.26854   1.40028    0.302
 4511.00    1.26096   1.38817    0.304
 4512.00    1.24087   1.37740    0.300
 4513.00    1.21879   1.37226    0.296
 4514.00    1.23469   1.36925    0.297
 4515.00    1.25510   1.36067    0.298
 4516.00    1.27523   1.34318    0.301
 4517.00    1.29533   1.32131    0.304
 4518.00    1.29882   1.30135    0.304
 4519.00    1.30156   1.28845    0.303
 4520.00    1.30169   1.28466    0.304
 4521.00    1.30159   1.28660    0.305
 4522.00    1.29145   1.29279    0.308
 4523.00    1.28204   1.30273    0.310
 4524.00    1.28605   1.31077    0.306
 4525.00    1.28944   1.31077    0.302
 4526.00    1.28593   1.29732    0.304
 4527.00    1.28329   1.27221    0.306
 4528.00    1.28746   1.24147    0.308
 4529.00    1.29329   1.20536    0.310
 4530.00    1.30895   1.16742    0.309
 4531.00    1.31765   1.13484    0.308
 4532.00    1.29378   1.11311    0.306
 4533.00    1.27558   1.10695    0.304
 4534.00    1.27898   1.11473    0.307
 4535.00    1.28577   1.12780    0.311
 4536.00    1.30333   1.13894    0.318
 4537.00    1.31677   1.14413    0.322
 4538.00    1.31907   1.14955    0.315
 4539.00    1.31883   1.16720    0.311
 4540.00    1.31271   1.20138    0.312
 4541.00    1.30486   1.24259    0.311
 4542.00    1.29353   1.27204    0.305
 4543.00    1.28478   1.28140    0.302
 4544.00    1.28054   1.27656    0.306
 4545.00    1.28262   1.26739    0.309
 4546.00    1.29435   1.26222    0.312
 4547.00    1.30183   1.26058    0.313
 4548.00    1.30358   1.25602    0.311
 4549.00    1.30172   1.24793    0.311
 4550.00    1.29559   1.23896    0.000
 4551.00    1.29595   1.22896    0.000
 4552.00    1.30308   1.21778    0.000
 4553.00    1.31305   1.20737    0.000
 4554.00    1.32563   1.20303    0.000
 4555.00    1.32447   1.20414    0.000
 4556.00    1.31218   1.20282    0.000
 4557.00    1.30670   1.19892    0.000
 4558.00    1.30607   1.19832    0.000
 4559.00    1.31338   1.20741    0.000
 4560.00    1.32565   1.23104    0.000
 4561.00    1.32237   1.26492    0.000
 4562.00    1.31058   1.29744    0.000
 4563.00    1.31699   1.32027    0.000
 4564.00    1.33205   1.32955    0.000
 4565.00    1.33505   1.32467    0.000
 4566.00    1.33310   1.30770    0.000
 4567.00    1.32027   1.28307    0.000
 4568.00    1.30363   1.26196    0.000
 4569.00    1.29900   1.25645    0.000
 4570.00    1.29792   1.26966    0.000
 4571.00    1.31013   1.29389    0.000
 4572.00    1.32558   1.31346    0.000
 4573.00    1.31596   1.31869    0.000
 4574.00    1.30137   1.31168    0.000
 4575.00    1.29502   1.29937    0.000
 4576.00    1.28993   1.29415    0.000
 4577.00    1.29387   1.30241    0.000
 4578.00    1.29885   1.31435    0.000
 4579.00    1.29736   1.32005    0.000
 4580.00    1.29538   1.31664    0.000
 4581.00    1.30198   1.30227    0.000
 4582.00    1.30895   1.27800    0.000
 4583.00    1.31340   1.24910    0.000
 4584.00    1.31787   1.22329    0.000
 4585.00    1.32347   1.20757    0.000
 4586.00    1.32768   1.20315    0.000
 4587.00    1.30740   1.20531    0.000
 4588.00    1.28855   1.21148    0.000
 4589.00    1.28494   1.22251    0.000
 4590.00    1.28254   1.23860    0.000
 4591.00    1.28928   1.25905    0.000
 4592.00    1.29602   1.27858    0.000
 4593.00    1.30282   1.28899    0.000
 4594.00    1.30940   1.28604    0.000
 4595.00    1.31506   1.27169    0.000
 4596.00    1.31848   1.25297    0.000
 4597.00    1.31356   1.23785    0.000
 4598.00    1.30976   1.22911    0.000
 4599.00    1.30947   1.22583    0.000
 4600.00    1.30754   1.22762    0.000
 4601.00    1.30126   1.23211    0.000
 4602.00    1.29674   1.23652    0.000
 4603.00    1.29626   1.23967    0.000
 4604.00    1.30154   1.23982    0.000
 4605.00    1.31819   1.23922    0.000
 4606.00    1.32905   1.24107    0.000
 4607.00    1.32996   1.24460    0.000
 4608.00    1.33534   1.25045    0.000
 4609.00    1.34745   1.26168    0.000
 4610.00    1.35142   1.28150    0.000
 4611.00    1.34462   1.30916    0.000
 4612.00    1.34417   1.33786    0.000
 4613.00    1.35114   1.35793    0.000
 4614.00    1.35387   1.36242    0.000
 4615.00    1.35223   1.35371    0.000
 4616.00    1.34611   1.34075    0.000
 4617.00    1.33593   1.33066    0.000
 4618.00    1.34058   1.32778    0.000
 4619.00    1.35709   1.33078    0.000
 4620.00    1.34909   1.33326    0.000
 4621.00    1.32386   1.33350    0.000
 4622.00    1.32291   1.33249    0.000
 4623.00    1.33693   1.33079    0.000
 4624.00    1.34279   1.33279    0.000
 4625.00    1.34426   1.33987    0.000
 4626.00    1.33430   1.34603    0.000
 4627.00    1.31901   1.34778    0.000
 4628.00    1.31018   1.34571    0.000
 4629.00    1.30395   1.33979    0.000
 4630.00    1.31364   1.33199    0.000
 4631.00    1.32880   1.32621    0.000
 4632.00    1.34321   1.32329    0.000
 4633.00    1.35741   1.32182    0.000
 4634.00    1.36136   1.32221    0.000
 4635.00    1.36286   1.32340    0.000
 4636.00    1.34736   1.31970    0.000
 4637.00    1.32857   1.30835    0.000
 4638.00    1.31158   1.29332    0.000
 4639.00    1.29485   1.27881    0.000
 4640.00    1.32904   1.26545    0.000
 4641.00    1.36884   1.25284    0.000
 4642.00    1.36193   1.24343    0.000
 4643.00    1.35163   1.24036    0.000
 4644.00    1.34293   1.24375    0.000
 4645.00    1.33429   1.25141    0.000
 4646.00    1.32445   1.25671    0.000
 4647.00    1.31448   1.25070    0.000
 4648.00    1.30039   1.23136    0.000
 4649.00    1.28778   1.20407    0.000
 4650.00    1.29934   1.17727    0.000
 4651.00    1.31034   1.16175    0.000
 4652.00    1.31564   1.16506    0.000
 4653.00    1.31903   1.18566    0.000
 4654.00    1.30849   1.21495    0.000
 4655.00    1.30150   1.24161    0.000
 4656.00    1.31432   1.25711    0.000
 4657.00    1.32874   1.25919    0.000
 4658.00    1.35025   1.25107    0.000
 4659.00    1.35994   1.24251    0.000
 4660.00    1.32628   1.24518    0.000
 4661.00    1.29892   1.26369    0.000
 4662.00    1.29091   1.29316    0.000
 4663.00    1.28692   1.32122    0.000
 4664.00    1.29342   1.33426    0.000
 4665.00    1.29841   1.32643    0.000
 4666.00    1.30004   1.30124    0.000
 4667.00    1.29787   1.26572    0.000
 4668.00    1.28831   1.22588    0.000
 4669.00    1.28978   1.18540    0.000
 4670.00    1.30990   1.14706    0.000
 4671.00    1.32855   1.11832    0.000
 4672.00    1.34502   1.11085    0.000
 4673.00    1.35099   1.12866    0.000
 4674.00    1.34326   1.16266    0.000
 4675.00    1.33709   1.19883    0.000
 4676.00    1.33271   1.22721    0.000
 4677.00    1.32376   1.24541    0.000
 4678.00    1.31019   1.25704    0.000
 4679.00    1.29219   1.26563    0.000
 4680.00    1.27025   1.27040    0.000
 4681.00    1.26663   1.26724    0.000
 4682.00    1.27743   1.25378    0.000
 4683.00    1.29995   1.23474    0.000
 4684.00    1.33058   1.21912    0.000
 4685.00    1.32481   1.21277    0.000
 4686.00    1.29693   1.21698    0.000
 4687.00    1.29377   1.22941    0.000
 4688.00    1.30370   1.24363    0.000
 4689.00    1.32127   1.25296    0.000
 4690.00    1.34237   1.25571    0.000
 4691.00    1.33291   1.25335    0.000
 4692.00    1.31134   1.24779    0.000
 4693.00    1.30155   1.24210    0.000
 4694.00    1.29573   1.23839    0.000
 4695.00    1.29484   1.23713    0.000
 4696.00    1.29535   1.24022    0.000
 4697.00    1.30187   1.24894    0.000
 4698.00    1.30980   1.25997    0.000
 4699.00    1.31480   1.26742    0.000
 4700.00    1.31925   1.26638    0.000
 4701.00    1.32785   1.25425    0.000
 4702.00    1.33705   1.23290    0.000
 4703.00    1.30498   1.20936    0.000
 4704.00    1.26855   1.19091    0.000
 4705.00    1.27848   1.17972    0.000
 4706.00    1.29158   1.17433    0.000
 4707.00    1.28743   1.17402    0.000
 4708.00    1.28270   1.17839    0.000
 4709.00    1.30552   1.18445    0.000
 4710.00    1.32703   1.18692    0.000
 4711.00    1.30451   1.18455    0.000
 4712.00    1.28458   1.18291    0.000
 4713.00    1.30449   1.18791    0.000
 4714.00    1.32257   1.20004    0.000
 4715.00    1.32260   1.21467    0.000
 4716.00    1.32382   1.22512    0.000
 4717.00    1.33351   1.22833    0.000
 4718.00    1.34259   1.22890    0.000
 4719.00    1.34833   1.23503    0.000
 4720.00    1.34791   1.25217    0.000
 4721.00    1.32070   1.27761    0.000
 4722.00    1.30123   1.30272    0.000
 4723.00    1.30952   1.32173    0.000
 4724.00    1.31920   1.33332    0.000
 4725.00    1.33302   1.33784    0.000
 4726.00    1.34150   1.33740    0.000
 4727.00    1.33627   1.33441    0.000
 4728.00    1.33695   1.32831    0.000
 4729.00    1.35067   1.31478    0.000
 4730.00    1.35272   1.28950    0.000
 4731.00    1.33246   1.25383    0.000
 4732.00    1.31373   1.21671    0.000
 4733.00    1.29755   1.19054    0.000
 4734.00    1.29137   1.18188    0.000
 4735.00    1.29980   1.18831    0.000
 4736.00    1.31487   1.20408    0.000
 4737.00    1.33845   1.22235    0.000
 4738.00    1.35219   1.23664    0.000
 4739.00    1.35477   1.24561    0.000
 4740.00    1.34969   1.25139    0.000
 4741.00    1.33695   1.25576    0.000
 4742.00    1.32721   1.26251    0.000
 4743.00    1.32011   1.27229    0.000
 4744.00    1.32352   1.27963    0.000
 4745.00    1.33509   1.28278    0.000
 4746.00    1.33858   1.28552    0.000
 4747.00    1.33654   1.29036    0.000
 4748.00    1.33578   1.29646    0.000
 4749.00    1.33578   1.30202    0.000
 4750.00    1.33524   1.30745    0.000
 4751.00    1.33440   1.31370    0.000
 4752.00    1.32991   1.31792    0.000
 4753.00    1.32376   1.31731    0.000
 4754.00    1.32171   1.31225    0.000
 4755.00    1.32126   1.30264    0.000
 4756.00    1.31846   1.28820    0.000
 4757.00    1.31487   1.27165    0.000
 4758.00    1.32018   1.25764    0.000
 4759.00    1.32796   1.24916    0.000
 4760.00    1.32579   1.24770    0.000
 4761.00    1.32135   1.25223    0.301
 4762.00    1.30168   1.25902    0.301
 4763.00    1.27923   1.26259    0.301
 4764.00    1.28126   1.25833    0.300
 4765.00    1.28674   1.24416    0.298
 4766.00    1.27058   1.22104    0.295
 4767.00    1.25223   1.19530    0.292
 4768.00    1.30322   1.17549    0.295
 4769.00    1.35869   1.16587    0.298
 4770.00    1.33872   1.16795    0.297
 4771.00    1.31650   1.18248    0.297
 4772.00    1.31576   1.20563    0.294
 4773.00    1.31451   1.22924    0.291
 4774.00    1.29849   1.24735    0.291
 4775.00    1.28198   1.25853    0.291
 4776.00    1.25826   1.26522    0.288
 4777.00    1.23356   1.27348    0.284
 4778.00    1.19955   1.28672    0.280
 4779.00    1.16286   1.30175    0.275
 4780.00    1.10795   1.31236    0.273
 4781.00    1.05719   1.31642    0.271
 4782.00    1.02852   1.31582    0.267
 4783.00    1.00644   1.30992    0.264
 4784.00    1.01247   1.29790    0.265
 4785.00    1.02970   1.28306    0.267
 4786.00    1.08631   1.26824    0.270
 4787.00    1.13637   1.25334    0.274
 4788.00    1.16710   1.24007    0.278
 4789.00    1.19528   1.23191    0.282
 4790.00    1.21702   1.22736    0.287
 4791.00    1.23677   1.22358    0.289
 4792.00    1.25218   1.22370    0.285
 4793.00    1.26936   1.22923    0.283
 4794.00    1.28985   1.23900    0.282
 4795.00    1.30389   1.25522    0.282
 4796.00    1.30733   1.27824    0.284
 4797.00    1.31017   1.30355    0.285
 4798.00    1.31214   1.32539    0.286
 4799.00    1.31607   1.33729    0.287
 4800.00    1.32249   1.33435    0.289
 4801.00    1.30956   1.31828    0.289
 4802.00    1.27500   1.29738    0.287
 4803.00    1.27244   1.28103    0.285
 4804.00    1.30142   1.27532    0.285
 4805.00    1.31669   1.28053    0.285
 4806.00    1.32007   1.29062    0.287
 4807.00    1.30998   1.29695    0.289
 4808.00    1.28959   1.29357    0.290
 4809.00    1.28196   1.28105    0.287
 4810.00    1.28291   1.26589    0.282
 4811.00    1.27928   1.25521    0.280
 4812.00    1.27296   1.25090    0.280
 4813.00    1.29062   1.25243    0.283
 4814.00    1.32061   1.25888    0.288
 4815.00    1.33326   1.26731    0.288
 4816.00    1.33817   1.27491    0.286
 4817.00    1.33602   1.28187    0.289
 4818.00    1.33116   1.28992    0.293
 4819.00    1.33218   1.30006    0.289
 4820.00    1.33511   1.31187    0.283
 4821.00    1.34248   1.32375    0.284
 4822.00    1.35105   1.33285    0.287
 4823.00    1.35001   1.33566    0.288
 4824.00    1.34682   1.32895    0.287
 4825.00    1.32097   1.31165    0.288
 4826.00    1.29108   1.28777    0.288
 4827.00    1.30108   1.26446    0.287
 4828.00    1.31651   1.24833    0.287
 4829.00    1.31404   1.24447    0.289
 4830.00    1.30984   1.25119    0.292
 4831.00    1.31169   1.25968    0.288
 4832.00    1.31390   1.26266    0.283
 4833.00    1.31400   1.25901    0.284
 4834.00    1.31397   1.25228    0.284
 4835.00    1.29838   1.24663    0.285
 4836.00    1.28344   1.24364    0.286
 4837.00    1.28518   1.24463    0.287
 4838.00    1.28524   1.25062    0.288
 4839.00    1.26228   1.25809    0.287
 4840.00    1.24144   1.26086    0.287
 4841.00    1.23976   1.25638    0.285
 4842.00    1.24112   1.24674    0.283
 4843.00    1.26254   1.23474    0.281
 4844.00    1.28093   1.22315    0.280
 4845.00    1.28360   1.21605    0.284
 4846.00    1.28940   1.21622    0.287
 4847.00    1.30820   1.22196    0.287
 4848.00    1.32319   1.22945    0.000
 4849.00    1.32507   1.23595    0.000
 4850.00    1.32401   1.23838    0.000
 4851.00    1.31442   1.23428    0.000
 4852.00    1.29883   1.22518    0.000
 4853.00    1.26837   1.21582    0.000
 4854.00    1.24976   1.21031    0.000
 4855.00    1.25641   1.20693    0.000
 4856.00    1.26104   1.19791    0.000
 4857.00    1.26192   1.17865    0.000
 4858.00    1.25841   1.15198    0.000
 4859.00    1.24779   1.12251    0.000
 4860.00    1.24453   1.09337    0.000
 4861.00    1.25170   1.06526    0.000
 4862.00    1.25408   1.03383    0.000
 4863.00    1.25047   0.99466    0.000
 4864.00    1.25372   0.95290    0.000
 4865.00    1.26454   0.92177    0.000
 4866.00    1.27562   0.91391    0.000
 4867.00    1.28695   0.93436    0.000
 4868.00    1.28777   0.97538    0.000
 4869.00    1.27961   1.02156    0.000
 4870.00    1.27780   1.06182    0.000
 4871.00    1.28078   1.09085    0.000
 4872.00    1.27550   1.10448    0.000
 4873.00    1.26474   1.10225    0.000
 4874.00    1.26092   1.09007    0.000
 4875.00    1.26113   1.07611    0.286
 4876.00    1.26796   1.06833    0.285
 4877.00    1.27814   1.07395    0.283
 4878.00    1.27606   1.09380    0.282
 4879.00    1.26861   1.12034    0.281
 4880.00    1.26674   1.14668    0.284
 4881.00    1.26698   1.17138    0.289
 4882.00    1.28371   1.19310    0.290
 4883.00    1.30571   1.20868    0.291
 4884.00    1.31385   1.21628    0.293
 4885.00    1.31830   1.21463    0.295
 4886.00    1.28965   1.20337    0.293
 4887.00    1.25378   1.18662    0.289
 4888.00    1.26493   1.16972    0.292
 4889.00    1.28423   1.15419    0.296
 4890.00    1.30631   1.14033    0.295
 4891.00    1.32875   1.12928    0.294
 4892.00    1.32662   1.12073    0.293
 4893.00    1.32221   1.11390    0.292
 4894.00    1.33586   1.11133    0.291
 4895.00    1.35055   1.11875    0.290
 4896.00    1.31487   1.14212    0.292
 4897.00    1.27848   1.18301    0.294
 4898.00    1.28999   1.23345    0.295
 4899.00    1.29956   1.27853    0.296
 4900.00    1.26292   1.30723    0.292
 4901.00    1.23077   1.31674    0.289
 4902.00    1.25658   1.31057    0.290
 4903.00    1.27938   1.29554    0.292
 4904.00    1.27607   1.27753    0.291
 4905.00    1.27529   1.26139    0.290
 4906.00    1.29071   1.25201    0.289
 4907.00    1.30274   1.25111    0.289
 4908.00    1.29768   1.25603    0.291
 4909.00    1.28871   1.26343    0.292
 4910.00    1.26386   1.26898    0.291
 4911.00    1.25016   1.26605    0.290
 4912.00    1.27409   1.25084    0.289
 4913.00    1.28765   1.22777    0.289
 4914.00    1.27169   1.20701    0.293
 4915.00    1.25983   1.19737    0.294
 4916.00    1.25796   1.20245    0.290
 4917.00    1.25841   1.21923    0.288
 4918.00    1.26373   1.23780    0.290
 4919.00    1.26688   1.24600    0.290
 4920.00    1.26606   1.23549    0.285
 4921.00    1.26389   1.20426    0.283
 4922.00    1.25958   1.15790    0.288
 4923.00    1.25529   1.10975    0.290
 4924.00    1.25105   1.07512    0.290
 4925.00    1.25946   1.06326    0.290
 4926.00    1.28344   1.07396    0.290
 4927.00    1.29075   1.10019    0.288
 4928.00    1.27996   1.13281    0.285
 4929.00    1.26874   1.16557    0.282
 4930.00    1.25710   1.19847    0.280
 4931.00    1.25113   1.23257    0.279
 4932.00    1.24997   1.26366    0.280
 4933.00    1.25069   1.28520    0.280
 4934.00    1.25282   1.29342    0.279
 4935.00    1.24378   1.28736    0.277
 4936.00    1.22744   1.26946    0.273
 4937.00    1.22358   1.24623    0.276
 4938.00    1.22683   1.22272    0.283
 4939.00    1.24088   1.20098    0.283
 4940.00    1.26029   1.18259    0.000
 4941.00    1.28147   1.16766    0.000
 4942.00    1.30341   1.15683    0.000
 4943.00    1.29504   1.15551    0.000
 4944.00    1.27548   1.16966    0.000
 4945.00    1.27003   1.19883    0.000
 4946.00    1.26898   1.23402    0.000
 4947.00    1.28653   1.26282    0.000
 4948.00    1.30893   1.27927    0.000
 4949.00    1.30788   1.28646    0.000
 4950.00    1.30185   1.28921    0.000
 4951.00    1.28746   1.29127    0.000
 4952.00    1.27167   1.29614    0.000
 4953.00    1.26535   1.30369    0.000
 4954.00    1.26024   1.30917    0.000
 4955.00    1.25899   1.30897    0.000
 4956.00    1.25807   1.30220    0.000
 4957.00    1.25514   1.28752    0.000
 4958.00    1.25211   1.26226    0.000
 4959.00    1.25195   1.22748    0.000
 4960.00    1.25189   1.19112    0.000
 4961.00    1.25606   1.16346    0.000
 4962.00    1.26039   1.15245    0.000
 4963.00    1.26833   1.16202    0.000
 4964.00    1.27738   1.19039    0.000
 4965.00    1.30000   1.22481    0.000
 4966.00    1.31752   1.24797    0.000
 4967.00    1.29235   1.25301    0.000
 4968.00    1.26998   1.24404    0.000
 4969.00    1.26513   1.22796    0.000
 4970.00    1.26305   1.21025    0.000
 4971.00    1.27461   1.19647    0.000
 4972.00    1.28559   1.19153    0.000
 4973.00    1.29421   1.19621    0.000
 4974.00    1.29668   1.20778    0.000
 4975.00    1.27877   1.22349    0.000
 4976.00    1.26851   1.24053    0.000
 4977.00    1.27968   1.25561    0.000
 4978.00    1.28394   1.26526    0.000
 4979.00    1.27173   1.26629    0.000
 4980.00    1.25695   1.25764    0.000
 4981.00    1.23687   1.24026    0.000
 4982.00    1.22194   1.21620    0.000
 4983.00    1.21628   1.18687    0.000
 4984.00    1.21570   1.15322    0.000
 4985.00    1.22311   1.11878    0.000
 4986.00    1.23574   1.08876    0.000
 4987.00    1.25555   1.06862    0.000
 4988.00    1.26381   1.06437    0.000
 4989.00    1.25806   1.07931    0.000
 4990.00    1.25525   1.10856    0.000
 4991.00    1.25557   1.14131    0.000
 4992.00    1.25971   1.16814    0.000
 4993.00    1.26743   1.18458    0.000
 4994.00    1.26786   1.19064    0.000
 4995.00    1.26221   1.18993    0.000
 4996.00    1.25344   1.18781    0.000
 4997.00    1.24238   1.18831    0.000
 4998.00    1.23720   1.19192    0.000
 4999.00    1.23581   1.19588    0.000
 5000.00    1.23651   1.19694    0.000
 5001.00    1.23838   1.19245    0.000
 5002.00    1.24141   1.18030    0.000
 5003.00    1.24500   1.16148    0.000
 5004.00    1.24636   1.14027    0.000
 5005.00    1.24677   1.12102    0.000
 5006.00    1.25223   1.10584    0.000
 5007.00    1.25952   1.09365    0.000
 5008.00    1.26405   1.08286    0.000
 5009.00    1.26772   1.07501    0.000
 5010.00    1.27132   1.07366    0.000
 5011.00    1.27489   1.08083    0.000
 5012.00    1.26579   1.09522    0.000
 5013.00    1.25406   1.11063    0.000
 5014.00    1.23685   1.11725    0.000
 5015.00    1.21873   1.10894    0.000
 5016.00    1.22928   1.08864    0.000
 5017.00    1.24336   1.06580    0.000
 5018.00    1.25096   1.04890    0.000
 5019.00    1.25802   1.04146    0.000
 5020.00    1.24444   1.04272    0.000
 5021.00    1.22985   1.04963    0.000
 5022.00    1.22865   1.05837    0.000
 5023.00    1.22764   1.06625    0.000
 5024.00    1.22488   1.07367    0.000
 5025.00    1.22241   1.08281    0.000
 5026.00    1.22572   1.09388    0.000
 5027.00    1.22856   1.10528    0.000
 5028.00    1.22591   1.11579    0.000
 5029.00    1.22464   1.12423    0.282
 5030.00    1.23454   1.13005    0.277
 5031.00    1.24268   1.13406    0.273
 5032.00    1.24010   1.13890    0.274
 5033.00    1.24110   1.14817    0.275
 5034.00    1.25925   1.16382    0.276
 5035.00    1.27084   1.18331    0.277
 5036.00    1.25689   1.19948    0.277
 5037.00    1.24373   1.20531    0.276
 5038.00    1.23312   1.19859    0.275
 5039.00    1.22522   1.18115    0.274
 5040.00    1.22474   1.15580    0.270
 5041.00    1.22546   1.12571    0.269
 5042.00    1.22897   1.09432    0.273
 5043.00    1.23024   1.06523    0.275
 5044.00    1.22699   1.04367    0.271
 5045.00    1.22439   1.03603    0.270
 5046.00    1.22294   1.04804    0.271
 5047.00    1.22276   1.08038    0.272
 5048.00    1.22457   1.12490    0.271
 5049.00    1.22345   1.16651    0.270
 5050.00    1.21835   1.19086    0.270
 5051.00    1.21274   1.19299    0.270
 5052.00    1.20651   1.17766    0.271
 5053.00    1.21134   1.15402    0.271
 5054.00    1.22782   1.13248    0.272
 5055.00    1.23437   1.12203    0.272
 5056.00    1.23168   1.12605    0.271
 5057.00    1.22641   1.14157    0.271
 5058.00    1.21903   1.16266    0.273
 5059.00    1.21878   1.18435    0.272
 5060.00    1.22368   1.20333    0.269
 5061.00    1.23414   1.21780    0.270
 5062.00    1.24813   1.22843    0.274
 5063.00    1.24146   1.23688    0.272
 5064.00    1.22333   1.24286    0.266
 5065.00    1.21467   1.24315    0.268
 5066.00    1.21056   1.23388    0.273
 5067.00    1.21786   1.21474    0.277
 5068.00    1.22991   1.18968    0.280
 5069.00    1.23584   1.16398    0.282
 5070.00    1.23961   1.14334    0.284
 5071.00    1.22571   1.13217    0.283
 5072.00    1.20650   1.13094    0.281
 5073.00    1.21689   1.13501    0.280
 5074.00    1.23468   1.13877    0.280
 5075.00    1.24066   1.14087    0.282
 5076.00    1.24424   1.14191    0.284
 5077.00    1.22535   1.14170    0.282
 5078.00    1.20289   1.14055    0.280
 5079.00    1.18419   1.13905    0.277
 5080.00    1.16593   1.13477    0.274
 5081.00    1.15612   1.12282    0.273
 5082.00    1.14699   1.10261    0.272
 5083.00    1.12579   1.07951    0.269
 5084.00    1.10406   1.06001    0.265
 5085.00    1.11657   1.04916    0.265
 5086.00    1.12889   1.05057    0.264
 5087.00    1.11156   1.06451    0.263
 5088.00    1.09592   1.08582    0.262
 5089.00    1.11186   1.10751    0.263
 5090.00    1.12890   1.12620    0.263
 5091.00    1.15825   1.14171    0.265
 5092.00    1.18575   1.15415    0.267
 5093.00    1.19880   1.16403    0.270
 5094.00    1.21136   1.17327    0.274
 5095.00    1.22093   1.18304    0.277
 5096.00    1.22089   1.19180    0.280
 5097.00    1.17601   1.19624    0.274
 5098.00    1.13887   1.19310    0.269
 5099.00    1.13121   1.18020    0.268
 5100.00    1.12328   1.15748    0.266
 5101.00    1.11452   1.12914    0.263
 5102.00    1.11058   1.10363    0.261
 5103.00    1.11968   1.08887    0.263
 5104.00    1.13588   1.08792    0.265
 5105.00    1.16852   1.09828    0.266
 5106.00    1.19708   1.11361    0.268
 5107.00    1.21748   1.12679    0.272
 5108.00    1.22278   1.13211    0.273
 5109.00    1.20176   1.12789    0.268
 5110.00    1.18797   1.11732    0.265
 5111.00    1.18518   1.10493    0.263
 5112.00    1.18936   1.09433    0.264
 5113.00    1.20286   1.08901    0.269
 5114.00    1.20730   1.09115    0.272
 5115.00    1.20106   1.10079    0.273
 5116.00    1.19650   1.11614    0.273
 5117.00    1.19369   1.13393    0.272
 5118.00    1.19444   1.15179    0.273
 5119.00    1.19846   1.16804    0.275
 5120.00    1.20088   1.18109    0.272
 5121.00    1.20200   1.18975    0.265
 5122.00    1.19112   1.19217    0.264
 5123.00    1.17170   1.18634    0.265
 5124.00    1.16102   1.17134    0.267
 5125.00    1.15580   1.14774    0.269
 5126.00    1.16779   1.11920    0.269
 5127.00    1.18918   1.09144    0.268
 5128.00    1.19603   1.06912    0.269
 5129.00    1.19598   1.05460    0.269
 5130.00    1.19880   1.04768    0.270
 5131.00    1.20279   1.04686    0.270
 5132.00    1.20650   1.05042    0.268
 5133.00    1.21010   1.05728    0.266
 5134.00    1.20081   1.06694    0.266
 5135.00    1.18771   1.07910    0.266
 5136.00    1.19663   1.09315    0.268
 5137.00    1.21094   1.10742    0.270
 5138.00    1.20535   1.11836    0.269
 5139.00    1.19584   1.12262    0.268
 5140.00    1.19281   1.11894    0.271
 5141.00    1.19078   1.10829    0.276
 5142.00    1.17981   1.09484    0.273
 5143.00    1.16782   1.08244    0.269
 5144.00    1.16612   1.07270    0.270
 5145.00    1.16522   1.06722    0.271
 5146.00    1.17084   1.06577    0.273
 5147.00    1.17674   1.06581    0.275
 5148.00    1.16528   1.06532    0.272
 5149.00    1.15423   1.06367    0.269
 5150.00    1.16628   1.06178    0.271
 5151.00    1.17824   1.06091    0.272
 5152.00    1.18850   1.06062    0.273
 5153.00    1.19709   1.06024    0.274
 5154.00    1.18792   1.05955    0.274
 5155.00    1.18102   1.05787    0.275
 5156.00    1.19115   1.05576    0.273
 5157.00    1.19974   1.05607    0.272
 5158.00    1.19943   1.06215    0.274
 5159.00    1.19854   1.07579    0.276
 5160.00    1.19495   1.09541    0.274
 5161.00    1.19325   1.11658    0.272
 5162.00    1.19859   1.13475    0.276
 5163.00    1.19760   1.14574    0.278
 5164.00    1.17684   1.14676    0.277
 5165.00    1.15979   1.13769    0.276
 5166.00    1.15255   1.11867    0.277
 5167.00    1.14645   1.08864    0.278
 5168.00    1.14293   1.04676    0.278
 5169.00    1.14117   0.99469    0.278
 5170.00    1.14285   0.93943    0.280
 5171.00    1.15142   0.89163    0.281
 5172.00    1.17181   0.85935    0.283
 5173.00    1.17152   0.84297    0.280
 5174.00    1.14012   0.83723    0.272
 5175.00    1.13422   0.83800    0.267
 5176.00    1.16198   0.84596    0.265
 5177.00    1.16654   0.86459    0.264
 5178.00    1.14411   0.89659    0.262
 5179.00    1.11713   0.94051    0.261
 5180.00    1.08549   0.98901    0.259
 5181.00    1.07678   1.03095    0.257
 5182.00    1.08881   1.05632    0.257
 5183.00    1.09325   1.05974    0.257
 5184.00    1.09164   1.04043    0.256
 5185.00    1.10230   1.00229    0.258
 5186.00    1.12156   0.95581    0.261
 5187.00    1.14006   0.91677    0.264
 5188.00    1.15810   0.89924    0.267
 5189.00    1.16515   0.90937    0.268
 5190.00    1.16630   0.94270    0.000
 5191.00    1.17992   0.98735    0.000
 5192.00    1.19936   1.02933    0.000
 5193.00    1.19350   1.05614    0.000
 5194.00    1.17747   1.06284    0.000
 5195.00    1.17380   1.05464    0.000
 5196.00    1.17438   1.04043    0.000
 5197.00    1.17017   1.02810    0.000
 5198.00    1.16458   1.02329    0.000
 5199.00    1.16622   1.02797    0.000
 5200.00    1.16959   1.04113    0.000
 5201.00    1.18788   1.05999    0.000
 5202.00    1.20904   1.08014    0.000
 5203.00    1.19938   1.09737    0.000
 5204.00    1.18512   1.10850    0.000
 5205.00    1.18884   1.11046    0.000
 5206.00    1.19454   1.10047    0.000
 5207.00    1.17436   1.07830    0.000
 5208.00    1.15231   1.04778    0.000
 5209.00    1.16280   1.01502    0.000
 5210.00    1.17451   0.98609    0.000
 5211.00    1.18918   0.96701    0.266
 5212.00    1.20327   0.96214    0.267
 5213.00    1.19574   0.97281    0.267
 5214.00    1.18855   0.99743    0.268
 5215.00    1.18698   1.03061    0.269
 5216.00    1.18514   1.06409    0.270
 5217.00    1.18064   1.08988    0.268
 5218.00    1.17644   1.10359    0.266
 5219.00    1.17435   1.10665    0.271
 5220.00    1.17611   1.10555    0.274
 5221.00    1.19930   1.10748    0.272
 5222.00    1.21282   1.11619    0.270
 5223.00    1.18335   1.13049    0.270
 5224.00    1.16475   1.14492    0.271
 5225.00    1.18586   1.15211    0.274
 5226.00    1.20048   1.14605    0.276
 5227.00    1.19526   1.12440    0.274
 5228.00    1.18484   1.08965    0.273
 5229.00    1.16088   1.04997    0.273
 5230.00    1.15143   1.01770    0.273
 5231.00    1.17444   1.00329    0.272
 5232.00    1.18963   1.01002    0.269
 5233.00    1.18969   1.03320    0.265
 5234.00    1.18762   1.06150    0.262
 5235.00    1.18195   1.08333    0.263
 5236.00    1.18127   1.09373    0.263
 5237.00    1.18795   1.09527    0.260
 5238.00    1.18678   1.09549    0.259
 5239.00    1.17538   1.10172    0.260
 5240.00    1.17176   1.11609    0.260
 5241.00    1.17705   1.13554    0.259
 5242.00    1.18427   1.15495    0.258
 5243.00    1.19345   1.17010    0.258
 5244.00    1.18568   1.17923    0.257
 5245.00    1.16279   1.18330    0.257
 5246.00    1.16177   1.18471    0.257
 5247.00    1.17796   1.18455    0.258
 5248.00    1.19289   1.18094    0.260
 5249.00    1.20695   1.17134    0.263
 5250.00    1.21311   1.15571    0.261
 5251.00    1.21448   1.13625    0.258
 5252.00    1.20367   1.11616    0.258
 5253.00    1.18641   1.09956    0.259
 5254.00    1.18322   1.08980    0.259
 5255.00    1.18648   1.08744    0.259
 5256.00    1.19312   1.09052    0.258
 5257.00    1.20109   1.09660    0.258
 5258.00    1.19231   1.10520    0.258
 5259.00    1.17789   1.11765    0.257
 5260.00    1.18748   1.13435    0.257
 5261.00    1.20387   1.15288    0.258
 5262.00    1.19907   1.16762    0.262
 5263.00    1.18932   1.17136    0.267
 5264.00    1.16864   1.15851    0.270
 5265.00    1.14591   1.12805    0.273
 5266.00    1.13950   1.08422    0.272
 5267.00    1.13544   1.03499    0.270
 5268.00    1.12690   0.98952    0.273
 5269.00    1.11790   0.95532    0.277
 5270.00    1.13740   0.93451    0.274
 5271.00    1.15885   0.92295    0.271
 5272.00    1.15432   0.91647    0.271
 5273.00    1.14892   0.91558    0.272
 5274.00    1.16535   0.92321    0.272
 5275.00    1.18164   0.94099    0.271
 5276.00    1.19247   0.96736    0.271
 5277.00    1.20156   0.99737    0.270
 5278.00    1.18412   1.02629    0.268
 5279.00    1.16883   1.05348    0.266
 5280.00    1.17460   1.08012    0.263
 5281.00    1.18050   1.10562    0.262
 5282.00    1.18727   1.12693    0.266
 5283.00    1.19258   1.13962    0.269
 5284.00    1.18998   1.14062    0.266
 5285.00    1.18452   1.13133    0.263
 5286.00    1.16660   1.11801    0.261
 5287.00    1.15942   1.10974    0.261
 5288.00    1.19067   1.11385    0.264
 5289.00    1.21178   1.13140    0.266
 5290.00    1.20244   1.15755    0.267
 5291.00    1.19921   1.18518    0.266
 5292.00    1.21158   1.20841    0.266
 5293.00    1.21601   1.22427    0.265
 5294.00    1.20297   1.23233    0.265
 5295.00    1.19165   1.23324    0.264
 5296.00    1.18363   1.22792    0.261
 5297.00    1.17428   1.21666    0.258
 5298.00    1.16271   1.19866    0.257
 5299.00    1.16461   1.17336    0.257
 5300.00    1.18616   1.14322    0.256
 5301.00    1.20105   1.11450    0.255
 5302.00    1.20740   1.09418    0.254
 5303.00    1.21034   1.08607    0.253
 5304.00    1.20944   1.09020    0.250
 5305.00    1.20445   1.10446    0.249
 5306.00    1.19538   1.12558    0.250
 5307.00    1.19626   1.14999    0.249
 5308.00    1.20590   1.17394    0.248
 5309.00    1.20814   1.19398    0.247
 5310.00    1.20465   1.20824    0.247
 5311.00    1.20091   1.21737    0.246
 5312.00    1.19700   1.22330    0.245
 5313.00    1.19347   1.22755    0.245
 5314.00    1.19016   1.23041    0.246
 5315.00    1.17585   1.23089    0.247
 5316.00    1.15579   1.22780    0.247
 5317.00    1.15381   1.22085    0.246
 5318.00    1.15999   1.21062    0.243
 5319.00    1.15055   1.19875    0.241
 5320.00    1.13505   1.18786    0.240
 5321.00    1.13451   1.18004    0.240
 5322.00    1.13892   1.17567    0.241
 5323.00    1.14641   1.17373    0.244
 5324.00    1.15476   1.17178    0.248
 5325.00    1.14616   1.16656    0.250
 5326.00    1.13370   1.15550    0.251
 5327.00    1.13201   1.13840    0.251
 5328.00    1.13230   1.11671    0.250
 5329.00    1.14305   1.09083    0.254
 5330.00    1.15527   1.06093    0.259
 5331.00    1.15650   1.03119    0.255
 5332.00    1.15661   1.01035    0.251
 5333.00    1.14394   1.00602    0.250
 5334.00    1.13045   1.02010    0.249
 5335.00    1.11733   1.04840    0.248
 5336.00    1.10432   1.08312    0.247
 5337.00    1.13252   1.11645    0.247
 5338.00    1.15954   1.14289    0.248
 5339.00    1.15311   1.15999    0.249
 5340.00    1.14785   1.16747    0.249
 5341.00    1.15947   1.16552    0.252
 5342.00    1.16949   1.15475    0.255
 5343.00    1.16457   1.13838    0.253
 5344.00    1.16013   1.12304    0.252
 5345.00    1.15895   1.11486    0.248
 5346.00    1.15829   1.11589    0.245
 5347.00    1.16037   1.12379    0.248
 5348.00    1.16252   1.13334    0.250
 5349.00    1.16501   1.13982    0.250
 5350.00    1.16990   1.14125    0.250
 5351.00    1.18320   1.13836    0.253
 5352.00    1.19380   1.13468    0.254
 5353.00    1.19643   1.13503    0.250
 5354.00    1.19713   1.14233    0.247
 5355.00    1.19297   1.15642    0.247
 5356.00    1.18924   1.17538    0.247
 5357.00    1.18642   1.19674    0.245
 5358.00    1.17761   1.21768    0.244
 5359.00    1.15752   1.23579    0.242
 5360.00    1.15168   1.24971    0.241
 5361.00    1.16921   1.25850    0.242
 5362.00    1.17615   1.26141    0.241
 5363.00    1.16787   1.25787    0.239
 5364.00    1.16781   1.24784    0.238
 5365.00    1.17815   1.23251    0.239
 5366.00    1.17390   1.21420    0.239
 5367.00    1.15339   1.19514    0.239
 5368.00    1.14064   1.17728   -2.000
 5369.00    1.13552   1.16193   -2.000
 5370.00    1.14146   1.14849   -2.000
 5371.00    1.15699   1.13490   -2.000
 5372.00    1.16805   1.11874   -2.000
 5373.00    1.17568   1.09966   -2.000
 5374.00    1.17672   1.08194   -2.000
 5375.00    1.17332   1.07320   -2.000
 5376.00    1.17243   1.07920   -2.000
 5377.00    1.17300   1.09986   -2.000
 5378.00    1.16734   1.12958   -2.000
 5379.00    1.15848   1.15960   -2.000
 5380.00    1.15560   1.18281   -2.000
 5381.00    1.15537   1.19654   -2.000
 5382.00    1.16035   1.20142   -2.000
 5383.00    1.16733   1.19954    0.246
 5384.00    1.17339   1.19362    0.246
 5385.00    1.17914   1.18594    0.245
 5386.00    1.16395   1.17858    0.245
 5387.00    1.14307   1.17406    0.245
 5388.00    1.12912   1.17348    0.243
 5389.00    1.11672   1.17551    0.241
 5390.00    1.12421   1.17755    0.241
 5391.00    1.13524   1.17660    0.242
 5392.00    1.13690   1.17047    0.243
 5393.00    1.13728   1.15933    0.243
 5394.00    1.13371   1.14540    0.244
 5395.00    1.12976   1.13132    0.245
 5396.00    1.13486   1.11892    0.245
 5397.00    1.14050   1.10860    0.245
 5398.00    1.14152   1.09914    0.244
 5399.00    1.14241   1.08879    0.244
 5400.00    1.14297   1.07834    0.244
 5401.00    1.14329   1.07194    0.244
 5402.00    1.13745   1.07245    0.243
 5403.00    1.13167   1.07925    0.243
 5404.00    1.12659   1.08945    0.241
 5405.00    1.12254   1.09774    0.240
 5406.00    1.12760   1.09771    0.241
 5407.00    1.13162   1.08618    0.241
 5408.00    1.12875   1.06599    0.238
 5409.00    1.12769   1.04453    0.236
 5410.00    1.13590   1.02961    0.235
 5411.00    1.14109   1.02473    0.234
 5412.00    1.13378   1.02860    0.233
 5413.00    1.12812   1.03868    0.233
 5414.00    1.12816   1.05362    0.233
 5415.00    1.12639   1.07217    0.232
 5416.00    1.11940   1.09248    0.229
 5417.00    1.11578   1.11251    0.227
 5418.00    1.12051   1.13082    0.227
 5419.00    1.12646   1.14686    0.227
 5420.00    1.13500   1.15993    0.227
 5421.00    1.14326   1.16896    0.227
 5422.00    1.15102   1.17302    0.228
 5423.00    1.15549   1.17190    0.229
 5424.00    1.15464   1.16688    0.232
 5425.00    1.15009   1.16005    0.233
 5426.00    1.14028   1.15248    0.233
 5427.00    1.13693   1.14552    0.232
 5428.00    1.14163   1.14193    0.232
 5429.00    1.14916   1.14274    0.232
 5430.00    1.15980   1.14557    0.234
 5431.00    1.16623   1.14548    0.235
 5432.00    1.16855   1.13836    0.234
 5433.00    1.17059   1.12552    0.234
 5434.00    1.17237   1.11137    0.233
 5435.00    1.17041   1.09836    0.233
 5436.00    1.16564   1.08767    0.232
 5437.00    1.16356   1.07989    0.232
 5438.00    1.16326   1.07581    0.233
 5439.00    1.16412   1.07768    0.235
 5440.00    1.16566   1.08815    0.237
 5441.00    1.15441   1.10817    0.236
 5442.00    1.13670   1.13507    0.233
 5443.00    1.14331   1.16356    0.232
 5444.00    1.16055   1.18795    0.232
 5445.00    1.16540   1.20381    0.233
 5446.00    1.16560   1.20851    0.235
 5447.00    1.16391   1.20074    0.237
 5448.00    1.16163   1.18117    0.238
 5449.00    1.15625   1.15364    0.238
 5450.00    1.15004   1.12606    0.237
 5451.00    1.14599   1.10781    0.234
 5452.00    1.14240   1.10383    0.229
 5453.00    1.13171   1.11253    0.229
 5454.00    1.11980   1.12732    0.229
 5455.00    1.13273   1.13978    0.232
 5456.00    1.14893   1.14334    0.236
 5457.00    1.14490   1.13584    0.233
 5458.00    1.13901   1.12047    0.230
 5459.00    1.14449   1.10528    0.229
 5460.00    1.15060   1.09852    0.228
 5461.00    1.16021   1.10319    0.228
 5462.00    1.16974   1.11605    0.229
 5463.00    1.16289   1.13000    0.229
 5464.00    1.15604   1.13822    0.228
 5465.00    1.14940   1.13754    0.225
 5466.00    1.14331   1.12991    0.223
 5467.00    1.14440   1.12136    0.222
 5468.00    1.14548   1.11716    0.222
 5469.00    1.14656   1.11870    0.223
 5470.00    1.14769   1.12465    0.223
 5471.00    1.14911   1.13218    0.223
 5472.00    1.14889   1.13787    0.223
 5473.00    1.14042   1.13944    0.224
 5474.00    1.13431   1.13670    0.226
 5475.00    1.13774   1.13024    0.228
 5476.00    1.14138   1.12028    0.231
 5477.00    1.14568   1.10748    0.232
 5478.00    1.14755   1.09260   -2.000
 5479.00    1.14250   1.07635   -2.000
 5480.00    1.13735   1.06171   -2.000
 5481.00    1.13196   1.05355   -2.000
 5482.00    1.13097   1.05390   -2.000
 5483.00    1.13919   1.06024   -2.000
 5484.00    1.14799   1.06855   -2.000
 5485.00    1.15785   1.07690   -2.000
 5486.00    1.15425   1.08582   -2.000
 5487.00    1.12924   1.09649   -2.000
 5488.00    1.12186   1.10874   -2.000
 5489.00    1.13910   1.11974   -2.000
 5490.00    1.13458   1.12604   -2.000
 5491.00    1.10331   1.12689   -2.000
 5492.00    1.09114   1.12474   -2.000
 5493.00    1.09968   1.12259   -2.000
 5494.00    1.11549   1.12245   -2.000
 5495.00    1.13827   1.12446   -2.000
 5496.00    1.14486   1.12686   -2.000
 5497.00    1.13781   1.12816   -2.000
 5498.00    1.13055   1.12831   -2.000
 5499.00    1.12315   1.12749   -2.000
 5500.00    1.11506   1.12596   -2.000
 5501.00    1.10652   1.12493   -2.000
 5502.00    1.10603   1.12550    0.221
 5503.00    1.11011   1.12644    0.222
 5504.00    1.11908   1.12522    0.223
 5505.00    1.13048   1.12080    0.225
 5506.00    1.13290   1.11425    0.224
 5507.00    1.13146   1.10727    0.223
 5508.00    1.12576   1.10095    0.224
 5509.00    1.11851   1.09569    0.225
 5510.00    1.11576   1.09220    0.225
 5511.00    1.11441   1.09154    0.224
 5512.00    1.10753   1.09313    0.220
 5513.00    1.09920   1.09472    0.215
 5514.00    1.09846   1.09393    0.216
 5515.00    1.09933   1.08948    0.218
 5516.00    1.10319   1.08254    0.218
 5517.00    1.10755   1.07663    0.218
 5518.00    1.11029   1.07529    0.221
 5519.00    1.11283   1.08035    0.225
 5520.00    1.12340   1.09164    0.222
 5521.00    1.13468   1.10732    0.220
 5522.00    1.12834   1.12443    0.220
 5523.00    1.12107   1.13947    0.221
 5524.00    1.11884   1.15003    0.219
 5525.00    1.11676   1.15542    0.216
 5526.00    1.11825   1.15599    0.218
 5527.00    1.11974   1.15222    0.220
 5528.00    1.12121   1.14425    0.222
 5529.00    1.12321   1.13220    0.223
 5530.00    1.13156   1.11710    0.224
 5531.00    1.13881   1.10159    0.224
 5532.00    1.13690   1.09008    0.223
 5533.00    1.13372   1.08653    0.223
 5534.00    1.12260   1.09116    0.224
 5535.00    1.11509   1.10029    0.224
 5536.00    1.12522   1.10927    0.223
 5537.00    1.13306   1.11482    0.222
 5538.00    1.13182   1.11622    0.223
 5539.00    1.12788   1.11544    0.253
 5540.00    1.11503   1.11555    0.597
 5541.00    1.10869   1.11826   -1.000
 5542.00    1.12056   1.12382   -1.000
 5543.00    1.12875   1.13153   -1.000
 5544.00    1.12814   1.13941   -1.000
 5545.00    1.12727   1.14491   -1.000
 5546.00    1.12583   1.14631   -1.000
 5547.00    1.12211   1.14397    1.292
 5548.00    1.11430   1.14022    0.341
 5549.00    1.11410   1.13762    0.233
 5550.00    1.12585   1.13812    0.228
 5551.00    1.13358   1.14292    0.224
 5552.00    1.13579   1.15123    0.222
 5553.00    1.13189   1.16032    0.220
 5554.00    1.12060   1.16732    0.217
 5555.00    1.11565   1.17014    0.216
 5556.00    1.11747   1.16801    0.216
 5557.00    1.11981   1.16191    0.216
 5558.00    1.12265   1.15422    0.217
 5559.00    1.11931   1.14755    0.216
 5560.00    1.11082   1.14317    0.214
 5561.00    1.10952   1.14075    0.213
 5562.00    1.11348   1.13937    0.213
 5563.00    1.11333   1.13802    0.213
 5564.00    1.11055   1.13543    0.213
 5565.00    1.10802   1.13093    0.212
 5566.00    1.10564   1.12464    0.210
 5567.00    1.10618   1.11754    0.210
 5568.00    1.10815   1.11081    0.211
 5569.00    1.10965   1.10478    0.213
 5570.00    1.11094   1.09969    0.215
 5571.00    1.10856   1.09617    0.216
 5572.00    1.10485   1.09422    0.217
 5573.00    1.09876   1.09344    0.215
 5574.00    1.09194   1.09396    0.213
 5575.00    1.09715   1.09548    0.214
 5576.00    1.10541   1.09677    0.215
 5577.00    1.10149   1.09849    0.216
 5578.00    1.09505   1.10235    0.218
 5579.00    1.10264   1.10788    0.217
 5580.00    1.11252   1.11400    0.216
 5581.00    1.11644   1.12031    0.218
 5582.00    1.11964   1.12575    0.220
 5583.00    1.11536   1.12948    0.219
 5584.00    1.11045   1.13127    0.219
 5585.00    1.10528   1.13039    0.219
 5586.00    1.10010   1.12618    0.220
 5587.00    1.09551   1.11830    0.220
 5588.00    1.09098   1.10580    0.219
 5589.00    1.08926   1.08803    0.217
 5590.00    1.08749   1.06613    0.215
 5591.00    1.08485   1.04365    0.217
 5592.00    1.08196   1.02568    0.220
 5593.00    1.07632   1.01629    0.219
 5594.00    1.07148   1.01682    0.218
 5595.00    1.07313   1.02527    0.219
 5596.00    1.07474   1.03767    0.220
 5597.00    1.07611   1.05062    0.217
 5598.00    1.07680   1.06256    0.215
 5599.00    1.07429   1.07342    0.217
 5600.00    1.07268   1.08249    0.219
 5601.00    1.07454   1.08710    0.218
 5602.00    1.07648   1.08529    0.217
 5603.00    1.07864   1.07803    0.214
 5604.00    1.08200   1.06820    0.211
 5605.00    1.08862   1.05932    0.210
 5606.00    1.09958   1.05543    0.209
 5607.00    1.12073   1.05992    0.210
 5608.00    1.13326   1.07388    0.211
 5609.00    1.12830   1.09488    0.212
 5610.00    1.12172   1.11799    0.212
 5611.00    1.11227   1.13826    0.209
 5612.00    1.10488   1.15264    0.209
 5613.00    1.10064   1.16060    0.211
 5614.00    1.09587   1.16312    0.213
 5615.00    1.09040   1.16101    0.213
 5616.00    1.08607   1.15378    0.213
 5617.00    1.08310   1.14013    0.214
 5618.00    1.07683   1.11986    0.214
 5619.00    1.06708   1.09628    0.214
 5620.00    1.06518   1.07615    0.213
 5621.00    1.07059   1.06545    0.212
 5622.00    1.07429   1.06497    0.211
 5623.00    1.07660   1.07126    0.212
 5624.00    1.07716   1.07993    0.213
 5625.00    1.07644   1.08720    0.213
 5626.00    1.07754   1.09020    0.213
 5627.00    1.07978   1.08754    0.211
 5628.00    1.08516   1.08041    0.211
 5629.00    1.09227   1.07301    0.211
 5630.00    1.09169   1.07051    0.212
 5631.00    1.08740   1.07550    0.214
 5632.00    1.08591   1.08700    0.212
 5633.00    1.08559   1.10208    0.209
 5634.00    1.09127   1.11701    0.207
 5635.00    1.09909   1.12824    0.207
 5636.00    1.09356   1.13358    0.206
 5637.00    1.08401   1.13263    0.206
 5638.00    1.08051   1.12635    0.203
 5639.00    1.07851   1.11667    0.200
 5640.00    1.08359   1.10583    0.201
 5641.00    1.09010   1.09586    0.204
 5642.00    1.08374   1.08824    0.202
 5643.00    1.07534   1.08361    0.201
 5644.00    1.07072   1.08133    0.201
 5645.00    1.06655   1.08032    0.201
 5646.00    1.07437   1.08048    0.200
 5647.00    1.08314   1.08257    0.198
 5648.00    1.09309   1.08675    0.200
 5649.00    1.10310   1.09237    0.203
 5650.00    1.09092   1.09848    0.204
 5651.00    1.07850   1.10392    0.205
 5652.00    1.06619   1.10789    0.205
 5653.00    1.05469   1.11023    0.206
 5654.00    1.05794   1.11150    0.207
 5655.00    1.06116   1.11246    0.208
 5656.00    1.06416   1.11292    0.210
 5657.00    1.06676   1.11140    0.211
 5658.00    1.06625   1.10619    0.211
 5659.00    1.06495   1.09671    0.211
 5660.00    1.05897   1.08404    0.209
 5661.00    1.05346   1.06994    0.207
 5662.00    1.05008   1.05587    0.208
 5663.00    1.04948   1.04443    0.209
 5664.00    1.05937   1.03929    0.210
 5665.00    1.06499   1.04115    0.210
 5666.00    1.05708   1.04732    0.205
 5667.00    1.05341   1.05570    0.202
 5668.00    1.06118   1.06556    0.203
 5669.00    1.06670   1.07561    0.204
 5670.00    1.06704   1.08361    0.204
 5671.00    1.06848   1.08819    0.205
 5672.00    1.07213   1.09001    0.205
 5673.00    1.07668   1.09153    0.206
 5674.00    1.08278   1.09515    0.208
 5675.00    1.08559   1.10193    0.209
 5676.00    1.08337   1.11145    0.208
 5677.00    1.08113   1.12219    0.207
 5678.00    1.07886   1.13189    0.207
 5679.00    1.07485   1.13859    0.206
 5680.00    1.06879   1.14168    0.205
 5681.00    1.06384   1.14179    0.204
 5682.00    1.06005   1.13926    0.203
 5683.00    1.06116   1.13389    0.203
 5684.00    1.06675   1.12586    0.204
 5685.00    1.06790   1.11602    0.203
 5686.00    1.06545   1.10540    0.201
 5687.00    1.06320   1.09533    0.199
 5688.00    1.06108   1.08746    0.198
 5689.00    1.06216   1.08257    0.199
 5690.00    1.06524   1.07986    0.200
 5691.00    1.06598   1.07839    0.200
 5692.00    1.06545   1.07860    0.199
 5693.00    1.06419   1.08200    0.200
 5694.00    1.06259   1.08951    0.203
 5695.00    1.06673   1.10023    0.205
 5696.00    1.07322   1.11173    0.208
 5697.00    1.07670   1.12145    0.209
 5698.00    1.07912   1.12751    0.210
 5699.00    1.07767   1.12910    0.211
 5700.00    1.07508   1.12654    0.212
 5701.00    1.07531   1.12059    0.211
 5702.00    1.07622   1.11190    0.208
 5703.00    1.06877   1.10121    0.209
 5704.00    1.05967   1.09005    0.211
 5705.00    1.05585   1.08012    0.210
 5706.00    1.05284   1.07252    0.209
 5707.00    1.04753   1.06758    0.208
 5708.00    1.04197   1.06450    0.207
 5709.00    1.04706   1.06106    0.207
 5710.00    1.05295   1.05483    0.206
 5711.00    1.06369   1.04508    0.204
 5712.00    1.07462   1.03349    0.201
 5713.00    1.07519   1.02323    0.202
 5714.00    1.07575   1.01738    0.203
 5715.00    1.07888   1.01814    0.201
 5716.00    1.08228   1.02614    0.200
 5717.00    1.09001   1.04010    0.200
 5718.00    1.09708   1.05782    0.201
 5719.00    1.09711   1.07661    0.200
 5720.00    1.09635   1.09355    0.200
 5721.00    1.08969   1.10713    0.200
 5722.00    1.08357   1.11756    0.199
 5723.00    1.08055   1.12575    0.198
 5724.00    1.07808   1.13287    0.197
 5725.00    1.07810   1.13963    0.197
 5726.00    1.07868   1.14562    0.198
 5727.00    1.08137   1.14993    0.198
 5728.00    1.08189   1.15153    0.198
 5729.00    1.07565   1.14972    0.199
 5730.00    1.07226   1.14487    0.200
 5731.00    1.07644   1.13846    0.202
 5732.00    1.07886   1.13214    0.202
 5733.00    1.07731   1.12722    0.201
 5734.00    1.07934   1.12432    0.200
 5735.00    1.08839   1.12303    0.202
 5736.00    1.09516   1.12284    0.204
 5737.00    1.09801   1.12407    0.206
 5738.00    1.09553   1.12727    0.206
 5739.00    1.08506   1.13162    0.204
 5740.00    1.08041   1.13521    0.000
 5741.00    1.08344   1.13672    0.000
 5742.00    1.07962   1.13615    0.000
 5743.00    1.06786   1.13433    0.000
 5744.00    1.06120   1.13223    0.000
 5745.00    1.05976   1.13046    0.000
 5746.00    1.06271   1.12930    0.000
 5747.00    1.06962   1.12895    0.000
 5748.00    1.07490   1.12939    0.000
 5749.00    1.07889   1.13014    0.000
 5750.00    1.07925   1.13026    0.000
 5751.00    1.07706   1.12881    0.000
 5752.00    1.07864   1.12553    0.000
 5753.00    1.08252   1.12109    0.000
 5754.00    1.08143   1.11637    0.000
 5755.00    1.07767   1.11148    0.000
 5756.00    1.07124   1.10580    0.000
 5757.00    1.06355   1.09930    0.000
 5758.00    1.06297   1.09395    0.000
 5759.00    1.06523   1.09271    0.000
 5760.00    1.06937   1.09705    0.000
 5761.00    1.07415   1.10537    0.000
 5762.00    1.06998   1.11339    0.000
 5763.00    1.06323   1.11671    0.000
 5764.00    1.06139   1.11355    0.000
 5765.00    1.06073   1.10565    0.000
 5766.00    1.07392   1.09724    0.000
 5767.00    1.08977   1.09294    0.000
 5768.00    1.08586   1.09555    0.000
 5769.00    1.07899   1.10484    0.000
 5770.00    1.07121   1.11785    0.000
 5771.00    1.06332   1.13043    0.000
 5772.00    1.06548   1.13910    0.000
 5773.00    1.06835   1.14259    0.000
 5774.00    1.07104   1.14156    0.000
 5775.00    1.07372   1.13752    0.000
 5776.00    1.08482   1.13211    0.000
 5777.00    1.09570   1.12686    0.000
 5778.00    1.09739   1.12280    0.000
 5779.00    1.09855   1.12030    0.000
 5780.00    1.09113   1.11885    0.000
 5781.00    1.08340   1.11678    0.000
 5782.00    1.07241   1.11190    0.000
 5783.00    1.06207   1.10244    0.000
 5784.00    1.05636   1.08793    0.000
 5785.00    1.05226   1.07005    0.000
 5786.00    1.05714   1.05211    0.000
 5787.00    1.06165   1.03764    0.000
 5788.00    1.06456   1.02920    0.000
 5789.00    1.06650   1.02784    0.000
 5790.00    1.06493   1.03302    0.000
 5791.00    1.06235   1.04311   -2.000
 5792.00    1.05666   1.05594   -2.000
 5793.00    1.05100   1.06906   -2.000
 5794.00    1.04542   1.08025   -2.000
 5795.00    1.04252   1.08857   -2.000
 5796.00    1.04561   1.09481   -2.000
 5797.00    1.05015   1.10040   -2.000
 5798.00    1.05748   1.10604   -2.000
 5799.00    1.06222   1.11124   -2.000
 5800.00    1.06260   1.11490   -2.000
 5801.00    1.06586   1.11667   -2.000
 5802.00    1.07339   1.11774   -2.000
 5803.00    1.07670   1.12004   -2.000
 5804.00    1.07453   1.12459   -2.000
 5805.00    1.07116   1.13058   -2.000
 5806.00    1.06642   1.13559   -2.000
 5807.00    1.06536   1.13701   -2.000
 5808.00    1.06801   1.13384   -2.000
 5809.00    1.07687   1.12742   -2.000
 5810.00    1.09128   1.12059   -2.000
 5811.00    1.09786   1.11594    0.000
 5812.00    1.09829   1.11477    0.000
 5813.00    1.09165   1.11685    0.000
 5814.00    1.08011   1.12074    0.000
 5815.00    1.07294   1.12461    0.000
 5816.00    1.06841   1.12688    0.000
 5817.00    1.07026   1.12660    0.000
 5818.00    1.07547   1.12374    0.000
 5819.00    1.07166   1.11938    0.000
 5820.00    1.06372   1.11556    0.000
 5821.00    1.06217   1.11452    0.000
 5822.00    1.06313   1.11748    0.000
 5823.00    1.07142   1.12396    0.000
 5824.00    1.08216   1.13197    0.000
 5825.00    1.08712   1.13916    0.000
 5826.00    1.09045   1.14387    0.000
 5827.00    1.08909   1.14585    0.000
 5828.00    1.08665   1.14601    0.000
 5829.00    1.08501   1.14562    0.000
 5830.00    1.08351   1.14551    0.000
 5831.00    1.08467   1.14593    0.000
 5832.00    1.08622   1.14671    0.000
 5833.00    1.08177   1.14744    0.000
 5834.00    1.07670   1.14768    0.000
 5835.00    1.06965   1.14698    0.000
 5836.00    1.06248   1.14508    0.000
 5837.00    1.05957   1.14201    0.000
 5838.00    1.05681   1.13819    0.000
 5839.00    1.06086   1.13437    0.000
 5840.00    1.06518   1.13138    0.000
 5841.00    1.07806   1.12983    0.000
 5842.00    1.08982   1.13001    0.000
 5843.00    1.08462   1.13194    0.000
 5844.00    1.07889   1.13542    0.000
 5845.00    1.06810   1.13977    0.000
 5846.00    1.05845   1.14378    0.000
 5847.00    1.05680   1.14602    0.000
 5848.00    1.05577   1.14542    0.000
 5849.00    1.05814   1.14165    0.000
 5850.00    1.06084   1.13534    0.000
 5851.00    1.06501   1.12783    0.000
 5852.00    1.06705   1.12053    0.000
 5853.00    1.06149   1.11416    0.000
 5854.00    1.05446   1.10852    0.000
 5855.00    1.04302   1.10269    0.000
 5856.00    1.03483   1.09578    0.000
 5857.00    1.03496   1.08758    0.000
 5858.00    1.03498   1.07861    0.000
 5859.00    1.03478   1.06965    0.000
 5860.00    1.03563   1.06135    0.000
 5861.00    1.03847   1.05439    0.000
 5862.00    1.03897   1.04980    0.000
 5863.00    1.03556   1.04877    0.000
 5864.00    1.03323   1.05188    0.000
 5865.00    1.03248   1.05844    0.000
 5866.00    1.03705   1.06659    0.000
 5867.00    1.04842   1.07434    0.000
 5868.00    1.06067   1.08046    0.000
 5869.00    1.07391   1.08468    0.000
 5870.00    1.07674   1.08759    0.000
 5871.00    1.06923   1.09023    0.000
 5872.00    1.06538   1.09356    0.000
 5873.00    1.06474   1.09798    0.000
 5874.00    1.06509   1.10299    0.000
 5875.00    1.06619   1.10750    0.000
 5876.00    1.06239   1.11045    0.000
 5877.00    1.05525   1.11149    0.000
 5878.00    1.05070   1.11089    0.000
 5879.00    1.04770   1.10907    0.000
 5880.00    1.04112   1.10610    0.000
 5881.00    1.03269   1.10173    0.000
 5882.00    1.03028   1.09579    0.000
 5883.00    1.03059   1.08862    0.000
 5884.00    1.02525   1.08112    0.000
 5885.00    1.01772   1.07433    0.000
 5886.00    1.00988   1.06877    0.000
 5887.00    1.00195   1.06389    0.000
 5888.00    0.99466   1.05796    0.000
 5889.00    0.98756   1.04813    0.000
 5890.00    0.97879   1.03093    0.000
 5891.00    0.96963   1.00351    0.000
 5892.00    0.96495   0.96556    0.000
 5893.00    0.96108   0.92118    0.000
 5894.00    0.96900   0.87850    0.000
 5895.00    0.97856   0.84664    0.000
 5896.00    0.98879   0.83070    0.000
 5897.00    0.99909   0.82913    0.000
 5898.00    1.00450   0.83543    0.000
 5899.00    1.00960   0.84340    0.000
 5900.00    1.00882   0.85155    0.000
 5901.00    1.00788   0.86323    0.185
 5902.00    1.00774   0.88292    0.186
 5903.00    1.00779   0.91181    0.187
 5904.00    1.01283   0.94669    0.187
 5905.00    1.01774   0.98176    0.187
 5906.00    1.02087   1.01186    0.186
 5907.00    1.02394   1.03433    0.186
 5908.00    1.02639   1.04915    0.186
 5909.00    1.02847   1.05796    0.187
 5910.00    1.02799   1.06306    0.187
 5911.00    1.02656   1.06654    0.188
 5912.00    1.02015   1.06974    0.190
 5913.00    1.01347   1.07303    0.191
 5914.00    1.00565   1.07582    0.190
 5915.00    0.99952   1.07704    0.190
 5916.00    0.99927   1.07566    0.187
 5917.00    1.00191   1.07137    0.185
 5918.00    1.01302   1.06496    0.186
 5919.00    1.02305   1.05835    0.186
 5920.00    1.03035   1.05378    0.186
 5921.00    1.03535   1.05285    0.185
 5922.00    1.03539   1.05572    0.185
 5923.00    1.03414   1.06118    0.184
 5924.00    1.03049   1.06734    0.184
 5925.00    1.02765   1.07261    0.183
 5926.00    1.02616   1.07630    0.181
 5927.00    1.02484   1.07860    0.180
 5928.00    1.02378   1.08009    0.180
 5929.00    1.02327   1.08105    0.180
 5930.00    1.02345   1.08120    0.181
 5931.00    1.02419   1.07997    0.182
 5932.00    1.02555   1.07707    0.183
 5933.00    1.02484   1.07303    0.183
 5934.00    1.02208   1.06913    0.183
 5935.00    1.01486   1.06661    0.182
 5936.00    1.00377   1.06596    0.182
 5937.00    1.00088   1.06666    0.182
 5938.00    1.00425   1.06784    0.182
 5939.00    1.00878   1.06909    0.183
 5940.00    1.01409   1.07070    0.183
 5941.00    1.01861   1.07305    0.185
 5942.00    1.02268   1.07590    0.187
 5943.00    1.02470   1.07828    0.188
 5944.00    1.02566   1.07915    0.188
 5945.00    1.02076   1.07830    0.189
 5946.00    1.01325   1.07659    0.190
 5947.00    1.01202   1.07544    0.190
 5948.00    1.01318   1.07579    0.189
 5949.00    1.01599   1.07743    0.189
 5950.00    1.01933   1.07907    0.188
 5951.00    1.01789   1.07921    0.186
 5952.00    1.01516   1.07716    0.183
 5953.00    1.01276   1.07337    0.183
 5954.00    1.01043   1.06905    0.184
 5955.00    1.01584   1.06532    0.182
 5956.00    1.02261   1.06268    0.180
 5957.00    1.02418   1.06100    0.180
 5958.00    1.02504   1.05999    0.181
 5959.00    1.02529   1.05944    0.180
 5960.00    1.02549   1.05933    0.179
 5961.00    1.03289   1.05988    0.180
 5962.00    1.04071   1.06162    0.182
 5963.00    1.03915   1.06510    0.180
 5964.00    1.03731   1.07049    0.178
 5965.00    1.03029   1.07713    0.178
 5966.00    1.02352   1.08372    0.177
 5967.00    1.02314   1.08884    0.180
 5968.00    1.02276   1.09168    0.182
 5969.00    1.02234   1.09243    0.183
 5970.00    1.02222   1.09211    0.183
 5971.00    1.02482   1.09207    0.183
 5972.00    1.02636   1.09329    0.184
 5973.00    1.02093   1.09594    0.184
 5974.00    1.01654   1.09937    0.184
 5975.00    1.01747   1.10239    0.185
 5976.00    1.01659   1.10375    0.185
 5977.00    1.00822   1.10245    0.184
 5978.00    1.00223   1.09805    0.183
 5979.00    1.00438   1.09094    0.185
 5980.00    1.00671   1.08236    0.186
 5981.00    1.00958   1.07420    0.185
 5982.00    1.01133   1.06826    0.184
 5983.00    1.01033   1.06546    0.184
 5984.00    1.00866   1.06518    0.183
 5985.00    1.00560   1.06557    0.180
 5986.00    1.00525   1.06451    0.179
 5987.00    1.00994   1.06091    0.180
 5988.00    1.01201   1.05544    0.180
 5989.00    1.00986   1.05021    0.177
 5990.00    1.00754   1.04751    0.175
 5991.00    1.00499   1.04853    0.174
 5992.00    1.00649   1.05282    0.174
 5993.00    1.01304   1.05881    0.175
 5994.00    1.02065   1.06481    0.176
 5995.00    1.02944   1.06983    0.176
 5996.00    1.03048   1.07370    0.177
 5997.00    1.02403   1.07665    0.178
 5998.00    1.01547   1.07866    0.178
 5999.00    1.00511   1.07923    0.176
 6000.00    0.99980   1.07778    0.177
 6001.00    0.99830   1.07432    0.180
 6002.00    0.99852   1.06975    0.181
 6003.00    0.99988   1.06543    0.182
 6004.00    0.99688   1.06239    0.182
 6005.00    0.99135   1.06075    0.182
 6006.00    0.98661   1.05988    0.183
 6007.00    0.98227   1.05889    0.184
 6008.00    0.98194   1.05711    0.183
 6009.00    0.98336   1.05418    0.182
 6010.00    0.99028   1.05015    0.182
 6011.00    0.99926   1.04559    0.183
 6012.00    1.00253   1.04167    0.183
 6013.00    1.00399   1.03973    0.184
 6014.00    1.00093   1.04035    0.183
 6015.00    0.99666   1.04284    0.182
 6016.00    0.99385   1.04553    0.180
 6017.00    0.99136   1.04686    0.179
 6018.00    0.98998   1.04631    0.179
 6019.00    0.98879   1.04440    0.179
 6020.00    0.99043   1.04203    0.179
 6021.00    0.99244   1.03978    0.179
 6022.00    0.99405   1.03773    0.177
 6023.00    0.99563   1.03575    0.174
 6024.00    0.99203   1.03394    0.175
 6025.00    0.98814   1.03275    0.175
 6026.00    0.99282   1.03284    0.177
 6027.00    0.99770   1.03477    0.178
 6028.00    1.00476   1.03869    0.178
 6029.00    1.01149   1.04426    0.179
 6030.00    1.01080   1.05085    0.179
 6031.00    1.01009   1.05781    0.179
 6032.00    1.00911   1.06462    0.179
 6033.00    1.00796   1.07098    0.180
 6034.00    1.00534   1.07671    0.181
 6035.00    1.00234   1.08171    0.182
 6036.00    0.99687   1.08596    0.181
 6037.00    0.99185   1.08946    0.179
 6038.00    0.98905   1.09223    0.179
 6039.00    0.98761   1.09426    0.180
 6040.00    0.99173   1.09546    0.180
 6041.00    0.99514   1.09576    0.180
 6042.00    0.99618   1.09510    0.180
 6043.00    0.99640   1.09355    0.179
 6044.00    0.99432   1.09149    0.178
 6045.00    0.99216   1.08955    0.177
 6046.00    0.98981   1.08849    0.178
 6047.00    0.98825   1.08891    0.178
 6048.00    0.98835   1.09089    0.175
 6049.00    0.98959   1.09397    0.173
 6050.00    0.99292   1.09735    0.174
 6051.00    0.99517   1.10028    0.175
 6052.00    0.99571   1.10226    0.175
 6053.00    0.99422   1.10308    0.175
 6054.00    0.98992   1.10267    0.174
 6055.00    0.99131   1.10092    0.174
 6056.00    0.99970   1.09767    0.175
 6057.00    1.00514   1.09294    0.175
 6058.00    1.00739   1.08713    0.175
 6059.00    1.00573   1.08111    0.175
 6060.00    1.00033   1.07598    0.176
 6061.00    0.99376   1.07274    0.176
 6062.00    0.98619   1.07182    0.177
 6063.00    0.98272   1.07286    0.178
 6064.00    0.98229   1.07467    0.178
 6065.00    0.98490   1.07566    0.179
 6066.00    0.98947   1.07449    0.180
 6067.00    0.98860   1.07076    0.180
 6068.00    0.98464   1.06544    0.180
 6069.00    0.98572   1.06064    0.180
 6070.00    0.98930   1.05879    0.180
 6071.00    0.99321   1.06149    0.180
 6072.00    0.99728   1.06873    0.181
 6073.00    0.99865   1.07885    0.179
 6074.00    0.99905   1.08943    0.177
 6075.00    1.00161   1.09843    0.177
 6076.00    1.00485   1.10472    0.178
 6077.00    1.00321   1.10805    0.177
 6078.00    1.00030   1.10849    0.176
 6079.00    0.99903   1.10615    0.175
 6080.00    0.99812   1.10112    0.173
 6081.00    0.99706   1.09377    0.173
 6082.00    0.99598   1.08488    0.172
 6083.00    0.99172   1.07559    0.173
 6084.00    0.98706   1.06704    0.174
 6085.00    0.98596   1.06000    0.174
 6086.00    0.98518   1.05482    0.173
 6087.00    0.98491   1.05148    0.173
 6088.00    0.98467   1.04984    0.172
 6089.00    0.98733   1.04966    0.175
 6090.00    0.99007   1.05051    0.178
 6091.00    0.99472   1.05176    0.178
 6092.00    0.99911   1.05261    0.178
 6093.00    0.99799   1.05245    0.176
 6094.00    0.99676   1.05116    0.175
 6095.00    0.99433   1.04929    0.176
 6096.00    0.99234   1.04792    0.178
 6097.00    0.99411   1.04811    0.180
 6098.00    0.99481   1.05035    0.181
 6099.00    0.98891   1.05427    0.180
 6100.00    0.98267   1.05880    0.178
 6101.00    0.97475   1.06263    0.178
 6102.00    0.96824   1.06450    0.178
 6103.00    0.96731   1.06340    0.178
 6104.00    0.96948   1.05866    0.178
 6105.00    0.98184   1.05033    0.177
 6106.00    0.99287   1.03977    0.176
 6107.00    1.00020   1.02973    0.176
 6108.00    1.00617   1.02343    0.175
 6109.00    1.00890   1.02296    0.176
 6110.00    1.01005   1.02819    0.176
 6111.00    1.00792   1.03695    0.173
 6112.00    1.00576   1.04637    0.172
 6113.00    1.00357   1.05437    0.175
 6114.00    0.99979   1.06015    0.176
 6115.00    0.99353   1.06398    0.174
 6116.00    0.98928   1.06655    0.173
 6117.00    0.98780   1.06845    0.173
 6118.00    0.98970   1.06984    0.174
 6119.00    0.99569   1.07044    0.175
 6120.00    0.99727   1.06967    0.176
 6121.00    0.99416   1.06687    0.177
 6122.00    0.99179   1.06161    0.179
 6123.00    0.99012   1.05376    0.182
 6124.00    0.98856   1.04378    0.182
 6125.00    0.98709   1.03299    0.180
 6126.00    0.98883   1.02356    0.179
 6127.00    0.99291   1.01775    0.178
 6128.00    0.99228   1.01681    0.178
 6129.00    0.98864   1.02025    0.178
 6130.00    0.98010   1.02607    0.176
 6131.00    0.96882   1.03203    0.174
 6132.00    0.96284   1.03689    0.174
 6133.00    0.95946   1.04067    0.174
 6134.00    0.95813   1.04405    0.176
 6135.00    0.95766   1.04716    0.177
 6136.00    0.95933   1.04894    0.176
 6137.00    0.96179   1.04733    0.174
 6138.00    0.96666   1.04031    0.173
 6139.00    0.97228   1.02732    0.172
 6140.00    0.97739   1.01029    0.172
 6141.00    0.98236   0.99343    0.173
 6142.00    0.98389   0.98164    0.174
 6143.00    0.98472   0.97823    0.175
 6144.00    0.98239   0.98341    0.174
 6145.00    0.97956   0.99459    0.174
 6146.00    0.98091   1.00825    0.173
 6147.00    0.98277   1.02159    0.173
 6148.00    0.98005   1.03316    0.173
 6149.00    0.97695   1.04230    0.173
 6150.00    0.97046   1.04839    0.174
 6151.00    0.96382   1.05090    0.175
 6152.00    0.95989   1.04987    0.176
 6153.00    0.95608   1.04631    0.177
 6154.00    0.95632   1.04191    0.178
 6155.00    0.95665   1.03827    0.179
 6156.00    0.95875   1.03614    0.178
 6157.00    0.96108   1.03524    0.178
 6158.00    0.96621   1.03463    0.180
 6159.00    0.97082   1.03333    0.181
 6160.00    0.97120   1.03061    0.180
 6161.00    0.97119   1.02588    0.178
 6162.00    0.96882   1.01834    0.177
 6163.00    0.96567   1.00695    0.175
 6164.00    0.95880   0.99121    0.175
 6165.00    0.95299   0.97218    0.175
 6166.00    0.95131   0.95291    0.172
 6167.00    0.95033   0.93767    0.169
 6168.00    0.95156   0.93003    0.170
 6169.00    0.95153   0.93100    0.170
 6170.00    0.94808   0.93845    0.168
 6171.00    0.94456   0.94829    0.167
 6172.00    0.94089   0.95661    0.168
 6173.00    0.94094   0.96161    0.169
 6174.00    0.94851   0.96404    0.172
 6175.00    0.95230   0.96626    0.173
 6176.00    0.94943   0.97038    0.171
 6177.00    0.94127   0.97703    0.171
 6178.00    0.92496   0.98521    0.173
 6179.00    0.91313   0.99330    0.174
 6180.00    0.90739   1.00010    0.173
 6181.00    0.90735   1.00540    0.172
 6182.00    0.91412   1.00969    0.171
 6183.00    0.92107   1.01363    0.171
 6184.00    0.92821   1.01757    0.171
 6185.00    0.93699   1.02146    0.172
 6186.00    0.94729   1.02487    0.174
 6187.00    0.95272   1.02716    0.175
 6188.00    0.95417   1.02758    0.175
 6189.00    0.95098   1.02551    0.175
 6190.00    0.94446   1.02068    0.173
 6191.00    0.93914   1.01327    0.172
 6192.00    0.93459   1.00392    0.171
 6193.00    0.92731   0.99358    0.170
 6194.00    0.91854   0.98353    0.170
 6195.00    0.89431   0.97535    0.175
 6196.00    0.86265   0.97082   -2.000
 6197.00    0.84575   0.97131   -2.000
 6198.00    0.83497   0.97703   -2.000
 6199.00    0.86345   0.98653   -2.000
 6200.00    0.90584   0.99710   -2.000
 6201.00    0.95756   1.00584   -2.000
 6202.00    1.01207   1.01085   -2.000
 6203.00    1.02686   1.01202   -2.000
 6204.00    1.03178   1.01084   -2.000
 6205.00    1.01592   1.00958   -2.000
 6206.00    0.99588   1.01014   -2.000
 6207.00    0.98078   1.01318   -2.000
 6208.00    0.96647   1.01801    0.179
 6209.00    0.96046   1.02323    0.178
 6210.00    0.95542   1.02747    0.176
 6211.00    0.95090   1.02995    0.176
 6212.00    0.94641   1.03030    0.175
 6213.00    0.94021   1.02834    0.174
 6214.00    0.93393   1.02380    0.172
 6215.00    0.93435   1.01636    0.173
 6216.00    0.93477   1.00603    0.173
 6217.00    0.93199   0.99348    0.171
 6218.00    0.92969   0.98016    0.169
 6219.00    0.93620   0.96804    0.171
 6220.00    0.94249   0.95892    0.172
 6221.00    0.94632   0.95366    0.170
 6222.00    0.94932   0.95190    0.168
 6223.00    0.94589   0.95253    0.168
 6224.00    0.94359   0.95443    0.167
 6225.00    0.94785   0.95704    0.167
 6226.00    0.95062   0.96037    0.167
 6227.00    0.94652   0.96447    0.169
 6228.00    0.94151   0.96900    0.170
 6229.00    0.93303   0.97316    0.172
 6230.00    0.92725   0.97585    0.172
 6231.00    0.93000   0.97596    0.171
 6232.00    0.93119   0.97274    0.170
 6233.00    0.92819   0.96620    0.171
 6234.00    0.92488   0.95754    0.172
 6235.00    0.92084   0.94914    0.171
 6236.00    0.91955   0.94390    0.170
 6237.00    0.92372   0.94403    0.170
 6238.00    0.92953   0.94983    0.171
 6239.00    0.93818   0.95935    0.174
 6240.00    0.94370   0.96920    0.174
 6241.00    0.94443   0.97597    0.171
 6242.00    0.94375   0.97763    0.170
 6243.00    0.94117   0.97411    0.170
 6244.00    0.93821   0.96690    0.169
 6245.00    0.93481   0.95812    0.168
 6246.00    0.93302   0.94959    0.167
 6247.00    0.93290   0.94251    0.167
 6248.00    0.93244   0.93757    0.167
 6249.00    0.93167   0.93530    0.167
 6250.00    0.93019   0.93615    0.167
 6251.00    0.92814   0.94010    0.166
 6252.00    0.92515   0.94634    0.167
 6253.00    0.92149   0.95307    0.169
 6254.00    0.91588   0.95795    0.169
 6255.00    0.90903   0.95902    0.169
 6256.00    0.90571   0.95549    0.169
 6257.00    0.90430   0.94806    0.169
 6258.00    0.90111   0.93850    0.173
 6259.00    0.89707   0.92877    0.177
 6260.00    0.89853   0.92047    0.186
 6261.00    0.90222   0.91459    0.197
 6262.00    0.91483   0.91190    0.203
 6263.00    0.93053   0.91307    0.206
 6264.00    0.94709   0.91851    0.203
 6265.00    0.96389   0.92789    0.198
 6266.00    0.96755   0.93982    0.191
 6267.00    0.96800   0.95214    0.184
 6268.00    0.95743   0.96269    0.177
 6269.00    0.94468   0.97016    0.171
 6270.00    0.94001   0.97441    0.169
 6271.00    0.93658   0.97628    0.168
 6272.00    0.93885   0.97693    0.165
 6273.00    0.94177   0.97734    0.163
 6274.00    0.94089   0.97810    0.165
 6275.00    0.93973   0.97948    0.167
 6276.00    0.93996   0.98154    0.167
 6277.00    0.94024   0.98411    0.167
 6278.00    0.93644   0.98676    0.167
 6279.00    0.93274   0.98891    0.167
 6280.00    0.93443   0.98995    0.000
 6281.00    0.93606   0.98945    0.000
 6282.00    0.93685   0.98732    0.000
 6283.00    0.93781   0.98384    0.000
 6284.00    0.94044   0.97981    0.000
 6285.00    0.94336   0.97636    0.000
 6286.00    0.94842   0.97466    0.000
 6287.00    0.95250   0.97549    0.000
 6288.00    0.95096   0.97890    0.000
 6289.00    0.94909   0.98427    0.000
 6290.00    0.94575   0.99059    0.000
 6291.00    0.94267   0.99679    0.000
 6292.00    0.94062   1.00198    0.000
 6293.00    0.93806   1.00542    0.000
 6294.00    0.93388   1.00658    0.000
 6295.00    0.93139   1.00534    0.000
 6296.00    0.93336   1.00204    0.000
 6297.00    0.93323   0.99739    0.000
 6298.00    0.92835   0.99210    0.000
 6299.00    0.92479   0.98661    0.000
 6300.00    0.92385   0.98103    0.000
 6301.00    0.92480   0.97539    0.000
 6302.00    0.92900   0.96982    0.000
 6303.00    0.93093   0.96469    0.000
 6304.00    0.92945   0.96038    0.000
 6305.00    0.92881   0.95728    0.000
 6306.00    0.92927   0.95580    0.000
 6307.00    0.93094   0.95638    0.000
 6308.00    0.93401   0.95939    0.000
 6309.00    0.93528   0.96482    0.000
 6310.00    0.93472   0.97209    0.000
 6311.00    0.93310   0.98005    0.000
 6312.00    0.93053   0.98723    0.000
 6313.00    0.92826   0.99225    0.000
 6314.00    0.92622   0.99418    0.000
 6315.00    0.92360   0.99279    0.000
 6316.00    0.92058   0.98854    0.000
 6317.00    0.92279   0.98231    0.000
 6318.00    0.92822   0.97500    0.000
 6319.00    0.93176   0.96736    0.000
 6320.00    0.93430   0.95998    0.000
 6321.00    0.93535   0.95348    0.168
 6322.00    0.93569   0.94865    0.166
 6323.00    0.93736   0.94632    0.164
 6324.00    0.93956   0.94708    0.162
 6325.00    0.93565   0.95103    0.161
 6326.00    0.92966   0.95762    0.161
 6327.00    0.92809   0.96583    0.161
 6328.00    0.92780   0.97450    0.161
 6329.00    0.92884   0.98258    0.163
 6330.00    0.93019   0.98933    0.165
 6331.00    0.92857   0.99439    0.164
 6332.00    0.92637   0.99770    0.163
 6333.00    0.92708   0.99950    0.164
 6334.00    0.92821   1.00009    0.166
 6335.00    0.93067   0.99963    0.167
 6336.00    0.93327   0.99800    0.169
 6337.00    0.93129   0.99481    0.169
 6338.00    0.92899   0.98968    0.169
 6339.00    0.92927   0.98278    0.168
 6340.00    0.92964   0.97509    0.166
 6341.00    0.93440   0.96831    0.169
 6342.00    0.93908   0.96412    0.171
 6343.00    0.94034   0.96338    0.170
 6344.00    0.94143   0.96556    0.169
 6345.00    0.93976   0.96907    0.167
 6346.00    0.93783   0.97203    0.165
 6347.00    0.93324   0.97323    0.164
 6348.00    0.92959   0.97269    0.163
 6349.00    0.93262   0.97148    0.161
 6350.00    0.93598   0.97110    0.160
 6351.00    0.94123   0.97266    0.163
 6352.00    0.94484   0.97636    0.165
 6353.00    0.94119   0.98153    0.165
 6354.00    0.93702   0.98690    0.165
 6355.00    0.93097   0.99111    0.164
 6356.00    0.92481   0.99309    0.164
 6357.00    0.91833   0.99223    0.165
 6358.00    0.91227   0.98852    0.166
 6359.00    0.90731   0.98243    0.167
 6360.00    0.90479   0.97469    0.168
 6361.00    0.90768   0.96601    0.169
 6362.00    0.91067   0.95693    0.170
 6363.00    0.91384   0.94781    0.172
 6364.00    0.91663   0.93908    0.173
 6365.00    0.91877   0.93147    0.173
 6366.00    0.91962   0.92592    0.172
 6367.00    0.91856   0.92346    0.169
 6368.00    0.91953   0.92473    0.168
 6369.00    0.92313   0.92984    0.167
 6370.00    0.92584   0.93811    0.167
 6371.00    0.92755   0.94835    0.167
 6372.00    0.92647   0.95907    0.165
 6373.00    0.92258   0.96902    0.163
 6374.00    0.92039   0.97747    0.161
 6375.00    0.91971   0.98435    0.161
 6376.00    0.91920   0.99003    0.160
 6377.00    0.91884   0.99489    0.160
 6378.00    0.91846   0.99901    0.160
 6379.00    0.91806   1.00208    0.160
 6380.00    0.92222   1.00363    0.160
 6381.00    0.92915   1.00335    0.159
 6382.00    0.93431   1.00134    0.161
 6383.00    0.93854   0.99813    0.163
 6384.00    0.93732   0.99457    0.165
 6385.00    0.93359   0.99149    0.166
 6386.00    0.93010   0.98950    0.167
 6387.00    0.92670   0.98884    0.169
 6388.00    0.92135   0.98943    0.168
 6389.00    0.91534   0.99098    0.166
 6390.00    0.90916   0.99315    0.166
 6391.00    0.90292   0.99553    0.166
 6392.00    0.90125   0.99757    0.167
 6393.00    0.90063   0.99853    0.169
 6394.00    0.89900   0.99759    0.170
 6395.00    0.89717   0.99425    0.170
 6396.00    0.89769   0.98869    0.168
 6397.00    0.89855   0.98200    0.166
 6398.00    0.90552   0.97590    0.167
 6399.00    0.91312   0.97200    0.168
 6400.00    0.91577   0.97090    0.165
 6401.00    0.91809   0.97181    0.162
 6402.00    0.91672   0.97301    0.163
 6403.00    0.91522   0.97306    0.164
 6404.00    0.91689   0.97181    0.165
 6405.00    0.91858   0.97057    0.166
 6406.00    0.92080   0.97116    0.166
 6407.00    0.92281   0.97448    0.166
 6408.00    0.92176   0.97982    0.165
 6409.00    0.92088   0.98518    0.163
 6410.00    0.92157   0.98843    0.165
 6411.00    0.92248   0.98848    0.167
 6412.00    0.92493   0.98567    0.167
 6413.00    0.92698   0.98134    0.167
 6414.00    0.92685   0.97701    0.167
 6415.00    0.92616   0.97373    0.167
 6416.00    0.92301   0.97195    0.169
 6417.00    0.92059   0.97166    0.170
 6418.00    0.92075   0.97257    0.169
 6419.00    0.92068   0.97424    0.167
 6420.00    0.91989   0.97601    0.165
 6421.00    0.91938   0.97702    0.163
 6422.00    0.91955   0.97650    0.161
 6423.00    0.92141   0.97432    0.159
 6424.00    0.92697   0.97118    0.160
 6425.00    0.92967   0.96855    0.161
 6426.00    0.92694   0.96810    0.162
 6427.00    0.92307   0.97091    0.164
 6428.00    0.91732   0.97690    0.164
 6429.00    0.91404   0.98470    0.165
 6430.00    0.91436   0.99227    0.165
 6431.00    0.91273   0.99758    0.165
 6432.00    0.90861   0.99927    0.164
 6433.00    0.90698   0.99698    0.164
 6434.00    0.90815   0.99144    0.165
 6435.00    0.90681   0.98433    0.166
 6436.00    0.90297   0.97789    0.168
 6437.00    0.90211   0.97406    0.168
 6438.00    0.90385   0.97363    0.167
 6439.00    0.90769   0.97584    0.168
 6440.00    0.91317   0.97885    0.168
 6441.00    0.91621   0.98075    0.168
 6442.00    0.91760   0.98070    0.166
 6443.00    0.91553   0.97940    0.164
 6444.00    0.91140   0.97863    0.163
 6445.00    0.90183   0.98020    0.161
 6446.00    0.88943   0.98494    0.160
 6447.00    0.88287   0.99213    0.161
 6448.00    0.87894   0.99985    0.162
 6449.00    0.87605   1.00576    0.163
 6450.00    0.87355   1.00791    0.162
 6451.00    0.86410   1.00519    0.161
 6452.00    0.85235   0.99750    0.160
 6453.00    0.83701   0.98609    0.159
 6454.00    0.82067   0.97342    0.159
 6455.00    0.80036   0.96252    0.158
 6456.00    0.77915   0.95591    0.157
 6457.00    0.76204   0.95459    0.158
 6458.00    0.74568   0.95774    0.159
 6459.00    0.75425   0.96336    0.160
 6460.00    0.76629   0.96953    0.161
 6461.00    0.79110   0.97514    0.161
 6462.00    0.81718   0.97989    0.162
 6463.00    0.82527   0.98355    0.162
 6464.00    0.83223   0.98557    0.163
 6465.00    0.84367   0.98523    0.162
 6466.00    0.85527   0.98228    0.160
 6467.00    0.87673   0.97772    0.160
 6468.00    0.89763   0.97351    0.160
 6469.00    0.90318   0.97169    0.161
 6470.00    0.90829   0.97332    0.162
 6471.00    0.90710   0.97778    0.160
 6472.00    0.90645   0.98322    0.159
 6473.00    0.91085   0.98765    0.161
 6474.00    0.91483   0.98990    0.163
 6475.00    0.91601   0.98989    0.162
 6476.00    0.91566   0.98858    0.161
 6477.00    0.90728   0.98724    0.160
 6478.00    0.89924   0.98671    0.160
 6479.00    0.89262   0.98719    0.163
 6480.00    0.88646   0.98834    0.164
 6481.00    0.88191   0.98950    0.163
 6482.00    0.87944   0.98995    0.162
 6483.00    0.88308   0.98906    0.162
 6484.00    0.88767   0.98632    0.163
 6485.00    0.89463   0.98180    0.166
 6486.00    0.89836   0.97625    0.168
 6487.00    0.89510   0.97089    0.165
 6488.00    0.89040   0.96714    0.163
 6489.00    0.88297   0.96609    0.162
 6490.00    0.87981   0.96778    0.162
 6491.00    0.88361   0.97107    0.163
 6492.00    0.88414   0.97412    0.163
 6493.00    0.87996   0.97492    0.161
 6494.00    0.87366   0.97172    0.160
 6495.00    0.86466   0.96343    0.158
 6496.00    0.86193   0.94992    0.158
 6497.00    0.86614   0.93198    0.157
 6498.00    0.87382   0.91138    0.158
 6499.00    0.88491   0.89088    0.159
 6500.00    0.89342   0.87374    0.159
 6501.00    0.89971   0.86297    0.160
 6502.00    0.90156   0.86029    0.162
 6503.00    0.90004   0.86573    0.164
 6504.00    0.90281   0.87779    0.164
 6505.00    0.90843   0.89402    0.163
 6506.00    0.90854   0.91172    0.163
 6507.00    0.90540   0.92869    0.163
 6508.00    0.90212   0.94358    0.164
 6509.00    0.89875   0.95570    0.165
 6510.00    0.89998   0.96484    0.163
 6511.00    0.90325   0.97102    0.161
 6512.00    0.90638   0.97470    0.161
 6513.00    0.90946   0.97656    0.161
 6514.00    0.91062   0.97733    0.162
 6515.00    0.91115   0.97757    0.163
 6516.00    0.91203   0.97747    0.162
 6517.00    0.91300   0.97685    0.161
 6518.00    0.91319   0.97534    0.160
 6519.00    0.91321   0.97261    0.158
 6520.00    0.90833   0.96869    0.160
 6521.00    0.90258   0.96420    0.161
 6522.00    0.90029   0.96023    0.160
 6523.00    0.89848   0.95791    0.158
 6524.00    0.89604   0.95791    0.160
 6525.00    0.89354   0.96033    0.161
 6526.00    0.89055   0.96450    0.162
 6527.00    0.88753   0.96920    0.163
 6528.00    0.89215   0.97316    0.000
 6529.00    0.89694   0.97555    0.000
 6530.00    0.89915   0.97595    0.000
 6531.00    0.90123   0.97468    0.000
 6532.00    0.90008   0.97254    0.000
 6533.00    0.89885   0.97035    0.000
 6534.00    0.89666   0.96853    0.000
 6535.00    0.89500   0.96717    0.000
 6536.00    0.89789   0.96626    0.000
 6537.00    0.90095   0.96577    0.000
 6538.00    0.90510   0.96571    0.000
 6539.00    0.90874   0.96625    0.000
 6540.00    0.90971   0.96766    0.000
 6541.00    0.90988   0.96994    0.000
 6542.00    0.90674   0.97271    0.000
 6543.00    0.90422   0.97528    0.000
 6544.00    0.90381   0.97688    0.000
 6545.00    0.90309   0.97688    0.000
 6546.00    0.90146   0.97495    0.000
 6547.00    0.90079   0.97099    0.000
 6548.00    0.90245   0.96511    0.000
 6549.00    0.90448   0.95777    0.000
 6550.00    0.90729   0.95007    0.000
 6551.00    0.90719   0.94333    0.000
 6552.00    0.90175   0.93849    0.000
 6553.00    0.89780   0.93574    0.000
 6554.00    0.89627   0.93446    0.000
 6555.00    0.89263   0.93357    0.000
 6556.00    0.88601   0.93181    0.000
 6557.00    0.87887   0.92809    0.000
 6558.00    0.87106   0.92212    0.000
 6559.00    0.86705   0.91451    0.000
 6560.00    0.86720   0.90607    0.000
 6561.00    0.86788   0.89708    0.000
 6562.00    0.86906   0.88689    0.000
 6563.00    0.86954   0.87418    0.000
 6564.00    0.86942   0.85762    0.000
 6565.00    0.87042   0.83684    0.000
 6566.00    0.87225   0.81340    0.000
 6567.00    0.87328   0.79136    0.000
 6568.00    0.87379   0.77618    0.000
 6569.00    0.87394   0.77251    0.000
 6570.00    0.87389   0.78206    0.000
 6571.00    0.87525   0.80291    0.000
 6572.00    0.87731   0.82998    0.000
 6573.00    0.87998   0.85615    0.000
 6574.00    0.88290   0.87598    0.000
 6575.00    0.88667   0.88822    0.000
 6576.00    0.89075   0.89440    0.000
 6577.00    0.89474   0.89687    0.000
 6578.00    0.89871   0.89812    0.000
 6579.00    0.90334   0.90002    0.000
 6580.00    0.90816   0.90356    0.000
 6581.00    0.91166   0.90911    0.000
 6582.00    0.91488   0.91633    0.000
 6583.00    0.91006   0.92407    0.000
 6584.00    0.90386   0.93088    0.000
 6585.00    0.89699   0.93563    0.000
 6586.00    0.89004   0.93813    0.000
 6587.00    0.88872   0.93918    0.000
 6588.00    0.88791   0.93987    0.000
 6589.00    0.88732   0.94099    0.000
 6590.00    0.88674   0.94277    0.000
 6591.00    0.88407   0.94475    0.000
 6592.00    0.88139   0.94622    0.000
 6593.00    0.88153   0.94654    0.000
 6594.00    0.88171   0.94509    0.000
 6595.00    0.88247   0.94140    0.000
 6596.00    0.88349   0.93533    0.000
 6597.00    0.88774   0.92750    0.000
 6598.00    0.89190   0.91965    0.000
 6599.00    0.89534   0.91382    0.000
 6600.00    0.89786   0.91151    0.000
 6601.00    0.89449   0.91336    0.000
 6602.00    0.89175   0.91887    0.000
 6603.00    0.89213   0.92605    0.000
 6604.00    0.89138   0.93289    0.000
 6605.00    0.88607   0.93870    0.000
 6606.00    0.88122   0.94329    0.000
 6607.00    0.87790   0.94627    0.000
 6608.00    0.87636   0.94707    0.000
 6609.00    0.87989   0.94519    0.159
 6610.00    0.88153   0.94091    0.159
 6611.00    0.87861   0.93534    0.157
 6612.00    0.87637   0.92985    0.156
 6613.00    0.87554   0.92575    0.158
 6614.00    0.87541   0.92401    0.159
 6615.00    0.87653   0.92494    0.161
 6616.00    0.87713   0.92833    0.162
 6617.00    0.87693   0.93357    0.163
 6618.00    0.87644   0.93969    0.163
 6619.00    0.87556   0.94537    0.164
 6620.00    0.87474   0.94975    0.164
 6621.00    0.87399   0.95297    0.164
 6622.00    0.87381   0.95555    0.163
 6623.00    0.87424   0.95751    0.163
 6624.00    0.87360   0.95844    0.163
 6625.00    0.87193   0.95820    0.164
 6626.00    0.86966   0.95681    0.163
 6627.00    0.86687   0.95415    0.162
 6628.00    0.86679   0.95020    0.160
 6629.00    0.86871   0.94545    0.158
 6630.00    0.86987   0.94076    0.158
 6631.00    0.87052   0.93691    0.159
 6632.00    0.87085   0.93439    0.160
 6633.00    0.87099   0.93297    0.161
 6634.00    0.87381   0.93161    0.161
 6635.00    0.87796   0.92921    0.160
 6636.00    0.88036   0.92552    0.161
 6637.00    0.88202   0.92115    0.161
 6638.00    0.87675   0.91711    0.161
 6639.00    0.86894   0.91449    0.161
 6640.00    0.86548   0.91409    0.162
 6641.00    0.86338   0.91619    0.163
 6642.00    0.86227   0.92026    0.163
 6643.00    0.86143   0.92485    0.163
 6644.00    0.86530   0.92837    0.164
 6645.00    0.87017   0.93002    0.165
 6646.00    0.87234   0.92990    0.165
 6647.00    0.87406   0.92868    0.165
 6648.00    0.87059   0.92717    0.164
 6649.00    0.86647   0.92580    0.162
 6650.00    0.86347   0.92495    0.161
 6651.00    0.86057   0.92530    0.159
 6652.00    0.86343   0.92707    0.158
 6653.00    0.86660   0.92932    0.158
 6654.00    0.87121   0.93117    0.158
 6655.00    0.87574   0.93247    0.158
 6656.00    0.87284   0.93328    0.158
 6657.00    0.86975   0.93354    0.158
 6658.00    0.86292   0.93326    0.159
 6659.00    0.85656   0.93274    0.160
 6660.00    0.85592   0.93223    0.161
 6661.00    0.85556   0.93163    0.163
 6662.00    0.85743   0.93067    0.163
 6663.00    0.85888   0.92894    0.163
 6664.00    0.85766   0.92617    0.164
 6665.00    0.85704   0.92232    0.164
 6666.00    0.85930   0.91747    0.165
 6667.00    0.86130   0.91202    0.165
 6668.00    0.86232   0.90684    0.165
 6669.00    0.86284   0.90283    0.165
 6670.00    0.86176   0.90068    0.164
 6671.00    0.86028   0.90110    0.163
 6672.00    0.85768   0.90392    0.162
 6673.00    0.85595   0.90811    0.161
 6674.00    0.85629   0.91298    0.160
 6675.00    0.85835   0.91816    0.159
 6676.00    0.86397   0.92301    0.160
 6677.00    0.86660   0.92660    0.160
 6678.00    0.86389   0.92805    0.160
 6679.00    0.86110   0.92691    0.160
 6680.00    0.85816   0.92330    0.162
 6681.00    0.85839   0.91774    0.163
 6682.00    0.86299   0.91114    0.164
 6683.00    0.86755   0.90479    0.165
 6684.00    0.87207   0.90013    0.167
 6685.00    0.87242   0.89884    0.168
 6686.00    0.86836   0.90167    0.168
 6687.00    0.86575   0.90702    0.166
 6688.00    0.86450   0.91259    0.163
 6689.00    0.86704   0.91752    0.163
 6690.00    0.87270   0.92149    0.165
 6691.00    0.87306   0.92425    0.165
 6692.00    0.86956   0.92583    0.165
 6693.00    0.86408   0.92655    0.164
 6694.00    0.85734   0.92673    0.164
 6695.00    0.85327   0.92659    0.162
 6696.00    0.85069   0.92616    0.000
 6697.00    0.84742   0.92507    0.000
 6698.00    0.84383   0.92292    0.000
 6699.00    0.84558   0.91972    0.000
 6700.00    0.84957   0.91579    0.000
 6701.00    0.85543   0.91170    0.000
 6702.00    0.86197   0.90822    0.000
 6703.00    0.85957   0.90624    0.000
 6704.00    0.85445   0.90633    0.000
 6705.00    0.85594   0.90797    0.000
 6706.00    0.85910   0.91004    0.000
 6707.00    0.85755   0.91147    0.000
 6708.00    0.85503   0.91158    0.000
 6709.00    0.85789   0.91052    0.000
 6710.00    0.86161   0.90901    0.000
 6711.00    0.86737   0.90787    0.000
 6712.00    0.87337   0.90746    0.000
 6713.00    0.86909   0.90740    0.000
 6714.00    0.86396   0.90703    0.000
 6715.00    0.86462   0.90597    0.000
 6716.00    0.86556   0.90387    0.000
 6717.00    0.85974   0.90050    0.000
 6718.00    0.85394   0.89606    0.000
 6719.00    0.85410   0.89079    0.000
 6720.00    0.85400   0.88513    0.000
 6721.00    0.84852   0.88003    0.000
 6722.00    0.84360   0.87646    0.000
 6723.00    0.84507   0.87526    0.000
 6724.00    0.84664   0.87700    0.000
 6725.00    0.84895   0.88153    0.000
 6726.00    0.85154   0.88745    0.000
 6727.00    0.85572   0.89298    0.000
 6728.00    0.85938   0.89734    0.000
 6729.00    0.86058   0.90056    0.000
 6730.00    0.86192   0.90273    0.000
 6731.00    0.86382   0.90381    0.000
 6732.00    0.86398   0.90420    0.000
 6733.00    0.85853   0.90477    0.000
 6734.00    0.85423   0.90595    0.000
 6735.00    0.85307   0.90742    0.000
 6736.00    0.85029   0.90870    0.000
 6737.00    0.84369   0.90944    0.000
 6738.00    0.83995   0.90937    0.000
 6739.00    0.84195   0.90848    0.000
 6740.00    0.84508   0.90704    0.000
 6741.00    0.85019   0.90529    0.000
 6742.00    0.85244   0.90319    0.000
 6743.00    0.85026   0.90059    0.000
 6744.00    0.85105   0.89768    0.000
 6745.00    0.85584   0.89506    0.000
 6746.00    0.85466   0.89324    0.000
 6747.00    0.84638   0.89211    0.000
 6748.00    0.83870   0.89116    0.000
 6749.00    0.83166   0.89018    0.000
 6750.00    0.82728   0.88936    0.000
 6751.00    0.82537   0.88859    0.000
 6752.00    0.82561   0.88742    0.000
 6753.00    0.82761   0.88579    0.176
 6754.00    0.82507   0.88408    0.180
 6755.00    0.81927   0.88271    0.182
 6756.00    0.81725   0.88204    0.183
 6757.00    0.81761   0.88246    0.183
 6758.00    0.82478   0.88396    0.182
 6759.00    0.83570   0.88633    0.182
 6760.00    0.85917   0.88979    0.185
 6761.00    0.88866   0.89418    0.189
 6762.00    0.92014   0.89897    0.192
 6763.00    0.95243   0.90373    0.195
 6764.00    0.95944   0.90793    0.196
 6765.00    0.95750   0.91100    0.196
 6766.00    0.96402   0.91265    0.196
 6767.00    0.97307   0.91278    0.195
 6768.00    0.97310   0.91147    0.194
 6769.00    0.97088   0.90907    0.193
 6770.00    0.95034   0.90579    0.190
 6771.00    0.92612   0.90172    0.186
 6772.00    0.90955   0.89722    0.183
 6773.00    0.89417   0.89307    0.181
 6774.00    0.88300   0.89032    0.180
 6775.00    0.87232   0.88948    0.178
 6776.00    0.86161   0.89020    0.175
 6777.00    0.85088   0.89219    0.172
 6778.00    0.87139   0.89563    0.175
 6779.00    0.89326   0.90034    0.179
 6780.00    0.89131   0.90544    0.177
 6781.00    0.88885   0.90999    0.175
 6782.00    0.87468   0.91337    0.175
 6783.00    0.86158   0.91511    0.175
 6784.00    0.86793   0.91510    0.177
 6785.00    0.87413   0.91329    0.178
 6786.00    0.87865   0.90946    0.179
 6787.00    0.88246   0.90379    0.180
 6788.00    0.88079   0.89703    0.181
 6789.00    0.87960   0.89038    0.182
 6790.00    0.88130   0.88532    0.183
 6791.00    0.88267   0.88285    0.184
 6792.00    0.88256   0.88304    0.185
 6793.00    0.88457   0.88526    0.186
 6794.00    0.89458   0.88843    0.185
 6795.00    0.90012   0.89119    0.183
 6796.00    0.89158   0.89292    0.181
 6797.00    0.88680   0.89360    0.179
 6798.00    0.89206   0.89317    0.178
 6799.00    0.89308   0.89179    0.177
 6800.00    0.88432   0.89039    0.176
 6801.00    0.87675   0.88980    0.175
 6802.00    0.87153   0.89013    0.175
 6803.00    0.86546   0.89138    0.175
 6804.00    0.85794   0.89318    0.175
 6805.00    0.85274   0.89502    0.175
 6806.00    0.85106   0.89665    0.174
 6807.00    0.84852   0.89777    0.174
 6808.00    0.84480   0.89811    0.174
 6809.00    0.84204   0.89762    0.174
 6810.00    0.84038   0.89661    0.175
 6811.00    0.83865   0.89560    0.177
 6812.00    0.83682   0.89454    0.182
 6813.00    0.84484   0.89346    0.183
 6814.00    0.86183   0.89270    0.182
 6815.00    0.86692   0.89205    0.181
 6816.00    0.86242   0.89146    0.179
 6817.00    0.85988   0.89125    0.178
 6818.00    0.85871   0.89126    0.176
 6819.00    0.86165   0.89118    0.173
 6820.00    0.86715   0.89115    0.171
 6821.00    0.87573   0.89158    0.171
 6822.00    0.88597   0.89278    0.173
 6823.00    0.88769   0.89430    0.173
 6824.00    0.88540   0.89548    0.171
 6825.00    0.87611   0.89634    0.170
 6826.00    0.86398   0.89733    0.170
 6827.00    0.85786   0.89884    0.172
 6828.00    0.85382   0.90066    0.174
 6829.00    0.85729   0.90209    0.177
 6830.00    0.86296   0.90253    0.181
 6831.00    0.87124   0.90181    0.182
 6832.00    0.88017   0.90005    0.182
 6833.00    0.88045   0.89761    0.180
 6834.00    0.87904   0.89537    0.178
 6835.00    0.87894   0.89435    0.180
 6836.00    0.87903   0.89473    0.183
 6837.00    0.87508   0.89580    0.184
 6838.00    0.87068   0.89677    0.184
 6839.00    0.86260   0.89729    0.184
 6840.00    0.85424   0.89704    0.183
 6841.00    0.84355   0.89538    0.180
 6842.00    0.83278   0.89175    0.177
 6843.00    0.82802   0.88626    0.173
 6844.00    0.82372   0.87960    0.170
 6845.00    0.83571   0.87268    0.168
 6846.00    0.84736   0.86674    0.167
 6847.00    0.85330   0.86298    0.170
 6848.00    0.85827   0.86235    0.173
 6849.00    0.85309   0.86501    0.172
 6850.00    0.84840   0.87009    0.172
 6851.00    0.84735   0.87612    0.173
 6852.00    0.84670   0.88180    0.174
 6853.00    0.84826   0.88639    0.175
 6854.00    0.84973   0.88952    0.176
 6855.00    0.85080   0.89096    0.177
 6856.00    0.84960   0.89073    0.178
 6857.00    0.84007   0.88908    0.176
 6858.00    0.83132   0.88617    0.175
 6859.00    0.82502   0.88207    0.175
 6860.00    0.82204   0.87710    0.174
 6861.00    0.82780   0.87235    0.174
 6862.00    0.83210   0.86893    0.173
 6863.00    0.83307   0.86689    0.172
 6864.00    0.83045   0.86590    0.171
 6865.00    0.82082   0.86567    0.170
 6866.00    0.81458   0.86587    0.171
 6867.00    0.81411   0.86673    0.173
 6868.00    0.81623   0.86879    0.175
 6869.00    0.82223   0.87160    0.175
 6870.00    0.82934   0.87382    0.176
 6871.00    0.83789   0.87452    0.175
 6872.00    0.84265   0.87368    0.175
 6873.00    0.84302   0.87187    0.174
 6874.00    0.84059   0.87011    0.174
 6875.00    0.83528   0.86913    0.174
 6876.00    0.82954   0.86872    0.174
 6877.00    0.82341   0.86841    0.175
 6878.00    0.82316   0.86843    0.175
 6879.00    0.82758   0.86923    0.174
 6880.00    0.83307   0.87064    0.173
 6881.00    0.83931   0.87232    0.172
 6882.00    0.84461   0.87420    0.172
 6883.00    0.84935   0.87596    0.171
 6884.00    0.84838   0.87690    0.171
 6885.00    0.84436   0.87658    0.171
 6886.00    0.84010   0.87513    0.171
 6887.00    0.83573   0.87315    0.171
 6888.00    0.82985   0.87166    0.170
 6889.00    0.82338   0.87166    0.170
 6890.00    0.82061   0.87327    0.171
 6891.00    0.81910   0.87594    0.173
 6892.00    0.82036   0.87946    0.173
 6893.00    0.82242   0.88373    0.173
 6894.00    0.82056   0.88807    0.175
 6895.00    0.81778   0.89180    0.178
 6896.00    0.82613   0.89455    0.178
 6897.00    0.83661   0.89601    0.178
 6898.00    0.83336   0.89613    0.177
 6899.00    0.82807   0.89534    0.175
 6900.00    0.82552   0.89408    0.177
 6901.00    0.82326   0.89269    0.179
 6902.00    0.81578   0.89166    0.175
 6903.00    0.80792   0.89124    0.170
 6904.00    0.81226   0.89119    0.170
 6905.00    0.81704   0.89126    0.170
 6906.00    0.81596   0.89168    0.171
 6907.00    0.81498   0.89264    0.172
 6908.00    0.81810   0.89382    0.172
 6909.00    0.82074   0.89484    0.173
 6910.00    0.81588   0.89572    0.172
 6911.00    0.81100   0.89668    0.171
 6912.00    0.80591   0.89775    0.172
 6913.00    0.80084   0.89851    0.173
 6914.00    0.79590   0.89853    0.172
 6915.00    0.79251   0.89758    0.172
 6916.00    0.79772   0.89547    0.174
 6917.00    0.80185   0.89228    0.175
 6918.00    0.80124   0.88838    0.173
 6919.00    0.80171   0.88439    0.172
 6920.00    0.80609   0.88133    0.171
 6921.00    0.81075   0.87983    0.171
 6922.00    0.81630   0.87979    0.171
 6923.00    0.81983   0.88121    0.171
 6924.00    0.81812   0.88378    0.170
 6925.00    0.81503   0.88663    0.169
 6926.00    0.80889   0.88882    0.169
 6927.00    0.80496   0.88952    0.169
 6928.00    0.80529   0.88828    0.170
 6929.00    0.80642   0.88526    0.171
 6930.00    0.80890   0.88155    0.172
 6931.00    0.81080   0.87861    0.174
 6932.00    0.81185   0.87734    0.176
 6933.00    0.81133   0.87759    0.178
 6934.00    0.80878   0.87870    0.178
 6935.00    0.80903   0.88007    0.179
 6936.00    0.81249   0.88120    0.180
 6937.00    0.81340   0.88168    0.180
 6938.00    0.81176   0.88159    0.178
 6939.00    0.81061   0.88173    0.176
 6940.00    0.80988   0.88257    0.174
 6941.00    0.81009   0.88379    0.174
 6942.00    0.81101   0.88512    0.176
 6943.00    0.81260   0.88655    0.176
 6944.00    0.81466   0.88798    0.175
 6945.00    0.81048   0.88896    0.174
 6946.00    0.80256   0.88887    0.173
 6947.00    0.80604   0.88725    0.174
 6948.00    0.81551   0.88421    0.177
 6949.00    0.84075   0.88034    0.189
 6950.00    0.87317   0.87668    0.209
 6951.00    0.88721   0.87457    0.216
 6952.00    0.89403   0.87435    0.216
 6953.00    0.88344   0.87525    0.221
 6954.00    0.86702   0.87648    0.227
 6955.00    0.84241   0.87726    0.206
 6956.00    0.81552   0.87700    0.184
 6957.00    0.81047   0.87611    0.180
 6958.00    0.81048   0.87520    0.179
 6959.00    0.81418   0.87463    0.179
 6960.00    0.81857   0.87499    0.178
 6961.00    0.81051   0.87659    0.176
 6962.00    0.80067   0.87901    0.173
 6963.00    0.80554   0.88169    0.173
 6964.00    0.81192   0.88433    0.172
 6965.00    0.81456   0.88675    0.174
 6966.00    0.81695   0.88888    0.177
 6967.00    0.81815   0.89060    0.178
 6968.00    0.81931   0.89184    0.179
 6969.00    0.81067   0.89265    0.178
 6970.00    0.80228   0.89292    0.177
 6971.00    0.80136   0.89293    0.178
 6972.00    0.80079   0.89337    0.178
 6973.00    0.80541   0.89422    0.180
 6974.00    0.80827   0.89477    0.182
 6975.00    0.79429   0.89446    0.181
 6976.00    0.78283   0.89324    0.181
 6977.00    0.78884   0.89151    0.182
 6978.00    0.79311   0.88904    0.183
 6979.00    0.78801   0.88478    0.181
 6980.00    0.78639   0.87846    0.180
 6981.00    0.79973   0.87076    0.178
 6982.00    0.81075   0.86248    0.177
 6983.00    0.81355   0.85469    0.176
 6984.00    0.81582   0.84971    0.175
 6985.00    0.81651   0.84944    0.175
 6986.00    0.81662   0.85349    0.175
 6987.00    0.81523   0.86035    0.174
 6988.00    0.81219   0.86870    0.174
 6989.00    0.80555   0.87687    0.176
 6990.00    0.80113   0.88352    0.178
 6991.00    0.80091   0.88811    0.179
 6992.00    0.80046   0.89058    0.180
 6993.00    0.79964   0.89109    0.181
 6994.00    0.79884   0.89029    0.181
 6995.00    0.79808   0.88938    0.180
 6996.00    0.79953   0.88921    0.179
 6997.00    0.80379   0.88971    0.180
 6998.00    0.80382   0.89029    0.182
 6999.00    0.79909   0.89052    0.184
 7000.00    0.79652   0.89032    0.185
 7001.00    0.79610   0.88965    0.183
 7002.00    0.79485   0.88814    0.181
 7003.00    0.79288   0.88541    0.179
 7004.00    0.79126   0.88160    0.178
 7005.00    0.78992   0.87770    0.180
 7006.00    0.74567   0.87487    0.178
 7007.00    0.67233   0.87311    0.173
 7008.00    0.67288   0.87165    0.174
 7009.00    0.71729   0.87021    0.178
 7010.00    0.72618   0.86923    0.181
 7011.00    0.71667   0.86918    0.183
 7012.00    0.71829   0.87006    0.184
 7013.00    0.72489   0.87162    0.185
 7014.00    0.72621   0.87341    0.186
 7015.00    0.72549   0.87471    0.187
 7016.00    0.71895   0.87502    0.188
 7017.00    0.71050   0.87441    0.189
 7018.00    0.71192   0.87276    0.189
 7019.00    0.71605   0.86966    0.189
 7020.00    0.71702   0.86507    0.188
 7021.00    0.71727   0.86036    0.187
 7022.00    0.72781   0.85788    0.185
 7023.00    0.74020   0.85871    0.182
 7024.00    0.73493   0.86173    0.183
 7025.00    0.72721   0.86538    0.183
 7026.00    0.73577   0.86852    0.185
 7027.00    0.74594   0.87011    0.186
 7028.00    0.74263   0.86981    0.185
 7029.00    0.73846   0.86852    0.184
 7030.00    0.72992   0.86757    0.186
 7031.00    0.72129   0.86762    0.188
 7032.00    0.72170   0.86869    0.190
 7033.00    0.72197   0.87075    0.192
 7034.00    0.71842   0.87356    0.190
 7035.00    0.71528   0.87653    0.188
 7036.00    0.71779   0.87900    0.188
 7037.00    0.72065   0.88052    0.188
 7038.00    0.72669   0.88110    0.189
 7039.00    0.73226   0.88096    0.191
 7040.00    0.73471   0.88053    0.190
 7041.00    0.73744   0.88000    0.189
 7042.00    0.74164   0.87908    0.189
 7043.00    0.74457   0.87831    0.188
 7044.00    0.74219   0.87951    0.189
 7045.00    0.74190   0.88342    0.190
 7046.00    0.74889   0.88899    0.188
 7047.00    0.75271   0.89483    0.188
 7048.00    0.74728   0.89992    0.192
 7049.00    0.74309   0.90355    0.194
 7050.00    0.74198   0.90590   -2.000
 7051.00    0.74438   0.90768   -2.000
 7052.00    0.75433   0.90898   -2.000
 7053.00    0.75997   0.90939   -2.000
 7054.00    0.75760   0.90845   -2.000
 7055.00    0.75846   0.90570   -2.000
 7056.00    0.76462   0.90062   -2.000
 7057.00    0.76980   0.89306   -2.000
 7058.00    0.77361   0.88396   -2.000
 7059.00    0.78519   0.87487   -2.000
 7060.00    0.80655   0.86700   -2.000
 7061.00    0.81849   0.86099   -2.000
 7062.00    0.81998   0.85670   -2.000
 7063.00    0.82213   0.85331   -2.000
 7064.00    0.82493   0.85021   -2.000
 7065.00    0.81714   0.84754   -2.000
 7066.00    0.80022   0.84568   -2.000
 7067.00    0.78901   0.84451   -2.000
 7068.00    0.78213   0.84378   -2.000
 7069.00    0.78106   0.84329   -2.000
 7070.00    0.78386   0.84241   -2.000
 7071.00    0.80805   0.84063   -2.000
 7072.00    0.84474   0.83827   -2.000
 7073.00    0.84735   0.83626   -2.000
 7074.00    0.83259   0.83580   -2.000
 7075.00    0.81961   0.83747   -2.000
 7076.00    0.80743   0.84070   -2.000
 7077.00    0.80999   0.84475   -2.000
 7078.00    0.81814   0.84918   -2.000
 7079.00    0.81732   0.85345   -2.000
 7080.00    0.81361   0.85700   -2.000
 7081.00    0.81458   0.85961   -2.000
 7082.00    0.81680   0.86136   -2.000
 7083.00    0.80571   0.86229   -2.000
 7084.00    0.79167   0.86241   -2.000
 7085.00    0.77943   0.86155   -2.000
 7086.00    0.76751   0.85905   -2.000
 7087.00    0.76839   0.85418   -2.000
 7088.00    0.77100   0.84690   -2.000
 7089.00    0.78462   0.83819   -2.000
 7090.00    0.79928   0.82962   -2.000
 7091.00    0.77647   0.82212   -2.000
 7092.00    0.75146   0.81572   -2.000
 7093.00    0.76119   0.81050   -2.000
 7094.00    0.77153   0.80657   -2.000
 7095.00    0.74894   0.80395   -2.000
 7096.00    0.72752   0.80260   -2.000
 7097.00    0.73503   0.80212   -2.000
 7098.00    0.74155   0.80210   -2.000
 7099.00    0.73483   0.80263   -2.000
 7100.00    0.72785   0.80382   -2.000
 7101.00    0.71852   0.80563   -2.000
 7102.00    0.71094   0.80804   -2.000
 7103.00    0.71480   0.81095   -2.000
 7104.00    0.71763   0.81394   -2.000
 7105.00    0.71527   0.81651   -2.000
 7106.00    0.71211   0.81832   -2.000
 7107.00    0.70571   0.81940   -2.000
 7108.00    0.70047   0.82018   -2.000
 7109.00    0.69919   0.82082   -2.000
 7110.00    0.69714   0.82095   -2.000
 7111.00    0.69286   0.82016   -2.000
 7112.00    0.69315   0.81872   -2.000
 7113.00    0.70465   0.81710   -2.000
 7114.00    0.70973   0.81522   -2.000
 7115.00    0.70121   0.81287   -2.000
 7116.00    0.70014   0.81057   -2.000
 7117.00    0.71279   0.80913   -2.000
 7118.00    0.72372   0.80893   -2.000
 7119.00    0.73193   0.80976   -2.000
 7120.00    0.74539   0.81122   -2.000
 7121.00    0.76626   0.81281   -2.000
 7122.00    0.77313   0.81417   -2.000
 7123.00    0.76264   0.81506   -2.000
 7124.00    0.75403   0.81523   -2.000
 7125.00    0.74747   0.81453   -2.000
 7126.00    0.74148   0.81309   -2.000
 7127.00    0.73603   0.81141   -2.000
 7128.00    0.73767   0.80989   -2.000
 7129.00    0.74535   0.80820   -2.000
 7130.00    0.74673   0.80588   -2.000
 7131.00    0.74339   0.80311   -2.000
 7132.00    0.74584   0.80028   -2.000
 7133.00    0.75210   0.79730   -2.000
 7134.00    0.73559   0.79390   -2.000
 7135.00    0.70595   0.79052   -2.000
 7136.00    0.71350   0.78832   -2.000
 7137.00    0.73972   0.78814   -2.000
 7138.00    0.75142   0.79001   -2.000
 7139.00    0.75682   0.79332   -2.000
 7140.00    0.75847   0.79730   -2.000
 7141.00    0.75871   0.80157   -2.000
 7142.00    0.74157   0.80560   -2.000
 7143.00    0.71894   0.80850   -2.000
 7144.00    0.71125   0.81008   -2.000
 7145.00    0.70750   0.81098   -2.000
 7146.00    0.71353   0.81141   -2.000
 7147.00    0.72168   0.81117   -2.000
 7148.00    0.72080   0.81037   -2.000
 7149.00    0.71838   0.80900   -2.000
 7150.00    0.71714   0.80704   -2.000
 7151.00    0.71605   0.80436   -2.000
 7152.00    0.71141   0.80082   -2.000
 7153.00    0.70645   0.79744   -2.000
 7154.00    0.71506   0.79556   -2.000
 7155.00    0.72442   0.79555   -2.000
 7156.00    0.72766   0.79744   -2.000
 7157.00    0.73055   0.80104   -2.000
 7158.00    0.71250   0.80546   -2.000
 7159.00    0.69675   0.80975   -2.000
 7160.00    0.73299   0.81373   -2.000
 7161.00    0.76701   0.81731   -2.000
 7162.00    0.77316   0.81977   -2.000
 7163.00    0.77838   0.82055   -2.000
 7164.00    0.77561   0.81976   -2.000
 7165.00    0.76992   0.81796   -2.000
 7166.00    0.74569   0.81570   -2.000
 7167.00    0.72777   0.81274   -2.000
 7168.00    0.74115   0.80851   -2.000
 7169.00    0.75242   0.80373   -2.000
 7170.00    0.75514   0.80044   -2.000
 7171.00    0.75058   0.79989   -2.000
 7172.00    0.72168   0.80177   -2.000
 7173.00    0.70176   0.80510   -2.000
 7174.00    0.70717   0.80920   -2.000
 7175.00    0.71773   0.81399   -2.000
 7176.00    0.74071   0.81925   -2.000
 7177.00    0.75319   0.82387   -2.000
 7178.00    0.74381   0.82671   -2.000
 7179.00    0.73740   0.82740   -2.000
 7180.00    0.73639   0.82631   -2.000
 7181.00    0.72630   0.82449   -2.000
 7182.00    0.70184   0.82258   -2.000
 7183.00    0.68568   0.82002   -2.000
 7184.00    0.68105   0.81625   -2.000
 7185.00    0.67346   0.81197   -2.000
 7186.00    0.66223   0.80870   -2.000
 7187.00    0.66663   0.80738   -2.000
 7188.00    0.68788   0.80725   -2.000
 7189.00    0.69643   0.80699   -2.000
 7190.00    0.69290   0.80589   -2.000
 7191.00    0.69262   0.80377   -2.000
 7192.00    0.69505   0.80109   -2.000
 7193.00    0.68897   0.79838   -2.000
 7194.00    0.67659   0.79591   -2.000
 7195.00    0.67593   0.79411   -2.000
 7196.00    0.68286   0.79315   -2.000
 7197.00    0.67868   0.79307   -2.000
 7198.00    0.66820   0.79431   -2.000
 7199.00    0.67637   0.79690   -2.000
 7200.00    0.69374   0.79971   -2.000
 7201.00    0.71066   0.80185   -2.000
 7202.00    0.72739   0.80352   -2.000
 7203.00    0.71733   0.80518   -2.000
 7204.00    0.69748   0.80680   -2.000
 7205.00    0.67484   0.80794   -2.000
 7206.00    0.65133   0.80837   -2.000
 7207.00    0.64493   0.80866   -2.000
 7208.00    0.64294   0.80919   -2.000
 7209.00    0.64748   0.80917   -2.000
 7210.00    0.65341   0.80746   -2.000
 7211.00    0.65304   0.80388   -2.000
 7212.00    0.65162   0.80007   -2.000
 7213.00    0.67353   0.79762   -2.000
 7214.00    0.69836   0.79690   -2.000
 7215.00    0.68866   0.79773   -2.000
 7216.00    0.67596   0.79946   -2.000
 7217.00    0.66540   0.80165   -2.000
 7218.00    0.65496   0.80435   -2.000
