###################################################################
## OUTPUT of StarlightChains_v04.for    [Cid@UFSC - 01/Apr/2007] ##
###################################################################

## Some input info
KUG0210-078._29_28.txt                   [arq_obs]
Base.CB07.vall.4m                        [arq_base]
Masks.EmLines.NEW.gm                     [arq_masks]
StCv04.C11.config                        [arq_config]
   66                                    [N_base]
    0                                    [N_YAV_components = # of components with extra extinction!]
    0                                    [i_FitPowerLaw (1/0 = Yes/No)]
-9.99                                    [alpha_PowerLaw]
CCM                                      [red_law_option]
 1.458241                                [q_norm = A(l_norm)/A(V)]

## (Re)Sampling Parameters
 3741.00                                 [l_ini (A)]
 7218.00                                 [l_fin (A)]
    1.00                                 [dl    (A)]     (OBS: dl_cushion =    50.00 A)

## Normalization info
 4020.00                                 [l_norm (A) - for base]
 4010.00                                 [llow_norm (A) - window for f_obs]
 4060.00                                 [lupp_norm (A) - window for f_obs]
3.607714E-17                             [fobs_norm (in input units)]

## S/N
 3691.00                                 [llow_SN (A) - window for S/N]
 7268.00                                 [lupp_SN (A) - window for S/N]
   5.989                                 [S/N in S/N window]
   7.513                                 [S/N in norm. window]
   0.048                                 [S/N_err in S/N window]
   0.061                                 [S/N_err in norm. window]
  1.0000                                 [fscale_chi2]

## etc...
    -2007404                             [idum_orig]
  2432                                   [NOl_eff]
  2120                                   [Nl_eff]
   312    NSIGMA                         [Ntot_cliped & clip_method]
 10664920                                [Nglobal_steps]
   7                                     [N_chains]
  34                                     [NEX0s_base = N_base in EX0s-fits]
 0   0   1      312   2.0   2.831E+04    [Clip-Bug, RC-Crash & Burn-In warning-flags, n_censored_weights, wei_nsig_threshold & wei_limit]
    76     75.344     74.661      0.683  [idt_all, wdt_TotTime, wdt_UsrTime & wdt_SysTime (sec)]

## Synthesis Results - Best model ##

 2.31688E-05                             [chi2/Nl_eff]
     5.62246                             [adev (%)]

    88.05303                             [sum-of-x (%)]
 4.00417E-17                             [Flux_tot (units of input spectrum!)]
 1.67428E-12                             [Mini_tot (???)]
 8.43145E-13                             [Mcor_tot (???)]

  17.43                                  [v0_min  (km/s)]
 311.36                                  [vd_min  (km/s)]
 0.1724                                  [AV_min  (mag)]
 0.0000                                  [YAV_min (mag)]

# j     x_j(%)      Mini_j(%)     Mcor_j(%)     age_j(yr)     Z_j      (L/M)_j    YAV?  Mstars   component_j        a/Fe...       SSP_chi2r SSP_adev(%)   SSP_AV   SSP_x(%)
  1      0.0000     0.0000E+00    0.0000E+00    1.000000E+06  0.00400  1.094E-02    0   1.0000   age020_m42            0.0000     4.6316E-05     9.7559   2.9024    75.4339
  2      0.0000     0.0000E+00    0.0000E+00    3.160000E+06  0.00400  4.007E-02    0   0.9999   age045_m42            0.0000     4.1228E-05     8.8020   2.2660    78.1756
  3      0.0000     0.0000E+00    0.0000E+00    5.010000E+06  0.00400  2.539E-02    0   0.9488   age055_m42            0.0000     4.2776E-05     9.1358   2.5433    77.4440
  4      0.0000     0.0000E+00    0.0000E+00    6.610000E+06  0.00400  2.620E-02    0   0.9220   age061_m42            0.0000     3.9797E-05     8.5766   2.1921    78.4902
  5      0.0000     0.0000E+00    0.0000E+00    1.000000E+07  0.00400  1.322E-02    0   0.8862   age070_m42            0.0000     3.3911E-05     7.4528   1.8979    81.5110
  6      0.0000     0.0000E+00    0.0000E+00    1.445000E+07  0.00400  7.883E-03    0   0.8571   age078_m42            0.0000     3.6044E-05     7.8786   2.2025    79.8870
  7      0.0000     0.0000E+00    0.0000E+00    2.512000E+07  0.00400  5.251E-03    0   0.8174   age090_m42            0.0000     3.2957E-05     7.1932   1.7745    82.0097
  8      0.0000     0.0000E+00    0.0000E+00    4.000000E+07  0.00400  3.649E-03    0   0.7851   age104_m42            0.0000     3.2252E-05     7.0887   1.5631    82.1803
  9      0.0000     0.0000E+00    0.0000E+00    5.500000E+07  0.00400  3.098E-03    0   0.7629   age110_m42            0.0000     3.4318E-05     7.4837   1.7334    81.1750
 10      0.0000     0.0000E+00    0.0000E+00    1.015200E+08  0.00400  2.228E-03    0   0.7207   age116_m42            0.0000     3.5342E-05     7.6728   1.7663    80.6732
 11      0.0000     0.0000E+00    0.0000E+00    2.861200E+08  0.00400  1.093E-03    0   0.6648   age125_m42            0.0000     3.1629E-05     7.0207   1.2164    83.1656
 12      0.0000     0.0000E+00    0.0000E+00    5.088000E+08  0.00400  6.597E-04    0   0.6365   age130_m42            0.0000     3.2229E-05     7.1399   1.2300    82.7292
 13      0.0000     0.0000E+00    0.0000E+00    1.434000E+09  0.00400  2.132E-04    0   0.5798   age139_m42            0.0000     2.7926E-05     6.3593   0.2913    83.3760
 14      0.0000     0.0000E+00    0.0000E+00    4.250000E+09  0.00400  5.895E-05    0   0.5377   age158_m42            0.0000     2.9849E-05     7.0365  -0.1660    80.2119
 15      0.0000     0.0000E+00    0.0000E+00    7.500000E+09  0.00400  3.510E-05    0   0.5212   age171_m42            0.0000     3.0075E-05     7.1752  -0.3469    79.3832
 16      0.0000     0.0000E+00    0.0000E+00    1.300000E+10  0.00400  2.005E-05    0   0.5034   age193_m42            0.0000     3.0366E-05     7.3468  -0.5078    78.8090
 17      0.0000     0.0000E+00    0.0000E+00    1.800000E+10  0.00400  1.525E-05    0   0.4967   age213_m42            0.0000     3.0476E-05     7.3430  -0.5363    78.5858
 18      0.0000     0.0000E+00    0.0000E+00    1.000000E+06  0.00800  1.238E-02    0   1.0000   age020_m52            0.0000     4.5728E-05     9.7095   2.9001    75.6085
 19      0.0000     0.0000E+00    0.0000E+00    3.160000E+06  0.00800  3.074E-02    0   0.9966   age045_m52            0.0000     4.5278E-05     9.6308   2.8315    76.0738
 20      0.0000     0.0000E+00    0.0000E+00    5.010000E+06  0.00800  2.668E-02    0   0.9443   age055_m52            0.0000     4.2625E-05     9.1281   2.6150    77.1246
 21      0.0000     0.0000E+00    0.0000E+00    6.610000E+06  0.00800  2.136E-02    0   0.9177   age061_m52            0.0000     3.1154E-05     7.0869   1.4036    82.5905
 22      0.0000     0.0000E+00    0.0000E+00    1.000000E+07  0.00800  1.215E-02    0   0.8827   age070_m52            0.0000     3.3171E-05     7.2813   2.0628    82.0180
 23      0.0000     0.0000E+00    0.0000E+00    1.445000E+07  0.00800  8.717E-03    0   0.8552   age078_m52            0.0000     3.5207E-05     7.6719   2.1760    80.8352
 24      4.3818     2.1283E-02    3.4494E-02    2.512000E+07  0.00800  5.592E-03    0   0.8162   age090_m52            0.0000     3.2262E-05     7.0428   1.8412    82.8899
 25      4.9038     3.4187E-02    5.3229E-02    4.000000E+07  0.00800  3.896E-03    0   0.7841   age104_m52            0.0000     3.2243E-05     7.0713   1.7723    82.8196
 26      0.0000     0.0000E+00    0.0000E+00    1.015200E+08  0.00800  2.148E-03    0   0.7226   age116_m52            0.0000     3.3159E-05     7.3170   1.7325    81.6819
 27      0.0000     0.0000E+00    0.0000E+00    2.861200E+08  0.00800  9.925E-04    0   0.6683   age125_m52            0.0000     3.1435E-05     7.0296   1.2904    83.6301
 28      0.0000     0.0000E+00    0.0000E+00    9.047900E+08  0.00800  3.141E-04    0   0.6138   age135_m52            0.0000     2.8406E-05     6.5877   0.5499    85.0024
 29      1.9586     3.0947E-01    3.5968E-01    1.434000E+09  0.00800  1.719E-04    0   0.5853   age139_m52            0.0000     2.6585E-05     6.4450  -0.0520    84.1017
 30      0.0000     0.0000E+00    0.0000E+00    2.500000E+09  0.00800  7.872E-05    0   0.5600   age150_m52            0.0000     2.8471E-05     6.9422  -0.3119    81.2494
 31      0.0000     0.0000E+00    0.0000E+00    4.250000E+09  0.00800  4.336E-05    0   0.5426   age158_m52            0.0000     2.8895E-05     7.0685  -0.3291    80.4984
 32      0.0000     0.0000E+00    0.0000E+00    6.250000E+09  0.00800  3.159E-05    0   0.5319   age166_m52            0.0000     2.9797E-05     7.3075  -0.5205    80.0068
 33      0.0000     0.0000E+00    0.0000E+00    1.300000E+10  0.00800  1.361E-05    0   0.5073   age193_m52            0.0000     3.1761E-05     7.6505  -0.9814    79.0243
 34      0.0000     0.0000E+00    0.0000E+00    1.800000E+10  0.00800  9.886E-06    0   0.4990   age213_m52            0.0000     3.4209E-05     7.5480  -1.0000    75.7975
 35      0.0000     0.0000E+00    0.0000E+00    1.000000E+06  0.02000  1.544E-02    0   1.0000   age020_m62            0.0000     4.5361E-05     9.6872   2.8964    75.8364
 36      0.0000     0.0000E+00    0.0000E+00    3.160000E+06  0.02000  3.762E-02    0   0.9858   age045_m62            0.0000     4.5869E-05     9.7436   2.8343    76.4538
 37      7.7761     6.4079E-03    1.1887E-02    5.010000E+06  0.02000  3.296E-02    0   0.9342   age055_m62            0.0000     4.2467E-05     9.0866   2.5159    77.9542
 38      0.0000     0.0000E+00    0.0000E+00    8.710000E+06  0.02000  1.154E-02    0   0.8861   age067_m62            0.0000     2.7983E-05     6.2055   1.4685    88.2673
 39      0.0000     0.0000E+00    0.0000E+00    1.445000E+07  0.02000  7.663E-03    0   0.8472   age078_m62            0.0000     3.0022E-05     6.7321   1.7051    84.8309
 40     12.9884     7.7841E-02    1.2519E-01    2.512000E+07  0.02000  4.532E-03    0   0.8099   age090_m62            0.0000     2.9787E-05     6.6855   1.6986    84.7171
 41      0.0000     0.0000E+00    0.0000E+00    5.500000E+07  0.02000  2.733E-03    0   0.7595   age110_m62            0.0000     3.1271E-05     6.9443   1.7480    82.6598
 42      0.0000     0.0000E+00    0.0000E+00    1.609000E+08  0.02000  1.369E-03    0   0.6985   age120_m62            0.0000     3.2060E-05     7.0995   1.6283    83.1866
 43      0.0000     0.0000E+00    0.0000E+00    2.861200E+08  0.02000  9.013E-04    0   0.6714   age125_m62            0.0000     3.1470E-05     6.9536   1.4104    84.4114
 44      0.0000     0.0000E+00    0.0000E+00    5.088000E+08  0.02000  5.028E-04    0   0.6449   age130_m62            0.0000     3.1269E-05     7.0569   1.0784    84.7687
 45      4.5592     5.1001E-01    6.2578E-01    9.047900E+08  0.02000  2.428E-04    0   0.6179   age135_m62            0.0000     2.8132E-05     6.7168   0.5028    83.9877
 46      0.0000     0.0000E+00    0.0000E+00    1.434000E+09  0.02000  1.263E-04    0   0.5908   age139_m62            0.0000     2.7091E-05     6.6916   0.0508    83.0149
 47      0.5133     2.3293E-01    2.6240E-01    2.500000E+09  0.02000  5.985E-05    0   0.5673   age150_m62            0.0000     2.9458E-05     7.1994  -0.3157    81.6811
 48      0.0000     0.0000E+00    0.0000E+00    4.250000E+09  0.02000  3.271E-05    0   0.5468   age158_m62            0.0000     3.1712E-05     7.6292  -0.6073    80.3720
 49      0.0000     0.0000E+00    0.0000E+00    1.000000E+10  0.02000  1.360E-05    0   0.5167   age181_m62            0.0000     3.4510E-05     8.0795  -0.9361    79.3599
 50     10.9025     4.1567E+01    4.1378E+01    1.800000E+10  0.02000  7.124E-06    0   0.5013   age213_m62            0.0000     3.9403E-05     7.8614  -1.0000    74.1612
 51      0.0000     0.0000E+00    0.0000E+00    1.000000E+06  0.05000  2.592E-02    0   0.9998   age020_m72            0.0000     4.3880E-05     9.5492   2.8900    76.0441
 52      0.0000     0.0000E+00    0.0000E+00    3.160000E+06  0.05000  4.845E-02    0   0.9577   age045_m72            0.0000     4.5498E-05     9.6391   2.7370    76.8099
 53     10.2455     9.0584E-03    1.6453E-02    5.010000E+06  0.05000  3.072E-02    0   0.9147   age055_m72            0.0000     3.4671E-05     7.9016   2.2660    81.4613
 54     14.8244     2.7673E-02    4.8780E-02    6.610000E+06  0.05000  1.455E-02    0   0.8877   age061_m72            0.0000     3.8538E-05     8.3925   1.4708    91.4462
 55      0.0000     0.0000E+00    0.0000E+00    1.000000E+07  0.05000  9.074E-03    0   0.8524   age070_m72            0.0000     3.8275E-05     8.9814   2.4309    81.7504
 56      0.0000     0.0000E+00    0.0000E+00    2.512000E+07  0.05000  4.250E-03    0   0.7902   age090_m72            0.0000     3.4659E-05     7.9573   2.1737    82.0845
 57      0.0000     0.0000E+00    0.0000E+00    4.000000E+07  0.05000  3.087E-03    0   0.7618   age104_m72            0.0000     3.3563E-05     7.6939   1.9586    83.2487
 58      0.0000     0.0000E+00    0.0000E+00    1.015200E+08  0.05000  1.700E-03    0   0.7096   age116_m72            0.0000     3.2317E-05     7.1082   1.7562    83.3879
 59      0.0000     0.0000E+00    0.0000E+00    2.861200E+08  0.05000  7.384E-04    0   0.6633   age125_m72            0.0000     3.0836E-05     6.8899   1.3036    84.5515
 60      0.0000     0.0000E+00    0.0000E+00    5.088000E+08  0.05000  3.819E-04    0   0.6372   age130_m72            0.0000     2.9206E-05     6.7887   0.8427    84.7449
 61      0.0000     0.0000E+00    0.0000E+00    9.047900E+08  0.05000  1.676E-04    0   0.6110   age135_m72            0.0000     3.0002E-05     7.2144   0.1506    82.8582
 62      0.0000     0.0000E+00    0.0000E+00    1.434000E+09  0.05000  8.837E-05    0   0.5874   age139_m72            0.0000     2.8431E-05     7.0340  -0.3042    82.5383
 63      0.0000     0.0000E+00    0.0000E+00    2.500000E+09  0.05000  4.233E-05    0   0.5598   age150_m72            0.0000     3.2584E-05     7.7982  -0.6065    80.9379
 64      7.9834     1.5111E+01    1.5750E+01    6.250000E+09  0.05000  1.435E-05    0   0.5249   age166_m72            0.0000     3.5670E-05     8.0660  -1.0000    77.9639
 65      0.0000     0.0000E+00    0.0000E+00    1.300000E+10  0.05000  6.513E-06    0   0.5036   age193_m72            0.0000     4.7622E-05     7.6245  -1.0000    70.1722
 66      7.0160     4.2094E+01    4.1334E+01    1.800000E+10  0.05000  4.527E-06    0   0.4945   age213_m72            0.0000     5.9187E-05     7.7232  -1.0000    65.4121


## Synthesis Results - Average & Chains ##

# j      x_j: min, <> & last-chain-values for 1 ...  7 chains
  1      0.0000      0.0911      0.4255      0.0998      0.0000      1.5358      0.2289      0.2970      0.0000
  2      0.0000      0.1073      0.1371      0.3381      0.0000      0.3314      0.0000      0.0000      2.0589
  3      0.0000      0.1037      0.8860      0.5899      0.0220      0.0000      0.0000      0.1318      0.0000
  4      0.0000      0.1295      0.4637      0.0000      0.0000      0.2518      0.0848      0.0000      0.9443
  5      0.0000      0.1041      0.4240      0.2248      0.0252      0.0000      0.3130      0.0000      0.1267
  6      0.0000      0.0837      0.0000      0.0000      0.4609      0.9785      0.0000      0.1211      0.0596
  7      0.0000      0.1502      0.5526      0.9965      0.3398      0.4424      0.1717      1.0632      0.3811
  8      0.0000      0.1187      0.0000      0.7315      0.1118      0.0000      0.1284      0.1759      1.0210
  9      0.0000      0.1116      0.5492      0.3129      0.0000      0.0000      0.1194      0.5612      0.9914
 10      0.0000      0.1047      0.3448      0.1218      0.5898      0.8070      0.1137      0.1632      0.5036
 11      0.0000      0.0885      0.9315      0.4549      0.0152      0.6440      0.5779      0.0000      0.1647
 12      0.0000      0.1291      0.2106      0.4337      0.6611      0.4660      1.6162      0.3926      0.9387
 13      0.0000      0.1173      0.2728      0.1343      0.0000      0.6945      0.1591      0.3228      0.5557
 14      0.0000      0.1249      0.7496      0.5617      0.2142      0.1109      0.0193      0.0000      0.2129
 15      0.0000      0.1055      0.2338      0.6741      0.0000      0.1822      0.6415      0.0640      0.2646
 16      0.0000      0.1497      0.0000      0.2693      0.0485      0.4513      0.0000      0.4150      0.6385
 17      0.0000      0.1103      0.0000      0.1406      0.0000      0.0000      0.1655      0.1929      0.5964
 18      0.0000      0.1155      0.5258      0.4481      0.5445      0.0000      0.0000      0.0897      1.3557
 19      0.0000      0.1531      1.0957      0.7261      0.2669      0.3799      0.6268      0.1561      0.3110
 20      0.0000      0.1451      1.0858      0.9054      0.1588      0.0000      0.5054      0.6270      0.0000
 21      0.0000      0.1301      0.4203      0.4388      0.4716      0.5677      0.0067      0.3495      0.3071
 22      0.0000      0.1105      0.8161      0.7061      1.1904      0.0000      0.6791      0.4939      0.3696
 23      0.0000      0.1229      0.6093      0.4815      0.2277      0.0000      0.0000      0.2260      1.2780
 24      4.3818      0.1148      0.0639      0.1155      0.4207      0.2854      0.3245      0.8165      0.3004
 25      4.9038      0.1464      0.0000      0.0358      0.2912      0.3313      0.7538      0.1960      0.2779
 26      0.0000      0.1614      0.0760      1.4576      0.2130      0.5659      0.3653      0.1560      1.2858
 27      0.0000      0.1194      0.4340      0.0000      0.0000      0.2602      0.4284      0.2177      0.3411
 28      0.0000      0.1305      0.1092      0.0000      0.1106      0.1130      0.3021      0.7080      0.0000
 29      1.9586      0.1027      0.0000      0.1356      0.3199      1.0379      0.3566      0.1432      0.4227
 30      0.0000      0.1299      0.3893      0.1415      0.5882      0.4115      0.0000      0.4818      0.5052
 31      0.0000      0.1837      0.2690      0.4987      0.8379      0.0494      1.4094      0.3219      1.4419
 32      0.0000      0.1482      0.6559      0.0000      0.0000      0.3581      0.0000      0.0000      0.0000
 33      0.0000      0.1075      0.0000      0.1656      0.2382      2.1358      0.2572      0.5424      0.5947
 34      0.0000      0.0949      1.1341      0.0000      0.0000      0.0000      0.1901      0.0000      0.3255
 35      0.0000      0.1267      0.0000      0.8169      2.3796      0.0000      0.2075      0.6625      0.0000
 36      0.0000      0.0930      0.5579      0.0000      0.5559      0.2145      0.2137      0.0327      0.0771
 37      7.7761      0.1063      0.1120      0.1038      0.6966      0.1931      0.0000      0.5724      0.2432
 38      0.0000      0.1716      0.0874      0.1187      0.1522      0.4530      1.7504      0.5952      0.6471
 39      0.0000      0.1681      0.6787      0.4048      0.8467      1.1146      0.0000      1.1366      0.5354
 40     12.9884      0.0966      0.0398      0.4343      0.2392      0.2092      0.5900      0.6422      0.0000
 41      0.0000      0.1109      0.0000      0.9188      0.0000      0.5870      0.3897      0.2839      0.3924
 42      0.0000      0.1429      0.0000      1.3223      0.0000      0.2581      0.0000      0.1650      0.3809
 43      0.0000      0.0879      0.1442      1.0802      0.0000      0.2945      0.7490      0.0000      0.3101
 44      0.0000     22.0592     18.1662     18.9028     19.7268     16.2407     17.9537     18.3609     15.3547
 45      4.5592      0.0992      0.0000      0.5097      0.4659      0.6071      0.3016      0.6095      0.0464
 46      0.0000      0.1156      0.0000      0.6200      0.2603      0.0634      0.6795      0.6300      0.7115
 47      0.5133      0.1336      0.0000      0.0000      1.4051      0.1696      0.5034      0.0029      1.0892
 48      0.0000      0.1320      0.0000      0.0000      0.7019      1.4875      0.3266      0.0501      1.3785
 49      0.0000      0.0785      0.0000      0.0212      0.0000      0.3043      0.1851      0.1815      0.0000
 50     10.9025     24.4344     22.3465     22.1893     22.1606     19.9500     19.3726     23.2562     21.1417
 51      0.0000      0.1265      1.3852      0.6803      1.0114      0.0000      0.5448      0.5468      0.0000
 52      0.0000      0.1147      0.5346      0.0000      0.0000      0.4255      0.4214      0.0000      0.2716
 53     10.2455      0.1188      0.0000      0.0000      1.6731      0.6258      0.3729      0.3918      0.3386
 54     14.8244      0.1682      0.4228      0.3653      2.4079      0.0000      0.0000      0.4935      0.0573
 55      0.0000      0.1288      0.4118      0.3294      0.3498      0.0000      1.1159      0.3557      1.0910
 56      0.0000      0.1171      0.0000      0.4898      0.0762      0.9065      0.0000      1.9521      0.2103
 57      0.0000      0.1152      0.6418      0.3906      0.1258      0.7392      0.6094      0.4033      0.0000
 58      0.0000      0.1255      0.3380      0.0310      0.4940      0.5118      0.8967      0.1421      0.6342
 59      0.0000      0.1378      1.0688      0.3637      0.5686      0.9525      1.1545      0.4747      0.3202
 60      0.0000      0.1318      0.9803      0.2962      0.3813      0.5570      0.0000      0.0000      0.0066
 61      0.0000      0.0983      0.0448      0.6343      0.0000      0.2955      0.0000      0.1404      0.2145
 62      0.0000      0.0831      0.0000      0.0000      0.0233      0.0398      0.2832      0.0000      0.2470
 63      0.0000      0.1057      0.4650      0.1044      0.0000      0.3240      1.3215      0.5526      0.0000
 64      7.9834      0.1265      0.0000      0.4176      0.3254      0.1467      0.3364      0.2607      0.0000
 65      0.0000     10.7334     10.9348      8.4984     10.4424      8.3284     11.1990      9.6488     10.8510
 66      7.0160     35.0821     27.3296     27.5244     23.9580     29.8747     27.5678     27.6649     25.2138

# j      m_j: min, <> & last-chain-values for 1 ...  7 chains
  1  0.0000E+00  1.2913E-04  7.0417E-04  1.7156E-04  0.0000E+00  2.5535E-03  3.8922E-04  4.9280E-04  0.0000E+00
  2  0.0000E+00  4.1489E-05  6.1950E-05  1.5860E-04  0.0000E+00  1.5042E-04  0.0000E+00  0.0000E+00  9.7888E-04
  3  0.0000E+00  6.0097E-05  5.9943E-04  4.1443E-04  1.6158E-05  0.0000E+00  0.0000E+00  8.9392E-05  0.0000E+00
  4  0.0000E+00  7.0665E-05  2.9542E-04  0.0000E+00  0.0000E+00  1.6116E-04  5.5525E-05  0.0000E+00  6.3316E-04
  5  0.0000E+00  1.0815E-04  5.1454E-04  2.8333E-04  3.3314E-05  0.0000E+00  3.9029E-04  0.0000E+00  1.6188E-04
  6  0.0000E+00  1.4111E-04  0.0000E+00  0.0000E+00  9.8652E-04  1.9353E-03  0.0000E+00  2.3894E-04  1.2353E-04
  7  0.0000E+00  3.6239E-04  1.5573E-03  2.9164E-03  1.0412E-03  1.2526E-03  4.9721E-04  3.0046E-03  1.1304E-03
  8  0.0000E+00  3.9595E-04  0.0000E+00  2.9591E-03  4.7370E-04  0.0000E+00  5.1375E-04  6.8693E-04  4.1852E-03
  9  0.0000E+00  4.2611E-04  2.4485E-03  1.4488E-03  0.0000E+00  0.0000E+00  5.4706E-04  2.5089E-03  4.6517E-03
 10  0.0000E+00  5.2491E-04  2.0192E-03  7.4044E-04  3.7554E-03  4.7484E-03  6.8393E-04  9.5863E-04  3.1039E-03
 11  0.0000E+00  8.3412E-04  1.0258E-02  5.2019E-03  1.8204E-04  7.1243E-03  6.5381E-03  0.0000E+00  1.9081E-03
 12  0.0000E+00  1.9305E-03  3.6779E-03  7.8666E-03  1.2557E-02  8.1774E-03  2.9006E-02  6.8761E-03  1.7255E-02
 13  0.0000E+00  4.9443E-03  1.3430E-02  6.8645E-03  0.0000E+00  3.4353E-02  8.0461E-03  1.5936E-02  2.8795E-02
 14  0.0000E+00  1.7660E-02  1.2379E-01  9.6332E-02  3.8466E-02  1.8395E-02  3.2672E-03  0.0000E+00  3.7007E-02
 15  0.0000E+00  2.4290E-02  6.2858E-02  1.8818E-01  0.0000E+00  4.9218E-02  1.7718E-01  1.7249E-02  7.4848E-02
 16  0.0000E+00  5.8284E-02  0.0000E+00  1.2713E-01  2.3979E-02  2.0611E-01  0.0000E+00  1.8915E-01  3.0542E-01
 17  0.0000E+00  5.5711E-02  0.0000E+00  8.6104E-02  0.0000E+00  0.0000E+00  1.0029E-01  1.1408E-01  3.7013E-01
 18  0.0000E+00  1.4462E-04  7.6886E-04  6.8049E-04  8.6580E-04  0.0000E+00  0.0000E+00  1.3151E-04  2.0865E-03
 19  0.0000E+00  7.6962E-05  6.4312E-04  4.4255E-04  1.7033E-04  2.2402E-04  3.7799E-04  9.1858E-05  1.9213E-04
 20  0.0000E+00  7.9616E-05  6.9574E-04  6.0248E-04  1.1062E-04  0.0000E+00  3.3273E-04  4.0288E-04  0.0000E+00
 21  0.0000E+00  8.6633E-05  3.2692E-04  3.5440E-04  3.9887E-04  4.4365E-04  5.3832E-06  2.7260E-04  2.5138E-04
 22  0.0000E+00  1.2442E-04  1.0734E-03  9.6448E-04  1.7025E-03  0.0000E+00  9.1774E-04  6.5134E-04  5.1156E-04
 23  0.0000E+00  1.8692E-04  1.0822E-03  8.8811E-04  4.3968E-04  0.0000E+00  0.0000E+00  4.0259E-04  2.3888E-03
 24  3.4494E-02  2.5983E-04  1.6895E-04  3.1690E-04  1.2089E-03  7.5776E-04  8.8106E-04  2.1634E-03  8.3530E-04
 25  5.3229E-02  4.5672E-04  0.0000E+00  1.3534E-04  1.1536E-03  1.2128E-03  2.8221E-03  7.1607E-04  1.0657E-03
 26  0.0000E+00  8.4161E-04  4.6279E-04  9.2189E-03  1.4107E-03  3.4629E-03  2.2858E-03  9.5259E-04  8.2412E-03
 27  0.0000E+00  1.2462E-03  5.2909E-03  0.0000E+00  0.0000E+00  3.1875E-03  5.3660E-03  2.6615E-03  4.3756E-03
 28  0.0000E+00  3.9527E-03  3.8641E-03  0.0000E+00  4.2556E-03  4.0165E-03  1.0981E-02  2.5115E-02  0.0000E+00
 29  3.5968E-01  5.4207E-03  0.0000E+00  8.6828E-03  2.1439E-02  6.4279E-02  2.2586E-02  8.8531E-03  2.7422E-02
 30  0.0000E+00  1.4320E-02  5.0140E-02  1.8922E-02  8.2366E-02  5.3250E-02  0.0000E+00  6.2221E-02  6.8477E-02
 31  0.0000E+00  3.5642E-02  6.0946E-02  1.1732E-01  2.0640E-01  1.1239E-02  3.2807E-01  7.3128E-02  3.4379E-01
 32  0.0000E+00  3.8672E-02  1.9992E-01  0.0000E+00  0.0000E+00  1.0969E-01  0.0000E+00  0.0000E+00  0.0000E+00
 33  0.0000E+00  6.2108E-02  0.0000E+00  1.1607E-01  1.7475E-01  1.4481E+00  1.7836E-01  3.6702E-01  4.2232E-01
 34  0.0000E+00  7.4274E-02  1.0363E+00  0.0000E+00  0.0000E+00  0.0000E+00  1.7850E-01  0.0000E+00  3.1307E-01
 35  0.0000E+00  1.2718E-04  0.0000E+00  9.9475E-04  3.0339E-03  0.0000E+00  2.4993E-04  7.7894E-04  0.0000E+00
 36  0.0000E+00  3.7783E-05  2.6467E-04  0.0000E+00  2.8672E-04  1.0223E-04  1.0417E-04  1.5555E-05  3.8511E-05
 37  1.1887E-02  4.6728E-05  5.7489E-05  5.5330E-05  3.8868E-04  9.9545E-05  0.0000E+00  2.9453E-04  1.3132E-04
 38  0.0000E+00  2.0430E-04  1.2156E-04  1.7134E-04  2.2998E-04  6.3275E-04  2.5001E-03  8.2969E-04  9.4671E-04
 39  0.0000E+00  2.8803E-04  1.3585E-03  8.4149E-04  1.8428E-03  2.2414E-03  0.0000E+00  2.2811E-03  1.1279E-03
 40  1.2519E-01  2.6753E-04  1.2883E-04  1.4592E-03  8.4143E-04  6.8009E-04  1.9611E-03  2.0834E-03  0.0000E+00
 41  0.0000E+00  4.7770E-04  0.0000E+00  4.8005E-03  0.0000E+00  2.9670E-03  2.0145E-03  1.4324E-03  2.0778E-03
 42  0.0000E+00  1.1303E-03  0.0000E+00  1.2684E-02  0.0000E+00  2.3953E-03  0.0000E+00  1.5280E-03  3.7033E-03
 43  0.0000E+00  1.0156E-03  1.9451E-03  1.5129E-02  0.0000E+00  3.9909E-03  1.0379E-02  0.0000E+00  4.4019E-03
 44  0.0000E+00  4.3861E-01  4.2183E-01  4.5582E-01  4.9807E-01  3.7889E-01  4.2835E-01  4.2752E-01  3.7523E-01
 45  6.2578E-01  3.9134E-03  0.0000E+00  2.4388E-02  2.3341E-02  2.8100E-02  1.4277E-02  2.8157E-02  2.2474E-03
 46  0.0000E+00  8.3859E-03  0.0000E+00  5.4530E-02  2.3967E-02  5.3961E-03  5.9125E-02  5.3501E-02  6.3408E-02
 47  2.6240E-01  1.9636E-02  0.0000E+00  0.0000E+00  2.6218E-01  2.9241E-02  8.8765E-02  4.9995E-04  1.9671E-01
 48  0.0000E+00  3.4207E-02  0.0000E+00  0.0000E+00  2.3095E-01  4.5229E-01  1.0155E-01  1.5217E-02  4.3905E-01
 49  0.0000E+00  4.6256E-02  0.0000E+00  1.5161E-02  0.0000E+00  2.1031E-01  1.3081E-01  1.2517E-01  0.0000E+00
 50  4.1378E+01  2.6654E+01  2.8468E+01  2.9356E+01  3.0696E+01  2.5535E+01  2.5358E+01  2.9708E+01  2.8345E+01
 51  0.0000E+00  7.5643E-05  9.6728E-04  4.9337E-04  7.6794E-04  0.0000E+00  3.9088E-04  3.8289E-04  0.0000E+00
 52  0.0000E+00  3.5154E-05  1.9133E-04  0.0000E+00  0.0000E+00  1.5300E-04  1.5494E-04  0.0000E+00  1.0228E-04
 53  1.6453E-02  5.4833E-05  0.0000E+00  0.0000E+00  9.8066E-04  3.3893E-04  2.0655E-04  2.1177E-04  1.9211E-04
 54  4.8780E-02  1.5908E-04  4.6698E-04  4.1902E-04  2.8918E-03  0.0000E+00  0.0000E+00  5.4653E-04  6.6643E-05
 55  0.0000E+00  1.8762E-04  7.0036E-04  5.8180E-04  6.4685E-04  0.0000E+00  1.9500E-03  6.0659E-04  1.9527E-03
 56  0.0000E+00  3.3764E-04  0.0000E+00  1.7122E-03  2.7901E-04  3.0656E-03  0.0000E+00  6.5890E-03  7.4504E-04
 57  0.0000E+00  4.4081E-04  2.8671E-03  1.8124E-03  6.1104E-04  3.3180E-03  2.7972E-03  1.8069E-03  0.0000E+00
 58  0.0000E+00  8.1183E-04  2.5542E-03  2.4321E-04  4.0589E-03  3.8859E-03  6.9622E-03  1.0767E-03  5.0435E-03
 59  0.0000E+00  1.9190E-03  1.7382E-02  6.1428E-03  1.0054E-02  1.5564E-02  1.9291E-02  7.7402E-03  5.4796E-03
 60  0.0000E+00  3.4087E-03  2.9612E-02  9.2926E-03  1.2524E-02  1.6904E-02  0.0000E+00  0.0000E+00  2.1083E-04
 61  0.0000E+00  5.5571E-03  2.9558E-03  4.3476E-02  0.0000E+00  1.9596E-02  0.0000E+00  9.2938E-03  1.4899E-02
 62  0.0000E+00  8.5652E-03  0.0000E+00  0.0000E+00  3.0549E-03  4.8177E-03  3.5012E-02  0.0000E+00  3.1287E-02
 63  0.0000E+00  2.1671E-02  1.1132E-01  2.5958E-02  0.0000E+00  7.7937E-02  3.2509E-01  1.3267E-01  0.0000E+00
 64  1.5750E+01  7.1747E-02  0.0000E+00  2.8715E-01  2.3429E-01  9.7582E-02  2.2888E-01  1.7312E-01  0.0000E+00
 65  0.0000E+00  1.2866E+01  1.5307E+01  1.2354E+01  1.5894E+01  1.1713E+01  1.6108E+01  1.3544E+01  1.5986E+01
 66  4.1334E+01  5.9407E+01  5.4046E+01  5.6526E+01  5.1516E+01  5.9357E+01  5.6015E+01  5.4859E+01  5.2475E+01

# AV, chi2 & Mass for <> & i_chain = 1 ...  7 solutions
AV       0.1724     -0.9882     -1.0000     -1.0000     -1.0000     -1.0000     -1.0000     -1.0000     -1.0000
chi2 2.3169E-05  1.8308E-04  6.9163E-05  5.3306E-05  4.5677E-05  6.8432E-05  6.2109E-05  6.6097E-05  6.0345E-05
Mass 8.4315E-13  6.1724E-13  5.2019E-13  5.0091E-13  4.7841E-13  5.1775E-13  5.0628E-13  5.1877E-13  4.9428E-13
  17.43                                  [v0_min (km/s) before EX0s...]
 311.36                                  [vd_min (km/s) before EX0s...]


## Synthetic spectrum (Best Model) ##l_obs f_obs f_syn wei
 3478    [Nl_obs]
 3741.00    0.25279   0.62805    0.000
 3742.00    0.26259   0.63042    0.000
 3743.00    0.22636   0.62768    0.000
 3744.00    0.18293   0.62075    0.000
 3745.00    0.13529   0.60990   -1.000
 3746.00    0.13896   0.59746   -1.000
 3747.00    0.16869   0.58598   -1.000
 3748.00    0.20583   0.57726   -1.000
 3749.00    0.24622   0.57313   -1.000
 3750.00    0.33700   0.57434   -1.000
 3751.00    0.44680   0.58116   -1.000
 3752.00    0.40997   0.59292   -1.000
 3753.00    0.32616   0.60808   -1.000
 3754.00    0.40282   0.62451   -1.000
 3755.00    0.52250   0.64060   -1.000
 3756.00    0.50602   0.65536   -1.000
 3757.00    0.45964   0.66718   -1.000
 3758.00    0.41526   0.67567   -1.000
 3759.00    0.37122   0.68116   -1.000
 3760.00    0.33269   0.68312   -1.000
 3761.00    0.29489   0.68210   -1.000
 3762.00    0.31284   0.67858   -1.000
 3763.00    0.33603   0.67179   -1.000
 3764.00    0.36909   0.66262   -1.000
 3765.00    0.40272   0.65242   -1.000
 3766.00    0.36039   0.64114   -1.000
 3767.00    0.31721   0.62992   -1.000
 3768.00    0.38883   0.62096   -1.000
 3769.00    0.45832   0.61532   -1.000
 3770.00    0.47579   0.61385   -1.000
 3771.00    0.48546   0.61732   -1.000
 3772.00    0.39284   0.62550   -1.000
 3773.00    0.31716   0.63845   -1.000
 3774.00    0.39021   0.65520   -1.000
 3775.00    0.44659   0.67341   -1.000
 3776.00    0.39492   0.69272   -1.000
 3777.00    0.34874   0.71215   -1.000
 3778.00    0.33034   0.72950   -1.000
 3779.00    0.33019   0.74431   -1.000
 3780.00    0.40476   0.75618   -1.000
 3781.00    0.48471   0.76460   -1.000
 3782.00    0.58294   0.76912   -1.000
 3783.00    0.65560   0.76952   -1.000
 3784.00    0.65511   0.76665   -1.000
 3785.00    0.64988   0.76063   -1.000
 3786.00    0.63305   0.75144   -1.000
 3787.00    0.59787   0.73985   -1.000
 3788.00    0.52404   0.72630   -1.000
 3789.00    0.46561   0.71090   -1.000
 3790.00    0.43539   0.69370   -1.000
 3791.00    0.39106   0.67474   -1.000
 3792.00    0.32414   0.65479   -1.000
 3793.00    0.34373   0.63490   -1.000
 3794.00    0.48483   0.61522   -1.000
 3795.00    0.51768   0.59753   -1.000
 3796.00    0.41672   0.58446   -1.000
 3797.00    0.32689   0.57652   -1.000
 3798.00    0.24918   0.57462   -1.000
 3799.00    0.26408   0.57943   -1.000
 3800.00    0.36798   0.59026   -1.000
 3801.00    0.39625   0.60641   -1.000
 3802.00    0.36043   0.62582   -1.000
 3803.00    0.37839   0.64600   -1.000
 3804.00    0.43648   0.66668   -1.000
 3805.00    0.57488   0.68655   -1.000
 3806.00    0.76590   0.70341   -1.000
 3807.00    0.79840   0.71753   -1.000
 3808.00    0.73993   0.72883   -1.000
 3809.00    0.63008   0.73673   -1.000
 3810.00    0.49456   0.74150   -1.000
 3811.00    0.37310   0.74301   -1.000
 3812.00    0.25771   0.74128   -1.000
 3813.00    0.33295   0.73682   -1.000
 3814.00    0.47889   0.73042   -1.000
 3815.00    0.51312   0.72204   -1.000
 3816.00    0.51222   0.71181   -1.000
 3817.00    0.48904   0.70202   -1.000
 3818.00    0.46001   0.69335   -1.000
 3819.00    0.41203   0.68538   -1.000
 3820.00    0.35999   0.67894   -1.000
 3821.00    0.29591   0.67332   -1.000
 3822.00    0.22979   0.66893   -1.000
 3823.00    0.21954   0.66552   -1.000
 3824.00    0.21646   0.66054   -1.000
 3825.00    0.26680   0.65425   -1.000
 3826.00    0.32193   0.64663   -1.000
 3827.00    0.34816   0.63646   -1.000
 3828.00    0.37285   0.62343   -1.000
 3829.00    0.34971   0.60759   -1.000
 3830.00    0.32534   0.59043   -1.000
 3831.00    0.27860   0.57259   -1.000
 3832.00    0.23436   0.55519   -1.000
 3833.00    0.24552   0.54080   -1.000
 3834.00    0.26003   0.52998   -1.000
 3835.00    0.31606   0.52401   -1.000
 3836.00    0.36232   0.52466   -1.000
 3837.00    0.32606   0.53091   -1.000
 3838.00    0.28871   0.54303   -1.000
 3839.00    0.24453   0.56048   -1.000
 3840.00    0.20556   0.58049   -1.000
 3841.00    0.19231   0.60281   -1.000
 3842.00    0.17475   0.62557   -1.000
 3843.00    0.13994   0.64653   -1.000
 3844.00    0.13539   0.66605   -1.000
 3845.00    0.23142   0.68268   -1.000
 3846.00    0.32192   0.69593   -1.000
 3847.00    0.39688   0.70641    0.000
 3848.00    0.44572   0.71441    0.000
 3849.00    0.43182   0.72028    0.000
 3850.00    0.41263   0.72357    0.000
 3851.00    0.38248   0.72561    0.000
 3852.00    0.32610   0.72657    0.000
 3853.00    0.22240   0.72616    0.000
 3854.00    0.18158   0.72596    0.000
 3855.00    0.23991   0.72476    0.000
 3856.00    0.34788   0.72317    0.000
 3857.00    0.52455   0.72260    0.000
 3858.00    0.55979   0.72192    0.000
 3859.00    0.42268   0.72196    0.000
 3860.00    0.35105   0.72259    0.000
 3861.00    0.34976   0.72296    0.000
 3862.00    0.38517   0.72398    0.000
 3863.00    0.45535   0.72513    0.000
 3864.00    0.44753   0.72496    0.000
 3865.00    0.37454   0.72454    0.000
 3866.00    0.34982   0.72397    0.000
 3867.00    0.36062   0.72207    0.000
 3868.00    0.38202   0.71969    0.000
 3869.00    0.41028   0.71675    0.000
 3870.00    0.44754   0.71413    0.000
 3871.00    0.48988   0.71215    0.000
 3872.00    0.53707   0.70928    0.000
 3873.00    0.58664   0.70623    0.000
 3874.00    0.59587   0.70342    0.000
 3875.00    0.58796   0.69974    0.000
 3876.00    0.55162   0.69539    0.000
 3877.00    0.50494   0.69002    0.000
 3878.00    0.52379   0.68243    0.000
 3879.00    0.56284   0.67344    0.000
 3880.00    0.56069   0.66309    0.000
 3881.00    0.54796   0.65088   -1.000
 3882.00    0.43426   0.63653   -1.000
 3883.00    0.29944   0.62055   -1.000
 3884.00    0.37939   0.60494   -1.000
 3885.00    0.49475   0.58982   -1.000
 3886.00    0.55879   0.57628   -1.000
 3887.00    0.61647   0.56679   -1.000
 3888.00    0.55171   0.56194   -1.000
 3889.00    0.47647   0.56279   -1.000
 3890.00    0.58135   0.56899   -1.000
 3891.00    0.69521   0.57985   -1.000
 3892.00    0.66103   0.59537   -1.000
 3893.00    0.62404   0.61384   -1.000
 3894.00    0.56177   0.63338   -1.000
 3895.00    0.50125   0.65245   -1.000
 3896.00    0.47661   0.67042   -1.000
 3897.00    0.45396   0.68662   -1.000
 3898.00    0.45496   0.70110   -1.000
 3899.00    0.45778   0.71321   -1.000
 3900.00    0.47546   0.72274   -1.000
 3901.00    0.49500   0.73172   -1.000
 3902.00    0.52594   0.73906   -1.000
 3903.00    0.55951   0.74543   -1.000
 3904.00    0.60572   0.75198   -1.000
 3905.00    0.64211   0.75772   -1.000
 3906.00    0.64004   0.76400   -1.000
 3907.00    0.62627   0.76998   -1.000
 3908.00    0.57435   0.77521   -1.000
 3909.00    0.52369   0.78083   -1.000
 3910.00    0.47651   0.78521   -1.000
 3911.00    0.46947   0.78802   -1.000
 3912.00    0.55723   0.78968   -1.000
 3913.00    0.66604   0.78907   -1.000
 3914.00    0.81782   0.78679   -1.000
 3915.00    0.85322   0.78263   -1.000
 3916.00    0.68191   0.77634   -1.000
 3917.00    0.59299   0.76922   -1.000
 3918.00    0.63207   0.76126   -1.000
 3919.00    0.63679   0.75340   -1.000
 3920.00    0.59462   0.74526   -1.000
 3921.00    0.51439   0.73721   -1.000
 3922.00    0.38842   0.72978   -1.000
 3923.00    0.34129   0.72188   -1.000
 3924.00    0.37765   0.71445   -1.000
 3925.00    0.39985   0.70629   -1.000
 3926.00    0.40880   0.69732   -1.000
 3927.00    0.37550   0.68838   -1.000
 3928.00    0.30740   0.67845   -1.000
 3929.00    0.27881   0.66898   -1.000
 3930.00    0.27886   0.66010   -1.000
 3931.00    0.28021   0.65256   -1.000
 3932.00    0.28238   0.64771   -1.000
 3933.00    0.27023   0.64497   -1.000
 3934.00    0.25013   0.64549   -1.000
 3935.00    0.26789   0.64875   -1.000
 3936.00    0.30398   0.65466   -1.000
 3937.00    0.37136   0.66321   -1.000
 3938.00    0.45181   0.67256   -1.000
 3939.00    0.49597   0.68280   -1.000
 3940.00    0.52713   0.69305   -1.000
 3941.00    0.51299   0.70247   -1.000
 3942.00    0.48515   0.71185   -1.000
 3943.00    0.45969   0.72047   -1.000
 3944.00    0.43483   0.72775   -1.000
 3945.00    0.49421   0.73462   -1.000
 3946.00    0.57076   0.74118   -1.000
 3947.00    0.55636   0.74725   -1.000
 3948.00    0.52740   0.75272   -1.000
 3949.00    0.51310   0.75646   -1.000
 3950.00    0.50054   0.75929   -1.000
 3951.00    0.55180   0.76156   -1.000
 3952.00    0.60826   0.76158   -1.000
 3953.00    0.64292   0.75936   -1.000
 3954.00    0.67658   0.75542   -1.000
 3955.00    0.65315   0.74952   -1.000
 3956.00    0.62961   0.74136   -1.000
 3957.00    0.63811   0.73012   -1.000
 3958.00    0.64078   0.71547   -1.000
 3959.00    0.53289   0.69856   -1.000
 3960.00    0.43990   0.67923    0.000
 3961.00    0.51470   0.65645    0.000
 3962.00    0.57631   0.63157    0.000
 3963.00    0.53422   0.60547    0.000
 3964.00    0.48659   0.57877    0.000
 3965.00    0.40611   0.55334    0.000
 3966.00    0.34090   0.52976    0.000
 3967.00    0.34740   0.51008    0.000
 3968.00    0.34186   0.49665    0.000
 3969.00    0.29015   0.48950    0.000
 3970.00    0.25639   0.48952    0.000
 3971.00    0.27999   0.49743    0.000
 3972.00    0.31046   0.51250    0.000
 3973.00    0.35956   0.53367    0.000
 3974.00    0.43084   0.55934    0.000
 3975.00    0.55363   0.58757    0.000
 3976.00    0.65729   0.61673    0.000
 3977.00    0.72255   0.64557    0.000
 3978.00    0.78201   0.67215    0.000
 3979.00    0.83133   0.69594    0.000
 3980.00    0.82366   0.71726    0.000
 3981.00    0.72874   0.73527   -1.000
 3982.00    0.65416   0.75074   -1.000
 3983.00    0.60694   0.76378   -1.000
 3984.00    0.64228   0.77451   -1.000
 3985.00    0.77539   0.78453   -1.000
 3986.00    0.84715   0.79265   -1.000
 3987.00    0.85484   0.79960   -1.000
 3988.00    0.85560   0.80606   -1.000
 3989.00    0.84996   0.81081   -1.000
 3990.00    0.87438   0.81521   -1.000
 3991.00    0.92321   0.81819   -1.000
 3992.00    0.96153   0.82004   -1.000
 3993.00    0.99235   0.82209   -1.000
 3994.00    1.00467   0.82325   -1.000
 3995.00    1.00539   0.82436   -1.000
 3996.00    0.96367   0.82569   -1.000
 3997.00    0.89871   0.82682   -1.000
 3998.00    0.88424   0.82812   -1.000
 3999.00    0.89382   0.82944   -1.000
 4000.00    0.89653   0.83021   -1.000
 4001.00    0.89641   0.83044   -1.000
 4002.00    0.92282   0.82963   -1.000
 4003.00    0.95854   0.82820   -1.000
 4004.00    0.97491   0.82675   -1.000
 4005.00    0.98553   0.82496   -1.000
 4006.00    1.05459   0.82330   -1.000
 4007.00    1.13801   0.82263   -1.000
 4008.00    1.01355   0.82362   -1.000
 4009.00    0.84776   0.82598   -1.000
 4010.00    0.92094   0.82952   -1.000
 4011.00    1.03124   0.83364   -1.000
 4012.00    1.02009   0.83855   -1.000
 4013.00    0.99497   0.84400   -1.000
 4014.00    0.98404   0.84832   -1.000
 4015.00    0.97421   0.85221   -1.000
 4016.00    0.99157   0.85498   -1.000
 4017.00    1.01009   0.85593   -1.000
 4018.00    1.02345   0.85563   -1.000
 4019.00    1.03635   0.85340   -1.000
 4020.00    1.03074   0.84984   -1.000
 4021.00    1.02755   0.84519   -1.000
 4022.00    1.06707   0.83918   -1.000
 4023.00    1.10353   0.83284   -1.000
 4024.00    1.10715   0.82696   -1.000
 4025.00    1.11250   0.82145   -1.000
 4026.00    1.13096   0.81633   -1.000
 4027.00    1.14614   0.81183   -1.000
 4028.00    1.14235   0.80863   -1.000
 4029.00    1.11769   0.80740   -1.000
 4030.00    0.99737   0.80687   -1.000
 4031.00    0.93675   0.80744   -1.000
 4032.00    1.10006   0.80904   -1.000
 4033.00    1.19842   0.81216   -1.000
 4034.00    1.09315   0.81742   -1.000
 4035.00    1.01001   0.82259   -1.000
 4036.00    0.98575   0.82810   -1.000
 4037.00    1.00581   0.83318   -1.000
 4038.00    1.12710   0.83694   -1.000
 4039.00    1.17212   0.83965   -1.000
 4040.00    1.06639   0.83939   -1.000
 4041.00    1.00909   0.83685   -1.000
 4042.00    1.03522   0.83340   -1.000
 4043.00    1.00000   0.82924   -1.000
 4044.00    0.87224   0.82625   -1.000
 4045.00    0.82992   0.82366   -1.000
 4046.00    0.90088   0.82169   -1.000
 4047.00    0.88601   0.82190   -1.000
 4048.00    0.77092   0.82367   -1.000
 4049.00    0.71548   0.82689   -1.000
 4050.00    0.72144   0.83002   -1.000
 4051.00    0.74460   0.83190   -1.000
 4052.00    0.78337   0.83273   -1.000
 4053.00    0.80278   0.83263   -1.000
 4054.00    0.80671   0.83098   -1.000
 4055.00    0.83267   0.82818   -1.000
 4056.00    0.87415   0.82489   -1.000
 4057.00    0.87071   0.82076   -1.000
 4058.00    0.83953   0.81674   -1.000
 4059.00    0.82745   0.81245   -1.000
 4060.00    0.82566   0.80830   -1.000
 4061.00    0.84943   0.80527   -1.000
 4062.00    0.88517   0.80297   -1.000
 4063.00    0.88693   0.80097   -1.000
 4064.00    0.87496   0.79922   -1.000
 4065.00    0.84533   0.79825   -1.000
 4066.00    0.80960   0.79805   -1.000
 4067.00    0.76542   0.79866   -1.000
 4068.00    0.71878   0.79877   -1.000
 4069.00    0.74890   0.79797   -1.000
 4070.00    0.79745   0.79770   -1.000
 4071.00    0.81552   0.79682   -1.000
 4072.00    0.82768   0.79521   -1.000
 4073.00    0.85987   0.79352   -1.000
 4074.00    0.89507   0.79195   -1.000
 4075.00    0.84971   0.79255   -1.000
 4076.00    0.79544   0.79381   -1.000
 4077.00    0.79313   0.79503   -1.000
 4078.00    0.79461   0.79744   -1.000
 4079.00    0.77575   0.80076   -1.000
 4080.00    0.75612   0.80545   -1.000
 4081.00    0.86037   0.81058   -1.000
 4082.00    0.96435   0.81504   -1.000
 4083.00    1.03238   0.81910   -1.000
 4084.00    1.09635   0.82214   -1.000
 4085.00    1.09331   0.82403   -1.000
 4086.00    1.09198   0.82509   -1.000
 4087.00    1.10834   0.82462   -1.000
 4088.00    1.10032   0.82273   -1.000
 4089.00    0.91331   0.81868   -1.000
 4090.00    0.78178   0.81181   -1.000
 4091.00    0.96149   0.80235   -1.000
 4092.00    1.09727   0.78962    0.000
 4093.00    1.03646   0.77457    0.000
 4094.00    0.97480   0.75707    0.000
 4095.00    0.91003   0.73740    0.000
 4096.00    0.87230   0.71684    0.000
 4097.00    0.91772   0.69564    0.000
 4098.00    0.91545   0.67597    0.000
 4099.00    0.78857   0.65961    0.000
 4100.00    0.69549   0.64756    0.000
 4101.00    0.67831   0.64020    0.000
 4102.00    0.67385   0.63782    0.000
 4103.00    0.69413   0.64079    0.000
 4104.00    0.70278   0.64925    0.000
 4105.00    0.69170   0.66255    0.000
 4106.00    0.72983   0.67814    0.000
 4107.00    0.84109   0.69462    0.000
 4108.00    0.87564   0.71166    0.000
 4109.00    0.80995   0.72757    0.000
 4110.00    0.77934   0.74228    0.000
 4111.00    0.78910   0.75516    0.000
 4112.00    0.78238   0.76584    0.000
 4113.00    0.75890   0.77474   -1.000
 4114.00    0.72671   0.78162   -1.000
 4115.00    0.68672   0.78693   -1.000
 4116.00    0.71847   0.79051   -1.000
 4117.00    0.80683   0.79294   -1.000
 4118.00    0.86501   0.79433   -1.000
 4119.00    0.90224   0.79554   -1.000
 4120.00    0.90026   0.79627   -1.000
 4121.00    0.87441   0.79659   -1.000
 4122.00    0.85737   0.79763   -1.000
 4123.00    0.84500   0.79811   -1.000
 4124.00    0.84842   0.79878   -1.000
 4125.00    0.85910   0.79868   -1.000
 4126.00    0.82577   0.79793    0.236
 4127.00    0.77497   0.79661    0.098
 4128.00    0.73822   0.79440    0.087
 4129.00    0.70623   0.79210    0.088
 4130.00    0.71287   0.79012    0.088
 4131.00    0.73051   0.78942    0.088
 4132.00    0.76478   0.78899    0.087
 4133.00    0.80295   0.78970    0.087
 4134.00    0.85118   0.79069    0.088
 4135.00    0.90131   0.79270    0.090
 4136.00    0.92599   0.79469    0.091
 4137.00    0.94695   0.79534    0.092
 4138.00    0.89450   0.79487    0.091
 4139.00    0.83426   0.79228    0.091
 4140.00    0.86010   0.78914    0.092
 4141.00    0.89189   0.78539    0.093
 4142.00    0.79775   0.78133    0.092
 4143.00    0.69927   0.77757    0.091
 4144.00    0.77258   0.77409    0.091
 4145.00    0.84196   0.77169    0.092
 4146.00    0.77018   0.77148    0.092
 4147.00    0.70278   0.77338    0.091
 4148.00    0.70299   0.77562    0.091
 4149.00    0.69988   0.77738    0.091
 4150.00    0.66395   0.77932    0.090
 4151.00    0.63982   0.78100    0.090
 4152.00    0.69953   0.78265    0.092
 4153.00    0.74346   0.78508    0.093
 4154.00    0.70127   0.78720    0.092
 4155.00    0.67244   0.78988    0.090
 4156.00    0.70207   0.79267    0.090
 4157.00    0.72331   0.79625    0.089
 4158.00    0.71443   0.80008    0.089
 4159.00    0.73032   0.80345    0.089
 4160.00    0.82097   0.80709    0.088
 4161.00    0.88972   0.80959    0.088
 4162.00    0.90224   0.81094    0.088
 4163.00    0.91060   0.81106    0.088
 4164.00    0.90981   0.81030    0.089
 4165.00    0.89181   0.80866    0.090
 4166.00    0.84086   0.80550    0.088
 4167.00    0.77646   0.80139    0.087
 4168.00    0.68957   0.79711    0.086
 4169.00    0.66766   0.79243    0.086
 4170.00    0.74093   0.78800    0.087
 4171.00    0.78995   0.78425    0.087
 4172.00    0.80771   0.78065    0.086
 4173.00    0.75965   0.77768    0.085
 4174.00    0.63691   0.77521    0.084
 4175.00    0.60366   0.77414    0.084
 4176.00    0.65998   0.77447    0.084
 4177.00    0.70221   0.77543    0.084
 4178.00    0.73201   0.77708    0.083
 4179.00    0.75361   0.77899    0.083
 4180.00    0.76885   0.78135    0.083
 4181.00    0.76431   0.78386    0.082
 4182.00    0.74624   0.78589    0.081
 4183.00    0.70862   0.78787    0.081
 4184.00    0.65927   0.78935    0.081
 4185.00    0.74114   0.79102    0.082
 4186.00    0.89163   0.79223    0.085
 4187.00    0.93704   0.79335    0.085
 4188.00    0.93479   0.79440    0.084
 4189.00    0.86843   0.79424    0.083
 4190.00    0.77706   0.79449    0.082
 4191.00    0.74516   0.79446    0.082
 4192.00    0.73302   0.79360    0.082
 4193.00    0.77381   0.79168    0.083
 4194.00    0.82936   0.78920    0.084
 4195.00    0.87708   0.78682    0.084
 4196.00    0.92301   0.78329    0.084
 4197.00    0.88296   0.77955    0.085
 4198.00    0.82710   0.77684    0.085
 4199.00    0.76708   0.77532    0.085
 4200.00    0.70648   0.77499    0.084
 4201.00    0.77493   0.77620    0.084
 4202.00    0.85654   0.77911    0.083
 4203.00    0.79023   0.78293    0.083
 4204.00    0.71428   0.78708    0.082
 4205.00    0.74347   0.79222    0.083
 4206.00    0.77594   0.79742    0.083
 4207.00    0.84296   0.80186    0.082
 4208.00    0.90570   0.80565    0.082
 4209.00    0.84295   0.80819    0.083
 4210.00    0.78254   0.80949    0.085
 4211.00    0.75634   0.81000    0.086
 4212.00    0.72956   0.81023    0.087
 4213.00    0.69720   0.81035    0.083
 4214.00    0.67742   0.81058    0.080
 4215.00    0.74409   0.81028    0.083
 4216.00    0.81047   0.81004    0.084
 4217.00    0.87529   0.80887    0.084
 4218.00    0.93631   0.80732    0.084
 4219.00    0.98115   0.80558    0.085
 4220.00    0.97822   0.80158    0.086
 4221.00    0.80699   0.79559    0.084
 4222.00    0.67959   0.78810    0.083
 4223.00    0.68195   0.78082    0.082
 4224.00    0.66201   0.77312    0.082
 4225.00    0.58578   0.76633    0.081
 4226.00    0.58877   0.76175    0.081
 4227.00    0.76392   0.75890    0.083
 4228.00    0.87106   0.75824    0.083
 4229.00    0.84996   0.76028    0.081
 4230.00    0.82448   0.76518    0.080
 4231.00    0.79179   0.77062    0.079
 4232.00    0.78321   0.77586    0.078
 4233.00    0.80943   0.78088    0.076
 4234.00    0.79372   0.78514    0.074
 4235.00    0.72477   0.78842    0.072
 4236.00    0.71666   0.79244    0.072
 4237.00    0.77662   0.79668    0.073
 4238.00    0.79826   0.80021    0.072
 4239.00    0.78211   0.80492    0.071
 4240.00    0.82318   0.80943    0.071
 4241.00    0.91405   0.81336    0.071
 4242.00    0.92750   0.81654    0.072
 4243.00    0.88159   0.81896    0.073
 4244.00    0.86714   0.82000    0.073
 4245.00    0.87390   0.81878    0.074
 4246.00    0.82440   0.81690    0.074
 4247.00    0.74169   0.81351    0.075
 4248.00    0.69459   0.80831    0.075
 4249.00    0.66583   0.80263    0.075
 4250.00    0.66346   0.79736    0.075
 4251.00    0.67286   0.79316    0.074
 4252.00    0.68639   0.78946    0.074
 4253.00    0.70150   0.78684    0.075
 4254.00    0.76687   0.78604    0.074
 4255.00    0.84861   0.78549    0.074
 4256.00    0.88189   0.78554    0.074
 4257.00    0.90195   0.78738    0.073
 4258.00    0.92007   0.79019    0.073
 4259.00    0.93776   0.79347    0.074
 4260.00    0.87453   0.79603    0.074
 4261.00    0.79684   0.79848    0.075
 4262.00    0.81289   0.80032    0.075
 4263.00    0.84177   0.80167    0.074
 4264.00    0.88144   0.80250    0.075
 4265.00    0.92217   0.80149    0.075
 4266.00    0.91847   0.79820    0.075
 4267.00    0.91206   0.79298    0.075
 4268.00    0.89259   0.78696    0.073
 4269.00    0.87265   0.77946    0.072
 4270.00    0.83113   0.77280    0.072
 4271.00    0.79248   0.76774    0.071
 4272.00    0.82955   0.76375    0.072
 4273.00    0.86132   0.76175    0.073
 4274.00    0.82024   0.76191    0.073
 4275.00    0.78177   0.76476    0.073
 4276.00    0.76697   0.76869    0.073
 4277.00    0.75077   0.77322    0.073
 4278.00    0.72519   0.77850    0.072
 4279.00    0.70665   0.78318    0.072
 4280.00    0.72453   0.78633    0.072
 4281.00    0.74948   0.78816    0.072
 4282.00    0.80389   0.78768   -2.000
 4283.00    0.85304   0.78633   -2.000
 4284.00    0.88401   0.78374   -2.000
 4285.00    0.89724   0.78012   -2.000
 4286.00    0.85890   0.77670   -2.000
 4287.00    0.80069   0.77227   -2.000
 4288.00    0.69316   0.76858   -2.000
 4289.00    0.59356   0.76493   -2.000
 4290.00    0.51090   0.76179   -2.000
 4291.00    0.51524   0.75858   -2.000
 4292.00    0.68110   0.75537   -2.000
 4293.00    0.79875   0.75295   -2.000
 4294.00    0.83820   0.74961   -2.000
 4295.00    0.82345   0.74599   -2.000
 4296.00    0.73162   0.74052   -2.000
 4297.00    0.65859   0.73457   -2.000
 4298.00    0.60911   0.72815    0.075
 4299.00    0.59354   0.72097    0.075
 4300.00    0.61540   0.71399    0.074
 4301.00    0.63889   0.70696    0.074
 4302.00    0.66396   0.70101    0.075
 4303.00    0.66703   0.69660    0.075
 4304.00    0.65122   0.69355    0.075
 4305.00    0.63447   0.69174    0.075
 4306.00    0.61701   0.69238    0.075
 4307.00    0.62969   0.69467    0.074
 4308.00    0.66239   0.69929    0.074
 4309.00    0.67241   0.70650    0.074
 4310.00    0.66924   0.71575    0.074
 4311.00    0.69677   0.72797    0.073
 4312.00    0.73985   0.74165    0.072
 4313.00    0.78290   0.75656    0.072
 4314.00    0.82594   0.77119    0.071
 4315.00    0.81308   0.78504    0.071
 4316.00    0.77918   0.79675    0.071
 4317.00    0.76305   0.80573    0.071
 4318.00    0.75261   0.81193    0.072
 4319.00    0.80113   0.81402    0.072
 4320.00    0.86541   0.81295    0.073
 4321.00    0.88565   0.80901    0.074
 4322.00    0.89626   0.80374    0.075
 4323.00    0.91599   0.79723    0.075
 4324.00    0.93731   0.79160    0.075
 4325.00    0.82606   0.78651    0.074
 4326.00    0.69726   0.78286    0.072
 4327.00    0.71576   0.78108    0.072
 4328.00    0.74801   0.78041    0.072
 4329.00    0.86143   0.78118    0.072
 4330.00    0.97949   0.78077    0.000
 4331.00    0.94738   0.77859    0.000
 4332.00    0.91206   0.77311    0.000
 4333.00    0.91004   0.76440    0.000
 4334.00    0.91054   0.75319    0.000
 4335.00    0.97170   0.73932    0.000
 4336.00    1.02762   0.72438    0.000
 4337.00    1.01531   0.70917    0.000
 4338.00    0.99683   0.69557    0.000
 4339.00    0.92444   0.68406    0.000
 4340.00    0.85086   0.67683    0.000
 4341.00    0.76954   0.67481    0.000
 4342.00    0.71235   0.67740    0.000
 4343.00    0.77687   0.68513    0.000
 4344.00    0.82335   0.69645    0.000
 4345.00    0.79620   0.70982    0.000
 4346.00    0.78888   0.72377    0.000
 4347.00    0.84871   0.73780    0.000
 4348.00    0.89273   0.75040    0.000
 4349.00    0.89165   0.76142    0.000
 4350.00    0.87312   0.77121    0.000
 4351.00    0.81200   0.77955    0.072
 4352.00    0.78677   0.78669    0.072
 4353.00    0.83702   0.79295    0.072
 4354.00    0.90486   0.79934    0.071
 4355.00    1.00488   0.80639    0.071
 4356.00    1.00903   0.81359    0.070
 4357.00    0.86000   0.82096    0.070
 4358.00    0.77633   0.82839    0.070
 4359.00    0.78429   0.83523    0.069
 4360.00    0.85279   0.84121    0.069
 4361.00    0.99600   0.84611    0.070
 4362.00    1.09131   0.85042    0.071
 4363.00    1.13454   0.85341    0.072
 4364.00    1.11790   0.85514    0.072
 4365.00    1.04384   0.85523    0.071
 4366.00    0.95216   0.85391    0.070
 4367.00    0.84559   0.85133    0.069
 4368.00    0.79327   0.84736    0.069
 4369.00    0.78138   0.84276    0.069
 4370.00    0.80973   0.83783    0.070
 4371.00    0.86443   0.83308    0.071
 4372.00    0.89714   0.82834    0.071
 4373.00    0.91725   0.82393    0.070
 4374.00    0.87538   0.81969    0.069
 4375.00    0.80259   0.81528    0.068
 4376.00    0.80121   0.81030    0.069
 4377.00    0.83065   0.80506    0.070
 4378.00    0.89134   0.79931    0.071
 4379.00    0.96359   0.79326    0.072
 4380.00    0.88810   0.78613    0.072
 4381.00    0.76627   0.77852    0.071
 4382.00    0.70032   0.77100    0.070
 4383.00    0.64898   0.76416    0.069
 4384.00    0.66269   0.75892    0.069
 4385.00    0.69030   0.75533    0.069
 4386.00    0.73396   0.75465    0.069
 4387.00    0.78034   0.75656    0.069
 4388.00    0.78955   0.76115    0.069
 4389.00    0.79402   0.76750    0.069
 4390.00    0.74155   0.77498    0.069
 4391.00    0.68400   0.78325    0.069
 4392.00    0.73393   0.79134    0.070
 4393.00    0.78958   0.79922    0.072
 4394.00    0.80172   0.80650    0.071
 4395.00    0.81349   0.81244    0.070
 4396.00    0.86461   0.81682    0.071
 4397.00    0.90921   0.81918    0.071
 4398.00    0.81065   0.81995    0.071
 4399.00    0.72094   0.81931    0.071
 4400.00    0.74073   0.81686    0.070
 4401.00    0.75865   0.81341    0.069
 4402.00    0.76091   0.80920    0.071
 4403.00    0.75435   0.80524    0.072
 4404.00    0.69247   0.80240    0.071
 4405.00    0.63184   0.80054    0.070
 4406.00    0.57734   0.80006    0.070
 4407.00    0.56364   0.80114    0.070
 4408.00    0.71282   0.80369    0.071
 4409.00    0.82267   0.80746    0.072
 4410.00    0.80208   0.81181    0.071
 4411.00    0.78816   0.81634    0.071
 4412.00    0.79292   0.82044    0.071
 4413.00    0.82608   0.82393    0.071
 4414.00    0.92733   0.82698    0.071
 4415.00    0.97715   0.82936    0.071
 4416.00    0.92054   0.83124    0.071
 4417.00    0.89659   0.83288    0.071
 4418.00    0.93146   0.83480    0.072
 4419.00    0.92108   0.83660    0.072
 4420.00    0.83950   0.83853    0.071
 4421.00    0.80333   0.84030    0.071
 4422.00    0.82990   0.84130    0.071
 4423.00    0.87740   0.84176    0.072
 4424.00    0.95038   0.84148    0.072
 4425.00    0.98254   0.84071    0.072
 4426.00    0.97092   0.83968    0.072
 4427.00    0.92919   0.83824    0.072
 4428.00    0.85898   0.83673    0.071
 4429.00    0.87124   0.83508    0.071
 4430.00    0.95226   0.83328    0.072
 4431.00    0.93398   0.83186    0.072
 4432.00    0.84278   0.83042    0.071
 4433.00    0.78747   0.82975    0.071
 4434.00    0.75531   0.82960    0.072
 4435.00    0.79242   0.83008    0.073
 4436.00    0.86860   0.83158    0.074
 4437.00    0.80840   0.83336    0.073
 4438.00    0.68125   0.83564    0.073
 4439.00    0.72143   0.83850    0.073
 4440.00    0.83262   0.84145    0.073
 4441.00    0.85339   0.84468    0.073
 4442.00    0.84130   0.84749    0.073
 4443.00    0.86699   0.85013    0.073
 4444.00    0.90429   0.85241    0.073
 4445.00    0.88078   0.85426    0.073
 4446.00    0.84171   0.85580    0.073
 4447.00    0.89215   0.85672    0.072
 4448.00    0.96126   0.85668    0.072
 4449.00    0.92614   0.85523    0.071
 4450.00    0.87389   0.85226    0.070
 4451.00    0.87844   0.84789    0.071
 4452.00    0.88999   0.84216    0.072
 4453.00    0.94077   0.83604    0.072
 4454.00    0.99490   0.82930    0.072
 4455.00    0.96989   0.82273    0.071
 4456.00    0.94098   0.81692    0.070
 4457.00    0.93713   0.81175    0.070
 4458.00    0.93282   0.80817    0.070
 4459.00    0.87541   0.80580    0.069
 4460.00    0.81857   0.80504    0.068
 4461.00    0.77359   0.80556    0.000
 4462.00    0.74005   0.80680    0.000
 4463.00    0.84115   0.80884    0.000
 4464.00    0.93290   0.81122    0.000
 4465.00    0.94878   0.81411    0.000
 4466.00    0.95714   0.81688    0.000
 4467.00    0.91971   0.82006    0.000
 4468.00    0.89414   0.82357    0.000
 4469.00    0.92542   0.82696    0.000
 4470.00    0.94840   0.83119    0.000
 4471.00    0.93894   0.83571    0.000
 4472.00    0.93630   0.84097    0.000
 4473.00    0.95583   0.84615    0.000
 4474.00    0.95381   0.85147    0.000
 4475.00    0.89256   0.85636    0.000
 4476.00    0.84801   0.86043    0.000
 4477.00    0.84283   0.86374    0.000
 4478.00    0.87411   0.86578    0.000
 4479.00    0.97964   0.86689    0.000
 4480.00    1.03551   0.86738    0.000
 4481.00    1.00335   0.86793    0.000
 4482.00    0.95905   0.86820    0.068
 4483.00    0.89593   0.86863    0.069
 4484.00    0.90075   0.86901    0.069
 4485.00    0.99810   0.86969    0.068
 4486.00    1.01243   0.87033    0.068
 4487.00    0.92722   0.87075    0.068
 4488.00    0.88295   0.87060    0.068
 4489.00    0.88196   0.86973    0.067
 4490.00    0.90723   0.86849    0.067
 4491.00    0.95699   0.86719    0.067
 4492.00    0.96948   0.86600    0.067
 4493.00    0.95134   0.86570    0.067
 4494.00    0.92111   0.86626    0.068
 4495.00    0.88213   0.86832    0.068
 4496.00    0.88342   0.87126    0.068
 4497.00    0.91029   0.87535    0.068
 4498.00    0.92368   0.88012    0.068
 4499.00    0.92958   0.88579    0.067
 4500.00    0.94661   0.89230    0.067
 4501.00    0.96902   0.89872    0.067
 4502.00    0.98122   0.90504    0.068
 4503.00    0.98916   0.91049    0.068
 4504.00    0.99333   0.91492    0.067
 4505.00    0.99614   0.91811    0.066
 4506.00    1.00027   0.91998    0.066
 4507.00    1.00480   0.92103    0.066
 4508.00    1.04853   0.92044    0.066
 4509.00    1.10209   0.91862    0.066
 4510.00    1.02913   0.91588    0.066
 4511.00    0.93045   0.91256    0.066
 4512.00    0.85907   0.90902    0.065
 4513.00    0.79205   0.90554    0.064
 4514.00    0.82975   0.90220    0.064
 4515.00    0.87989   0.89910    0.065
 4516.00    0.92060   0.89605    0.065
 4517.00    0.96054   0.89329    0.066
 4518.00    0.93735   0.89040    0.065
 4519.00    0.91129   0.88737    0.065
 4520.00    0.88757   0.88356    0.065
 4521.00    0.86546   0.87908    0.066
 4522.00    0.92439   0.87319    0.065
 4523.00    0.97998   0.86686    0.064
 4524.00    0.97308   0.85959    0.063
 4525.00    0.96503   0.85205    0.063
 4526.00    0.94402   0.84458    0.064
 4527.00    0.92291   0.83745    0.065
 4528.00    0.90094   0.83198    0.065
 4529.00    0.88100   0.82762    0.065
 4530.00    0.87304   0.82534    0.065
 4531.00    0.86948   0.82461    0.065
 4532.00    0.88661   0.82607    0.065
 4533.00    0.90005   0.82878    0.064
 4534.00    0.89944   0.83324    0.064
 4535.00    0.87778   0.83821    0.064
 4536.00    0.78896   0.84383    0.064
 4537.00    0.72933   0.84936    0.064
 4538.00    0.74853   0.85422    0.064
 4539.00    0.78904   0.85877    0.064
 4540.00    0.87895   0.86221    0.065
 4541.00    0.95905   0.86510    0.066
 4542.00    1.01948   0.86653    0.066
 4543.00    1.02982   0.86692    0.065
 4544.00    0.95269   0.86650    0.065
 4545.00    0.88420   0.86532    0.064
 4546.00    0.82891   0.86404    0.064
 4547.00    0.82609   0.86244    0.064
 4548.00    0.89369   0.86104    0.065
 4549.00    0.93717   0.85969    0.065
 4550.00    0.95213   0.85918    0.000
 4551.00    0.94785   0.85928    0.000
 4552.00    0.92351   0.86030    0.000
 4553.00    0.93843   0.86226    0.000
 4554.00    0.98944   0.86501    0.000
 4555.00    0.97288   0.86885    0.000
 4556.00    0.90157   0.87276    0.000
 4557.00    0.91269   0.87718    0.000
 4558.00    0.98260   0.88121    0.000
 4559.00    1.01295   0.88494    0.000
 4560.00    1.01854   0.88795    0.000
 4561.00    0.96554   0.89033    0.000
 4562.00    0.88051   0.89181    0.000
 4563.00    0.90269   0.89268    0.000
 4564.00    0.97584   0.89308    0.000
 4565.00    0.98323   0.89317    0.000
 4566.00    0.96364   0.89334    0.000
 4567.00    0.98343   0.89341    0.000
 4568.00    1.01701   0.89367    0.000
 4569.00    1.00685   0.89394    0.000
 4570.00    0.98375   0.89421    0.000
 4571.00    0.97617   0.89436    0.000
 4572.00    0.97238   0.89416    0.000
 4573.00    0.99383   0.89342    0.000
 4574.00    1.02029   0.89214    0.000
 4575.00    0.96709   0.89014    0.000
 4576.00    0.90156   0.88769    0.000
 4577.00    0.89775   0.88488    0.000
 4578.00    0.90100   0.88178    0.000
 4579.00    0.90976   0.87867    0.000
 4580.00    0.91894   0.87587    0.000
 4581.00    0.96805   0.87329    0.000
 4582.00    1.01883   0.87155    0.000
 4583.00    0.96733   0.87044    0.000
 4584.00    0.91540   0.87006    0.000
 4585.00    0.88354   0.87031    0.000
 4586.00    0.85349   0.87089    0.000
 4587.00    0.85507   0.87176    0.000
 4588.00    0.85509   0.87233    0.000
 4589.00    0.83846   0.87271    0.000
 4590.00    0.83222   0.87234    0.000
 4591.00    0.90451   0.87167    0.000
 4592.00    0.96065   0.87042    0.000
 4593.00    0.92395   0.86897    0.000
 4594.00    0.88668   0.86738    0.000
 4595.00    0.84690   0.86587    0.000
 4596.00    0.82028   0.86458    0.000
 4597.00    0.84295   0.86382    0.000
 4598.00    0.86558   0.86359    0.000
 4599.00    0.88809   0.86420    0.000
 4600.00    0.90517   0.86541    0.000
 4601.00    0.90785   0.86738    0.000
 4602.00    0.90357   0.87007    0.000
 4603.00    0.88340   0.87341    0.000
 4604.00    0.88157   0.87744    0.000
 4605.00    0.91593   0.88172    0.000
 4606.00    0.94961   0.88653    0.000
 4607.00    0.98211   0.89100    0.000
 4608.00    0.98526   0.89581    0.000
 4609.00    0.94421   0.89987    0.000
 4610.00    0.92857   0.90364    0.000
 4611.00    0.94655   0.90659    0.000
 4612.00    0.95615   0.90901    0.000
 4613.00    0.95597   0.91085    0.000
 4614.00    0.97994   0.91211    0.000
 4615.00    1.02873   0.91306    0.000
 4616.00    1.06079   0.91344    0.000
 4617.00    1.07768   0.91384    0.000
 4618.00    1.06071   0.91387    0.000
 4619.00    1.01668   0.91406    0.000
 4620.00    0.99926   0.91385    0.000
 4621.00    1.00054   0.91383    0.000
 4622.00    0.96568   0.91331    0.000
 4623.00    0.90854   0.91280    0.000
 4624.00    0.88944   0.91193    0.000
 4625.00    0.89084   0.91083    0.000
 4626.00    0.88173   0.90943    0.000
 4627.00    0.86771   0.90780    0.000
 4628.00    0.90763   0.90575    0.000
 4629.00    0.96931   0.90332    0.000
 4630.00    1.01427   0.90056    0.000
 4631.00    1.05347   0.89729    0.000
 4632.00    1.03339   0.89372    0.000
 4633.00    0.99613   0.88971    0.000
 4634.00    0.95327   0.88550    0.000
 4635.00    0.90908   0.88095    0.000
 4636.00    0.87465   0.87638    0.000
 4637.00    0.84211   0.87177    0.000
 4638.00    0.89365   0.86724    0.000
 4639.00    0.95780   0.86284    0.000
 4640.00    0.94019   0.85860    0.000
 4641.00    0.91359   0.85469    0.000
 4642.00    0.86599   0.85091    0.000
 4643.00    0.81687   0.84769    0.000
 4644.00    0.79603   0.84471    0.000
 4645.00    0.77626   0.84258    0.000
 4646.00    0.82683   0.84099    0.000
 4647.00    0.87723   0.84059    0.000
 4648.00    0.90781   0.84101    0.000
 4649.00    0.93619   0.84270    0.000
 4650.00    0.92859   0.84520    0.000
 4651.00    0.92105   0.84879    0.000
 4652.00    0.91411   0.85279    0.000
 4653.00    0.90843   0.85749    0.000
 4654.00    0.91197   0.86204    0.000
 4655.00    0.91289   0.86666    0.000
 4656.00    0.89925   0.87057    0.000
 4657.00    0.88655   0.87384    0.000
 4658.00    0.87806   0.87583    0.000
 4659.00    0.87214   0.87654    0.000
 4660.00    0.87563   0.87574    0.000
 4661.00    0.89491   0.87342    0.000
 4662.00    0.96260   0.86983    0.000
 4663.00    1.00593   0.86514    0.000
 4664.00    0.98573   0.86006    0.000
 4665.00    0.95393   0.85489    0.000
 4666.00    0.89612   0.85036    0.000
 4667.00    0.85478   0.84679    0.000
 4668.00    0.84542   0.84453    0.000
 4669.00    0.82795   0.84372    0.000
 4670.00    0.79671   0.84423    0.000
 4671.00    0.78777   0.84590    0.000
 4672.00    0.81192   0.84832    0.000
 4673.00    0.84378   0.85107    0.000
 4674.00    0.88573   0.85379    0.000
 4675.00    0.91514   0.85608    0.000
 4676.00    0.93016   0.85794    0.000
 4677.00    0.92187   0.85913    0.000
 4678.00    0.88998   0.85987    0.000
 4679.00    0.88986   0.86009    0.000
 4680.00    0.91813   0.86013    0.000
 4681.00    0.93187   0.85999    0.000
 4682.00    0.93414   0.85995    0.000
 4683.00    0.91372   0.85999    0.000
 4684.00    0.87756   0.86024    0.000
 4685.00    0.87713   0.86059    0.000
 4686.00    0.89841   0.86108    0.000
 4687.00    0.90434   0.86158    0.000
 4688.00    0.90213   0.86213    0.000
 4689.00    0.90798   0.86258    0.000
 4690.00    0.91753   0.86298    0.000
 4691.00    0.90670   0.86313    0.000
 4692.00    0.88779   0.86306    0.000
 4693.00    0.87136   0.86260    0.000
 4694.00    0.85576   0.86170    0.000
 4695.00    0.84363   0.86028    0.000
 4696.00    0.83249   0.85835    0.000
 4697.00    0.87199   0.85595    0.000
 4698.00    0.92334   0.85323    0.000
 4699.00    0.89678   0.85031    0.000
 4700.00    0.85555   0.84747    0.000
 4701.00    0.85214   0.84477    0.000
 4702.00    0.85423   0.84258    0.000
 4703.00    0.86058   0.84081    0.000
 4704.00    0.86737   0.83975    0.000
 4705.00    0.85756   0.83923    0.000
 4706.00    0.84662   0.83938    0.000
 4707.00    0.87321   0.84014    0.000
 4708.00    0.90108   0.84137    0.000
 4709.00    0.89699   0.84333    0.000
 4710.00    0.89256   0.84561    0.000
 4711.00    0.87831   0.84879    0.000
 4712.00    0.86238   0.85220    0.000
 4713.00    0.82082   0.85662    0.000
 4714.00    0.78512   0.86112    0.000
 4715.00    0.80693   0.86649    0.000
 4716.00    0.82933   0.87163    0.000
 4717.00    0.85591   0.87713    0.000
 4718.00    0.88229   0.88188    0.000
 4719.00    0.90755   0.88623    0.000
 4720.00    0.93212   0.88928    0.000
 4721.00    0.95371   0.89125    0.000
 4722.00    0.97026   0.89161    0.000
 4723.00    0.96878   0.89062    0.000
 4724.00    0.96472   0.88821    0.000
 4725.00    0.95292   0.88476    0.000
 4726.00    0.92628   0.88061    0.000
 4727.00    0.86160   0.87617    0.000
 4728.00    0.82055   0.87194    0.000
 4729.00    0.83158   0.86828    0.000
 4730.00    0.85883   0.86551    0.000
 4731.00    0.91709   0.86386    0.000
 4732.00    0.95594   0.86329    0.000
 4733.00    0.96239   0.86387    0.000
 4734.00    0.92550   0.86528    0.000
 4735.00    0.82521   0.86749    0.000
 4736.00    0.78964   0.87010    0.000
 4737.00    0.83729   0.87305    0.000
 4738.00    0.87273   0.87606    0.000
 4739.00    0.89434   0.87907    0.000
 4740.00    0.86835   0.88198    0.000
 4741.00    0.79480   0.88470    0.000
 4742.00    0.78237   0.88725    0.000
 4743.00    0.82382   0.88950    0.000
 4744.00    0.87652   0.89148    0.000
 4745.00    0.93795   0.89305    0.000
 4746.00    0.95361   0.89416    0.000
 4747.00    0.93802   0.89476    0.000
 4748.00    0.93754   0.89470    0.000
 4749.00    0.94610   0.89415    0.000
 4750.00    0.99390   0.89285    0.000
 4751.00    1.06219   0.89121    0.000
 4752.00    1.05263   0.88889    0.000
 4753.00    1.00784   0.88645    0.000
 4754.00    0.96425   0.88352    0.000
 4755.00    0.92111   0.88062    0.000
 4756.00    0.93890   0.87737    0.000
 4757.00    0.97688   0.87417    0.000
 4758.00    0.96848   0.87074    0.000
 4759.00    0.94718   0.86734    0.000
 4760.00    0.90448   0.86386    0.000
 4761.00    0.85688   0.86053    0.061
 4762.00    0.87068   0.85746    0.061
 4763.00    0.89572   0.85487    0.061
 4764.00    0.89057   0.85298    0.061
 4765.00    0.88117   0.85194    0.062
 4766.00    0.85300   0.85195    0.061
 4767.00    0.82292   0.85294    0.059
 4768.00    0.84894   0.85500    0.060
 4769.00    0.87859   0.85781    0.060
 4770.00    0.93268   0.86137    0.061
 4771.00    0.98737   0.86519    0.061
 4772.00    0.97583   0.86919    0.060
 4773.00    0.96452   0.87289    0.060
 4774.00    0.95986   0.87621    0.060
 4775.00    0.95360   0.87878    0.060
 4776.00    0.92424   0.88056    0.060
 4777.00    0.90058   0.88138    0.060
 4778.00    0.93051   0.88128    0.060
 4779.00    0.95269   0.88030    0.061
 4780.00    0.92181   0.87860    0.060
 4781.00    0.89326   0.87639    0.059
 4782.00    0.87713   0.87392    0.059
 4783.00    0.87336   0.87149    0.059
 4784.00    0.92227   0.86937    0.058
 4785.00    0.95468   0.86781    0.058
 4786.00    0.92907   0.86704    0.059
 4787.00    0.89533   0.86712    0.059
 4788.00    0.83756   0.86818    0.058
 4789.00    0.80615   0.87003    0.058
 4790.00    0.84113   0.87265    0.060
 4791.00    0.87670   0.87569    0.060
 4792.00    0.91356   0.87899    0.059
 4793.00    0.95120   0.88215    0.059
 4794.00    0.99029   0.88503    0.061
 4795.00    1.00322   0.88732    0.062
 4796.00    0.97315   0.88896    0.062
 4797.00    0.95084   0.88986    0.062
 4798.00    0.93971   0.89012    0.061
 4799.00    0.92263   0.88973    0.060
 4800.00    0.89802   0.88892    0.060
 4801.00    0.89720   0.88767    0.061
 4802.00    0.92295   0.88632    0.061
 4803.00    0.92589   0.88471    0.062
 4804.00    0.90637   0.88326    0.061
 4805.00    0.90071   0.88175    0.061
 4806.00    0.90709   0.88061    0.060
 4807.00    0.91146   0.87965    0.060
 4808.00    0.91429   0.87922    0.062
 4809.00    0.89228   0.87916    0.062
 4810.00    0.85357   0.87968    0.061
 4811.00    0.85676   0.88063    0.061
 4812.00    0.88465   0.88202    0.061
 4813.00    0.92456   0.88368    0.061
 4814.00    0.97066   0.88544    0.062
 4815.00    0.98466   0.88713    0.062
 4816.00    0.98439   0.88852    0.061
 4817.00    0.97701   0.88947    0.061
 4818.00    0.96691   0.88984    0.062
 4819.00    0.92591   0.88952    0.062
 4820.00    0.87485   0.88859    0.063
 4821.00    0.85432   0.88700    0.063
 4822.00    0.84209   0.88501    0.063
 4823.00    0.84686   0.88265    0.063
 4824.00    0.85544   0.88020    0.063
 4825.00    0.89642   0.87773    0.063
 4826.00    0.94319   0.87542    0.063
 4827.00    0.90847   0.87338    0.063
 4828.00    0.86266   0.87158    0.062
 4829.00    0.88281   0.87017    0.063
 4830.00    0.90938   0.86889    0.064
 4831.00    0.87614   0.86800    0.064
 4832.00    0.83928   0.86708    0.064
 4833.00    0.83627   0.86642    0.063
 4834.00    0.83429   0.86558    0.061
 4835.00    0.85508   0.86482    0.062
 4836.00    0.87377   0.86381    0.062
 4837.00    0.83726   0.86275    0.062
 4838.00    0.80902   0.86149    0.062
 4839.00    0.89366   0.86015    0.062
 4840.00    0.96528   0.85872    0.062
 4841.00    0.91922   0.85720    0.062
 4842.00    0.88003   0.85564    0.061
 4843.00    0.88642   0.85390    0.062
 4844.00    0.89043   0.85197    0.062
 4845.00    0.88220   0.84960    0.062
 4846.00    0.86730   0.84670    0.063
 4847.00    0.82460   0.84297    0.062
 4848.00    0.79920   0.83830    0.000
 4849.00    0.83333   0.83241    0.000
 4850.00    0.85306   0.82521    0.000
 4851.00    0.83101   0.81661    0.000
 4852.00    0.82053   0.80658    0.000
 4853.00    0.83867   0.79531    0.000
 4854.00    0.85127   0.78294    0.000
 4855.00    0.85205   0.77000    0.000
 4856.00    0.83121   0.75680    0.000
 4857.00    0.77033   0.74419    0.000
 4858.00    0.75903   0.73256    0.000
 4859.00    0.82799   0.72291    0.000
 4860.00    0.83474   0.71541    0.000
 4861.00    0.75315   0.71090    0.000
 4862.00    0.71618   0.70909    0.000
 4863.00    0.73496   0.71040    0.000
 4864.00    0.72208   0.71408    0.000
 4865.00    0.67432   0.72010    0.000
 4866.00    0.65673   0.72751    0.000
 4867.00    0.66842   0.73606    0.000
 4868.00    0.72846   0.74499    0.000
 4869.00    0.82990   0.75409    0.000
 4870.00    0.83507   0.76298    0.000
 4871.00    0.76760   0.77168    0.000
 4872.00    0.72232   0.77997    0.000
 4873.00    0.69174   0.78808    0.000
 4874.00    0.71852   0.79569    0.000
 4875.00    0.77858   0.80307    0.059
 4876.00    0.78047   0.80970    0.060
 4877.00    0.75294   0.81580    0.060
 4878.00    0.75936   0.82077    0.061
 4879.00    0.78065   0.82481    0.061
 4880.00    0.80174   0.82752    0.060
 4881.00    0.82275   0.82912    0.059
 4882.00    0.84485   0.82960    0.059
 4883.00    0.86729   0.82920    0.059
 4884.00    0.83113   0.82835    0.059
 4885.00    0.77934   0.82724    0.059
 4886.00    0.80182   0.82660    0.060
 4887.00    0.84049   0.82644    0.061
 4888.00    0.82365   0.82757    0.060
 4889.00    0.79719   0.82972    0.059
 4890.00    0.82216   0.83346    0.059
 4891.00    0.85391   0.83830    0.060
 4892.00    0.85402   0.84430    0.059
 4893.00    0.85120   0.85094    0.059
 4894.00    0.84044   0.85782    0.059
 4895.00    0.82925   0.86453    0.059
 4896.00    0.83789   0.87051    0.059
 4897.00    0.84734   0.87564    0.059
 4898.00    0.89448   0.87946    0.059
 4899.00    0.93986   0.88215    0.059
 4900.00    0.94337   0.88356    0.059
 4901.00    0.94694   0.88399    0.059
 4902.00    0.95137   0.88351    0.059
 4903.00    0.95000   0.88242    0.058
 4904.00    0.89807   0.88079    0.058
 4905.00    0.85636   0.87890    0.058
 4906.00    0.88048   0.87668    0.058
 4907.00    0.89403   0.87439    0.058
 4908.00    0.85444   0.87179    0.057
 4909.00    0.82778   0.86915    0.057
 4910.00    0.85378   0.86609    0.058
 4911.00    0.87512   0.86283    0.059
 4912.00    0.88077   0.85901    0.059
 4913.00    0.90402   0.85472    0.060
 4914.00    0.97738   0.84992    0.059
 4915.00    1.03077   0.84452    0.060
 4916.00    1.03556   0.83910    0.060
 4917.00    0.99367   0.83337    0.060
 4918.00    0.85379   0.82860    0.059
 4919.00    0.75547   0.82423    0.057
 4920.00    0.73298   0.82189    0.057
 4921.00    0.74444   0.82069    0.056
 4922.00    0.81004   0.82206    0.058
 4923.00    0.83307   0.82484    0.058
 4924.00    0.79650   0.82980    0.057
 4925.00    0.78965   0.83566    0.057
 4926.00    0.81941   0.84249    0.057
 4927.00    0.85385   0.84921    0.057
 4928.00    0.89337   0.85547    0.056
 4929.00    0.90608   0.86068    0.056
 4930.00    0.89313   0.86445    0.056
 4931.00    0.89493   0.86681    0.057
 4932.00    0.90921   0.86755    0.058
 4933.00    0.89370   0.86725    0.059
 4934.00    0.85604   0.86591    0.058
 4935.00    0.83653   0.86443    0.058
 4936.00    0.82887   0.86279    0.057
 4937.00    0.81628   0.86200    0.057
 4938.00    0.80087   0.86178    0.057
 4939.00    0.79408   0.86296    0.058
 4940.00    0.79157   0.86492    0.000
 4941.00    0.81808   0.86825    0.000
 4942.00    0.85707   0.87204    0.000
 4943.00    0.87365   0.87660    0.000
 4944.00    0.88195   0.88098    0.000
 4945.00    0.91332   0.88530    0.000
 4946.00    0.95191   0.88876    0.000
 4947.00    0.89181   0.89130    0.000
 4948.00    0.80597   0.89259    0.000
 4949.00    0.77200   0.89246    0.000
 4950.00    0.74906   0.89102    0.000
 4951.00    0.82183   0.88806    0.000
 4952.00    0.91073   0.88415    0.000
 4953.00    0.95756   0.87917    0.000
 4954.00    0.99903   0.87390    0.000
 4955.00    0.94001   0.86841    0.000
 4956.00    0.87208   0.86329    0.000
 4957.00    0.86319   0.85885    0.000
 4958.00    0.85740   0.85511    0.000
 4959.00    0.80323   0.85255    0.000
 4960.00    0.74981   0.85062    0.000
 4961.00    0.82831   0.84980    0.000
 4962.00    0.90341   0.84930    0.000
 4963.00    0.90448   0.84957    0.000
 4964.00    0.90492   0.84990    0.000
 4965.00    0.89769   0.85063    0.000
 4966.00    0.88487   0.85140    0.000
 4967.00    0.82525   0.85238    0.000
 4968.00    0.77962   0.85341    0.000
 4969.00    0.82133   0.85447    0.000
 4970.00    0.85500   0.85545    0.000
 4971.00    0.84921   0.85612    0.000
 4972.00    0.85181   0.85635    0.000
 4973.00    0.88781   0.85584    0.000
 4974.00    0.90317   0.85435    0.000
 4975.00    0.85026   0.85192    0.000
 4976.00    0.81859   0.84842    0.000
 4977.00    0.84633   0.84414    0.000
 4978.00    0.84694   0.83911    0.000
 4979.00    0.78265   0.83396    0.000
 4980.00    0.74832   0.82879    0.000
 4981.00    0.77588   0.82423    0.000
 4982.00    0.78921   0.82051    0.000
 4983.00    0.77695   0.81791    0.000
 4984.00    0.78148   0.81672    0.000
 4985.00    0.81239   0.81664    0.000
 4986.00    0.82462   0.81783    0.000
 4987.00    0.81109   0.81976    0.000
 4988.00    0.81367   0.82243    0.000
 4989.00    0.83581   0.82510    0.000
 4990.00    0.84531   0.82783    0.000
 4991.00    0.84125   0.82990    0.000
 4992.00    0.84321   0.83140    0.000
 4993.00    0.85084   0.83195    0.000
 4994.00    0.84832   0.83153    0.000
 4995.00    0.83737   0.83016    0.000
 4996.00    0.82597   0.82773    0.000
 4997.00    0.81425   0.82453    0.000
 4998.00    0.81075   0.82043    0.000
 4999.00    0.81253   0.81604    0.000
 5000.00    0.83363   0.81118    0.000
 5001.00    0.86561   0.80653    0.000
 5002.00    0.86394   0.80185    0.000
 5003.00    0.84579   0.79775    0.000
 5004.00    0.83627   0.79384    0.000
 5005.00    0.83039   0.79066    0.000
 5006.00    0.80862   0.78769    0.000
 5007.00    0.78109   0.78530    0.000
 5008.00    0.75058   0.78309    0.000
 5009.00    0.71917   0.78112    0.000
 5010.00    0.74306   0.77937    0.000
 5011.00    0.78106   0.77762    0.000
 5012.00    0.74779   0.77622    0.000
 5013.00    0.69972   0.77489    0.000
 5014.00    0.71061   0.77424    0.000
 5015.00    0.73114   0.77382    0.000
 5016.00    0.75026   0.77430    0.000
 5017.00    0.76921   0.77525    0.000
 5018.00    0.78013   0.77726    0.000
 5019.00    0.79038   0.77957    0.000
 5020.00    0.80984   0.78282    0.000
 5021.00    0.82974   0.78620    0.000
 5022.00    0.79747   0.79022    0.000
 5023.00    0.76498   0.79441    0.000
 5024.00    0.76873   0.79879    0.000
 5025.00    0.77225   0.80319    0.000
 5026.00    0.77095   0.80740    0.000
 5027.00    0.77142   0.81157    0.000
 5028.00    0.79262   0.81498    0.000
 5029.00    0.81298   0.81804    0.056
 5030.00    0.82641   0.81979    0.055
 5031.00    0.83882   0.82120    0.055
 5032.00    0.84511   0.82100    0.056
 5033.00    0.85263   0.82002    0.056
 5034.00    0.86613   0.81762    0.056
 5035.00    0.87690   0.81459    0.055
 5036.00    0.87708   0.81108    0.056
 5037.00    0.86693   0.80772    0.056
 5038.00    0.82330   0.80445    0.056
 5039.00    0.79330   0.80200    0.056
 5040.00    0.80074   0.80043    0.056
 5041.00    0.79920   0.79998    0.056
 5042.00    0.77653   0.80038    0.056
 5043.00    0.77223   0.80186    0.056
 5044.00    0.80525   0.80411    0.056
 5045.00    0.82931   0.80681    0.056
 5046.00    0.83751   0.80980    0.057
 5047.00    0.83931   0.81274    0.057
 5048.00    0.83119   0.81590    0.056
 5049.00    0.81288   0.81862    0.056
 5050.00    0.78074   0.82167    0.056
 5051.00    0.76253   0.82433    0.057
 5052.00    0.76100   0.82766    0.057
 5053.00    0.77964   0.83056    0.058
 5054.00    0.81956   0.83409    0.058
 5055.00    0.85397   0.83720    0.059
 5056.00    0.88325   0.84044    0.059
 5057.00    0.90379   0.84299    0.059
 5058.00    0.91718   0.84492    0.059
 5059.00    0.90907   0.84589    0.058
 5060.00    0.88542   0.84614    0.058
 5061.00    0.86752   0.84528    0.058
 5062.00    0.85327   0.84359    0.058
 5063.00    0.87720   0.84109    0.058
 5064.00    0.92230   0.83820    0.059
 5065.00    0.89598   0.83485    0.059
 5066.00    0.83521   0.83140    0.059
 5067.00    0.82233   0.82810    0.059
 5068.00    0.82939   0.82499    0.058
 5069.00    0.81014   0.82214    0.058
 5070.00    0.78153   0.81953    0.059
 5071.00    0.77770   0.81712    0.059
 5072.00    0.78133   0.81482    0.060
 5073.00    0.76578   0.81221    0.060
 5074.00    0.74545   0.80977    0.059
 5075.00    0.76255   0.80695    0.059
 5076.00    0.78723   0.80444    0.059
 5077.00    0.79685   0.80179    0.059
 5078.00    0.80408   0.79971    0.058
 5079.00    0.78689   0.79796    0.058
 5080.00    0.76682   0.79698    0.059
 5081.00    0.72893   0.79690    0.057
 5082.00    0.68961   0.79764    0.056
 5083.00    0.74514   0.79949    0.057
 5084.00    0.80495   0.80197    0.058
 5085.00    0.77262   0.80536    0.057
 5086.00    0.74053   0.80901    0.056
 5087.00    0.77496   0.81300    0.055
 5088.00    0.81198   0.81671    0.055
 5089.00    0.89713   0.82009    0.055
 5090.00    0.96922   0.82271    0.056
 5091.00    0.89604   0.82440    0.056
 5092.00    0.82838   0.82519    0.056
 5093.00    0.80382   0.82479    0.056
 5094.00    0.78363   0.82382    0.055
 5095.00    0.78916   0.82181    0.055
 5096.00    0.80092   0.81969    0.054
 5097.00    0.84169   0.81702    0.055
 5098.00    0.86596   0.81441    0.055
 5099.00    0.82730   0.81171    0.055
 5100.00    0.78999   0.80930    0.054
 5101.00    0.75696   0.80718    0.054
 5102.00    0.73021   0.80540    0.054
 5103.00    0.72040   0.80410    0.054
 5104.00    0.72083   0.80294    0.054
 5105.00    0.74492   0.80262    0.054
 5106.00    0.74952   0.80233    0.054
 5107.00    0.71517   0.80287    0.054
 5108.00    0.71798   0.80378    0.054
 5109.00    0.78555   0.80521    0.054
 5110.00    0.82251   0.80711    0.054
 5111.00    0.81278   0.80943    0.054
 5112.00    0.80917   0.81191    0.055
 5113.00    0.81378   0.81446    0.055
 5114.00    0.81852   0.81673    0.055
 5115.00    0.82341   0.81832    0.056
 5116.00    0.82021   0.81923    0.057
 5117.00    0.80859   0.81892    0.057
 5118.00    0.80080   0.81780    0.057
 5119.00    0.79652   0.81535    0.056
 5120.00    0.80013   0.81217    0.056
 5121.00    0.81013   0.80830    0.057
 5122.00    0.79893   0.80409    0.056
 5123.00    0.77263   0.79977    0.055
 5124.00    0.73745   0.79565    0.055
 5125.00    0.69672   0.79231    0.056
 5126.00    0.70469   0.78951    0.056
 5127.00    0.73924   0.78804    0.056
 5128.00    0.72585   0.78708    0.056
 5129.00    0.68970   0.78736    0.056
 5130.00    0.66686   0.78785    0.056
 5131.00    0.64947   0.78932    0.056
 5132.00    0.68908   0.79050    0.056
 5133.00    0.74861   0.79158    0.056
 5134.00    0.75306   0.79254    0.056
 5135.00    0.74128   0.79273    0.057
 5136.00    0.72654   0.79280    0.057
 5137.00    0.71108   0.79229    0.057
 5138.00    0.75278   0.79092    0.057
 5139.00    0.80577   0.78925    0.058
 5140.00    0.79320   0.78753    0.058
 5141.00    0.77052   0.78554    0.058
 5142.00    0.76427   0.78336    0.058
 5143.00    0.75989   0.78157    0.058
 5144.00    0.74213   0.77975    0.058
 5145.00    0.72335   0.77868    0.058
 5146.00    0.72464   0.77762    0.057
 5147.00    0.72675   0.77716    0.057
 5148.00    0.72007   0.77705    0.058
 5149.00    0.71347   0.77764    0.059
 5150.00    0.71316   0.77871    0.058
 5151.00    0.71339   0.78035    0.057
 5152.00    0.72314   0.78258    0.057
 5153.00    0.73256   0.78479    0.057
 5154.00    0.73850   0.78728    0.057
 5155.00    0.74059   0.78901    0.057
 5156.00    0.71371   0.79043    0.057
 5157.00    0.70020   0.79060    0.057
 5158.00    0.76327   0.78919    0.058
 5159.00    0.81638   0.78617    0.059
 5160.00    0.82412   0.78127    0.059
 5161.00    0.82215   0.77410    0.059
 5162.00    0.78394   0.76498    0.058
 5163.00    0.74314   0.75416    0.058
 5164.00    0.69428   0.74275    0.057
 5165.00    0.66333   0.73111    0.056
 5166.00    0.67981   0.72005    0.056
 5167.00    0.68313   0.70929    0.056
 5168.00    0.65650   0.69958    0.056
 5169.00    0.62281   0.69214    0.056
 5170.00    0.57521   0.68760    0.056
 5171.00    0.55623   0.68549    0.056
 5172.00    0.58637   0.68519    0.056
 5173.00    0.60714   0.68683    0.055
 5174.00    0.61384   0.68991    0.055
 5175.00    0.61671   0.69378    0.055
 5176.00    0.61450   0.69795    0.055
 5177.00    0.62466   0.70191    0.055
 5178.00    0.64921   0.70536    0.055
 5179.00    0.67609   0.70776    0.055
 5180.00    0.70537   0.71005    0.054
 5181.00    0.69169   0.71278    0.054
 5182.00    0.63914   0.71531    0.054
 5183.00    0.61753   0.71822    0.053
 5184.00    0.62060   0.72113    0.053
 5185.00    0.62727   0.72482    0.053
 5186.00    0.63647   0.72927    0.053
 5187.00    0.65336   0.73353    0.053
 5188.00    0.67500   0.73807    0.053
 5189.00    0.69664   0.74302    0.052
 5190.00    0.71829   0.74838    0.000
 5191.00    0.70330   0.75299    0.000
 5192.00    0.67122   0.75766    0.000
 5193.00    0.67174   0.76192    0.000
 5194.00    0.68537   0.76565    0.000
 5195.00    0.71467   0.76906    0.000
 5196.00    0.74935   0.77133    0.000
 5197.00    0.77230   0.77315    0.000
 5198.00    0.79186   0.77348    0.000
 5199.00    0.83125   0.77356    0.000
 5200.00    0.87537   0.77193    0.000
 5201.00    0.88911   0.76962    0.000
 5202.00    0.89700   0.76659    0.000
 5203.00    0.83510   0.76372    0.000
 5204.00    0.76277   0.76018    0.000
 5205.00    0.72837   0.75749    0.000
 5206.00    0.69812   0.75568    0.000
 5207.00    0.66984   0.75483    0.000
 5208.00    0.64171   0.75580    0.000
 5209.00    0.68437   0.75760    0.000
 5210.00    0.72967   0.76121    0.000
 5211.00    0.75002   0.76506    0.057
 5212.00    0.77008   0.77029    0.057
 5213.00    0.78354   0.77567    0.057
 5214.00    0.79653   0.78144    0.057
 5215.00    0.80190   0.78700    0.057
 5216.00    0.80768   0.79175    0.057
 5217.00    0.81765   0.79588    0.058
 5218.00    0.82651   0.79839    0.059
 5219.00    0.82727   0.80007    0.058
 5220.00    0.83619   0.80006    0.058
 5221.00    0.89061   0.79912    0.058
 5222.00    0.92387   0.79721    0.059
 5223.00    0.86306   0.79465    0.058
 5224.00    0.81169   0.79279    0.058
 5225.00    0.79483   0.79105    0.058
 5226.00    0.77387   0.79008    0.058
 5227.00    0.74036   0.79009    0.057
 5228.00    0.71425   0.79058    0.057
 5229.00    0.70742   0.79199    0.057
 5230.00    0.71314   0.79455    0.057
 5231.00    0.74693   0.79787    0.056
 5232.00    0.77297   0.80229    0.056
 5233.00    0.78400   0.80706    0.056
 5234.00    0.79258   0.81224    0.056
 5235.00    0.79702   0.81725    0.057
 5236.00    0.80128   0.82198    0.057
 5237.00    0.80527   0.82647    0.056
 5238.00    0.83165   0.83014    0.056
 5239.00    0.88721   0.83287    0.056
 5240.00    0.90685   0.83470    0.056
 5241.00    0.88529   0.83569    0.055
 5242.00    0.87419   0.83528    0.055
 5243.00    0.87366   0.83397    0.055
 5244.00    0.86471   0.83215    0.054
 5245.00    0.84825   0.82968    0.054
 5246.00    0.83016   0.82666    0.054
 5247.00    0.81079   0.82381    0.055
 5248.00    0.81064   0.82095    0.055
 5249.00    0.82378   0.81862    0.053
 5250.00    0.81423   0.81681    0.053
 5251.00    0.79094   0.81517    0.054
 5252.00    0.80279   0.81449    0.054
 5253.00    0.83323   0.81385    0.053
 5254.00    0.81101   0.81359    0.053
 5255.00    0.76460   0.81285    0.053
 5256.00    0.76611   0.81131    0.054
 5257.00    0.78657   0.80888    0.054
 5258.00    0.80224   0.80506    0.054
 5259.00    0.81630   0.79989    0.054
 5260.00    0.80525   0.79331    0.054
 5261.00    0.78710   0.78599    0.054
 5262.00    0.77754   0.77770    0.055
 5263.00    0.76999   0.76980    0.056
 5264.00    0.72700   0.76200    0.056
 5265.00    0.67737   0.75468    0.056
 5266.00    0.68978   0.74891    0.056
 5267.00    0.71117   0.74479    0.056
 5268.00    0.69023   0.74289    0.057
 5269.00    0.66484   0.74324    0.059
 5270.00    0.64371   0.74602    0.059
 5271.00    0.62288   0.75007    0.060
 5272.00    0.63018   0.75617    0.060
 5273.00    0.63841   0.76364    0.060
 5274.00    0.66460   0.77198    0.059
 5275.00    0.69237   0.78104    0.058
 5276.00    0.76983   0.78956    0.059
 5277.00    0.84170   0.79791    0.060
 5278.00    0.82822   0.80550    0.059
 5279.00    0.81811   0.81269    0.057
 5280.00    0.84090   0.81917    0.058
 5281.00    0.86550   0.82561    0.058
 5282.00    0.90287   0.83124    0.058
 5283.00    0.92304   0.83673    0.057
 5284.00    0.84998   0.84185    0.057
 5285.00    0.79573   0.84630    0.057
 5286.00    0.82322   0.85036    0.057
 5287.00    0.84518   0.85358    0.057
 5288.00    0.84732   0.85621    0.058
 5289.00    0.85755   0.85761    0.059
 5290.00    0.89208   0.85833    0.059
 5291.00    0.92528   0.85774    0.058
 5292.00    0.95509   0.85634    0.058
 5293.00    0.94682   0.85392    0.057
 5294.00    0.85479   0.85067    0.057
 5295.00    0.81369   0.84755    0.057
 5296.00    0.86974   0.84450    0.058
 5297.00    0.87720   0.84235    0.058
 5298.00    0.80375   0.84113    0.056
 5299.00    0.78496   0.84072    0.055
 5300.00    0.84596   0.84177    0.056
 5301.00    0.86950   0.84395    0.056
 5302.00    0.84498   0.84729    0.056
 5303.00    0.84841   0.85105    0.056
 5304.00    0.88345   0.85531    0.056
 5305.00    0.90725   0.85978    0.056
 5306.00    0.91985   0.86427    0.055
 5307.00    0.92941   0.86857    0.055
 5308.00    0.93631   0.87180    0.055
 5309.00    0.91587   0.87420    0.055
 5310.00    0.87425   0.87563    0.054
 5311.00    0.83746   0.87606    0.054
 5312.00    0.80397   0.87552    0.054
 5313.00    0.80224   0.87397    0.054
 5314.00    0.81947   0.87157    0.054
 5315.00    0.84852   0.86823    0.053
 5316.00    0.88373   0.86463    0.053
 5317.00    0.87430   0.86017    0.053
 5318.00    0.84469   0.85509    0.053
 5319.00    0.88573   0.84953    0.054
 5320.00    0.95422   0.84314    0.055
 5321.00    0.94432   0.83709    0.054
 5322.00    0.90850   0.83032    0.053
 5323.00    0.85233   0.82425    0.054
 5324.00    0.79052   0.81781    0.055
 5325.00    0.81085   0.81270    0.055
 5326.00    0.84993   0.80804    0.055
 5327.00    0.83851   0.80535    0.055
 5328.00    0.81787   0.80453    0.055
 5329.00    0.77571   0.80451    0.054
 5330.00    0.73053   0.80615    0.054
 5331.00    0.77852   0.80817    0.054
 5332.00    0.83591   0.81184    0.055
 5333.00    0.83360   0.81570    0.056
 5334.00    0.82747   0.81955    0.057
 5335.00    0.81757   0.82283    0.057
 5336.00    0.80761   0.82596    0.056
 5337.00    0.81997   0.82900    0.057
 5338.00    0.83190   0.83104    0.057
 5339.00    0.83128   0.83243    0.057
 5340.00    0.83173   0.83399    0.057
 5341.00    0.84763   0.83481    0.057
 5342.00    0.86224   0.83583    0.057
 5343.00    0.86484   0.83661    0.056
 5344.00    0.86503   0.83759    0.055
 5345.00    0.84870   0.83942    0.056
 5346.00    0.82863   0.84164    0.056
 5347.00    0.78880   0.84437    0.056
 5348.00    0.76498   0.84811    0.057
 5349.00    0.80909   0.85285    0.057
 5350.00    0.84039   0.85780    0.056
 5351.00    0.82679   0.86264    0.056
 5352.00    0.82387   0.86751    0.056
 5353.00    0.85242   0.87231    0.056
 5354.00    0.86224   0.87650    0.056
 5355.00    0.82502   0.88017    0.055
 5356.00    0.81317   0.88242    0.055
 5357.00    0.85618   0.88397    0.056
 5358.00    0.88353   0.88411    0.057
 5359.00    0.88144   0.88295    0.056
 5360.00    0.87762   0.88028    0.055
 5361.00    0.87098   0.87665    0.055
 5362.00    0.86037   0.87261    0.054
 5363.00    0.84404   0.86717    0.052
 5364.00    0.83383   0.86209    0.051
 5365.00    0.83136   0.85650    0.053
 5366.00    0.81820   0.85130    0.053
 5367.00    0.79312   0.84651    0.052
 5368.00    0.78009   0.84228   -2.000
 5369.00    0.77889   0.83961   -2.000
 5370.00    0.75358   0.83818   -2.000
 5371.00    0.70737   0.83904   -2.000
 5372.00    0.68066   0.83983   -2.000
 5373.00    0.66885   0.84203   -2.000
 5374.00    0.71486   0.84470   -2.000
 5375.00    0.79970   0.84752   -2.000
 5376.00    0.84599   0.85098   -2.000
 5377.00    0.86961   0.85380   -2.000
 5378.00    0.88626   0.85660   -2.000
 5379.00    0.89934   0.85865   -2.000
 5380.00    0.90225   0.86075   -2.000
 5381.00    0.90065   0.86135   -2.000
 5382.00    0.88922   0.86114   -2.000
 5383.00    0.87404   0.86040    0.056
 5384.00    0.87411   0.85844    0.056
 5385.00    0.87913   0.85612    0.055
 5386.00    0.90006   0.85299    0.056
 5387.00    0.92532   0.84940    0.057
 5388.00    0.91926   0.84520    0.056
 5389.00    0.90623   0.84117    0.055
 5390.00    0.89590   0.83682    0.055
 5391.00    0.88606   0.83262    0.056
 5392.00    0.86142   0.82847    0.056
 5393.00    0.83478   0.82404    0.056
 5394.00    0.79862   0.82016    0.057
 5395.00    0.76155   0.81586    0.057
 5396.00    0.76497   0.81312    0.057
 5397.00    0.77083   0.81058    0.057
 5398.00    0.79366   0.80823    0.057
 5399.00    0.81680   0.80590    0.058
 5400.00    0.81906   0.80401    0.057
 5401.00    0.82035   0.80218    0.057
 5402.00    0.79685   0.79992    0.056
 5403.00    0.77432   0.79864    0.055
 5404.00    0.76493   0.79764    0.055
 5405.00    0.76071   0.79835    0.055
 5406.00    0.80298   0.79957    0.054
 5407.00    0.83517   0.80112    0.053
 5408.00    0.80070   0.80311    0.054
 5409.00    0.77131   0.80677    0.054
 5410.00    0.76803   0.81123    0.054
 5411.00    0.77049   0.81585    0.054
 5412.00    0.79674   0.82112    0.054
 5413.00    0.81998   0.82642    0.053
 5414.00    0.83289   0.83231    0.053
 5415.00    0.84955   0.83758    0.053
 5416.00    0.87704   0.84194    0.052
 5417.00    0.90037   0.84540    0.052
 5418.00    0.91345   0.84807    0.053
 5419.00    0.91127   0.85003    0.053
 5420.00    0.87661   0.85112    0.054
 5421.00    0.86335   0.85121    0.053
 5422.00    0.88968   0.84999    0.053
 5423.00    0.90516   0.84882    0.052
 5424.00    0.90311   0.84731    0.052
 5425.00    0.89401   0.84470    0.052
 5426.00    0.87490   0.84187    0.053
 5427.00    0.85762   0.83827    0.053
 5428.00    0.84262   0.83513    0.053
 5429.00    0.84168   0.83357    0.053
 5430.00    0.85619   0.83135    0.052
 5431.00    0.83989   0.82986    0.052
 5432.00    0.79372   0.82905    0.053
 5433.00    0.78940   0.82943    0.053
 5434.00    0.82085   0.83061    0.054
 5435.00    0.83225   0.83217    0.055
 5436.00    0.82855   0.83517    0.054
 5437.00    0.84447   0.83796    0.055
 5438.00    0.87338   0.84141    0.055
 5439.00    0.90049   0.84418    0.055
 5440.00    0.92657   0.84607    0.055
 5441.00    0.90861   0.84783    0.054
 5442.00    0.86843   0.84817    0.054
 5443.00    0.89667   0.84770    0.055
 5444.00    0.95480   0.84604    0.057
 5445.00    0.95007   0.84367    0.057
 5446.00    0.92175   0.84209    0.056
 5447.00    0.89191   0.83957    0.056
 5448.00    0.86159   0.83709    0.056
 5449.00    0.87876   0.83398    0.056
 5450.00    0.90855   0.83127    0.055
 5451.00    0.90115   0.82838    0.056
 5452.00    0.88566   0.82592    0.056
 5453.00    0.82735   0.82400    0.056
 5454.00    0.76163   0.82291    0.056
 5455.00    0.75151   0.82329    0.056
 5456.00    0.74867   0.82336    0.056
 5457.00    0.76314   0.82364    0.055
 5458.00    0.77919   0.82336    0.054
 5459.00    0.81220   0.82342    0.054
 5460.00    0.84615   0.82363    0.055
 5461.00    0.84608   0.82370    0.054
 5462.00    0.84551   0.82463    0.053
 5463.00    0.87165   0.82564    0.052
 5464.00    0.89427   0.82599    0.052
 5465.00    0.83428   0.82584    0.052
 5466.00    0.77962   0.82530    0.053
 5467.00    0.79339   0.82446    0.052
 5468.00    0.80982   0.82284    0.052
 5469.00    0.84933   0.82137    0.052
 5470.00    0.87482   0.82000    0.052
 5471.00    0.81039   0.81769    0.053
 5472.00    0.75952   0.81539    0.053
 5473.00    0.77668   0.81357    0.053
 5474.00    0.79682   0.81104    0.052
 5475.00    0.82903   0.80886    0.052
 5476.00    0.84807   0.80832    0.052
 5477.00    0.82279   0.80800    0.052
 5478.00    0.79482   0.80788   -2.000
 5479.00    0.75925   0.80748   -2.000
 5480.00    0.75465   0.80881   -2.000
 5481.00    0.82523   0.81038   -2.000
 5482.00    0.84133   0.81244   -2.000
 5483.00    0.74328   0.81537   -2.000
 5484.00    0.68195   0.81759   -2.000
 5485.00    0.68749   0.81974   -2.000
 5486.00    0.51128   0.82129   -2.000
 5487.00    0.04578   0.82381   -2.000
 5488.00   -0.01264   0.82542   -2.000
 5489.00    0.49763   0.82715   -2.000
 5490.00    0.81008   0.82894   -2.000
 5491.00    0.87935   0.82943   -2.000
 5492.00    1.04774   0.82980   -2.000
 5493.00    1.32354   0.83001   -2.000
 5494.00    1.30184   0.83035   -2.000
 5495.00    0.99577   0.82950   -2.000
 5496.00    0.83983   0.82918   -2.000
 5497.00    0.81041   0.82917   -2.000
 5498.00    0.82903   0.82805   -2.000
 5499.00    0.88330   0.82654   -2.000
 5500.00    0.90666   0.82501   -2.000
 5501.00    0.90986   0.82376   -2.000
 5502.00    0.90184   0.82199    0.055
 5503.00    0.88741   0.82053    0.055
 5504.00    0.84812   0.81869    0.055
 5505.00    0.79646   0.81708    0.055
 5506.00    0.79355   0.81630    0.054
 5507.00    0.81158   0.81505    0.054
 5508.00    0.81234   0.81414    0.053
 5509.00    0.80675   0.81366    0.053
 5510.00    0.80093   0.81311    0.053
 5511.00    0.79505   0.81321    0.053
 5512.00    0.78119   0.81404    0.053
 5513.00    0.76524   0.81569    0.053
 5514.00    0.74874   0.81771    0.052
 5515.00    0.73212   0.81966    0.052
 5516.00    0.76743   0.82245    0.051
 5517.00    0.81145   0.82468    0.051
 5518.00    0.85120   0.82682    0.051
 5519.00    0.89041   0.82892    0.052
 5520.00    0.87715   0.83076    0.052
 5521.00    0.85926   0.83247    0.052
 5522.00    0.82376   0.83345    0.053
 5523.00    0.78734   0.83391    0.053
 5524.00    0.78321   0.83368    0.053
 5525.00    0.77991   0.83293    0.052
 5526.00    0.79468   0.83152    0.052
 5527.00    0.80907   0.83098    0.052
 5528.00    0.81522   0.83092    0.052
 5529.00    0.82240   0.83057    0.052
 5530.00    0.84218   0.83030    0.053
 5531.00    0.86090   0.83011    0.053
 5532.00    0.87089   0.83063    0.054
 5533.00    0.87635   0.83072    0.055
 5534.00    0.85366   0.83199    0.055
 5535.00    0.83524   0.83398    0.055
 5536.00    0.83773   0.83529    0.054
 5537.00    0.83130   0.83721    0.054
 5538.00    0.78946   0.83894    0.055
 5539.00    0.76771   0.84100    0.055
 5540.00    0.81225   0.84251    0.055
 5541.00    0.85664   0.84388    0.055
 5542.00    0.90061   0.84578    0.056
 5543.00    0.93354   0.84731    0.057
 5544.00    0.94012   0.84868    0.057
 5545.00    0.92770   0.84999    0.056
 5546.00    0.87611   0.85157    0.055
 5547.00    0.85321   0.85256    0.055
 5548.00    0.88175   0.85293    0.055
 5549.00    0.89722   0.85334    0.055
 5550.00    0.89220   0.85349    0.055
 5551.00    0.90405   0.85296    0.055
 5552.00    0.93913   0.85221    0.054
 5553.00    0.94266   0.85151    0.054
 5554.00    0.90796   0.85052    0.053
 5555.00    0.87842   0.84893    0.052
 5556.00    0.85440   0.84698    0.053
 5557.00    0.84605   0.84515    0.053
 5558.00    0.85249   0.84282    0.052
 5559.00    0.86661   0.84057    0.052
 5560.00    0.88710   0.83818    0.053
 5561.00    0.87238   0.83579    0.052
 5562.00    0.83190   0.83408    0.052
 5563.00    0.82458   0.83177    0.052
 5564.00    0.83857   0.82965    0.052
 5565.00    0.84677   0.82818    0.052
 5566.00    0.85173   0.82697    0.051
 5567.00    0.85837   0.82579    0.051
 5568.00    0.86583   0.82480    0.052
 5569.00    0.84835   0.82534    0.053
 5570.00    0.82034   0.82497    0.052
 5571.00    0.81956   0.82444    0.052
 5572.00    0.82864   0.82566    0.052
 5573.00    0.81984   0.82645    0.053
 5574.00    0.80559   0.82672    0.054
 5575.00    0.82729   0.82723    0.054
 5576.00    0.85814   0.82784    0.054
 5577.00    0.84933   0.82718    0.054
 5578.00    0.83230   0.82613    0.054
 5579.00    0.84679   0.82532    0.055
 5580.00    0.86642   0.82329    0.055
 5581.00    0.88393   0.82099    0.055
 5582.00    0.90118   0.81828    0.055
 5583.00    0.86639   0.81498    0.104
 5584.00    0.82724   0.81108    2.354
 5585.00    0.81718   0.80687   -1.000
 5586.00    0.80854   0.80375   -1.000
 5587.00    0.79861   0.80072   -1.000
 5588.00    0.78845   0.79871   -1.000
 5589.00    0.76648   0.79726   -1.000
 5590.00    0.74418   0.79570   -1.000
 5591.00    0.71550   0.79517   -1.000
 5592.00    0.69402   0.79445    1.384
 5593.00    0.75621   0.79521    0.102
 5594.00    0.81089   0.79713    0.056
 5595.00    0.80517   0.79885    0.056
 5596.00    0.80617   0.80010    0.056
 5597.00    0.84776   0.80175    0.056
 5598.00    0.87300   0.80389    0.056
 5599.00    0.82029   0.80551    0.055
 5600.00    0.77957   0.80789    0.054
 5601.00    0.78542   0.81063    0.054
 5602.00    0.78356   0.81417    0.054
 5603.00    0.75677   0.81687    0.054
 5604.00    0.75320   0.82006    0.053
 5605.00    0.81324   0.82318    0.053
 5606.00    0.86679   0.82494    0.052
 5607.00    0.90511   0.82719    0.053
 5608.00    0.93009   0.82878    0.053
 5609.00    0.92799   0.83047    0.052
 5610.00    0.91396   0.83116    0.052
 5611.00    0.87885   0.83072    0.052
 5612.00    0.85865   0.82942    0.052
 5613.00    0.86150   0.82609    0.051
 5614.00    0.86755   0.82380    0.050
 5615.00    0.87797   0.82208    0.051
 5616.00    0.86402   0.81982    0.052
 5617.00    0.82094   0.81780    0.053
 5618.00    0.79298   0.81546    0.053
 5619.00    0.78095   0.81391    0.052
 5620.00    0.80822   0.81220    0.052
 5621.00    0.87202   0.81141    0.053
 5622.00    0.87998   0.81145    0.053
 5623.00    0.84219   0.81134    0.053
 5624.00    0.82731   0.81247    0.053
 5625.00    0.82896   0.81348    0.053
 5626.00    0.82419   0.81480    0.053
 5627.00    0.81537   0.81647    0.053
 5628.00    0.80324   0.81772    0.053
 5629.00    0.78929   0.81870    0.053
 5630.00    0.81053   0.81944    0.053
 5631.00    0.84870   0.82077    0.054
 5632.00    0.83863   0.82125    0.053
 5633.00    0.80853   0.82121    0.053
 5634.00    0.80875   0.82097    0.053
 5635.00    0.81974   0.82015    0.053
 5636.00    0.82193   0.81943    0.053
 5637.00    0.82148   0.81849    0.053
 5638.00    0.80834   0.81787    0.052
 5639.00    0.79203   0.81648    0.051
 5640.00    0.81527   0.81581    0.051
 5641.00    0.84651   0.81558    0.052
 5642.00    0.85288   0.81519    0.051
 5643.00    0.85531   0.81576    0.050
 5644.00    0.86674   0.81616    0.050
 5645.00    0.87923   0.81688    0.050
 5646.00    0.88127   0.81711    0.050
 5647.00    0.88248   0.81758    0.050
 5648.00    0.86029   0.81823    0.050
 5649.00    0.83706   0.81827    0.049
 5650.00    0.84707   0.81852    0.050
 5651.00    0.85704   0.81822    0.050
 5652.00    0.84655   0.81712    0.050
 5653.00    0.83645   0.81560    0.049
 5654.00    0.83370   0.81446    0.050
 5655.00    0.83237   0.81312    0.050
 5656.00    0.84683   0.81049    0.051
 5657.00    0.85567   0.80893    0.051
 5658.00    0.82096   0.80845    0.051
 5659.00    0.79377   0.80724    0.050
 5660.00    0.81078   0.80606    0.051
 5661.00    0.82568   0.80588    0.051
 5662.00    0.83076   0.80695    0.051
 5663.00    0.83142   0.80751    0.051
 5664.00    0.81527   0.80894    0.051
 5665.00    0.81292   0.81134    0.051
 5666.00    0.85437   0.81340    0.051
 5667.00    0.87427   0.81572    0.052
 5668.00    0.83620   0.81823    0.053
 5669.00    0.81752   0.82134    0.053
 5670.00    0.84362   0.82427    0.053
 5671.00    0.85880   0.82715    0.052
 5672.00    0.85220   0.82933    0.052
 5673.00    0.85661   0.83074    0.052
 5674.00    0.88017   0.83246    0.051
 5675.00    0.86076   0.83392    0.051
 5676.00    0.77592   0.83454    0.051
 5677.00    0.75765   0.83466    0.051
 5678.00    0.82844   0.83458    0.052
 5679.00    0.87758   0.83401    0.052
 5680.00    0.90122   0.83233    0.051
 5681.00    0.90538   0.83100    0.050
 5682.00    0.88932   0.83045    0.050
 5683.00    0.85494   0.82966    0.049
 5684.00    0.80376   0.82848    0.049
 5685.00    0.79403   0.82738    0.049
 5686.00    0.81775   0.82696    0.049
 5687.00    0.82243   0.82663    0.049
 5688.00    0.81358   0.82702    0.048
 5689.00    0.80661   0.82750    0.048
 5690.00    0.80083   0.82836    0.048
 5691.00    0.81189   0.82852    0.048
 5692.00    0.83213   0.82809    0.048
 5693.00    0.82373   0.82796    0.048
 5694.00    0.80177   0.82746    0.049
 5695.00    0.80645   0.82712    0.050
 5696.00    0.82201   0.82531    0.051
 5697.00    0.82366   0.82348    0.051
 5698.00    0.82044   0.82140    0.051
 5699.00    0.78096   0.81806    0.051
 5700.00    0.73082   0.81506    0.050
 5701.00    0.78151   0.81222    0.050
 5702.00    0.85676   0.80958    0.052
 5703.00    0.84415   0.80679    0.051
 5704.00    0.81424   0.80372    0.050
 5705.00    0.78620   0.80153    0.050
 5706.00    0.75844   0.79984    0.049
 5707.00    0.78505   0.79838    0.050
 5708.00    0.81783   0.79878    0.051
 5709.00    0.83917   0.79949    0.051
 5710.00    0.85965   0.80042    0.051
 5711.00    0.84191   0.80297    0.051
 5712.00    0.82262   0.80577    0.051
 5713.00    0.82859   0.80950    0.050
 5714.00    0.83386   0.81359    0.049
 5715.00    0.80265   0.81798    0.049
 5716.00    0.77288   0.82274    0.049
 5717.00    0.76791   0.82697    0.049
 5718.00    0.76660   0.83150    0.048
 5719.00    0.80404   0.83562    0.049
 5720.00    0.83804   0.83903    0.049
 5721.00    0.84626   0.84215    0.048
 5722.00    0.85328   0.84443    0.048
 5723.00    0.85345   0.84625    0.048
 5724.00    0.85815   0.84737    0.048
 5725.00    0.88340   0.84763    0.048
 5726.00    0.90134   0.84828    0.048
 5727.00    0.89211   0.84894    0.048
 5728.00    0.87278   0.84905    0.047
 5729.00    0.82205   0.84826    0.047
 5730.00    0.78352   0.84768    0.047
 5731.00    0.77719   0.84791    0.048
 5732.00    0.78064   0.84783    0.048
 5733.00    0.80630   0.84803    0.048
 5734.00    0.82836   0.84815    0.048
 5735.00    0.84337   0.84802    0.048
 5736.00    0.85723   0.84785    0.048
 5737.00    0.86914   0.84789    0.049
 5738.00    0.88355   0.84842    0.049
 5739.00    0.90171   0.84864    0.050
 5740.00    0.90744   0.84840    0.000
 5741.00    0.89676   0.84766    0.000
 5742.00    0.89997   0.84757    0.000
 5743.00    0.91932   0.84771    0.000
 5744.00    0.91108   0.84752    0.000
 5745.00    0.87458   0.84662    0.000
 5746.00    0.84924   0.84501    0.000
 5747.00    0.83398   0.84429    0.000
 5748.00    0.82147   0.84385    0.000
 5749.00    0.81114   0.84349    0.000
 5750.00    0.81970   0.84261    0.000
 5751.00    0.84150   0.84113    0.000
 5752.00    0.83459   0.83970    0.000
 5753.00    0.81006   0.83885    0.000
 5754.00    0.80379   0.83888    0.000
 5755.00    0.80733   0.83890    0.000
 5756.00    0.81028   0.83867    0.000
 5757.00    0.81297   0.83825    0.000
 5758.00    0.82846   0.83786    0.000
 5759.00    0.84910   0.83793    0.000
 5760.00    0.84781   0.83845    0.000
 5761.00    0.83901   0.83922    0.000
 5762.00    0.84607   0.84053    0.000
 5763.00    0.85770   0.84150    0.000
 5764.00    0.87987   0.84233    0.000
 5765.00    0.90454   0.84315    0.000
 5766.00    0.89211   0.84402    0.000
 5767.00    0.87255   0.84489    0.000
 5768.00    0.86537   0.84535    0.000
 5769.00    0.86003   0.84602    0.000
 5770.00    0.86139   0.84570    0.000
 5771.00    0.86349   0.84495    0.000
 5772.00    0.86262   0.84354    0.000
 5773.00    0.86155   0.84145    0.000
 5774.00    0.88114   0.83939    0.000
 5775.00    0.90149   0.83671    0.000
 5776.00    0.89165   0.83388    0.000
 5777.00    0.88228   0.83050    0.000
 5778.00    0.89463   0.82648    0.000
 5779.00    0.90590   0.82250    0.000
 5780.00    0.89969   0.81946    0.000
 5781.00    0.89394   0.81703    0.000
 5782.00    0.89277   0.81501    0.000
 5783.00    0.88819   0.81270    0.000
 5784.00    0.85891   0.81130    0.000
 5785.00    0.83313   0.81176    0.000
 5786.00    0.82677   0.81233    0.000
 5787.00    0.81940   0.81450    0.000
 5788.00    0.80760   0.81666    0.000
 5789.00    0.80157   0.81873    0.000
 5790.00    0.81660   0.82201    0.000
 5791.00    0.82350   0.82498   -2.000
 5792.00    0.80556   0.82940   -2.000
 5793.00    0.78569   0.83358   -2.000
 5794.00    0.76081   0.83669   -2.000
 5795.00    0.74010   0.83966   -2.000
 5796.00    0.72873   0.84176   -2.000
 5797.00    0.74711   0.84491   -2.000
 5798.00    0.82306   0.84791   -2.000
 5799.00    0.86898   0.84981   -2.000
 5800.00    0.86422   0.85164   -2.000
 5801.00    0.85243   0.85237   -2.000
 5802.00    0.83024   0.85271   -2.000
 5803.00    0.83934   0.85338   -2.000
 5804.00    0.88909   0.85388   -2.000
 5805.00    0.92989   0.85443   -2.000
 5806.00    0.96042   0.85439   -2.000
 5807.00    0.94498   0.85368   -2.000
 5808.00    0.88311   0.85326   -2.000
 5809.00    0.84896   0.85282   -2.000
 5810.00    0.83950   0.85265   -2.000
 5811.00    0.84185   0.85290    0.000
 5812.00    0.85348   0.85273    0.000
 5813.00    0.86372   0.85260    0.000
 5814.00    0.87302   0.85233    0.000
 5815.00    0.88306   0.85253    0.000
 5816.00    0.89354   0.85361    0.000
 5817.00    0.87956   0.85433    0.000
 5818.00    0.85267   0.85527    0.000
 5819.00    0.83206   0.85605    0.000
 5820.00    0.81434   0.85677    0.000
 5821.00    0.83905   0.85786    0.000
 5822.00    0.88051   0.85889    0.000
 5823.00    0.90249   0.86025    0.000
 5824.00    0.91793   0.86105    0.000
 5825.00    0.90692   0.86155    0.000
 5826.00    0.88845   0.86193    0.000
 5827.00    0.88536   0.86225    0.000
 5828.00    0.88586   0.86265    0.000
 5829.00    0.89361   0.86276    0.000
 5830.00    0.90273   0.86282    0.000
 5831.00    0.89015   0.86241    0.000
 5832.00    0.87444   0.86194    0.000
 5833.00    0.88912   0.86152    0.000
 5834.00    0.90698   0.86148    0.000
 5835.00    0.88933   0.86137    0.000
 5836.00    0.86926   0.86063    0.000
 5837.00    0.85174   0.86012    0.000
 5838.00    0.83430   0.85960    0.000
 5839.00    0.85541   0.85922    0.000
 5840.00    0.87587   0.85847    0.000
 5841.00    0.87518   0.85741    0.000
 5842.00    0.87480   0.85631    0.000
 5843.00    0.87893   0.85469    0.000
 5844.00    0.88293   0.85282    0.000
 5845.00    0.88568   0.85028    0.000
 5846.00    0.88694   0.84756    0.000
 5847.00    0.87769   0.84489    0.000
 5848.00    0.86758   0.84192    0.000
 5849.00    0.85291   0.83871    0.000
 5850.00    0.83558   0.83470    0.000
 5851.00    0.80674   0.83077    0.000
 5852.00    0.78532   0.82778    0.000
 5853.00    0.79037   0.82514    0.000
 5854.00    0.79574   0.82276    0.000
 5855.00    0.80206   0.81965    0.000
 5856.00    0.80131   0.81713    0.000
 5857.00    0.78249   0.81608    0.000
 5858.00    0.78430   0.81542    0.000
 5859.00    0.83141   0.81548    0.000
 5860.00    0.85284   0.81495    0.000
 5861.00    0.82539   0.81518    0.000
 5862.00    0.80881   0.81619    0.000
 5863.00    0.81028   0.81731    0.000
 5864.00    0.81469   0.81880    0.000
 5865.00    0.82337   0.81961    0.000
 5866.00    0.82713   0.82089    0.000
 5867.00    0.82457   0.82188    0.000
 5868.00    0.82086   0.82283    0.000
 5869.00    0.81586   0.82350    0.000
 5870.00    0.80811   0.82344    0.000
 5871.00    0.79765   0.82340    0.000
 5872.00    0.79378   0.82236    0.000
 5873.00    0.79571   0.82126    0.000
 5874.00    0.81512   0.81965    0.000
 5875.00    0.84804   0.81759    0.000
 5876.00    0.86990   0.81493    0.000
 5877.00    0.88425   0.81068    0.000
 5878.00    0.89112   0.80637    0.000
 5879.00    0.89355   0.80167    0.000
 5880.00    0.89196   0.79660    0.000
 5881.00    0.88828   0.79013    0.000
 5882.00    0.87129   0.78137    0.000
 5883.00    0.84828   0.77204    0.000
 5884.00    0.81224   0.76373    0.000
 5885.00    0.77114   0.75582    0.000
 5886.00    0.73854   0.74656    0.000
 5887.00    0.70873   0.73625    0.000
 5888.00    0.69689   0.72486    0.000
 5889.00    0.69002   0.71635    0.000
 5890.00    0.69989   0.71123    0.000
 5891.00    0.71357   0.70682    0.000
 5892.00    0.68539   0.70356    0.000
 5893.00    0.64960   0.69965    0.000
 5894.00    0.63859   0.69874    0.000
 5895.00    0.63104   0.70243    0.000
 5896.00    0.66188   0.70771    0.000
 5897.00    0.69658   0.71472    0.000
 5898.00    0.72670   0.72102    0.000
 5899.00    0.75653   0.72789    0.000
 5900.00    0.76708   0.73704    0.000
 5901.00    0.77706   0.74654    0.043
 5902.00    0.77997   0.75616    0.043
 5903.00    0.78294   0.76468    0.043
 5904.00    0.78771   0.77191    0.044
 5905.00    0.79136   0.77898    0.044
 5906.00    0.77916   0.78515    0.044
 5907.00    0.77056   0.79033    0.044
 5908.00    0.79538   0.79476    0.044
 5909.00    0.81765   0.79786    0.043
 5910.00    0.82252   0.80061    0.044
 5911.00    0.82417   0.80258    0.045
 5912.00    0.80887   0.80356    0.044
 5913.00    0.79875   0.80489    0.044
 5914.00    0.81057   0.80541    0.044
 5915.00    0.81659   0.80616    0.044
 5916.00    0.80236   0.80693    0.043
 5917.00    0.79578   0.80701    0.043
 5918.00    0.81167   0.80789    0.044
 5919.00    0.82881   0.80841    0.045
 5920.00    0.84906   0.80903    0.046
 5921.00    0.86020   0.80997    0.046
 5922.00    0.85167   0.81028    0.045
 5923.00    0.84674   0.81078    0.045
 5924.00    0.84854   0.81167    0.045
 5925.00    0.85137   0.81213    0.045
 5926.00    0.85587   0.81263    0.045
 5927.00    0.86219   0.81267    0.044
 5928.00    0.87113   0.81221    0.044
 5929.00    0.87535   0.81297    0.044
 5930.00    0.87359   0.81326    0.043
 5931.00    0.86529   0.81344    0.043
 5932.00    0.84973   0.81357    0.043
 5933.00    0.84978   0.81294    0.043
 5934.00    0.86515   0.81352    0.043
 5935.00    0.87286   0.81394    0.043
 5936.00    0.87395   0.81421    0.043
 5937.00    0.86596   0.81472    0.043
 5938.00    0.85105   0.81457    0.043
 5939.00    0.84062   0.81484    0.043
 5940.00    0.83319   0.81514    0.043
 5941.00    0.82305   0.81506    0.043
 5942.00    0.81131   0.81527    0.043
 5943.00    0.81170   0.81537    0.043
 5944.00    0.81829   0.81523    0.043
 5945.00    0.81825   0.81495    0.043
 5946.00    0.81527   0.81412    0.044
 5947.00    0.82399   0.81368    0.044
 5948.00    0.83716   0.81366    0.045
 5949.00    0.82239   0.81336    0.044
 5950.00    0.79859   0.81278    0.044
 5951.00    0.79138   0.81183    0.044
 5952.00    0.78867   0.81166    0.045
 5953.00    0.79160   0.81204    0.045
 5954.00    0.79578   0.81232    0.044
 5955.00    0.82391   0.81265    0.045
 5956.00    0.85627   0.81279    0.045
 5957.00    0.85499   0.81388    0.045
 5958.00    0.84915   0.81529    0.045
 5959.00    0.84499   0.81649    0.045
 5960.00    0.84098   0.81812    0.044
 5961.00    0.83141   0.81929    0.044
 5962.00    0.82150   0.82105    0.044
 5963.00    0.81426   0.82272    0.043
 5964.00    0.80722   0.82384    0.042
 5965.00    0.82154   0.82546    0.042
 5966.00    0.83574   0.82628    0.042
 5967.00    0.84677   0.82720    0.042
 5968.00    0.85755   0.82783    0.042
 5969.00    0.86487   0.82765    0.042
 5970.00    0.87129   0.82779    0.042
 5971.00    0.86955   0.82720    0.042
 5972.00    0.86636   0.82642    0.043
 5973.00    0.85361   0.82557    0.043
 5974.00    0.84688   0.82404    0.043
 5975.00    0.87098   0.82274    0.043
 5976.00    0.88650   0.82109    0.043
 5977.00    0.86650   0.81925    0.043
 5978.00    0.84614   0.81807    0.043
 5979.00    0.82454   0.81664    0.044
 5980.00    0.80760   0.81543    0.044
 5981.00    0.80411   0.81444    0.045
 5982.00    0.80368   0.81316    0.045
 5983.00    0.81080   0.81313    0.045
 5984.00    0.81477   0.81323    0.045
 5985.00    0.81202   0.81313    0.044
 5986.00    0.81632   0.81373    0.044
 5987.00    0.83364   0.81385    0.044
 5988.00    0.85728   0.81492    0.044
 5989.00    0.89111   0.81605    0.044
 5990.00    0.90558   0.81634    0.044
 5991.00    0.89264   0.81736    0.043
 5992.00    0.88863   0.81789    0.043
 5993.00    0.89573   0.81854    0.043
 5994.00    0.89646   0.81909    0.044
 5995.00    0.89022   0.81839    0.043
 5996.00    0.87811   0.81805    0.043
 5997.00    0.86032   0.81785    0.043
 5998.00    0.85751   0.81722    0.043
 5999.00    0.86747   0.81675    0.043
 6000.00    0.88122   0.81524    0.042
 6001.00    0.89782   0.81336    0.042
 6002.00    0.89094   0.81282    0.042
 6003.00    0.86855   0.81188    0.041
 6004.00    0.84004   0.81105    0.041
 6005.00    0.80798   0.80993    0.041
 6006.00    0.80514   0.80766    0.041
 6007.00    0.81702   0.80733    0.042
 6008.00    0.82621   0.80725    0.042
 6009.00    0.83422   0.80651    0.043
 6010.00    0.83188   0.80606    0.043
 6011.00    0.82567   0.80451    0.044
 6012.00    0.82725   0.80427    0.044
 6013.00    0.83130   0.80503    0.044
 6014.00    0.85414   0.80462    0.044
 6015.00    0.88197   0.80451    0.045
 6016.00    0.89372   0.80438    0.046
 6017.00    0.90199   0.80448    0.047
 6018.00    0.87219   0.80584    0.046
 6019.00    0.83583   0.80648    0.045
 6020.00    0.80487   0.80716    0.044
 6021.00    0.77461   0.80890    0.043
 6022.00    0.78129   0.81017    0.043
 6023.00    0.79136   0.81247    0.043
 6024.00    0.81072   0.81463    0.043
 6025.00    0.83060   0.81643    0.043
 6026.00    0.85380   0.81943    0.042
 6027.00    0.87671   0.82171    0.041
 6028.00    0.86282   0.82440    0.041
 6029.00    0.84957   0.82696    0.041
 6030.00    0.85097   0.82888    0.041
 6031.00    0.85232   0.83156    0.041
 6032.00    0.85299   0.83354    0.041
 6033.00    0.85228   0.83537    0.041
 6034.00    0.83969   0.83704    0.041
 6035.00    0.83051   0.83813    0.041
 6036.00    0.84317   0.83977    0.042
 6037.00    0.85485   0.84084    0.042
 6038.00    0.86162   0.84162    0.042
 6039.00    0.86619   0.84258    0.042
 6040.00    0.86186   0.84304    0.043
 6041.00    0.85715   0.84401    0.043
 6042.00    0.85111   0.84461    0.043
 6043.00    0.84705   0.84487    0.043
 6044.00    0.84859   0.84546    0.043
 6045.00    0.84764   0.84557    0.043
 6046.00    0.84065   0.84575    0.043
 6047.00    0.83924   0.84568    0.043
 6048.00    0.84951   0.84535    0.043
 6049.00    0.86052   0.84497    0.044
 6050.00    0.87288   0.84428    0.044
 6051.00    0.88808   0.84329    0.044
 6052.00    0.90779   0.84223    0.043
 6053.00    0.91290   0.84122    0.043
 6054.00    0.89762   0.84003    0.043
 6055.00    0.88826   0.83875    0.043
 6056.00    0.88617   0.83738    0.042
 6057.00    0.89178   0.83645    0.042
 6058.00    0.90572   0.83547    0.042
 6059.00    0.90117   0.83473    0.042
 6060.00    0.87897   0.83420    0.042
 6061.00    0.87163   0.83376    0.042
 6062.00    0.87678   0.83430    0.042
 6063.00    0.87652   0.83419    0.041
 6064.00    0.87225   0.83473    0.041
 6065.00    0.85945   0.83600    0.041
 6066.00    0.84112   0.83679    0.041
 6067.00    0.83055   0.83845    0.041
 6068.00    0.82441   0.83908    0.042
 6069.00    0.82543   0.83996    0.042
 6070.00    0.82999   0.84174    0.042
 6071.00    0.83047   0.84215    0.042
 6072.00    0.82920   0.84255    0.043
 6073.00    0.84416   0.84237    0.043
 6074.00    0.86509   0.84159    0.044
 6075.00    0.87379   0.84130    0.044
 6076.00    0.87868   0.83984    0.044
 6077.00    0.89115   0.83794    0.044
 6078.00    0.90559   0.83650    0.044
 6079.00    0.89790   0.83437    0.043
 6080.00    0.88552   0.83221    0.043
 6081.00    0.86514   0.83028    0.044
 6082.00    0.84343   0.82823    0.044
 6083.00    0.84286   0.82680    0.043
 6084.00    0.84497   0.82535    0.042
 6085.00    0.85164   0.82365    0.042
 6086.00    0.85871   0.82283    0.042
 6087.00    0.86140   0.82228    0.042
 6088.00    0.86387   0.82150    0.041
 6089.00    0.87810   0.82122    0.042
 6090.00    0.89198   0.82097    0.042
 6091.00    0.86453   0.82088    0.041
 6092.00    0.83747   0.82093    0.040
 6093.00    0.81862   0.82066    0.040
 6094.00    0.80194   0.82087    0.040
 6095.00    0.81154   0.82079    0.041
 6096.00    0.82000   0.82031    0.042
 6097.00    0.81913   0.82010    0.042
 6098.00    0.82144   0.81991    0.042
 6099.00    0.84340   0.82037    0.042
 6100.00    0.86056   0.81952    0.042
 6101.00    0.85434   0.81829    0.042
 6102.00    0.84649   0.81903    0.042
 6103.00    0.83218   0.81959    0.043
 6104.00    0.81910   0.82048    0.043
 6105.00    0.81003   0.82020    0.043
 6106.00    0.80685   0.81916    0.043
 6107.00    0.82002   0.82132    0.044
 6108.00    0.83020   0.82329    0.044
 6109.00    0.83324   0.82369    0.043
 6110.00    0.83380   0.82383    0.042
 6111.00    0.82927   0.82332    0.042
 6112.00    0.83132   0.82437    0.042
 6113.00    0.84516   0.82574    0.043
 6114.00    0.86204   0.82448    0.043
 6115.00    0.88371   0.82291    0.042
 6116.00    0.88738   0.82236    0.042
 6117.00    0.86634   0.82126    0.041
 6118.00    0.84038   0.82049    0.041
 6119.00    0.80846   0.81874    0.040
 6120.00    0.79527   0.81596    0.040
 6121.00    0.80206   0.81557    0.041
 6122.00    0.81141   0.81484    0.041
 6123.00    0.82318   0.81345    0.041
 6124.00    0.83236   0.81277    0.041
 6125.00    0.83941   0.81094    0.041
 6126.00    0.84524   0.81067    0.041
 6127.00    0.85019   0.81086    0.042
 6128.00    0.85272   0.81007    0.042
 6129.00    0.85371   0.80957    0.042
 6130.00    0.84976   0.80802    0.042
 6131.00    0.84304   0.80706    0.042
 6132.00    0.83804   0.80645    0.042
 6133.00    0.83387   0.80593    0.043
 6134.00    0.83375   0.80523    0.043
 6135.00    0.83534   0.80327    0.043
 6136.00    0.83210   0.80282    0.044
 6137.00    0.82712   0.80312    0.045
 6138.00    0.81652   0.80386    0.044
 6139.00    0.80420   0.80424    0.043
 6140.00    0.79997   0.80324    0.043
 6141.00    0.79779   0.80488    0.042
 6142.00    0.80582   0.80760    0.042
 6143.00    0.81596   0.80924    0.042
 6144.00    0.84080   0.80971    0.042
 6145.00    0.86803   0.80912    0.042
 6146.00    0.89483   0.81059    0.042
 6147.00    0.92156   0.81210    0.042
 6148.00    0.91831   0.81173    0.041
 6149.00    0.91256   0.81036    0.041
 6150.00    0.90903   0.80826    0.041
 6151.00    0.90561   0.80669    0.040
 6152.00    0.88456   0.80417    0.040
 6153.00    0.86302   0.80044    0.040
 6154.00    0.82736   0.79684    0.040
 6155.00    0.79277   0.79270    0.040
 6156.00    0.77913   0.78812    0.041
 6157.00    0.76523   0.78331    0.041
 6158.00    0.74819   0.77832    0.042
 6159.00    0.73601   0.77343    0.043
 6160.00    0.76267   0.76898    0.043
 6161.00    0.78644   0.76493    0.043
 6162.00    0.79286   0.76179    0.043
 6163.00    0.79490   0.75929    0.043
 6164.00    0.77614   0.75610    0.043
 6165.00    0.76180   0.75436    0.043
 6166.00    0.76458   0.75453    0.044
 6167.00    0.77046   0.75490    0.044
 6168.00    0.78639   0.75586    0.043
 6169.00    0.79675   0.75683    0.042
 6170.00    0.79189   0.75872    0.042
 6171.00    0.78272   0.76180    0.042
 6172.00    0.76343   0.76385    0.041
 6173.00    0.75148   0.76601    0.041
 6174.00    0.75440   0.76949    0.040
 6175.00    0.75634   0.77256    0.040
 6176.00    0.75657   0.77485    0.040
 6177.00    0.75847   0.77669    0.041
 6178.00    0.76294   0.77808    0.040
 6179.00    0.76873   0.78003    0.040
 6180.00    0.77631   0.78136    0.039
 6181.00    0.77236   0.78112    0.039
 6182.00    0.75466   0.78129    0.040
 6183.00    0.75386   0.78106    0.040
 6184.00    0.77083   0.77985    0.040
 6185.00    0.78142   0.77915    0.041
 6186.00    0.78607   0.77730    0.042
 6187.00    0.78951   0.77591    0.042
 6188.00    0.79197   0.77576    0.042
 6189.00    0.79611   0.77331    0.043
 6190.00    0.80148   0.77205    0.043
 6191.00    0.79736   0.77221    0.043
 6192.00    0.78726   0.77190    0.042
 6193.00    0.78172   0.77301    0.042
 6194.00    0.77870   0.77217    0.043
 6195.00    0.73552   0.77212    0.044
 6196.00    0.67305   0.77513   -2.000
 6197.00    0.51713   0.77631   -2.000
 6198.00    0.32248   0.77728   -2.000
 6199.00    0.21868   0.77853   -2.000
 6200.00    0.14708   0.77956   -2.000
 6201.00    0.34959   0.78180   -2.000
 6202.00    0.63413   0.78239   -2.000
 6203.00    0.87622   0.78179   -2.000
 6204.00    1.10776   0.78247   -2.000
 6205.00    1.12309   0.78255   -2.000
 6206.00    1.09489   0.78166   -2.000
 6207.00    0.97895   0.78048   -2.000
 6208.00    0.84917   0.77804    0.043
 6209.00    0.81919   0.77580    0.042
 6210.00    0.80090   0.77387    0.042
 6211.00    0.81349   0.77053    0.041
 6212.00    0.82852   0.76776    0.041
 6213.00    0.80386   0.76489    0.041
 6214.00    0.77745   0.76113    0.042
 6215.00    0.76898   0.75903    0.041
 6216.00    0.76131   0.75644    0.041
 6217.00    0.78238   0.75352    0.041
 6218.00    0.80116   0.75209    0.041
 6219.00    0.77811   0.74999    0.042
 6220.00    0.75644   0.74894    0.042
 6221.00    0.74988   0.74869    0.042
 6222.00    0.74514   0.74702    0.042
 6223.00    0.75445   0.74634    0.041
 6224.00    0.76205   0.74633    0.041
 6225.00    0.75969   0.74581    0.042
 6226.00    0.75562   0.74606    0.043
 6227.00    0.74363   0.74564    0.043
 6228.00    0.73379   0.74470    0.043
 6229.00    0.73208   0.74516    0.042
 6230.00    0.73621   0.74510    0.042
 6231.00    0.75882   0.74509    0.041
 6232.00    0.77742   0.74568    0.041
 6233.00    0.78528   0.74446    0.040
 6234.00    0.78756   0.74430    0.039
 6235.00    0.77700   0.74488    0.038
 6236.00    0.77458   0.74434    0.037
 6237.00    0.78836   0.74485    0.039
 6238.00    0.79642   0.74395    0.039
 6239.00    0.79453   0.74340    0.039
 6240.00    0.78915   0.74375    0.040
 6241.00    0.77844   0.74219    0.041
 6242.00    0.77705   0.74189    0.041
 6243.00    0.78810   0.74131    0.041
 6244.00    0.79892   0.74049    0.041
 6245.00    0.80947   0.74107    0.042
 6246.00    0.81447   0.73950    0.042
 6247.00    0.81371   0.73836    0.042
 6248.00    0.80623   0.73848    0.042
 6249.00    0.79260   0.73723    0.042
 6250.00    0.78753   0.73695    0.042
 6251.00    0.78937   0.73642    0.042
 6252.00    0.79518   0.73521    0.042
 6253.00    0.80381   0.73521    0.042
 6254.00    0.79710   0.73473    0.042
 6255.00    0.78084   0.73422    0.042
 6256.00    0.75443   0.73421    0.041
 6257.00    0.72248   0.73489    0.041
 6258.00    0.70581   0.73685    0.041
 6259.00    0.69636   0.73788    0.042
 6260.00    0.66580   0.73896    0.043
 6261.00    0.62664   0.74095    0.045
 6262.00    0.62388   0.74345    0.047
 6263.00    0.63380   0.74673    0.049
 6264.00    0.71536   0.74872    0.049
 6265.00    0.81793   0.75101    0.047
 6266.00    0.89953   0.75433    0.046
 6267.00    0.97603   0.75658    0.044
 6268.00    0.94047   0.75831    0.042
 6269.00    0.88291   0.76001    0.041
 6270.00    0.84976   0.76214    0.041
 6271.00    0.82035   0.76428    0.041
 6272.00    0.81922   0.76495    0.041
 6273.00    0.82129   0.76595    0.041
 6274.00    0.81298   0.76744    0.042
 6275.00    0.80389   0.76793    0.042
 6276.00    0.79023   0.76912    0.042
 6277.00    0.77639   0.76980    0.042
 6278.00    0.79693   0.77009    0.041
 6279.00    0.81702   0.77176    0.041
 6280.00    0.80903   0.77203    0.000
 6281.00    0.80150   0.77275    0.000
 6282.00    0.80190   0.77455    0.000
 6283.00    0.80356   0.77433    0.000
 6284.00    0.81841   0.77550    0.000
 6285.00    0.83011   0.77668    0.000
 6286.00    0.81833   0.77665    0.000
 6287.00    0.80831   0.77804    0.000
 6288.00    0.80829   0.77745    0.000
 6289.00    0.81016   0.77718    0.000
 6290.00    0.82059   0.77794    0.000
 6291.00    0.82771   0.77645    0.000
 6292.00    0.82255   0.77586    0.000
 6293.00    0.81678   0.77515    0.000
 6294.00    0.80911   0.77360    0.000
 6295.00    0.80173   0.77298    0.000
 6296.00    0.79510   0.77119    0.000
 6297.00    0.78691   0.77028    0.000
 6298.00    0.77523   0.77057    0.000
 6299.00    0.76601   0.76941    0.000
 6300.00    0.76166   0.76847    0.000
 6301.00    0.76448   0.76842    0.000
 6302.00    0.77956   0.76924    0.000
 6303.00    0.79640   0.77027    0.000
 6304.00    0.81590   0.76997    0.000
 6305.00    0.83593   0.76991    0.000
 6306.00    0.85668   0.77108    0.000
 6307.00    0.87140   0.77210    0.000
 6308.00    0.87913   0.77227    0.000
 6309.00    0.85827   0.77190    0.000
 6310.00    0.80816   0.77194    0.000
 6311.00    0.78339   0.77284    0.000
 6312.00    0.78148   0.77269    0.000
 6313.00    0.79169   0.77119    0.000
 6314.00    0.81154   0.77097    0.000
 6315.00    0.82871   0.77128    0.000
 6316.00    0.84399   0.77150    0.000
 6317.00    0.84053   0.77143    0.000
 6318.00    0.82556   0.77086    0.000
 6319.00    0.81676   0.77244    0.000
 6320.00    0.81126   0.77391    0.000
 6321.00    0.81002   0.77397    0.039
 6322.00    0.81077   0.77509    0.039
 6323.00    0.81723   0.77715    0.039
 6324.00    0.82598   0.77952    0.040
 6325.00    0.82113   0.77998    0.040
 6326.00    0.81163   0.78065    0.040
 6327.00    0.80841   0.78297    0.041
 6328.00    0.80700   0.78378    0.042
 6329.00    0.82604   0.78453    0.042
 6330.00    0.84994   0.78418    0.042
 6331.00    0.86609   0.78375    0.042
 6332.00    0.88076   0.78523    0.041
 6333.00    0.88503   0.78415    0.041
 6334.00    0.88775   0.78254    0.041
 6335.00    0.86646   0.78302    0.041
 6336.00    0.84255   0.78277    0.040
 6337.00    0.81167   0.78228    0.040
 6338.00    0.78028   0.78110    0.040
 6339.00    0.78079   0.77954    0.040
 6340.00    0.78245   0.78050    0.039
 6341.00    0.79872   0.78108    0.039
 6342.00    0.81496   0.77976    0.039
 6343.00    0.82827   0.78029    0.039
 6344.00    0.84059   0.78106    0.040
 6345.00    0.83709   0.78072    0.039
 6346.00    0.83361   0.78069    0.039
 6347.00    0.83030   0.78002    0.040
 6348.00    0.82813   0.78008    0.040
 6349.00    0.83422   0.78013    0.040
 6350.00    0.83963   0.77850    0.039
 6351.00    0.84121   0.77773    0.040
 6352.00    0.84302   0.77707    0.041
 6353.00    0.84583   0.77456    0.041
 6354.00    0.84615   0.77265    0.041
 6355.00    0.83745   0.77129    0.041
 6356.00    0.82652   0.76927    0.041
 6357.00    0.80878   0.76707    0.042
 6358.00    0.80035   0.76503    0.042
 6359.00    0.81605   0.76427    0.043
 6360.00    0.82635   0.76422    0.043
 6361.00    0.82460   0.76315    0.042
 6362.00    0.81264   0.76288    0.041
 6363.00    0.78097   0.76476    0.041
 6364.00    0.76366   0.76644    0.041
 6365.00    0.77055   0.76749    0.041
 6366.00    0.78627   0.76989    0.041
 6367.00    0.81502   0.77315    0.041
 6368.00    0.83946   0.77635    0.040
 6369.00    0.85832   0.77920    0.040
 6370.00    0.87246   0.78167    0.040
 6371.00    0.88119   0.78509    0.040
 6372.00    0.88882   0.78825    0.040
 6373.00    0.89534   0.78956    0.040
 6374.00    0.89465   0.79134    0.040
 6375.00    0.88753   0.79360    0.040
 6376.00    0.87113   0.79478    0.040
 6377.00    0.84747   0.79578    0.040
 6378.00    0.83523   0.79628    0.041
 6379.00    0.83087   0.79641    0.042
 6380.00    0.82371   0.79696    0.042
 6381.00    0.81485   0.79671    0.042
 6382.00    0.81889   0.79626    0.042
 6383.00    0.82973   0.79621    0.041
 6384.00    0.85545   0.79568    0.041
 6385.00    0.88797   0.79544    0.041
 6386.00    0.89947   0.79525    0.041
 6387.00    0.90269   0.79413    0.041
 6388.00    0.90953   0.79285    0.042
 6389.00    0.91759   0.79251    0.042
 6390.00    0.91379   0.79231    0.042
 6391.00    0.90664   0.79127    0.040
 6392.00    0.89450   0.79038    0.040
 6393.00    0.88121   0.79043    0.040
 6394.00    0.86447   0.79002    0.041
 6395.00    0.84709   0.78839    0.041
 6396.00    0.84992   0.78807    0.041
 6397.00    0.85566   0.78869    0.040
 6398.00    0.86166   0.78864    0.041
 6399.00    0.86769   0.78926    0.041
 6400.00    0.86128   0.78927    0.041
 6401.00    0.85404   0.78996    0.042
 6402.00    0.86165   0.79079    0.042
 6403.00    0.86974   0.78880    0.042
 6404.00    0.87209   0.79010    0.042
 6405.00    0.87410   0.79246    0.042
 6406.00    0.86592   0.79086    0.042
 6407.00    0.85875   0.79132    0.042
 6408.00    0.86672   0.79208    0.042
 6409.00    0.87359   0.79144    0.042
 6410.00    0.86979   0.79179    0.042
 6411.00    0.86903   0.79057    0.042
 6412.00    0.88961   0.79065    0.041
 6413.00    0.90780   0.79216    0.041
 6414.00    0.91316   0.79076    0.042
 6415.00    0.91523   0.79009    0.042
 6416.00    0.90314   0.79092    0.041
 6417.00    0.88844   0.79068    0.041
 6418.00    0.86444   0.79117    0.040
 6419.00    0.84508   0.79162    0.040
 6420.00    0.83961   0.79156    0.039
 6421.00    0.83938   0.79260    0.039
 6422.00    0.85255   0.79309    0.040
 6423.00    0.85905   0.79311    0.040
 6424.00    0.85096   0.79391    0.039
 6425.00    0.84563   0.79404    0.039
 6426.00    0.84555   0.79449    0.041
 6427.00    0.84701   0.79565    0.041
 6428.00    0.85103   0.79556    0.041
 6429.00    0.85826   0.79585    0.042
 6430.00    0.87017   0.79658    0.043
 6431.00    0.87782   0.79645    0.043
 6432.00    0.88004   0.79741    0.043
 6433.00    0.87557   0.79717    0.043
 6434.00    0.86358   0.79608    0.043
 6435.00    0.84853   0.79811    0.043
 6436.00    0.83046   0.79903    0.043
 6437.00    0.81650   0.79858    0.042
 6438.00    0.80614   0.79981    0.041
 6439.00    0.80378   0.80004    0.041
 6440.00    0.80761   0.80082    0.041
 6441.00    0.81773   0.80119    0.041
 6442.00    0.83213   0.79974    0.040
 6443.00    0.84061   0.80097    0.040
 6444.00    0.84556   0.80095    0.040
 6445.00    0.83363   0.79880    0.040
 6446.00    0.81294   0.79950    0.041
 6447.00    0.80757   0.79889    0.041
 6448.00    0.80909   0.79775    0.041
 6449.00    0.81247   0.79776    0.041
 6450.00    0.81657   0.79599    0.041
 6451.00    0.82330   0.79589    0.041
 6452.00    0.83090   0.79578    0.042
 6453.00    0.84190   0.79431    0.042
 6454.00    0.85385   0.79542    0.042
 6455.00    0.86885   0.79616    0.042
 6456.00    0.88454   0.79635    0.042
 6457.00    0.87268   0.79677    0.042
 6458.00    0.85583   0.79638    0.042
 6459.00    0.84519   0.79775    0.042
 6460.00    0.83541   0.79882    0.042
 6461.00    0.82987   0.79892    0.042
 6462.00    0.82475   0.79995    0.042
 6463.00    0.81628   0.80072    0.042
 6464.00    0.80760   0.80147    0.042
 6465.00    0.82180   0.80151    0.041
 6466.00    0.83664   0.80086    0.041
 6467.00    0.84833   0.80203    0.040
 6468.00    0.85890   0.80314    0.040
 6469.00    0.83797   0.80252    0.040
 6470.00    0.81837   0.80236    0.040
 6471.00    0.81758   0.80282    0.040
 6472.00    0.81826   0.80265    0.041
 6473.00    0.83253   0.80199    0.041
 6474.00    0.84290   0.80103    0.041
 6475.00    0.82685   0.80052    0.041
 6476.00    0.81352   0.80015    0.041
 6477.00    0.81446   0.79844    0.041
 6478.00    0.81813   0.79659    0.041
 6479.00    0.83332   0.79581    0.042
 6480.00    0.84740   0.79466    0.042
 6481.00    0.85759   0.79227    0.042
 6482.00    0.85997   0.78997    0.041
 6483.00    0.83948   0.78832    0.041
 6484.00    0.82662   0.78589    0.041
 6485.00    0.83284   0.78239    0.041
 6486.00    0.84207   0.77907    0.042
 6487.00    0.85781   0.77669    0.042
 6488.00    0.86348   0.77354    0.042
 6489.00    0.85030   0.76873    0.042
 6490.00    0.84114   0.76527    0.041
 6491.00    0.83855   0.76238    0.040
 6492.00    0.83347   0.75882    0.040
 6493.00    0.82481   0.75624    0.040
 6494.00    0.81835   0.75316    0.040
 6495.00    0.81464   0.75175    0.040
 6496.00    0.80443   0.75172    0.040
 6497.00    0.78700   0.74992    0.040
 6498.00    0.77225   0.75069    0.040
 6499.00    0.76012   0.75286    0.040
 6500.00    0.75066   0.75416    0.040
 6501.00    0.74349   0.75757    0.040
 6502.00    0.75144   0.76045    0.041
 6503.00    0.77089   0.76339    0.041
 6504.00    0.79036   0.76773    0.042
 6505.00    0.80986   0.77079    0.042
 6506.00    0.81639   0.77422    0.043
 6507.00    0.81533   0.77757    0.043
 6508.00    0.81756   0.77995    0.043
 6509.00    0.82149   0.78289    0.043
 6510.00    0.82894   0.78467    0.043
 6511.00    0.83795   0.78577    0.042
 6512.00    0.83134   0.78758    0.042
 6513.00    0.81878   0.78834    0.042
 6514.00    0.82192   0.78892    0.041
 6515.00    0.83012   0.78978    0.041
 6516.00    0.82732   0.79005    0.041
 6517.00    0.82154   0.79077    0.040
 6518.00    0.81861   0.79083    0.041
 6519.00    0.81631   0.79062    0.041
 6520.00    0.81785   0.79186    0.040
 6521.00    0.82008   0.79183    0.040
 6522.00    0.83215   0.79138    0.040
 6523.00    0.84555   0.79272    0.040
 6524.00    0.86667   0.79311    0.041
 6525.00    0.88852   0.79327    0.041
 6526.00    0.88686   0.79392    0.041
 6527.00    0.88381   0.79390    0.041
 6528.00    0.88122   0.79458    0.000
 6529.00    0.87850   0.79484    0.000
 6530.00    0.85592   0.79454    0.000
 6531.00    0.83460   0.79545    0.000
 6532.00    0.84506   0.79554    0.000
 6533.00    0.85492   0.79508    0.000
 6534.00    0.85677   0.79557    0.000
 6535.00    0.86022   0.79527    0.000
 6536.00    0.87794   0.79467    0.000
 6537.00    0.89353   0.79425    0.000
 6538.00    0.89508   0.79308    0.000
 6539.00    0.89475   0.79229    0.000
 6540.00    0.88481   0.79096    0.000
 6541.00    0.87343   0.78837    0.000
 6542.00    0.85611   0.78684    0.000
 6543.00    0.84657   0.78482    0.000
 6544.00    0.86359   0.78162    0.000
 6545.00    0.87574   0.77899    0.000
 6546.00    0.87386   0.77516    0.000
 6547.00    0.86926   0.77130    0.000
 6548.00    0.85798   0.76809    0.000
 6549.00    0.85379   0.76290    0.000
 6550.00    0.86462   0.75819    0.000
 6551.00    0.86309   0.75398    0.000
 6552.00    0.83876   0.74843    0.000
 6553.00    0.81822   0.74353    0.000
 6554.00    0.80379   0.73743    0.000
 6555.00    0.80117   0.73116    0.000
 6556.00    0.81520   0.72728    0.000
 6557.00    0.81937   0.72049    0.000
 6558.00    0.81126   0.71334    0.000
 6559.00    0.81311   0.71118    0.000
 6560.00    0.82585   0.70783    0.000
 6561.00    0.82094   0.70361    0.000
 6562.00    0.79898   0.70237    0.000
 6563.00    0.76825   0.70127    0.000
 6564.00    0.73005   0.70163    0.000
 6565.00    0.73261   0.70225    0.000
 6566.00    0.76574   0.70236    0.000
 6567.00    0.77886   0.70706    0.000
 6568.00    0.77877   0.71175    0.000
 6569.00    0.77338   0.71371    0.000
 6570.00    0.76493   0.71904    0.000
 6571.00    0.77143   0.72540    0.000
 6572.00    0.78544   0.72911    0.000
 6573.00    0.79971   0.73352    0.000
 6574.00    0.81410   0.73899    0.000
 6575.00    0.80576   0.74302    0.000
 6576.00    0.78892   0.74645    0.000
 6577.00    0.79584   0.75052    0.000
 6578.00    0.81028   0.75391    0.000
 6579.00    0.84615   0.75722    0.000
 6580.00    0.88768   0.76055    0.000
 6581.00    0.91034   0.76220    0.000
 6582.00    0.92892   0.76448    0.000
 6583.00    0.93215   0.76698    0.000
 6584.00    0.93275   0.76732    0.000
 6585.00    0.90212   0.76841    0.000
 6586.00    0.86743   0.76991    0.000
 6587.00    0.86396   0.76969    0.000
 6588.00    0.86333   0.76968    0.000
 6589.00    0.84529   0.76984    0.000
 6590.00    0.82628   0.76980    0.000
 6591.00    0.79873   0.76986    0.000
 6592.00    0.77133   0.76940    0.000
 6593.00    0.77476   0.76888    0.000
 6594.00    0.77832   0.76902    0.000
 6595.00    0.78485   0.76905    0.000
 6596.00    0.79036   0.76838    0.000
 6597.00    0.78305   0.76861    0.000
 6598.00    0.77798   0.76945    0.000
 6599.00    0.79217   0.76922    0.000
 6600.00    0.80557   0.76945    0.000
 6601.00    0.81400   0.77011    0.000
 6602.00    0.82616   0.77033    0.000
 6603.00    0.85695   0.77102    0.000
 6604.00    0.87559   0.77126    0.000
 6605.00    0.84522   0.77136    0.000
 6606.00    0.81756   0.77224    0.000
 6607.00    0.79904   0.77285    0.000
 6608.00    0.78888   0.77305    0.000
 6609.00    0.80241   0.77344    0.043
 6610.00    0.81304   0.77450    0.043
 6611.00    0.81666   0.77534    0.043
 6612.00    0.82297   0.77547    0.042
 6613.00    0.83489   0.77642    0.042
 6614.00    0.84411   0.77759    0.042
 6615.00    0.84842   0.77809    0.043
 6616.00    0.84999   0.77840    0.043
 6617.00    0.84723   0.77856    0.042
 6618.00    0.84361   0.77930    0.042
 6619.00    0.83879   0.77908    0.042
 6620.00    0.83527   0.77789    0.042
 6621.00    0.83337   0.77801    0.042
 6622.00    0.84334   0.77735    0.042
 6623.00    0.86615   0.77582    0.043
 6624.00    0.87734   0.77503    0.043
 6625.00    0.87745   0.77351    0.044
 6626.00    0.88366   0.77218    0.045
 6627.00    0.89499   0.77109    0.046
 6628.00    0.87718   0.76910    0.045
 6629.00    0.83782   0.76815    0.044
 6630.00    0.82210   0.76743    0.044
 6631.00    0.82172   0.76580    0.045
 6632.00    0.81150   0.76513    0.045
 6633.00    0.79569   0.76493    0.045
 6634.00    0.78358   0.76414    0.044
 6635.00    0.77329   0.76354    0.044
 6636.00    0.76814   0.76351    0.043
 6637.00    0.76518   0.76349    0.043
 6638.00    0.77911   0.76338    0.043
 6639.00    0.79924   0.76348    0.043
 6640.00    0.80339   0.76357    0.042
 6641.00    0.80259   0.76402    0.042
 6642.00    0.81133   0.76437    0.042
 6643.00    0.82254   0.76395    0.042
 6644.00    0.83377   0.76444    0.042
 6645.00    0.84500   0.76503    0.043
 6646.00    0.85258   0.76412    0.043
 6647.00    0.85955   0.76418    0.043
 6648.00    0.82629   0.76480    0.043
 6649.00    0.78798   0.76399    0.043
 6650.00    0.76723   0.76360    0.044
 6651.00    0.74801   0.76358    0.045
 6652.00    0.74112   0.76287    0.044
 6653.00    0.73487   0.76246    0.044
 6654.00    0.74561   0.76172    0.045
 6655.00    0.75682   0.76054    0.045
 6656.00    0.78053   0.76010    0.045
 6657.00    0.80317   0.75928    0.045
 6658.00    0.80306   0.75788    0.045
 6659.00    0.80360   0.75729    0.044
 6660.00    0.81194   0.75649    0.043
 6661.00    0.81844   0.75551    0.042
 6662.00    0.80970   0.75525    0.043
 6663.00    0.80088   0.75435    0.043
 6664.00    0.79161   0.75379    0.043
 6665.00    0.78809   0.75423    0.043
 6666.00    0.81249   0.75334    0.042
 6667.00    0.82732   0.75297    0.042
 6668.00    0.80437   0.75400    0.042
 6669.00    0.78574   0.75321    0.042
 6670.00    0.78129   0.75247    0.043
 6671.00    0.78137   0.75350    0.044
 6672.00    0.79404   0.75328    0.045
 6673.00    0.80319   0.75234    0.045
 6674.00    0.80397   0.75257    0.045
 6675.00    0.79416   0.75250    0.045
 6676.00    0.76260   0.75196    0.045
 6677.00    0.74907   0.75179    0.045
 6678.00    0.76773   0.75144    0.046
 6679.00    0.78070   0.75144    0.046
 6680.00    0.78477   0.75143    0.045
 6681.00    0.79257   0.75087    0.045
 6682.00    0.80549   0.75141    0.045
 6683.00    0.80639   0.75215    0.044
 6684.00    0.79279   0.75155    0.044
 6685.00    0.77949   0.75191    0.044
 6686.00    0.76650   0.75327    0.043
 6687.00    0.76481   0.75321    0.043
 6688.00    0.77373   0.75286    0.043
 6689.00    0.78471   0.75369    0.044
 6690.00    0.79742   0.75378    0.044
 6691.00    0.79797   0.75318    0.044
 6692.00    0.78967   0.75356    0.045
 6693.00    0.79767   0.75334    0.045
 6694.00    0.81610   0.75270    0.045
 6695.00    0.83145   0.75280    0.046
 6696.00    0.84507   0.75204    0.000
 6697.00    0.83550   0.75171    0.000
 6698.00    0.81465   0.75183    0.000
 6699.00    0.79944   0.75059    0.000
 6700.00    0.78661   0.75046    0.000
 6701.00    0.80513   0.75062    0.000
 6702.00    0.83496   0.74909    0.000
 6703.00    0.82159   0.74893    0.000
 6704.00    0.79507   0.74885    0.000
 6705.00    0.79019   0.74735    0.000
 6706.00    0.79078   0.74694    0.000
 6707.00    0.79245   0.74611    0.000
 6708.00    0.79433   0.74458    0.000
 6709.00    0.79530   0.74376    0.000
 6710.00    0.79613   0.74217    0.000
 6711.00    0.80905   0.74092    0.000
 6712.00    0.82344   0.74026    0.000
 6713.00    0.81483   0.73852    0.000
 6714.00    0.80432   0.73737    0.000
 6715.00    0.81844   0.73696    0.000
 6716.00    0.83374   0.73589    0.000
 6717.00    0.83120   0.73521    0.000
 6718.00    0.82805   0.73505    0.000
 6719.00    0.80417   0.73511    0.000
 6720.00    0.77938   0.73518    0.000
 6721.00    0.73675   0.73532    0.000
 6722.00    0.70023   0.73634    0.000
 6723.00    0.73389   0.73701    0.000
 6724.00    0.76376   0.73745    0.000
 6725.00    0.76346   0.73875    0.000
 6726.00    0.75935   0.73971    0.000
 6727.00    0.73236   0.74039    0.000
 6728.00    0.71809   0.74120    0.000
 6729.00    0.76404   0.74169    0.000
 6730.00    0.80630   0.74236    0.000
 6731.00    0.83429   0.74269    0.000
 6732.00    0.84806   0.74245    0.000
 6733.00    0.81603   0.74280    0.000
 6734.00    0.78470   0.74275    0.000
 6735.00    0.75525   0.74196    0.000
 6736.00    0.75211   0.74183    0.000
 6737.00    0.81041   0.74145    0.000
 6738.00    0.84829   0.74042    0.000
 6739.00    0.84490   0.73980    0.000
 6740.00    0.83199   0.73920    0.000
 6741.00    0.80234   0.73829    0.000
 6742.00    0.78524   0.73749    0.000
 6743.00    0.78748   0.73706    0.000
 6744.00    0.78945   0.73651    0.000
 6745.00    0.79107   0.73555    0.000
 6746.00    0.78010   0.73549    0.000
 6747.00    0.75416   0.73568    0.000
 6748.00    0.73914   0.73526    0.000
 6749.00    0.73559   0.73560    0.000
 6750.00    0.73787   0.73598    0.000
 6751.00    0.74557   0.73648    0.000
 6752.00    0.71742   0.73760    0.000
 6753.00    0.66000   0.73790    0.050
 6754.00    0.63585   0.73894    0.050
 6755.00    0.63560   0.74064    0.051
 6756.00    0.65897   0.74078    0.051
 6757.00    0.69721   0.74219    0.051
 6758.00    0.72014   0.74392    0.052
 6759.00    0.73462   0.74368    0.055
 6760.00    0.78057   0.74482    0.056
 6761.00    0.84161   0.74629    0.057
 6762.00    0.90848   0.74601    0.058
 6763.00    0.97778   0.74656    0.060
 6764.00    0.97279   0.74740    0.061
 6765.00    0.94152   0.74719    0.061
 6766.00    0.92042   0.74746    0.060
 6767.00    0.90235   0.74788    0.059
 6768.00    0.89156   0.74779    0.059
 6769.00    0.88256   0.74801    0.060
 6770.00    0.88409   0.74829    0.059
 6771.00    0.88774   0.74847    0.057
 6772.00    0.84090   0.74870    0.056
 6773.00    0.78613   0.74878    0.054
 6774.00    0.77658   0.74881    0.053
 6775.00    0.77231   0.74890    0.053
 6776.00    0.77758   0.74892    0.053
 6777.00    0.78361   0.74859    0.053
 6778.00    0.81524   0.74796    0.053
 6779.00    0.84799   0.74772    0.053
 6780.00    0.78752   0.74725    0.053
 6781.00    0.72901   0.74607    0.053
 6782.00    0.80745   0.74537    0.054
 6783.00    0.88330   0.74470    0.056
 6784.00    0.91215   0.74348    0.056
 6785.00    0.93551   0.74274    0.056
 6786.00    0.89893   0.74221    0.056
 6787.00    0.86244   0.74133    0.056
 6788.00    0.82676   0.74091    0.057
 6789.00    0.80143   0.74076    0.058
 6790.00    0.83646   0.74027    0.058
 6791.00    0.86213   0.74048    0.058
 6792.00    0.84456   0.74090    0.058
 6793.00    0.82980   0.74067    0.058
 6794.00    0.82567   0.74144    0.057
 6795.00    0.82596   0.74223    0.056
 6796.00    0.84019   0.74185    0.056
 6797.00    0.84840   0.74286    0.055
 6798.00    0.84048   0.74388    0.053
 6799.00    0.84124   0.74335    0.053
 6800.00    0.86191   0.74438    0.054
 6801.00    0.85952   0.74518    0.054
 6802.00    0.81130   0.74476    0.055
 6803.00    0.77030   0.74575    0.054
 6804.00    0.74183   0.74597    0.053
 6805.00    0.73686   0.74583    0.053
 6806.00    0.76754   0.74672    0.053
 6807.00    0.78938   0.74628    0.053
 6808.00    0.79945   0.74655    0.054
 6809.00    0.80250   0.74732    0.055
 6810.00    0.79732   0.74648    0.057
 6811.00    0.79059   0.74715    0.058
 6812.00    0.78227   0.74783    0.059
 6813.00    0.75921   0.74703    0.059
 6814.00    0.72269   0.74794    0.058
 6815.00    0.71043   0.74854    0.058
 6816.00    0.71769   0.74817    0.057
 6817.00    0.78048   0.74901    0.057
 6818.00    0.88257   0.74943    0.057
 6819.00    0.89085   0.74963    0.056
 6820.00    0.84087   0.75031    0.055
 6821.00    0.84053   0.75044    0.055
 6822.00    0.86713   0.75081    0.055
 6823.00    0.85786   0.75137    0.054
 6824.00    0.83167   0.75146    0.053
 6825.00    0.81816   0.75154    0.053
 6826.00    0.80980   0.75168    0.053
 6827.00    0.78698   0.75170    0.054
 6828.00    0.75914   0.75141    0.055
 6829.00    0.76581   0.75123    0.056
 6830.00    0.78258   0.75099    0.057
 6831.00    0.78081   0.75022    0.056
 6832.00    0.77455   0.74980    0.055
 6833.00    0.81455   0.74932    0.056
 6834.00    0.86359   0.74827    0.056
 6835.00    0.86731   0.74763    0.058
 6836.00    0.86414   0.74695    0.059
 6837.00    0.85162   0.74607    0.060
 6838.00    0.83806   0.74545    0.060
 6839.00    0.82157   0.74464    0.060
 6840.00    0.80485   0.74407    0.060
 6841.00    0.74367   0.74370    0.059
 6842.00    0.68073   0.74317    0.057
 6843.00    0.71536   0.74288    0.055
 6844.00    0.75004   0.74253    0.054
 6845.00    0.76029   0.74244    0.053
 6846.00    0.77093   0.74240    0.052
 6847.00    0.78828   0.74187    0.053
 6848.00    0.80260   0.74205    0.054
 6849.00    0.78512   0.74200    0.053
 6850.00    0.76956   0.74115    0.053
 6851.00    0.76819   0.74132    0.054
 6852.00    0.76569   0.74102    0.054
 6853.00    0.75674   0.74003    0.054
 6854.00    0.75435   0.74005    0.054
 6855.00    0.78156   0.73941    0.056
 6856.00    0.79569   0.73848    0.057
 6857.00    0.76142   0.73839    0.057
 6858.00    0.72896   0.73761    0.057
 6859.00    0.70211   0.73720    0.057
 6860.00    0.69841   0.73728    0.058
 6861.00    0.75558   0.73644    0.057
 6862.00    0.78410   0.73639    0.057
 6863.00    0.74786   0.73688    0.056
 6864.00    0.74496   0.73633    0.056
 6865.00    0.80730   0.73634    0.056
 6866.00    0.84326   0.73710    0.056
 6867.00    0.83422   0.73708    0.056
 6868.00    0.82653   0.73701    0.056
 6869.00    0.82086   0.73780    0.055
 6870.00    0.79473   0.73836    0.055
 6871.00    0.74171   0.73828    0.054
 6872.00    0.74010   0.73888    0.054
 6873.00    0.79798   0.73993    0.054
 6874.00    0.80163   0.74016    0.054
 6875.00    0.74995   0.74051    0.055
 6876.00    0.75774   0.74173    0.055
 6877.00    0.81906   0.74243    0.055
 6878.00    0.81646   0.74271    0.056
 6879.00    0.76317   0.74395    0.055
 6880.00    0.76727   0.74514    0.056
 6881.00    0.81140   0.74557    0.057
 6882.00    0.79994   0.74667    0.058
 6883.00    0.75447   0.74805    0.058
 6884.00    0.75774   0.74887    0.058
 6885.00    0.78704   0.75006    0.058
 6886.00    0.78868   0.75126    0.056
 6887.00    0.77749   0.75232    0.054
 6888.00    0.76903   0.75374    0.054
 6889.00    0.76166   0.75460    0.054
 6890.00    0.79440   0.75558    0.054
 6891.00    0.84081   0.75716    0.053
 6892.00    0.84123   0.75768    0.053
 6893.00    0.82845   0.75843    0.053
 6894.00    0.79517   0.75997    0.053
 6895.00    0.75703   0.76030    0.053
 6896.00    0.72966   0.76073    0.054
 6897.00    0.70434   0.76192    0.054
 6898.00    0.75498   0.76225    0.056
 6899.00    0.81684   0.76257    0.057
 6900.00    0.83239   0.76321    0.058
 6901.00    0.84294   0.76359    0.058
 6902.00    0.78113   0.76392    0.058
 6903.00    0.71420   0.76396    0.058
 6904.00    0.78061   0.76436    0.057
 6905.00    0.85180   0.76470    0.057
 6906.00    0.79039   0.76417    0.057
 6907.00    0.72974   0.76450    0.057
 6908.00    0.71049   0.76466    0.056
 6909.00    0.69575   0.76376    0.055
 6910.00    0.75245   0.76390    0.056
 6911.00    0.80106   0.76367    0.056
 6912.00    0.76851   0.76275    0.055
 6913.00    0.74081   0.76288    0.054
 6914.00    0.74802   0.76216    0.054
 6915.00    0.76477   0.76131    0.053
 6916.00    0.83417   0.76156    0.054
 6917.00    0.88407   0.76066    0.055
 6918.00    0.84804   0.75999    0.056
 6919.00    0.81737   0.76021    0.056
 6920.00    0.80615   0.75936    0.057
 6921.00    0.79132   0.75897    0.057
 6922.00    0.76551   0.75912    0.057
 6923.00    0.74308   0.75849    0.058
 6924.00    0.72941   0.75837    0.057
 6925.00    0.74333   0.75848    0.057
 6926.00    0.81857   0.75827    0.059
 6927.00    0.85478   0.75837    0.060
 6928.00    0.81578   0.75838    0.059
 6929.00    0.79626   0.75865    0.058
 6930.00    0.80945   0.75893    0.058
 6931.00    0.79565   0.75888    0.058
 6932.00    0.74210   0.75950    0.057
 6933.00    0.74050   0.75986    0.056
 6934.00    0.80619   0.75971    0.056
 6935.00    0.80490   0.76051    0.056
 6936.00    0.72722   0.76084    0.056
 6937.00    0.67747   0.76054    0.055
 6938.00    0.65583   0.76137    0.055
 6939.00    0.66279   0.76145    0.056
 6940.00    0.69513   0.76088    0.057
 6941.00    0.74444   0.76171    0.057
 6942.00    0.80703   0.76156    0.058
 6943.00    0.80485   0.76077    0.058
 6944.00    0.75813   0.76164    0.058
 6945.00    0.75984   0.76142    0.058
 6946.00    0.79074   0.76063    0.058
 6947.00    0.80349   0.76160    0.059
 6948.00    0.80668   0.76141    0.061
 6949.00    0.78559   0.76089    0.059
 6950.00    0.75340   0.76217    0.057
 6951.00    0.76100   0.76210    0.058
 6952.00    0.78423   0.76195    0.059
 6953.00    0.77918   0.76360    0.059
 6954.00    0.76468   0.76375    0.058
 6955.00    0.77463   0.76397    0.058
 6956.00    0.79144   0.76591    0.058
 6957.00    0.74626   0.76627    0.057
 6958.00    0.68674   0.76670    0.056
 6959.00    0.68144   0.76866    0.055
 6960.00    0.68620   0.76905    0.055
 6961.00    0.70765   0.76943    0.056
 6962.00    0.73148   0.77107    0.058
 6963.00    0.77444   0.77123    0.058
 6964.00    0.81938   0.77132    0.058
 6965.00    0.81705   0.77236    0.059
 6966.00    0.81157   0.77205    0.060
 6967.00    0.78763   0.77166    0.061
 6968.00    0.76310   0.77195    0.061
 6969.00    0.76237   0.77109    0.061
 6970.00    0.76294   0.77023    0.060
 6971.00    0.80335   0.76993    0.061
 6972.00    0.83982   0.76872    0.061
 6973.00    0.81778   0.76764    0.061
 6974.00    0.79793   0.76721    0.060
 6975.00    0.79905   0.76612    0.060
 6976.00    0.79643   0.76521    0.059
 6977.00    0.76768   0.76522    0.059
 6978.00    0.74993   0.76470    0.059
 6979.00    0.79119   0.76431    0.057
 6980.00    0.81163   0.76507    0.056
 6981.00    0.74238   0.76530    0.056
 6982.00    0.69200   0.76549    0.056
 6983.00    0.70863   0.76684    0.057
 6984.00    0.71435   0.76759    0.058
 6985.00    0.68752   0.76812    0.057
 6986.00    0.68192   0.76963    0.057
 6987.00    0.73028   0.77047    0.059
 6988.00    0.77434   0.77090    0.060
 6989.00    0.80900   0.77200    0.061
 6990.00    0.81697   0.77259    0.062
 6991.00    0.77431   0.77268    0.061
 6992.00    0.75149   0.77309    0.060
 6993.00    0.76149   0.77331    0.061
 6994.00    0.75629   0.77306    0.060
 6995.00    0.72903   0.77280    0.059
 6996.00    0.72768   0.77258    0.059
 6997.00    0.75941   0.77204    0.059
 6998.00    0.78896   0.77150    0.059
 6999.00    0.81606   0.77105    0.058
 7000.00    0.80726   0.77035    0.058
 7001.00    0.76284   0.76982    0.058
 7002.00    0.75598   0.76929    0.058
 7003.00    0.78196   0.76862    0.059
 7004.00    0.79743   0.76830    0.059
 7005.00    0.80480   0.76774    0.058
 7006.00    0.77251   0.76721    0.059
 7007.00    0.71335   0.76708    0.060
 7008.00    0.69845   0.76647    0.060
 7009.00    0.70981   0.76618    0.060
 7010.00    0.72825   0.76621    0.061
 7011.00    0.75034   0.76552    0.063
 7012.00    0.73010   0.76550    0.063
 7013.00    0.69085   0.76564    0.062
 7014.00    0.70736   0.76498    0.062
 7015.00    0.74538   0.76528    0.062
 7016.00    0.74909   0.76553    0.062
 7017.00    0.74153   0.76503    0.063
 7018.00    0.75286   0.76564    0.063
 7019.00    0.76939   0.76608    0.063
 7020.00    0.74731   0.76586    0.062
 7021.00    0.71650   0.76671    0.060
 7022.00    0.76587   0.76735    0.060
 7023.00    0.82972   0.76752    0.060
 7024.00    0.79859   0.76845    0.059
 7025.00    0.75429   0.76934    0.058
 7026.00    0.75374   0.76989    0.059
 7027.00    0.75752   0.77078    0.060
 7028.00    0.75918   0.77193    0.061
 7029.00    0.76071   0.77281    0.062
 7030.00    0.74565   0.77362    0.063
 7031.00    0.73015   0.77509    0.065
 7032.00    0.72689   0.77624    0.065
 7033.00    0.72535   0.77697    0.066
 7034.00    0.77131   0.77879    0.066
 7035.00    0.81133   0.78011    0.065
 7036.00    0.76814   0.78074    0.065
 7037.00    0.73858   0.78275    0.064
 7038.00    0.83483   0.78402    0.065
 7039.00    0.90231   0.78443    0.066
 7040.00    0.77586   0.78628    0.063
 7041.00    0.67117   0.78712    0.061
 7042.00    0.68020   0.78694    0.061
 7043.00    0.69321   0.78807    0.061
 7044.00    0.72297   0.78794    0.061
 7045.00    0.76187   0.78670    0.061
 7046.00    0.83257   0.78652    0.061
 7047.00    0.85866   0.78503    0.061
 7048.00    0.75414   0.78248    0.061
 7049.00    0.69577   0.78072    0.061
 7050.00    0.75262   0.77786   -2.000
 7051.00    0.81068   0.77419   -2.000
 7052.00    0.87135   0.77110   -2.000
 7053.00    0.90249   0.76739   -2.000
 7054.00    0.87846   0.76319   -2.000
 7055.00    0.86546   0.75949   -2.000
 7056.00    0.87044   0.75577   -2.000
 7057.00    0.86138   0.75179   -2.000
 7058.00    0.83223   0.74830   -2.000
 7059.00    0.81386   0.74538   -2.000
 7060.00    0.80905   0.74219   -2.000
 7061.00    0.81370   0.73958   -2.000
 7062.00    0.82882   0.73796   -2.000
 7063.00    0.82975   0.73585   -2.000
 7064.00    0.81681   0.73441   -2.000
 7065.00    0.81344   0.73412   -2.000
 7066.00    0.81835   0.73309   -2.000
 7067.00    0.82455   0.73272   -2.000
 7068.00    0.83175   0.73344   -2.000
 7069.00    0.81293   0.73320   -2.000
 7070.00    0.77673   0.73346   -2.000
 7071.00    0.80993   0.73457   -2.000
 7072.00    0.88371   0.73466   -2.000
 7073.00    0.88617   0.73488   -2.000
 7074.00    0.85229   0.73565   -2.000
 7075.00    0.80138   0.73549   -2.000
 7076.00    0.74297   0.73495   -2.000
 7077.00    0.78060   0.73477   -2.000
 7078.00    0.85466   0.73388   -2.000
 7079.00    0.86347   0.73210   -2.000
 7080.00    0.85126   0.73078   -2.000
 7081.00    0.84879   0.72903   -2.000
 7082.00    0.84896   0.72604   -2.000
 7083.00    0.74733   0.72386   -2.000
 7084.00    0.62324   0.72153   -2.000
 7085.00    0.72690   0.71787   -2.000
 7086.00    0.87059   0.71550   -2.000
 7087.00    0.13005   0.71316   -2.000
 7088.00   -0.72894   0.70965   -2.000
 7089.00   -0.11651   0.70778   -2.000
 7090.00    0.63574   0.70600   -2.000
 7091.00    0.69754   0.70336   -2.000
 7092.00    0.71882   0.70238   -2.000
 7093.00    0.73288   0.70147   -2.000
 7094.00    0.74671   0.70001   -2.000
 7095.00    0.75522   0.69991   -2.000
 7096.00    0.76131   0.69983   -2.000
 7097.00    0.70733   0.69944   -2.000
 7098.00    0.65766   0.69988   -2.000
 7099.00    0.66522   0.70034   -2.000
 7100.00    0.67182   0.70064   -2.000
 7101.00    0.66991   0.70125   -2.000
 7102.00    0.66835   0.70189   -2.000
 7103.00    0.66912   0.70244   -2.000
 7104.00    0.66970   0.70296   -2.000
 7105.00    0.66929   0.70354   -2.000
 7106.00    0.66313   0.70405   -2.000
 7107.00    0.63333   0.70443   -2.000
 7108.00    0.61691   0.70481   -2.000
 7109.00    0.64606   0.70517   -2.000
 7110.00    0.66426   0.70542   -2.000
 7111.00    0.65096   0.70555   -2.000
 7112.00    0.64962   0.70570   -2.000
 7113.00    0.67764   0.70578   -2.000
 7114.00    0.68987   0.70559   -2.000
 7115.00    0.66873   0.70546   -2.000
 7116.00    0.65601   0.70523   -2.000
 7117.00    0.65881   0.70459   -2.000
 7118.00    0.67089   0.70409   -2.000
 7119.00    0.69791   0.70340   -2.000
 7120.00    0.71515   0.70227   -2.000
 7121.00    0.71863   0.70137   -2.000
 7122.00    0.71815   0.70022   -2.000
 7123.00    0.71275   0.69878   -2.000
 7124.00    0.68039   0.69764   -2.000
 7125.00    0.61857   0.69625   -2.000
 7126.00    0.61296   0.69493   -2.000
 7127.00    0.66155   0.69384   -2.000
 7128.00    0.69206   0.69257   -2.000
 7129.00    0.70718   0.69187   -2.000
 7130.00    0.68084   0.69113   -2.000
 7131.00    0.62344   0.69025   -2.000
 7132.00    0.61659   0.69046   -2.000
 7133.00    0.64301   0.69018   -2.000
 7134.00    0.66470   0.68976   -2.000
 7135.00    0.68368   0.69082   -2.000
 7136.00    0.68441   0.69090   -2.000
 7137.00    0.67599   0.69073   -2.000
 7138.00    0.67217   0.69235   -2.000
 7139.00    0.67035   0.69259   -2.000
 7140.00    0.64023   0.69244   -2.000
 7141.00    0.59957   0.69426   -2.000
 7142.00    0.63007   0.69452   -2.000
 7143.00    0.68306   0.69428   -2.000
 7144.00    0.64930   0.69611   -2.000
 7145.00    0.59267   0.69644   -2.000
 7146.00    0.60345   0.69618   -2.000
 7147.00    0.62877   0.69791   -2.000
 7148.00    0.63092   0.69844   -2.000
 7149.00    0.62911   0.69828   -2.000
 7150.00    0.64669   0.69982   -2.000
 7151.00    0.66678   0.70060   -2.000
 7152.00    0.64128   0.70060   -2.000
 7153.00    0.61164   0.70178   -2.000
 7154.00    0.61402   0.70275   -2.000
 7155.00    0.61815   0.70286   -2.000
 7156.00    0.64690   0.70352   -2.000
 7157.00    0.67547   0.70455   -2.000
 7158.00    0.64070   0.70471   -2.000
 7159.00    0.60442   0.70490   -2.000
 7160.00    0.53360   0.70590   -2.000
 7161.00    0.46795   0.70614   -2.000
 7162.00    0.46746   0.70607   -2.000
 7163.00    0.48223   0.70712   -2.000
 7164.00    0.62712   0.70752   -2.000
 7165.00    0.75650   0.70745   -2.000
 7166.00    0.78762   0.70860   -2.000
 7167.00    0.79859   0.70916   -2.000
 7168.00    0.70957   0.70918   -2.000
 7169.00    0.63495   0.71035   -2.000
 7170.00    0.61831   0.71091   -2.000
 7171.00    0.61714   0.71091   -2.000
 7172.00    0.66770   0.71188   -2.000
 7173.00    0.70293   0.71220   -2.000
 7174.00    0.69492   0.71200   -2.000
 7175.00    0.69051   0.71255   -2.000
 7176.00    0.69481   0.71242   -2.000
 7177.00    0.68092   0.71200   -2.000
 7178.00    0.62916   0.71205   -2.000
 7179.00    0.60903   0.71146   -2.000
 7180.00    0.64618   0.71095   -2.000
 7181.00    0.66806   0.71061   -2.000
 7182.00    0.66576   0.70970   -2.000
 7183.00    0.65953   0.70932   -2.000
 7184.00    0.64785   0.70884   -2.000
 7185.00    0.63486   0.70783   -2.000
 7186.00    0.62027   0.70777   -2.000
 7187.00    0.60417   0.70741   -2.000
 7188.00    0.58644   0.70653   -2.000
 7189.00    0.58791   0.70683   -2.000
 7190.00    0.60764   0.70680   -2.000
 7191.00    0.62884   0.70618   -2.000
 7192.00    0.65129   0.70674   -2.000
 7193.00    0.66065   0.70706   -2.000
 7194.00    0.66034   0.70675   -2.000
 7195.00    0.66144   0.70734   -2.000
 7196.00    0.66344   0.70790   -2.000
 7197.00    0.64691   0.70787   -2.000
 7198.00    0.61986   0.70825   -2.000
 7199.00    0.57036   0.70887   -2.000
 7200.00    0.50978   0.70908   -2.000
 7201.00    0.49910   0.70915   -2.000
 7202.00    0.50974   0.70969   -2.000
 7203.00    0.52053   0.71019   -2.000
 7204.00    0.53138   0.71003   -2.000
 7205.00    0.59132   0.71048   -2.000
 7206.00    0.66646   0.71138   -2.000
 7207.00    0.66032   0.71125   -2.000
 7208.00    0.63320   0.71172   -2.000
 7209.00    0.60682   0.71309   -2.000
 7210.00    0.58059   0.71326   -2.000
 7211.00    0.33450   0.71384   -2.000
 7212.00    0.05191   0.71563   -2.000
 7213.00    0.32908   0.71630   -2.000
 7214.00    0.67619   0.71703   -2.000
 7215.00    0.69655   0.71903   -2.000
 7216.00    0.68861   0.72027   -2.000
 7217.00    0.72688   0.72112   -2.000
 7218.00    0.76749   0.72308   -2.000
