###################################################################
## OUTPUT of StarlightChains_v04.for    [Cid@UFSC - 01/Apr/2007] ##
###################################################################

## Some input info
KUG0210-078._28_34.txt                   [arq_obs]
Base.CB07.vall.4m                        [arq_base]
Masks.EmLines.NEW.gm                     [arq_masks]
StCv04.C11.config                        [arq_config]
   66                                    [N_base]
    0                                    [N_YAV_components = # of components with extra extinction!]
    0                                    [i_FitPowerLaw (1/0 = Yes/No)]
-9.99                                    [alpha_PowerLaw]
CCM                                      [red_law_option]
 1.458241                                [q_norm = A(l_norm)/A(V)]

## (Re)Sampling Parameters
 3741.00                                 [l_ini (A)]
 7218.00                                 [l_fin (A)]
    1.00                                 [dl    (A)]     (OBS: dl_cushion =    50.00 A)

## Normalization info
 4020.00                                 [l_norm (A) - for base]
 4010.00                                 [llow_norm (A) - window for f_obs]
 4060.00                                 [lupp_norm (A) - window for f_obs]
8.299926E-17                             [fobs_norm (in input units)]

## S/N
 3691.00                                 [llow_SN (A) - window for S/N]
 7268.00                                 [lupp_SN (A) - window for S/N]
   4.856                                 [S/N in S/N window]
   3.345                                 [S/N in norm. window]
   0.232                                 [S/N_err in S/N window]
   0.160                                 [S/N_err in norm. window]
  1.0000                                 [fscale_chi2]

## etc...
    -2007382                             [idum_orig]
  2432                                   [NOl_eff]
  2048                                   [Nl_eff]
   384    NSIGMA                         [Ntot_cliped & clip_method]
 15586900                                [Nglobal_steps]
   7                                     [N_chains]
  44                                     [NEX0s_base = N_base in EX0s-fits]
 0   0   1      384   2.0   7.249E+04    [Clip-Bug, RC-Crash & Burn-In warning-flags, n_censored_weights, wei_nsig_threshold & wei_limit]
    98     97.622     96.668      0.954  [idt_all, wdt_TotTime, wdt_UsrTime & wdt_SysTime (sec)]

## Synthesis Results - Best model ##

 2.56835E-03                             [chi2/Nl_eff]
    11.03871                             [adev (%)]

   129.99998                             [sum-of-x (%)]
 8.42648E-15                             [Flux_tot (units of input spectrum!)]
 7.42041E-13                             [Mini_tot (???)]
 7.42040E-13                             [Mcor_tot (???)]

-486.71                                  [v0_min  (km/s)]
 216.10                                  [vd_min  (km/s)]
 3.2447                                  [AV_min  (mag)]
 0.0000                                  [YAV_min (mag)]

# j     x_j(%)      Mini_j(%)     Mcor_j(%)     age_j(yr)     Z_j      (L/M)_j    YAV?  Mstars   component_j        a/Fe...       SSP_chi2r SSP_adev(%)   SSP_AV   SSP_x(%)
  1    114.3162     9.1278E+01    9.1278E+01    1.000000E+06  0.00400  1.094E-02    0   1.0000   age020_m42            0.0000     2.0072E-03     5.9290   2.8462   153.7972
  2      0.0000     0.0000E+00    0.0000E+00    3.160000E+06  0.00400  4.007E-02    0   0.9999   age045_m42            0.0000     2.1890E-03     6.9902   2.2181   157.3980
  3      0.0000     0.0000E+00    0.0000E+00    5.010000E+06  0.00400  2.539E-02    0   0.9488   age055_m42            0.0000     2.0686E-03     6.4897   2.4899   156.9083
  4      0.0000     0.0000E+00    0.0000E+00    6.610000E+06  0.00400  2.620E-02    0   0.9220   age061_m42            0.0000     2.2010E-03     7.1375   2.1441   157.7809
  5      0.0000     0.0000E+00    0.0000E+00    1.000000E+07  0.00400  1.322E-02    0   0.8862   age070_m42            0.0000     2.3431E-03     8.5107   1.8536   162.2304
  6      0.0000     0.0000E+00    0.0000E+00    1.445000E+07  0.00400  7.883E-03    0   0.8571   age078_m42            0.0000     2.2527E-03     7.9635   2.1568   159.7587
  7      0.0000     0.0000E+00    0.0000E+00    2.512000E+07  0.00400  5.251E-03    0   0.8174   age090_m42            0.0000     2.3975E-03     8.9350   1.7311   162.6773
  8      0.0000     0.0000E+00    0.0000E+00    4.000000E+07  0.00400  3.649E-03    0   0.7851   age104_m42            0.0000     2.4262E-03     9.0357   1.5219   162.6408
  9      0.0000     0.0000E+00    0.0000E+00    5.500000E+07  0.00400  3.098E-03    0   0.7629   age110_m42            0.0000     2.3997E-03     8.5763   1.6941   161.0908
 10      0.0000     0.0000E+00    0.0000E+00    1.015200E+08  0.00400  2.228E-03    0   0.7207   age116_m42            0.0000     2.3732E-03     8.3047   1.7257   160.4619
 11      0.0000     0.0000E+00    0.0000E+00    2.861200E+08  0.00400  1.093E-03    0   0.6648   age125_m42            0.0000     2.5168E-03     9.0849   1.1721   163.8729
 12      0.0000     0.0000E+00    0.0000E+00    5.088000E+08  0.00400  6.597E-04    0   0.6365   age130_m42            0.0000     2.4959E-03     8.6981   1.1871   163.2779
 13      0.0000     0.0000E+00    0.0000E+00    1.434000E+09  0.00400  2.132E-04    0   0.5798   age139_m42            0.0000     2.4636E-03     8.9110   0.2540   163.5515
 14      0.0000     0.0000E+00    0.0000E+00    4.250000E+09  0.00400  5.895E-05    0   0.5377   age158_m42            0.0000     2.1359E-03     7.2721  -0.2266   159.5545
 15      0.0000     0.0000E+00    0.0000E+00    7.500000E+09  0.00400  3.510E-05    0   0.5212   age171_m42            0.0000     2.1321E-03     6.9317  -0.4106   157.9507
 16      0.0000     0.0000E+00    0.0000E+00    1.300000E+10  0.00400  2.005E-05    0   0.5034   age193_m42            0.0000     2.1449E-03     6.6643  -0.5734   156.7306
 17      0.0000     0.0000E+00    0.0000E+00    1.800000E+10  0.00400  1.525E-05    0   0.4967   age213_m42            0.0000     2.1206E-03     6.6447  -0.6030   156.4601
 18      0.0000     0.0000E+00    0.0000E+00    1.000000E+06  0.00800  1.238E-02    0   1.0000   age020_m52            0.0000     2.0056E-03     5.9336   2.8434   154.0558
 19      0.0000     0.0000E+00    0.0000E+00    3.160000E+06  0.00800  3.074E-02    0   0.9966   age045_m52            0.0000     1.9832E-03     5.9282   2.7717   155.0778
 20      0.0000     0.0000E+00    0.0000E+00    5.010000E+06  0.00800  2.668E-02    0   0.9443   age055_m52            0.0000     2.0477E-03     6.4157   2.5611   156.3210
 21      0.0000     0.0000E+00    0.0000E+00    6.610000E+06  0.00800  2.136E-02    0   0.9177   age061_m52            0.0000     2.2925E-03     8.3070   1.3511   164.1474
 22      0.0000     0.0000E+00    0.0000E+00    1.000000E+07  0.00800  1.215E-02    0   0.8827   age070_m52            0.0000     2.3762E-03     8.7558   2.0193   162.9026
 23      0.0000     0.0000E+00    0.0000E+00    1.445000E+07  0.00800  8.717E-03    0   0.8552   age078_m52            0.0000     2.2805E-03     8.1765   2.1308   161.3856
 24      0.0000     0.0000E+00    0.0000E+00    2.512000E+07  0.00800  5.592E-03    0   0.8162   age090_m52            0.0000     2.4372E-03     9.1817   1.8033   163.9816
 25      0.0000     0.0000E+00    0.0000E+00    4.000000E+07  0.00800  3.896E-03    0   0.7841   age104_m52            0.0000     2.4508E-03     9.1196   1.7348   163.6406
 26      0.0000     0.0000E+00    0.0000E+00    1.015200E+08  0.00800  2.148E-03    0   0.7226   age116_m52            0.0000     2.4052E-03     8.6657   1.6918   161.8724
 27      0.0000     0.0000E+00    0.0000E+00    2.861200E+08  0.00800  9.925E-04    0   0.6683   age125_m52            0.0000     2.5156E-03     8.8880   1.2537   164.6702
 28      0.0000     0.0000E+00    0.0000E+00    9.047900E+08  0.00800  3.141E-04    0   0.6138   age135_m52            0.0000     2.4601E-03     8.7430   0.5141   166.5174
 29      0.0000     0.0000E+00    0.0000E+00    1.434000E+09  0.00800  1.719E-04    0   0.5853   age139_m52            0.0000     2.3096E-03     8.1318  -0.0980   165.1210
 30      0.0000     0.0000E+00    0.0000E+00    2.500000E+09  0.00800  7.872E-05    0   0.5600   age150_m52            0.0000     2.0601E-03     6.9527  -0.3841   161.7511
 31      0.0000     0.0000E+00    0.0000E+00    4.250000E+09  0.00800  4.336E-05    0   0.5426   age158_m52            0.0000     2.0545E-03     6.8241  -0.4006   160.2948
 32      0.0000     0.0000E+00    0.0000E+00    6.250000E+09  0.00800  3.159E-05    0   0.5319   age166_m52            0.0000     2.0411E-03     6.4807  -0.5975   159.6604
 33      0.0000     0.0000E+00    0.0000E+00    1.300000E+10  0.00800  1.361E-05    0   0.5073   age193_m52            0.0000     2.0011E-03     7.1559  -1.0000   155.5250
 34      0.0000     0.0000E+00    0.0000E+00    1.800000E+10  0.00800  9.886E-06    0   0.4990   age213_m52            0.0000     2.0276E-03     8.6369  -1.0000   149.9803
 35     15.0232     8.4995E+00    8.4995E+00    1.000000E+06  0.02000  1.544E-02    0   1.0000   age020_m62            0.0000     1.9973E-03     5.8939   2.8366   154.6042
 36      0.0000     0.0000E+00    0.0000E+00    3.160000E+06  0.02000  3.762E-02    0   0.9858   age045_m62            0.0000     1.9596E-03     5.8045   2.7739   156.0385
 37      0.0000     0.0000E+00    0.0000E+00    5.010000E+06  0.02000  3.296E-02    0   0.9342   age055_m62            0.0000     2.0936E-03     6.5364   2.4648   157.7528
 38      0.0000     0.0000E+00    0.0000E+00    8.710000E+06  0.02000  1.154E-02    0   0.8861   age067_m62            0.0000     2.7787E-03    11.5607   1.4273   171.5153
 39      0.0000     0.0000E+00    0.0000E+00    1.445000E+07  0.02000  7.663E-03    0   0.8472   age078_m62            0.0000     2.5093E-03     9.7254   1.6630   166.8687
 40      0.0000     0.0000E+00    0.0000E+00    2.512000E+07  0.02000  4.532E-03    0   0.8099   age090_m62            0.0000     2.5459E-03     9.9583   1.6548   166.3848
 41      0.0000     0.0000E+00    0.0000E+00    5.500000E+07  0.02000  2.733E-03    0   0.7595   age110_m62            0.0000     2.3840E-03     8.9228   1.7028   163.5680
 42      0.0000     0.0000E+00    0.0000E+00    1.609000E+08  0.02000  1.369E-03    0   0.6985   age120_m62            0.0000     2.4100E-03     8.7179   1.5826   164.7157
 43      0.0000     0.0000E+00    0.0000E+00    2.861200E+08  0.02000  9.013E-04    0   0.6714   age125_m62            0.0000     2.4821E-03     8.9265   1.3703   166.5136
 44      0.0000     0.0000E+00    0.0000E+00    5.088000E+08  0.02000  5.028E-04    0   0.6449   age130_m62            0.0000     2.4489E-03     8.5432   1.0409   166.9020
 45      0.0000     0.0000E+00    0.0000E+00    9.047900E+08  0.02000  2.428E-04    0   0.6179   age135_m62            0.0000     2.2477E-03     7.9343   0.4502   165.7944
 46      0.0000     0.0000E+00    0.0000E+00    1.434000E+09  0.02000  1.263E-04    0   0.5908   age139_m62            0.0000     2.0961E-03     7.4197  -0.0151   164.6826
 47      0.0000     0.0000E+00    0.0000E+00    2.500000E+09  0.02000  5.985E-05    0   0.5673   age150_m62            0.0000     1.9246E-03     6.4603  -0.4033   163.5951
 48      0.0000     0.0000E+00    0.0000E+00    4.250000E+09  0.02000  3.271E-05    0   0.5468   age158_m62            0.0000     1.9020E-03     5.9613  -0.7075   161.7080
 49      0.0000     0.0000E+00    0.0000E+00    1.000000E+10  0.02000  1.360E-05    0   0.5167   age181_m62            0.0000     1.8205E-03     6.4535  -1.0000   158.2984
 50      0.0000     0.0000E+00    0.0000E+00    1.800000E+10  0.02000  7.124E-06    0   0.5013   age213_m62            0.0000     1.9222E-03     9.7896  -1.0000   147.9877
 51      0.6606     2.2261E-01    2.2257E-01    1.000000E+06  0.05000  2.592E-02    0   0.9998   age020_m72            0.0000     1.9732E-03     5.8324   2.8188   155.2767
 52      0.0000     0.0000E+00    0.0000E+00    3.160000E+06  0.05000  4.845E-02    0   0.9577   age045_m72            0.0000     1.9693E-03     5.9527   2.6799   156.5028
 53      0.0000     0.0000E+00    0.0000E+00    5.010000E+06  0.05000  3.072E-02    0   0.9147   age055_m72            0.0000     2.2720E-03     7.9949   2.2144   162.4429
 54      0.0000     0.0000E+00    0.0000E+00    6.610000E+06  0.05000  1.455E-02    0   0.8877   age061_m72            0.0000     3.1976E-03    13.6371   1.4406   174.7088
 55      0.0000     0.0000E+00    0.0000E+00    1.000000E+07  0.05000  9.074E-03    0   0.8524   age070_m72            0.0000     2.3624E-03     8.1805   2.3835   162.2163
 56      0.0000     0.0000E+00    0.0000E+00    2.512000E+07  0.05000  4.250E-03    0   0.7902   age090_m72            0.0000     2.4233E-03     8.7729   2.1308   162.3783
 57      0.0000     0.0000E+00    0.0000E+00    4.000000E+07  0.05000  3.087E-03    0   0.7618   age104_m72            0.0000     2.5293E-03     9.4065   1.9202   163.8603
 58      0.0000     0.0000E+00    0.0000E+00    1.015200E+08  0.05000  1.700E-03    0   0.7096   age116_m72            0.0000     2.4938E-03     9.0881   1.7175   164.6295
 59      0.0000     0.0000E+00    0.0000E+00    2.861200E+08  0.05000  7.384E-04    0   0.6633   age125_m72            0.0000     2.4639E-03     8.8030   1.2661   166.4751
 60      0.0000     0.0000E+00    0.0000E+00    5.088000E+08  0.05000  3.819E-04    0   0.6372   age130_m72            0.0000     2.2901E-03     8.2261   0.7961   167.2094
 61      0.0000     0.0000E+00    0.0000E+00    9.047900E+08  0.05000  1.676E-04    0   0.6110   age135_m72            0.0000     1.9893E-03     6.8679   0.0776   165.3407
 62      0.0000     0.0000E+00    0.0000E+00    1.434000E+09  0.05000  8.837E-05    0   0.5874   age139_m72            0.0000     2.0010E-03     6.7323  -0.3851   164.5198
 63      0.0000     0.0000E+00    0.0000E+00    2.500000E+09  0.05000  4.233E-05    0   0.5598   age150_m72            0.0000     1.8184E-03     5.8435  -0.7147   163.4357
 64      0.0000     0.0000E+00    0.0000E+00    6.250000E+09  0.05000  1.435E-05    0   0.5249   age166_m72            0.0000     1.8487E-03     8.0726  -1.0000   153.4965
 65      0.0000     0.0000E+00    0.0000E+00    1.300000E+10  0.05000  6.513E-06    0   0.5036   age193_m72            0.0000     2.2122E-03    12.7963  -1.0000   142.6660
 66      0.0000     0.0000E+00    0.0000E+00    1.800000E+10  0.05000  4.527E-06    0   0.4945   age213_m72            0.0000     2.6298E-03    15.5059  -1.0000   135.1732


## Synthesis Results - Average & Chains ##

# j      x_j: min, <> & last-chain-values for 1 ...  7 chains
  1    114.3162      3.0848      3.6424      3.8064      0.4298      0.0140      2.7872      3.2034      8.1135
  2      0.0000      0.3654      0.0000      1.3794      1.2263      2.4648      0.0000      0.3176      0.6593
  3      0.0000      0.3587      3.0040      0.0000      0.8921      2.2355      0.0000      1.0622      1.0851
  4      0.0000      0.4116      2.0798      3.6655      0.7889      1.6475      0.0168      0.0508      0.6398
  5      0.0000      0.3050      2.3537      0.7331      0.5352      1.3074      0.3208      1.5736      0.8222
  6      0.0000      0.4124      1.3714      0.0005      0.0843      0.0000      0.6751      0.0000      0.0000
  7      0.0000      0.3903      1.4899      1.6255      0.0000      1.3479      1.7543      1.1213      1.0155
  8      0.0000      0.3649      1.3180      0.0000      0.3513      2.8083      0.3474      0.0000      0.5372
  9      0.0000      0.3771      0.7737      0.0000      0.0000      0.7740      0.0000      0.1837      1.6672
 10      0.0000      0.2245      1.1720      1.3635      4.1485      0.0561      0.7499      0.0000      0.7562
 11      0.0000      0.4899      1.7977      3.0436      0.7364      1.5157      2.8555      0.5922      0.1824
 12      0.0000      0.3484      3.9760      0.8225      3.3267      0.0000      0.6426      0.0000      0.3677
 13      0.0000      0.3430      0.0000      2.8756      1.5829      1.9027      0.6432      0.3585      0.2584
 14      0.0000      0.3064      0.1203      1.1155      2.5999      0.9537      0.3110      0.6070      0.8300
 15      0.0000      0.3272      0.3450      0.0000      0.0000      0.3681      0.2418      0.0000      4.0432
 16      0.0000      0.2621      0.0927      0.0000      0.0000      3.8015      0.2858      0.0158      0.9823
 17      0.0000      0.3352      2.3945      3.1406      0.0000      0.0000      0.6899      0.0000      1.7325
 18      0.0000      7.0517      1.9229      6.0117      5.7176      6.1142      8.5282      5.2257      2.9944
 19      0.0000      0.3219      0.5479      0.2928      1.8460      1.4741      1.6492      0.6537      0.7613
 20      0.0000      0.4541      1.0619      1.5307      1.1496      1.3388      1.6016      0.8826      1.5044
 21      0.0000      0.3017      0.5778      0.0000      0.0000      0.0000      0.5431      0.0000      0.0000
 22      0.0000      0.4626      2.2173      1.2413      0.0000      0.0000      0.2009      0.2646      1.5052
 23      0.0000      0.3550      2.2611      0.4238      1.5094      1.0603      0.0000      0.5341      0.0000
 24      0.0000      0.3876      2.0325      0.0000      4.9374      1.0741      1.0609      0.0000      0.2443
 25      0.0000      0.3440      1.9602      0.0000      0.0000      0.0000      0.4439      1.9259      1.0942
 26      0.0000      0.4706      1.4200      2.1531      0.7280      0.0333      0.8990      0.0710      1.9386
 27      0.0000      0.3471      0.2983      0.2074      1.3161      0.7093      2.9840      1.8005      0.0000
 28      0.0000      0.3463      0.7125      0.0000      0.0760      2.0411      0.0000      0.0000      3.7914
 29      0.0000      0.4111      1.1193      0.7074      3.9296      3.1897      0.1756      0.2904      3.3621
 30      0.0000      0.3048      1.0247      0.8757      1.9056      0.0000      0.2538      1.0866      0.0000
 31      0.0000      0.3546      0.7559      0.0511      1.8250      0.0000      0.1214      1.3129      1.7263
 32      0.0000      0.3967      0.9127      0.4784      2.6671      0.0855      0.6377      1.0140      0.3868
 33      0.0000      0.3376      3.1871      2.0064      0.1823      0.0000      0.1637      0.0000      0.1364
 34      0.0000      0.2837      0.0738      2.8971      0.6496      0.0000      0.0000      0.5272      1.2001
 35     15.0232      9.6393      7.0595      8.9857      8.0476     12.8480      9.5947     10.2854      6.7171
 36      0.0000      0.9621      2.2008      0.0000      5.3051      2.0265      0.2428      1.7707      2.0000
 37      0.0000      0.3648      1.7416      0.0000      0.3271      2.5541      0.0000      0.5527      0.0000
 38      0.0000      0.3357      0.7871      0.0000      1.7916      0.0000      0.1089      0.0000      1.3004
 39      0.0000      0.3792      0.0270      1.5514      1.6801      0.2967      0.7931      1.1583      1.7001
 40      0.0000      0.3434      1.3516      1.1206      0.0000      0.0000      0.4195      0.2371      2.1694
 41      0.0000      0.5220      0.0000      0.7266      2.4361      1.4865      2.3617      0.6923      1.5571
 42      0.0000      0.4945      1.8366      1.2817      1.1397      4.8121      1.0043      0.2636      0.0000
 43      0.0000      0.4450      2.7544      4.5259      0.0000      2.5091      1.3403      0.1253      1.2722
 44      0.0000      0.4466      1.9797      3.1890      0.0069      0.0000      0.2912      0.2572      0.0000
 45      0.0000      0.3512      3.2062      0.0806      2.7344      0.9109      0.4380      0.0000      0.8533
 46      0.0000      0.3062      0.4068      0.0000      0.0000      0.0000      0.0000      0.4730      0.7554
 47      0.0000      0.2900      0.0000      1.0834      1.3244      0.0000      0.7964      0.3409      0.0836
 48      0.0000      0.4746      0.0000      0.3740      0.4912      0.9762      0.2302      0.0599      1.9806
 49      0.0000      2.9525      5.9179      1.7102      1.8723      0.0675      2.5258      1.6775      0.0466
 50      0.0000      1.8921      1.4766      2.0283      1.3202      0.8756      1.4788      1.1822      2.6221
 51      0.6606     47.8612     20.0955     15.9663     20.5680     18.9994     39.4611     44.4594     18.3342
 52      0.0000      0.4116      0.4358      0.3962      0.0000      0.0000      1.0000      1.0435      0.0000
 53      0.0000      0.3650      0.0000      3.1513      0.4104      0.7424      0.0956      1.1107      0.0000
 54      0.0000      0.3426      0.0000      0.0000      0.7615      2.9282      0.3765      0.2526      1.6856
 55      0.0000      0.3216      0.0000      1.3138      0.0000      1.0333      0.0664      0.9418      1.9661
 56      0.0000      0.3580      0.0000      1.3042      0.0964      0.3398      0.6149      0.0000      2.1575
 57      0.0000      0.4255      0.0000      1.5913      0.0000      0.5574      0.0000      0.3002      0.0000
 58      0.0000      0.3181      0.0000      3.1859      0.0111      0.0000      0.1531      0.0000      2.1486
 59      0.0000      0.3652      0.0618      0.0000      0.1060      3.0476      0.6091      0.0538      2.0476
 60      0.0000      0.3785      0.0988      0.0000      0.0000      1.5833      0.0000      0.0909      3.0999
 61      0.0000      0.3450      0.3270      0.2822      1.3769      0.1177      0.0867      0.7826      0.0000
 62      0.0000      0.3334      0.4545      2.1603      0.0000      1.0510      0.5693      2.9889      1.7559
 63      0.0000      1.6950      0.0000      2.9313      1.0758      0.7409      1.8978      1.7514      2.8976
 64      0.0000      2.4191      2.5561      3.0543      2.0690      0.6002      3.1947      2.6355      2.0376
 65      0.0000      3.1580      2.1218      0.0000      2.1977      3.5133      1.4148      1.2552      0.0000
 66      0.0000      3.3890      0.2150      0.0000      2.6316      1.8868      2.5739      3.5752      0.2033

# j      m_j: min, <> & last-chain-values for 1 ...  7 chains
  1  9.1278E+01  2.6521E-02  3.7550E-02  4.5395E-02  4.2817E-03  1.7126E-04  3.1068E-02  3.3813E-02  1.1408E-01
  2  0.0000E+00  8.5763E-04  0.0000E+00  4.4909E-03  3.3350E-03  8.2367E-03  0.0000E+00  9.1523E-04  2.5307E-03
  3  0.0000E+00  1.2609E-03  1.2661E-02  0.0000E+00  3.6331E-03  1.1187E-02  0.0000E+00  4.5837E-03  6.2375E-03
  4  0.0000E+00  1.3623E-03  8.2546E-03  1.6829E-02  3.0258E-03  7.7641E-03  7.1966E-05  2.0637E-04  3.4631E-03
  5  0.0000E+00  1.9229E-03  1.7794E-02  6.4113E-03  3.9101E-03  1.1737E-02  2.6223E-03  1.2181E-02  8.4785E-03
  6  0.0000E+00  4.2174E-03  1.6817E-02  7.5154E-06  9.9911E-04  0.0000E+00  8.9506E-03  0.0000E+00  0.0000E+00
  7  0.0000E+00  5.7143E-03  2.6157E-02  3.3013E-02  0.0000E+00  2.8099E-02  3.3300E-02  2.0156E-02  2.4315E-02
  8  0.0000E+00  7.3838E-03  3.1983E-02  0.0000E+00  8.2381E-03  8.0915E-02  9.1145E-03  0.0000E+00  1.7778E-02
  9  0.0000E+00  8.7341E-03  2.1487E-02  0.0000E+00  0.0000E+00  2.5526E-02  0.0000E+00  5.2250E-03  6.3154E-02
 10  0.0000E+00  6.8295E-03  4.2756E-02  5.7546E-02  1.4625E-01  2.4310E-03  2.9580E-02  0.0000E+00  3.7624E-02
 11  0.0000E+00  2.8029E-02  1.2332E-01  2.4153E-01  4.8812E-02  1.2346E-01  2.1179E-01  4.1592E-02  1.7065E-02
 12  0.0000E+00  3.1612E-02  4.3265E-01  1.0354E-01  3.4981E-01  0.0000E+00  7.5609E-02  0.0000E+00  5.4566E-02
 13  0.0000E+00  8.7736E-02  0.0000E+00  1.0203E+00  4.6916E-01  6.9294E-01  2.1330E-01  1.1260E-01  1.0808E-01
 14  0.0000E+00  2.6283E-01  1.2377E-01  1.3275E+00  2.5846E+00  1.1650E+00  3.4594E-01  6.3937E-01  1.1646E+00
 15  0.0000E+00  4.5704E-01  5.7782E-01  0.0000E+00  0.0000E+00  7.3195E-01  4.3776E-01  0.0000E+00  9.2351E+00
 16  0.0000E+00  6.1901E-01  2.6263E-01  0.0000E+00  0.0000E+00  1.2782E+01  8.7499E-01  4.5865E-02  3.7938E+00
 17  0.0000E+00  1.0268E+00  8.7958E+00  1.3346E+01  0.0000E+00  0.0000E+00  2.7402E+00  0.0000E+00  8.6800E+00
 18  0.0000E+00  5.3574E-02  1.7517E-02  6.3355E-02  5.0334E-02  6.6139E-02  8.4003E-02  4.8744E-02  3.7206E-02
 19  0.0000E+00  9.8162E-04  2.0033E-03  1.2386E-03  6.5226E-03  6.3999E-03  6.5199E-03  2.4471E-03  3.7963E-03
 20  0.0000E+00  1.5116E-03  4.2386E-03  7.0684E-03  4.4346E-03  6.3457E-03  6.9124E-03  3.6075E-03  8.1905E-03
 21  0.0000E+00  1.2191E-03  2.7998E-03  0.0000E+00  0.0000E+00  0.0000E+00  2.8452E-03  0.0000E+00  0.0000E+00
 22  0.0000E+00  3.1613E-03  1.8168E-02  1.1766E-02  0.0000E+00  0.0000E+00  1.7800E-03  2.2196E-03  1.6821E-02
 23  0.0000E+00  3.2755E-03  2.5018E-02  5.4242E-03  1.6139E-02  1.3931E-02  0.0000E+00  6.0511E-03  0.0000E+00
 24  0.0000E+00  5.3205E-03  3.3458E-02  0.0000E+00  7.8542E-02  2.0995E-02  1.8882E-02  0.0000E+00  5.4840E-03
 25  0.0000E+00  6.5122E-03  4.4493E-02  0.0000E+00  0.0000E+00  0.0000E+00  1.0893E-02  4.4758E-02  3.3874E-02
 26  0.0000E+00  1.4889E-02  5.3875E-02  9.4500E-02  2.6690E-02  1.5021E-03  3.6878E-02  2.7567E-03  1.0032E-01
 27  0.0000E+00  2.1981E-02  2.2655E-02  1.8216E-02  9.6579E-02  6.3959E-02  2.4502E-01  1.4000E-01  0.0000E+00
 28  0.0000E+00  6.3641E-02  1.5704E-01  0.0000E+00  1.6186E-02  5.3415E-01  0.0000E+00  0.0000E+00  1.1397E+00
 29  0.0000E+00  1.3165E-01  4.2980E-01  3.1427E-01  1.4582E+00  1.4544E+00  7.2897E-02  1.1418E-01  1.7609E+00
 30  0.0000E+00  2.0397E-01  8.2210E-01  8.1279E-01  1.4775E+00  0.0000E+00  2.2014E-01  8.9258E-01  0.0000E+00
 31  0.0000E+00  4.1732E-01  1.0668E+00  8.3501E-02  2.4890E+00  0.0000E+00  1.8526E-01  1.8972E+00  3.3230E+00
 32  0.0000E+00  6.2830E-01  1.7332E+00  1.0509E+00  4.8943E+00  1.9276E-01  1.3094E+00  1.9716E+00  1.0019E+00
 33  0.0000E+00  1.1835E+00  1.3398E+01  9.7573E+00  7.4071E-01  0.0000E+00  7.4403E-01  0.0000E+00  7.8202E-01
 34  0.0000E+00  1.3466E+00  4.1993E-01  1.9079E+01  3.5735E+00  0.0000E+00  0.0000E+00  3.0727E+00  9.3175E+00
 35  8.4995E+00  5.8720E-02  5.1566E-02  7.5930E-02  5.6805E-02  1.1144E-01  7.5778E-02  7.6925E-02  6.6920E-02
 36  0.0000E+00  2.3711E-03  6.5041E-03  0.0000E+00  1.5151E-02  7.1116E-03  7.7594E-04  5.3581E-03  8.0617E-03
 37  0.0000E+00  9.7242E-04  5.5673E-03  0.0000E+00  1.0105E-03  9.6946E-03  0.0000E+00  1.8090E-03  0.0000E+00
 38  0.0000E+00  2.4242E-03  6.8160E-03  0.0000E+00  1.4993E-02  0.0000E+00  1.0201E-03  0.0000E+00  1.5360E-02
 39  0.0000E+00  3.9427E-03  3.3611E-04  2.2377E-02  2.0243E-02  4.3921E-03  1.0693E-02  1.4787E-02  2.8911E-02
 40  0.0000E+00  5.7713E-03  2.7242E-02  2.6127E-02  0.0000E+00  0.0000E+00  9.1412E-03  4.8937E-03  5.9636E-02
 41  0.0000E+00  1.3645E-02  0.0000E+00  2.6345E-02  7.3783E-02  5.5321E-02  8.0032E-02  2.2218E-02  6.6561E-02
 42  0.0000E+00  2.3730E-02  1.0568E-01  8.5318E-02  6.3376E-02  3.2880E-01  6.2487E-02  1.5530E-02  0.0000E+00
 43  0.0000E+00  3.1175E-02  2.3140E-01  4.3987E-01  0.0000E+00  2.5031E-01  1.2175E-01  1.0779E-02  1.4577E-01
 44  0.0000E+00  5.3879E-02  2.8638E-01  5.3365E-01  9.6699E-04  0.0000E+00  4.5552E-02  3.8095E-02  0.0000E+00
 45  0.0000E+00  8.4062E-02  9.2024E-01  2.6758E-02  7.5841E-01  3.1044E-01  1.3593E-01  0.0000E+00  3.3405E-01
 46  0.0000E+00  1.3471E-01  2.1459E-01  0.0000E+00  0.0000E+00  0.0000E+00  0.0000E+00  2.5551E-01  5.4358E-01
 47  0.0000E+00  2.5851E-01  0.0000E+00  1.3398E+00  1.3681E+00  0.0000E+00  9.2055E-01  3.7319E-01  1.2195E-01
 48  0.0000E+00  7.4619E-01  0.0000E+00  8.1579E-01  8.9492E-01  2.1853E+00  4.6921E-01  1.1559E-01  5.0928E+00
 49  0.0000E+00  1.0550E+01  2.5357E+01  8.4771E+00  7.7524E+00  3.4341E-01  1.1702E+01  7.3598E+00  2.7220E-01
 50  0.0000E+00  1.2523E+01  1.1719E+01  1.8621E+01  1.0125E+01  8.2514E+00  1.2689E+01  9.6063E+00  2.8382E+01
 51  2.2257E-01  1.7364E-01  8.7421E-02  8.0351E-02  8.6465E-02  9.8143E-02  1.8561E-01  1.9803E-01  1.0878E-01
 52  0.0000E+00  7.6531E-04  9.7151E-04  1.0219E-03  0.0000E+00  0.0000E+00  2.4103E-03  2.3818E-03  0.0000E+00
 53  0.0000E+00  1.0222E-03  0.0000E+00  1.2242E-02  1.3317E-03  2.9601E-03  3.4700E-04  3.8189E-03  0.0000E+00
 54  0.0000E+00  1.9658E-03  0.0000E+00  0.0000E+00  5.0632E-03  2.3924E-02  2.8013E-03  1.7798E-03  1.5818E-02
 55  0.0000E+00  2.8416E-03  0.0000E+00  1.6102E-02  0.0000E+00  1.2999E-02  7.6074E-04  1.0216E-02  2.8410E-02
 56  0.0000E+00  6.2604E-03  0.0000E+00  3.1638E-02  1.9532E-03  8.4596E-03  1.3943E-02  0.0000E+00  6.1703E-02
 57  0.0000E+00  9.8768E-03  0.0000E+00  5.1234E-02  0.0000E+00  1.8421E-02  0.0000E+00  8.5543E-03  0.0000E+00
 58  0.0000E+00  1.2487E-02  0.0000E+00  1.7350E-01  5.0396E-04  0.0000E+00  7.7941E-03  0.0000E+00  1.3795E-01
 59  0.0000E+00  3.0852E-02  6.2589E-03  0.0000E+00  1.0380E-02  3.6662E-01  6.6723E-02  5.5832E-03  2.8293E-01
 60  0.0000E+00  5.9398E-02  1.8599E-02  0.0000E+00  0.0000E+00  3.5378E-01  0.0000E+00  1.7515E-02  7.9560E-01
 61  0.0000E+00  1.1830E-01  1.3444E-01  1.3423E-01  5.4706E-01  5.7466E-02  3.8531E-02  3.2947E-01  0.0000E+00
 62  0.0000E+00  2.0845E-01  3.4072E-01  1.8735E+00  0.0000E+00  9.3553E-01  4.6144E-01  2.2942E+00  1.7953E+00
 63  0.0000E+00  2.1083E+00  0.0000E+00  5.0577E+00  1.5505E+00  1.3121E+00  3.0605E+00  2.6747E+00  5.8945E+00
 64  0.0000E+00  8.3225E+00  1.0545E+01  1.4576E+01  8.2480E+00  2.9399E+00  1.4250E+01  1.1132E+01  1.1465E+01
 65  0.0000E+00  2.2967E+01  1.8503E+01  0.0000E+00  1.8520E+01  3.6380E+01  1.3340E+01  1.1208E+01  0.0000E+00
 66  0.0000E+00  3.4818E+01  2.6482E+00  0.0000E+00  3.1329E+01  2.7600E+01  3.4286E+01  4.5098E+01  3.4156E+00

# AV, chi2 & Mass for <> & i_chain = 1 ...  7 solutions
AV       3.2447      2.1003      1.8198      1.8411      1.7900      2.0712      2.1407      2.1151      1.8604
chi2 2.5683E-03  6.9647E-03  6.6665E-03  6.7444E-03  6.7117E-03  6.7175E-03  6.6703E-03  6.7612E-03  6.5317E-03
Mass 7.4204E-13  1.4819E-11  8.4780E-12  7.5421E-12  8.4292E-12  1.0008E-11  1.2066E-11  1.2312E-11  6.5647E-12
-486.71                                  [v0_min (km/s) before EX0s...]
 216.10                                  [vd_min (km/s) before EX0s...]


## Synthetic spectrum (Best Model) ##l_obs f_obs f_syn wei
 3478    [Nl_obs]
 3741.00    1.04134   1.14350    0.000
 3742.00    1.05978   1.12867    0.000
 3743.00    1.04760   1.11786    0.000
 3744.00    1.05047   1.11326    0.000
 3745.00    1.06210   1.11603   -1.000
 3746.00    1.10916   1.12571   -1.000
 3747.00    1.17420   1.14019   -1.000
 3748.00    1.18504   1.15675   -1.000
 3749.00    1.17206   1.17312   -1.000
 3750.00    1.17971   1.18791   -1.000
 3751.00    1.19515   1.20031   -1.000
 3752.00    1.18893   1.20984   -1.000
 3753.00    1.17575   1.21648   -1.000
 3754.00    1.16816   1.22012   -1.000
 3755.00    1.16205   1.22071   -1.000
 3756.00    1.17467   1.21784   -1.000
 3757.00    1.19139   1.21061   -1.000
 3758.00    1.16681   1.19833   -1.000
 3759.00    1.13501   1.18111   -1.000
 3760.00    1.13002   1.15989   -1.000
 3761.00    1.12859   1.13660   -1.000
 3762.00    1.14617   1.11413   -1.000
 3763.00    1.16554   1.09598   -1.000
 3764.00    1.13213   1.08547   -1.000
 3765.00    1.09568   1.08493   -1.000
 3766.00    1.03567   1.09484   -1.000
 3767.00    0.97536   1.11345   -1.000
 3768.00    0.94565   1.13728   -1.000
 3769.00    0.91707   1.16263   -1.000
 3770.00    0.91578   1.18671   -1.000
 3771.00    0.91522   1.20784   -1.000
 3772.00    0.92425   1.22524   -1.000
 3773.00    0.93242   1.23893   -1.000
 3774.00    0.93301   1.24924   -1.000
 3775.00    0.93203   1.25665   -1.000
 3776.00    0.92089   1.26156   -1.000
 3777.00    0.91521   1.26431   -1.000
 3778.00    0.93722   1.26511   -1.000
 3779.00    0.96012   1.26400   -1.000
 3780.00    0.98667   1.26086   -1.000
 3781.00    1.01448   1.25541   -1.000
 3782.00    1.04659   1.24719   -1.000
 3783.00    1.07832   1.23563   -1.000
 3784.00    1.10894   1.22023   -1.000
 3785.00    1.13820   1.20060   -1.000
 3786.00    1.16412   1.17670   -1.000
 3787.00    1.18459   1.14924   -1.000
 3788.00    1.19355   1.11995   -1.000
 3789.00    1.19550   1.09160   -1.000
 3790.00    1.18460   1.06798   -1.000
 3791.00    1.16327   1.05300   -1.000
 3792.00    1.12525   1.04965   -1.000
 3793.00    1.10365   1.05897   -1.000
 3794.00    1.10515   1.07949   -1.000
 3795.00    1.09418   1.10738   -1.000
 3796.00    1.06781   1.13788   -1.000
 3797.00    1.04399   1.16714   -1.000
 3798.00    1.02295   1.19300   -1.000
 3799.00    1.03123   1.21466   -1.000
 3800.00    1.06768   1.23213   -1.000
 3801.00    1.10817   1.24593   -1.000
 3802.00    1.15208   1.25667   -1.000
 3803.00    1.16477   1.26483   -1.000
 3804.00    1.15415   1.27070   -1.000
 3805.00    1.16780   1.27441   -1.000
 3806.00    1.19735   1.27599   -1.000
 3807.00    1.18851   1.27529   -1.000
 3808.00    1.15762   1.27211   -1.000
 3809.00    1.11668   1.26647   -1.000
 3810.00    1.07073   1.25888   -1.000
 3811.00    1.06417   1.25043   -1.000
 3812.00    1.07466   1.24273   -1.000
 3813.00    1.06662   1.23745   -1.000
 3814.00    1.05171   1.23562   -1.000
 3815.00    1.05102   1.23738   -1.000
 3816.00    1.05479   1.24185   -1.000
 3817.00    1.06750   1.24649   -1.000
 3818.00    1.08257   1.24820   -1.000
 3819.00    1.06203   1.24535   -1.000
 3820.00    1.03386   1.23736   -1.000
 3821.00    0.98381   1.22389   -1.000
 3822.00    0.93006   1.20472   -1.000
 3823.00    0.88808   1.17979   -1.000
 3824.00    0.84761   1.14971   -1.000
 3825.00    0.80771   1.11610   -1.000
 3826.00    0.76787   1.08197   -1.000
 3827.00    0.78889   1.05147   -1.000
 3828.00    0.81318   1.02924   -1.000
 3829.00    0.83433   1.01924   -1.000
 3830.00    0.85527   1.02359   -1.000
 3831.00    0.86322   1.04189   -1.000
 3832.00    0.87249   1.07111   -1.000
 3833.00    0.91086   1.10604   -1.000
 3834.00    0.94689   1.14133   -1.000
 3835.00    0.95380   1.17347   -1.000
 3836.00    0.95871   1.20090   -1.000
 3837.00    0.94681   1.22328   -1.000
 3838.00    0.93866   1.24106   -1.000
 3839.00    0.95412   1.25494   -1.000
 3840.00    0.96554   1.26570   -1.000
 3841.00    0.95703   1.27401   -1.000
 3842.00    0.95116   1.28042   -1.000
 3843.00    0.95591   1.28532   -1.000
 3844.00    0.97052   1.28895   -1.000
 3845.00    1.01789   1.29152   -1.000
 3846.00    1.05169   1.29318   -1.000
 3847.00    1.04737   1.29411    0.000
 3848.00    1.04268   1.29450    0.000
 3849.00    1.03710   1.29458    0.000
 3850.00    1.03320   1.29461    0.000
 3851.00    1.03277   1.29476    0.000
 3852.00    1.02091   1.29520    0.000
 3853.00    0.98844   1.29589    0.000
 3854.00    0.97030   1.29664    0.000
 3855.00    0.97477   1.29715    0.000
 3856.00    0.98087   1.29719    0.000
 3857.00    0.98920   1.29660    0.000
 3858.00    0.98000   1.29533    0.000
 3859.00    0.94943   1.29353    0.000
 3860.00    0.93214   1.29143    0.000
 3861.00    0.92911   1.28929    0.000
 3862.00    0.91575   1.28729    0.000
 3863.00    0.89261   1.28557    0.000
 3864.00    0.84062   1.28425    0.000
 3865.00    0.76451   1.28312    0.000
 3866.00    0.71315   1.28176    0.000
 3867.00    0.67998   1.27997    0.000
 3868.00    0.62798   1.27772    0.000
 3869.00    0.56380   1.27473    0.000
 3870.00    0.52588   1.27038    0.000
 3871.00    0.50278   1.26408    0.000
 3872.00    0.53968   1.25541    0.000
 3873.00    0.60609   1.24390    0.000
 3874.00    0.67698   1.22880    0.000
 3875.00    0.74977   1.20920    0.000
 3876.00    0.79274   1.18435    0.000
 3877.00    0.82485   1.15401    0.000
 3878.00    0.84927   1.11906    0.000
 3879.00    0.87131   1.08182    0.000
 3880.00    0.89560   1.04613    0.000
 3881.00    0.92047   1.01675   -1.000
 3882.00    0.92681   0.99842   -1.000
 3883.00    0.92928   0.99452   -1.000
 3884.00    0.95281   1.00604   -1.000
 3885.00    0.97981   1.03129   -1.000
 3886.00    0.96914   1.06614   -1.000
 3887.00    0.95381   1.10480   -1.000
 3888.00    0.97341   1.14195   -1.000
 3889.00    0.99599   1.17447   -1.000
 3890.00    1.00492   1.20140   -1.000
 3891.00    1.01317   1.22298   -1.000
 3892.00    1.01124   1.23997   -1.000
 3893.00    1.00879   1.25326   -1.000
 3894.00    0.98364   1.26374   -1.000
 3895.00    0.95904   1.27206   -1.000
 3896.00    0.94563   1.27875   -1.000
 3897.00    0.93093   1.28416   -1.000
 3898.00    0.90092   1.28853   -1.000
 3899.00    0.86899   1.29205   -1.000
 3900.00    0.82133   1.29487   -1.000
 3901.00    0.77376   1.29712   -1.000
 3902.00    0.72678   1.29886   -1.000
 3903.00    0.68186   1.30019   -1.000
 3904.00    0.64686   1.30118   -1.000
 3905.00    0.61912   1.30187   -1.000
 3906.00    0.61977   1.30223   -1.000
 3907.00    0.63551   1.30220   -1.000
 3908.00    0.70044   1.30166   -1.000
 3909.00    0.76428   1.30045   -1.000
 3910.00    0.82515   1.29843   -1.000
 3911.00    0.87660   1.29548   -1.000
 3912.00    0.90583   1.29169   -1.000
 3913.00    0.93485   1.28728   -1.000
 3914.00    0.96343   1.28255   -1.000
 3915.00    0.98505   1.27799   -1.000
 3916.00    0.99431   1.27415   -1.000
 3917.00    0.99366   1.27161   -1.000
 3918.00    0.97759   1.27073   -1.000
 3919.00    0.98900   1.27172   -1.000
 3920.00    1.03791   1.27449   -1.000
 3921.00    1.07512   1.27867   -1.000
 3922.00    1.09827   1.28355   -1.000
 3923.00    1.07873   1.28841   -1.000
 3924.00    1.01396   1.29272   -1.000
 3925.00    0.97784   1.29603   -1.000
 3926.00    0.96848   1.29819   -1.000
 3927.00    0.97837   1.29961   -1.000
 3928.00    1.00410   1.30070   -1.000
 3929.00    0.98741   1.30179   -1.000
 3930.00    0.93995   1.30300   -1.000
 3931.00    0.89864   1.30431   -1.000
 3932.00    0.86123   1.30554   -1.000
 3933.00    0.85000   1.30648   -1.000
 3934.00    0.85333   1.30698   -1.000
 3935.00    0.88879   1.30705   -1.000
 3936.00    0.93979   1.30676   -1.000
 3937.00    0.97994   1.30619   -1.000
 3938.00    1.01555   1.30544   -1.000
 3939.00    0.99812   1.30458   -1.000
 3940.00    0.96172   1.30363   -1.000
 3941.00    0.95174   1.30257   -1.000
 3942.00    0.94975   1.30137   -1.000
 3943.00    0.93159   1.29992   -1.000
 3944.00    0.90937   1.29812   -1.000
 3945.00    0.91762   1.29595   -1.000
 3946.00    0.93208   1.29336   -1.000
 3947.00    0.95830   1.29029   -1.000
 3948.00    0.98640   1.28659   -1.000
 3949.00    1.03681   1.28207   -1.000
 3950.00    1.08990   1.27643   -1.000
 3951.00    1.08233   1.26930   -1.000
 3952.00    1.06983   1.26025   -1.000
 3953.00    1.04165   1.24861   -1.000
 3954.00    1.01275   1.23377   -1.000
 3955.00    1.04041   1.21529   -1.000
 3956.00    1.06812   1.19250   -1.000
 3957.00    1.06032   1.16484   -1.000
 3958.00    1.05074   1.13209   -1.000
 3959.00    1.00744   1.09541   -1.000
 3960.00    0.96809   1.05770    0.000
 3961.00    0.97331   1.02314    0.000
 3962.00    0.97514   0.99652    0.000
 3963.00    0.95025   0.98191    0.000
 3964.00    0.92070   0.98170    0.000
 3965.00    0.86356   0.99627    0.000
 3966.00    0.82269   1.02364    0.000
 3967.00    0.85824   1.05994    0.000
 3968.00    0.88455   1.10001    0.000
 3969.00    0.87549   1.13852    0.000
 3970.00    0.86724   1.17205    0.000
 3971.00    0.86157   1.19965    0.000
 3972.00    0.87578   1.22167    0.000
 3973.00    0.94380   1.23892    0.000
 3974.00    0.99440   1.25239    0.000
 3975.00    1.00451   1.26296    0.000
 3976.00    0.99654   1.27135    0.000
 3977.00    0.95222   1.27811    0.000
 3978.00    0.93556   1.28362    0.000
 3979.00    0.96730   1.28821    0.000
 3980.00    0.99282   1.29206    0.000
 3981.00    1.00879   1.29528   -1.000
 3982.00    1.03021   1.29796   -1.000
 3983.00    1.05895   1.30013   -1.000
 3984.00    1.06566   1.30187   -1.000
 3985.00    1.04628   1.30325   -1.000
 3986.00    1.01970   1.30437   -1.000
 3987.00    0.98561   1.30527   -1.000
 3988.00    0.99496   1.30599   -1.000
 3989.00    1.04433   1.30661   -1.000
 3990.00    1.08178   1.30715   -1.000
 3991.00    1.10955   1.30756   -1.000
 3992.00    1.10386   1.30784   -1.000
 3993.00    1.07425   1.30789   -1.000
 3994.00    1.04612   1.30765   -1.000
 3995.00    1.01891   1.30705   -1.000
 3996.00    1.01352   1.30605   -1.000
 3997.00    1.02008   1.30455   -1.000
 3998.00    0.99498   1.30248   -1.000
 3999.00    0.95481   1.30003   -1.000
 4000.00    0.95949   1.29763   -1.000
 4001.00    0.98261   1.29576   -1.000
 4002.00    1.00216   1.29473   -1.000
 4003.00    1.02046   1.29468   -1.000
 4004.00    1.03381   1.29567   -1.000
 4005.00    1.04569   1.29748   -1.000
 4006.00    1.04198   1.29977   -1.000
 4007.00    1.03445   1.30203   -1.000
 4008.00    1.04294   1.30367   -1.000
 4009.00    1.05462   1.30414   -1.000
 4010.00    1.02307   1.30308   -1.000
 4011.00    0.98480   1.30015   -1.000
 4012.00    1.00565   1.29481   -1.000
 4013.00    1.03330   1.28649   -1.000
 4014.00    1.05087   1.27460   -1.000
 4015.00    1.06766   1.25899   -1.000
 4016.00    1.05341   1.24113   -1.000
 4017.00    1.03785   1.22439   -1.000
 4018.00    1.03899   1.21198   -1.000
 4019.00    1.04023   1.20587   -1.000
 4020.00    1.03890   1.20703   -1.000
 4021.00    1.03847   1.21526   -1.000
 4022.00    1.05403   1.22912   -1.000
 4023.00    1.06891   1.24642   -1.000
 4024.00    1.07651   1.26453   -1.000
 4025.00    1.07828   1.28050   -1.000
 4026.00    1.03569   1.29272   -1.000
 4027.00    0.99948   1.30137   -1.000
 4028.00    1.00000   1.30729   -1.000
 4029.00    0.99527   1.31127   -1.000
 4030.00    0.96651   1.31391   -1.000
 4031.00    0.93609   1.31564   -1.000
 4032.00    0.89944   1.31675   -1.000
 4033.00    0.86685   1.31748   -1.000
 4034.00    0.84702   1.31796   -1.000
 4035.00    0.82664   1.31829   -1.000
 4036.00    0.80481   1.31855   -1.000
 4037.00    0.80100   1.31881   -1.000
 4038.00    0.83835   1.31909   -1.000
 4039.00    0.88722   1.31940   -1.000
 4040.00    0.95886   1.31974   -1.000
 4041.00    0.99772   1.32010   -1.000
 4042.00    0.98012   1.32043   -1.000
 4043.00    0.96429   1.32073   -1.000
 4044.00    0.95111   1.32097   -1.000
 4045.00    0.95588   1.32116   -1.000
 4046.00    0.98442   1.32134   -1.000
 4047.00    1.00420   1.32163   -1.000
 4048.00    1.01372   1.32201   -1.000
 4049.00    1.01836   1.32233   -1.000
 4050.00    1.01796   1.32242   -1.000
 4051.00    1.01620   1.32229   -1.000
 4052.00    1.01322   1.32198   -1.000
 4053.00    1.00410   1.32148   -1.000
 4054.00    0.99006   1.32083   -1.000
 4055.00    0.99304   1.31996   -1.000
 4056.00    1.00800   1.31884   -1.000
 4057.00    1.00507   1.31743   -1.000
 4058.00    0.99109   1.31554   -1.000
 4059.00    0.97975   1.31306   -1.000
 4060.00    0.96984   1.31020   -1.000
 4061.00    0.95644   1.30746   -1.000
 4062.00    0.94142   1.30534   -1.000
 4063.00    0.93691   1.30404   -1.000
 4064.00    0.93665   1.30360   -1.000
 4065.00    0.94430   1.30391   -1.000
 4066.00    0.95469   1.30462   -1.000
 4067.00    0.93862   1.30566   -1.000
 4068.00    0.91487   1.30695   -1.000
 4069.00    0.91073   1.30808   -1.000
 4070.00    0.91129   1.30887   -1.000
 4071.00    0.91547   1.30936   -1.000
 4072.00    0.92034   1.30949   -1.000
 4073.00    0.94779   1.30926   -1.000
 4074.00    0.97863   1.30861   -1.000
 4075.00    0.99557   1.30721   -1.000
 4076.00    1.01098   1.30507   -1.000
 4077.00    0.99163   1.30220   -1.000
 4078.00    0.96973   1.29853   -1.000
 4079.00    0.96219   1.29388   -1.000
 4080.00    0.95520   1.28851   -1.000
 4081.00    0.96914   1.28282   -1.000
 4082.00    0.98315   1.27658   -1.000
 4083.00    0.99553   1.26919   -1.000
 4084.00    1.00633   1.26013   -1.000
 4085.00    0.99131   1.24866   -1.000
 4086.00    0.97547   1.23388   -1.000
 4087.00    0.95131   1.21474   -1.000
 4088.00    0.92790   1.19027   -1.000
 4089.00    0.91006   1.16016   -1.000
 4090.00    0.89653   1.12492   -1.000
 4091.00    0.90720   1.08604   -1.000
 4092.00    0.92298   1.04687    0.000
 4093.00    0.96161   1.01351    0.000
 4094.00    0.99009   0.99242    0.000
 4095.00    0.98130   0.98661    0.000
 4096.00    0.96622   0.99599    0.000
 4097.00    0.93176   1.01858    0.000
 4098.00    0.90864   1.05114    0.000
 4099.00    0.91513   1.08961    0.000
 4100.00    0.90970   1.12935    0.000
 4101.00    0.87751   1.16600    0.000
 4102.00    0.86279   1.19701    0.000
 4103.00    0.88206   1.22195    0.000
 4104.00    0.89262   1.24150    0.000
 4105.00    0.88838   1.25653    0.000
 4106.00    0.88844   1.26777    0.000
 4107.00    0.89491   1.27601    0.000
 4108.00    0.90359   1.28215    0.000
 4109.00    0.91519   1.28671    0.000
 4110.00    0.92797   1.28979    0.000
 4111.00    0.94214   1.29155    0.000
 4112.00    0.93825   1.29280    0.000
 4113.00    0.91603   1.29479   -1.000
 4114.00    0.91737   1.29795   -1.000
 4115.00    0.93981   1.30171   -1.000
 4116.00    0.93631   1.30569   -1.000
 4117.00    0.91234   1.30974   -1.000
 4118.00    0.89589   1.31365   -1.000
 4119.00    0.88465   1.31718   -1.000
 4120.00    0.92036   1.31995   -1.000
 4121.00    0.98464   1.32182   -1.000
 4122.00    0.97893   1.32304   -1.000
 4123.00    0.93604   1.32401   -1.000
 4124.00    0.91624   1.32495   -1.000
 4125.00    0.90708   1.32593   -1.000
 4126.00    0.89923   1.32692   -1.000
 4127.00    0.89191   1.32779   -1.000
 4128.00    0.88231   1.32833   -1.000
 4129.00    0.87193   1.32833   -1.000
 4130.00    0.88282   1.32758   -1.000
 4131.00    0.89976   1.32589   -1.000
 4132.00    0.87794   1.32315   -1.000
 4133.00    0.84701   1.31933   -1.000
 4134.00    0.83941   1.31457   -1.000
 4135.00    0.83622   1.30982   -1.000
 4136.00    0.84239   1.30683   -1.000
 4137.00    0.84993   1.30654   -1.000
 4138.00    0.87804   1.30840   -1.000
 4139.00    0.90833   1.31174   -1.000
 4140.00    0.90299   1.31609   -1.000
 4141.00    0.89519   1.32097   -1.000
 4142.00    0.86193   1.32579   -1.000
 4143.00    0.82778   1.32980   -1.000
 4144.00    0.87457   1.33258   -1.000
 4145.00    0.91918   1.33439   -1.000
 4146.00    0.88631   1.33572   -1.000
 4147.00    0.85630   1.33675   -1.000
 4148.00    0.87053   1.33759   -1.000
 4149.00    0.88006   1.33835   -1.000
 4150.00    0.84327   1.33908   -1.000
 4151.00    0.81243   1.33976   -1.000
 4152.00    0.82381   1.34034   -1.000
 4153.00    0.83518   1.34076   -1.000
 4154.00    0.84657   1.34101   -1.000
 4155.00    0.84665   1.34113   -1.000
 4156.00    0.79728   1.34117   -1.000
 4157.00    0.75867   1.34108   -1.000
 4158.00    0.75875   1.34084   -1.000
 4159.00    0.87580   1.34044    2.374
 4160.00    1.34580   1.33989    0.473
 4161.00    1.65789   1.33950    0.300
 4162.00    1.56445   1.33958    0.301
 4163.00    1.49605   1.33999    0.300
 4164.00    1.48295   1.34054    0.296
 4165.00    1.47655   1.34125    0.294
 4166.00    1.48300   1.34208    0.295
 4167.00    1.53849   1.34296    0.301
 4168.00    1.67594   1.34377    0.316
 4169.00    1.73686   1.34442    0.321
 4170.00    1.68568   1.34492    0.313
 4171.00    1.63089   1.34533    0.311
 4172.00    1.57146   1.34565    0.319
 4173.00    1.54349   1.34588    0.328
 4174.00    1.55123   1.34598    0.340
 4175.00    1.59801   1.34597    0.341
 4176.00    1.68385   1.34580    0.331
 4177.00    1.68287   1.34546    0.324
 4178.00    1.60524   1.34504    0.319
 4179.00    1.56516   1.34463    0.315
 4180.00    1.55429   1.34422    0.311
 4181.00    1.54172   1.34366    0.305
 4182.00    1.52799   1.34290    0.298
 4183.00    1.55077   1.34189    0.297
 4184.00    1.59543   1.34024    0.300
 4185.00    1.66400   1.33747    0.306
 4186.00    1.74509   1.33322    0.313
 4187.00    1.72369   1.32730    0.307
 4188.00    1.65580   1.31980    0.295
 4189.00    1.64747   1.31104    0.295
 4190.00    1.66238   1.30164    0.300
 4191.00    1.63802   1.29284    0.300
 4192.00    1.60063   1.28694    0.299
 4193.00    1.62964   1.28568    0.297
 4194.00    1.67715   1.28888    0.293
 4195.00    1.69565   1.29532    0.292
 4196.00    1.70749   1.30386    0.290
 4197.00    1.71275   1.31348    0.294
 4198.00    1.71680   1.32313    0.298
 4199.00    1.72769   1.33172    0.295
 4200.00    1.73954   1.33850    0.292
 4201.00    1.62325   1.34342    0.282
 4202.00    1.49390   1.34686    0.273
 4203.00    1.45246   1.34917    0.271
 4204.00    1.41675   1.35068    0.269
 4205.00    1.48259   1.35184    0.271
 4206.00    1.55140   1.35291    0.272
 4207.00    1.53110   1.35388    0.277
 4208.00    1.51461   1.35473    0.281
 4209.00    1.60979   1.35553    0.279
 4210.00    1.69962   1.35629    0.277
 4211.00    1.71166   1.35700    0.275
 4212.00    1.72475   1.35761    0.274
 4213.00    1.74781   1.35805    0.279
 4214.00    1.76000   1.35839    0.282
 4215.00    1.69750   1.35868    0.271
 4216.00    1.64108   1.35894    0.263
 4217.00    1.61696   1.35918    0.262
 4218.00    1.60549   1.35941    0.262
 4219.00    1.64809   1.35965    0.264
 4220.00    1.67339   1.35994    0.266
 4221.00    1.63776   1.36028    0.267
 4222.00    1.61115   1.36063    0.268
 4223.00    1.61125   1.36095    0.272
 4224.00    1.61229   1.36122    0.275
 4225.00    1.61573   1.36144    0.272
 4226.00    1.60839   1.36168    0.268
 4227.00    1.57763   1.36192    0.261
 4228.00    1.55398   1.36214    0.257
 4229.00    1.54374   1.36235    0.258
 4230.00    1.53514   1.36261    0.257
 4231.00    1.52925   1.36293    0.253
 4232.00    1.50489   1.36326    0.252
 4233.00    1.45386   1.36356    0.256
 4234.00    1.41729   1.36383    0.257
 4235.00    1.39906   1.36417    0.256
 4236.00    1.38998   1.36455    0.252
 4237.00    1.39113   1.36490    0.246
 4238.00    1.38842   1.36521    0.244
 4239.00    1.38190   1.36551    0.246
 4240.00    1.41747   1.36582    0.248
 4241.00    1.48967   1.36612    0.251
 4242.00    1.49831   1.36638    0.251
 4243.00    1.45820   1.36659    0.249
 4244.00    1.52917   1.36677    0.255
 4245.00    1.67498   1.36690    0.268
 4246.00    1.67403   1.36707    0.273
 4247.00    1.58641   1.36739    0.273
 4248.00    1.58349   1.36780    0.282
 4249.00    1.62416   1.36820    0.297
 4250.00    1.66461   1.36858    0.299
 4251.00    1.70496   1.36894    0.295
 4252.00    1.67436   1.36927    0.290
 4253.00    1.61655   1.36945    0.285
 4254.00    1.67974   1.36937    0.280
 4255.00    1.78236   1.36906    0.275
 4256.00    1.71297   1.36862    0.274
 4257.00    1.59662   1.36808    0.275
 4258.00    1.64483   1.36739    0.278
 4259.00    1.72992   1.36664    0.281
 4260.00    1.75118   1.36636    0.278
 4261.00    1.76103   1.36692    0.274
 4262.00    1.75467   1.36788    0.275
 4263.00    1.74610   1.36878    0.278
 4264.00    1.64147   1.36959    0.272
 4265.00    1.52746   1.37040    0.266
 4266.00    1.53807   1.37114    0.269
 4267.00    1.55629   1.37161    0.273
 4268.00    1.45962   1.37180    0.269
 4269.00    1.36042   1.37199    0.265
 4270.00    1.37469   1.37236    0.260
 4271.00    1.38774   1.37284    0.255
 4272.00    1.36863   1.37331    0.259
 4273.00    1.35132   1.37371    0.263
 4274.00    1.35854   1.37404    0.262
 4275.00    1.37637   1.37432    0.262
 4276.00    1.49055   1.37455    0.268
 4277.00    1.58640   1.37478    0.273
 4278.00    1.56006   1.37508    0.269
 4279.00    1.54362   1.37547    0.266
 4280.00    1.57843   1.37590    0.269
 4281.00    1.60775   1.37626    0.270
 4282.00    1.61417   1.37660   -2.000
 4283.00    1.63713   1.37694   -2.000
 4284.00    1.71717   1.37732   -2.000
 4285.00    1.78473   1.37767   -2.000
 4286.00    1.81600   1.37793   -2.000
 4287.00    1.80660   1.37812   -2.000
 4288.00    1.69632   1.37834   -2.000
 4289.00    1.65565   1.37861   -2.000
 4290.00    1.76378   1.37882   -2.000
 4291.00    1.83942   1.37888   -2.000
 4292.00    1.85474   1.37883   -2.000
 4293.00    1.86174   1.37874   -2.000
 4294.00    1.85522   1.37865   -2.000
 4295.00    1.81168   1.37847   -2.000
 4296.00    1.71547   1.37821   -2.000
 4297.00    1.66695   1.37809   -2.000
 4298.00    1.67813   1.37813    0.262
 4299.00    1.70944   1.37821    0.263
 4300.00    1.76298   1.37816    0.268
 4301.00    1.75659   1.37805    0.267
 4302.00    1.69189   1.37794    0.260
 4303.00    1.64770   1.37776    0.262
 4304.00    1.62110   1.37739    0.270
 4305.00    1.67754   1.37678    0.272
 4306.00    1.79672   1.37602    0.269
 4307.00    1.84875   1.37519    0.268
 4308.00    1.85620   1.37430    0.268
 4309.00    1.79247   1.37328    0.265
 4310.00    1.68736   1.37218    0.261
 4311.00    1.68441   1.37111    0.257
 4312.00    1.73323   1.36994    0.254
 4313.00    1.76153   1.36861    0.251
 4314.00    1.78081   1.36708    0.248
 4315.00    1.75869   1.36516    0.247
 4316.00    1.72097   1.36275    0.247
 4317.00    1.75157   1.35967    0.249
 4318.00    1.80402   1.35582    0.250
 4319.00    1.80687   1.35107    0.250
 4320.00    1.79647   1.34519    0.249
 4321.00    1.80222   1.33780    0.252
 4322.00    1.81150   1.32841    0.256
 4323.00    1.83007   1.31638    0.259
 4324.00    1.85026   1.30093    0.262
 4325.00    1.80435   1.28121    0.259
 4326.00    1.74969   1.25645    0.254
 4327.00    1.73412   1.22610    0.251
 4328.00    1.72220   1.19044    0.248
 4329.00    1.79880   1.15174    0.250
 4330.00    1.88046   1.11379    0.000
 4331.00    1.84637   1.08026    0.000
 4332.00    1.81002   1.05441    0.000
 4333.00    1.82348   1.04057    0.000
 4334.00    1.83769   1.04359    0.000
 4335.00    1.87016   1.06361    0.000
 4336.00    1.90190   1.09495    0.000
 4337.00    1.92436   1.13171    0.000
 4338.00    1.93857   1.17033    0.000
 4339.00    1.88069   1.20814    0.000
 4340.00    1.82533   1.24229    0.000
 4341.00    1.78631   1.27085    0.000
 4342.00    1.75593   1.29380    0.000
 4343.00    1.76909   1.31215    0.000
 4344.00    1.78796   1.32690    0.000
 4345.00    1.83012   1.33887    0.000
 4346.00    1.85859   1.34871    0.000
 4347.00    1.84075   1.35685    0.000
 4348.00    1.84626   1.36361    0.000
 4349.00    1.91842   1.36925    0.000
 4350.00    1.96117   1.37398    0.000
 4351.00    1.93223   1.37799    0.262
 4352.00    1.92996   1.38138    0.260
 4353.00    1.98376   1.38424    0.261
 4354.00    2.00128   1.38663    0.260
 4355.00    1.95248   1.38867    0.255
 4356.00    1.89581   1.39047    0.252
 4357.00    1.82658   1.39205    0.250
 4358.00    1.79752   1.39343    0.249
 4359.00    1.82479   1.39465    0.248
 4360.00    1.85761   1.39581    0.249
 4361.00    1.89727   1.39704    0.254
 4362.00    1.90679   1.39828    0.257
 4363.00    1.88352   1.39946    0.257
 4364.00    1.83894   1.40054    0.254
 4365.00    1.77391   1.40154    0.249
 4366.00    1.77250   1.40250    0.249
 4367.00    1.82490   1.40333    0.254
 4368.00    1.86485   1.40397    0.259
 4369.00    1.89551   1.40450    0.263
 4370.00    1.91021   1.40488    0.264
 4371.00    1.91447   1.40489    0.263
 4372.00    1.89288   1.40435    0.262
 4373.00    1.85649   1.40324    0.260
 4374.00    1.79445   1.40138    0.256
 4375.00    1.71963   1.39821    0.251
 4376.00    1.75222   1.39344    0.252
 4377.00    1.83116   1.38792    0.256
 4378.00    1.86057   1.38302    0.260
 4379.00    1.87165   1.37898    0.264
 4380.00    1.86694   1.37563    0.267
 4381.00    1.85727   1.37437    0.268
 4382.00    1.82891   1.37698    0.266
 4383.00    1.79567   1.38279    0.262
 4384.00    1.82006   1.38939    0.263
 4385.00    1.85677   1.39561    0.265
 4386.00    1.83236   1.40149    0.261
 4387.00    1.79762   1.40678    0.256
 4388.00    1.83433   1.41083    0.253
 4389.00    1.88016   1.41358    0.250
 4390.00    1.85663   1.41555    0.247
 4391.00    1.82690   1.41703    0.244
 4392.00    1.86418   1.41811    0.247
 4393.00    1.90502   1.41892    0.250
 4394.00    1.90003   1.41962    0.246
 4395.00    1.89451   1.42027    0.241
 4396.00    1.91964   1.42084    0.242
 4397.00    1.94124   1.42133    0.243
 4398.00    1.88529   1.42180    0.247
 4399.00    1.83213   1.42223    0.251
 4400.00    1.81335   1.42258    0.250
 4401.00    1.79608   1.42287    0.249
 4402.00    1.79146   1.42306    0.248
 4403.00    1.79171   1.42301    0.248
 4404.00    1.82253   1.42279    0.248
 4405.00    1.84667   1.42258    0.249
 4406.00    1.83794   1.42245    0.252
 4407.00    1.82972   1.42234    0.255
 4408.00    1.82362   1.42236    0.254
 4409.00    1.82871   1.42270    0.252
 4410.00    1.87097   1.42344    0.247
 4411.00    1.89877   1.42441    0.244
 4412.00    1.88607   1.42551    0.244
 4413.00    1.87974   1.42664    0.244
 4414.00    1.88870   1.42770    0.246
 4415.00    1.90626   1.42864    0.246
 4416.00    1.94160   1.42941    0.246
 4417.00    1.95352   1.43003    0.247
 4418.00    1.92328   1.43052    0.251
 4419.00    1.90776   1.43090    0.251
 4420.00    1.91540   1.43117    0.245
 4421.00    1.91569   1.43136    0.240
 4422.00    1.90583   1.43146    0.236
 4423.00    1.90097   1.43145    0.235
 4424.00    1.90221   1.43129    0.240
 4425.00    1.88413   1.43089    0.241
 4426.00    1.84534   1.43013    0.239
 4427.00    1.83590   1.42932    0.237
 4428.00    1.85422   1.42877    0.235
 4429.00    1.88075   1.42829    0.236
 4430.00    1.91412   1.42774    0.240
 4431.00    1.91683   1.42757    0.242
 4432.00    1.89703   1.42833    0.241
 4433.00    1.89072   1.42962    0.239
 4434.00    1.89310   1.43078    0.235
 4435.00    1.89321   1.43195    0.236
 4436.00    1.89203   1.43337    0.238
 4437.00    1.86153   1.43479    0.239
 4438.00    1.81664   1.43593    0.239
 4439.00    1.85911   1.43685    0.244
 4440.00    1.93863   1.43761    0.252
 4441.00    1.99288   1.43825    0.253
 4442.00    2.03793   1.43883    0.252
 4443.00    2.00828   1.43940    0.248
 4444.00    1.95566   1.43992    0.243
 4445.00    1.95081   1.44038    0.244
 4446.00    1.95818   1.44085    0.246
 4447.00    1.94137   1.44138    0.245
 4448.00    1.91952   1.44187    0.242
 4449.00    1.88550   1.44224    0.238
 4450.00    1.84948   1.44254    0.234
 4451.00    1.84667   1.44270    0.233
 4452.00    1.84795   1.44258    0.233
 4453.00    1.85618   1.44209    0.230
 4454.00    1.86499   1.44109    0.226
 4455.00    1.82597   1.43918    0.229
 4456.00    1.78459   1.43586    0.231
 4457.00    1.77250   1.43089    0.230
 4458.00    1.76106   1.42417    0.230
 4459.00    1.76153   1.41513    0.227
 4460.00    1.76129   1.40336    0.225
 4461.00    1.74668   1.39083    0.000
 4462.00    1.73615   1.38106    0.000
 4463.00    1.77354   1.37505    0.000
 4464.00    1.80618   1.37144    0.000
 4465.00    1.80035   1.37162    0.000
 4466.00    1.80533   1.37924    0.000
 4467.00    1.87607   1.39226    0.000
 4468.00    1.93190   1.40473    0.000
 4469.00    1.91619   1.41502    0.000
 4470.00    1.90622   1.42420    0.000
 4471.00    1.91873   1.43187    0.000
 4472.00    1.92381   1.43741    0.000
 4473.00    1.90478   1.44102    0.000
 4474.00    1.89488   1.44335    0.000
 4475.00    1.91013   1.44534    0.000
 4476.00    1.91302   1.44767    0.000
 4477.00    1.88677   1.44993    0.000
 4478.00    1.86057   1.45159    0.000
 4479.00    1.83448   1.45297    0.000
 4480.00    1.80573   1.45423    0.000
 4481.00    1.77231   1.45527    0.000
 4482.00    1.78096   1.45602    0.219
 4483.00    1.85488   1.45661    0.224
 4484.00    1.89922   1.45715    0.227
 4485.00    1.90327   1.45767    0.226
 4486.00    1.89200   1.45815    0.225
 4487.00    1.86235   1.45861    0.224
 4488.00    1.87952   1.45905    0.224
 4489.00    1.94619   1.45948    0.225
 4490.00    1.94169   1.45985    0.224
 4491.00    1.87084   1.46021    0.221
 4492.00    1.84256   1.46059    0.220
 4493.00    1.84925   1.46100    0.222
 4494.00    1.86818   1.46139    0.223
 4495.00    1.89595   1.46179    0.224
 4496.00    1.90560   1.46221    0.225
 4497.00    1.90376   1.46265    0.226
 4498.00    1.91800   1.46304    0.226
 4499.00    1.94118   1.46336    0.225
 4500.00    1.96062   1.46359    0.226
 4501.00    1.97825   1.46374    0.227
 4502.00    1.97597   1.46388    0.227
 4503.00    1.96537   1.46403    0.225
 4504.00    1.96396   1.46414    0.224
 4505.00    1.96583   1.46425    0.223
 4506.00    1.95643   1.46453    0.223
 4507.00    1.94364   1.46495    0.222
 4508.00    1.87398   1.46536    0.218
 4509.00    1.79009   1.46581    0.212
 4510.00    1.82977   1.46638    0.215
 4511.00    1.89458   1.46695    0.219
 4512.00    1.88895   1.46740    0.221
 4513.00    1.87208   1.46779    0.223
 4514.00    1.87948   1.46813    0.225
 4515.00    1.88977   1.46841    0.228
 4516.00    1.88903   1.46859    0.228
 4517.00    1.88740   1.46873    0.228
 4518.00    1.90229   1.46877    0.226
 4519.00    1.91794   1.46870    0.224
 4520.00    1.95522   1.46858    0.225
 4521.00    1.99244   1.46836    0.225
 4522.00    2.01328   1.46783    0.226
 4523.00    2.02962   1.46683    0.227
 4524.00    1.96154   1.46531    0.222
 4525.00    1.89790   1.46290    0.218
 4526.00    1.88406   1.45900    0.221
 4527.00    1.87166   1.45313    0.223
 4528.00    1.87045   1.44538    0.219
 4529.00    1.87196   1.43581    0.216
 4530.00    1.88951   1.42415    0.219
 4531.00    1.90494   1.41143    0.222
 4532.00    1.91035   1.40088    0.227
 4533.00    1.91943   1.39457    0.230
 4534.00    1.94247   1.39175    0.226
 4535.00    1.95232   1.39274    0.223
 4536.00    1.92008   1.39936    0.224
 4537.00    1.90716   1.41080    0.225
 4538.00    1.94643   1.42353    0.222
 4539.00    1.95531   1.43542    0.220
 4540.00    1.89378   1.44626    0.218
 4541.00    1.87204   1.45549    0.218
 4542.00    1.93007   1.46227    0.221
 4543.00    1.95309   1.46703    0.223
 4544.00    1.91501   1.47065    0.222
 4545.00    1.89203   1.47336    0.222
 4546.00    1.89215   1.47521    0.225
 4547.00    1.89508   1.47685    0.224
 4548.00    1.90181   1.47857    0.219
 4549.00    1.90317   1.48011    0.216
 4550.00    1.89819   1.48133    0.000
 4551.00    1.90775   1.48241    0.000
 4552.00    1.93246   1.48338    0.000
 4553.00    1.92422   1.48411    0.000
 4554.00    1.88567   1.48460    0.000
 4555.00    1.90269   1.48495    0.000
 4556.00    1.96472   1.48519    0.000
 4557.00    1.97360   1.48518    0.000
 4558.00    1.94457   1.48504    0.000
 4559.00    1.92394   1.48508    0.000
 4560.00    1.90858   1.48532    0.000
 4561.00    1.89025   1.48555    0.000
 4562.00    1.87031   1.48588    0.000
 4563.00    1.88335   1.48655    0.000
 4564.00    1.91208   1.48736    0.000
 4565.00    1.94699   1.48809    0.000
 4566.00    1.98445   1.48884    0.000
 4567.00    1.94762   1.48964    0.000
 4568.00    1.88475   1.49035    0.000
 4569.00    1.89670   1.49098    0.000
 4570.00    1.93075   1.49164    0.000
 4571.00    1.93619   1.49227    0.000
 4572.00    1.93462   1.49278    0.000
 4573.00    1.92675   1.49319    0.000
 4574.00    1.91764   1.49356    0.000
 4575.00    1.90572   1.49393    0.000
 4576.00    1.89337   1.49422    0.000
 4577.00    1.91756   1.49437    0.000
 4578.00    1.94594   1.49448    0.000
 4579.00    1.93029   1.49465    0.000
 4580.00    1.91125   1.49470    0.000
 4581.00    1.94066   1.49457    0.000
 4582.00    1.97208   1.49458    0.000
 4583.00    1.97745   1.49487    0.000
 4584.00    1.98179   1.49516    0.000
 4585.00    1.95109   1.49537    0.000
 4586.00    1.92512   1.49579    0.000
 4587.00    1.98158   1.49646    0.000
 4588.00    2.02890   1.49720    0.000
 4589.00    1.97837   1.49778    0.000
 4590.00    1.93925   1.49830    0.000
 4591.00    1.98642   1.49892    0.000
 4592.00    2.01932   1.49956    0.000
 4593.00    1.97021   1.50002    0.000
 4594.00    1.92450   1.50038    0.000
 4595.00    1.89431   1.50081    0.000
 4596.00    1.87583   1.50126    0.000
 4597.00    1.90120   1.50163    0.000
 4598.00    1.91550   1.50204    0.000
 4599.00    1.89517   1.50253    0.000
 4600.00    1.88241   1.50295    0.000
 4601.00    1.88976   1.50332    0.000
 4602.00    1.90546   1.50380    0.000
 4603.00    1.94016   1.50432    0.000
 4604.00    1.96496   1.50474    0.000
 4605.00    1.97024   1.50517    0.000
 4606.00    1.96830   1.50566    0.000
 4607.00    1.95392   1.50609    0.000
 4608.00    1.95649   1.50635    0.000
 4609.00    1.98456   1.50652    0.000
 4610.00    1.97670   1.50675    0.000
 4611.00    1.92130   1.50708    0.000
 4612.00    1.91066   1.50747    0.000
 4613.00    1.95219   1.50792    0.000
 4614.00    1.97310   1.50852    0.000
 4615.00    1.97283   1.50922    0.000
 4616.00    1.94963   1.50985    0.000
 4617.00    1.90566   1.51032    0.000
 4618.00    1.89881   1.51061    0.000
 4619.00    1.92161   1.51073    0.000
 4620.00    1.94593   1.51071    0.000
 4621.00    1.97133   1.51052    0.000
 4622.00    1.96229   1.51026    0.000
 4623.00    1.93202   1.51030    0.000
 4624.00    1.92414   1.51062    0.000
 4625.00    1.92830   1.51095    0.000
 4626.00    1.91447   1.51140    0.000
 4627.00    1.89221   1.51218    0.000
 4628.00    1.92569   1.51286    0.000
 4629.00    1.98164   1.51320    0.000
 4630.00    1.97832   1.51352    0.000
 4631.00    1.95461   1.51380    0.000
 4632.00    1.94383   1.51365    0.000
 4633.00    1.93679   1.51331    0.000
 4634.00    1.92510   1.51313    0.000
 4635.00    1.91228   1.51279    0.000
 4636.00    1.93027   1.51195    0.000
 4637.00    1.95420   1.51079    0.000
 4638.00    1.89662   1.50983    0.000
 4639.00    1.82680   1.50913    0.000
 4640.00    1.83863   1.50843    0.000
 4641.00    1.85943   1.50805    0.000
 4642.00    1.90413   1.50869    0.000
 4643.00    1.95057   1.51024    0.000
 4644.00    1.92120   1.51211    0.000
 4645.00    1.88897   1.51416    0.000
 4646.00    1.94328   1.51649    0.000
 4647.00    1.99577   1.51871    0.000
 4648.00    1.96451   1.52042    0.000
 4649.00    1.93664   1.52160    0.000
 4650.00    1.96425   1.52245    0.000
 4651.00    1.98714   1.52290    0.000
 4652.00    1.96171   1.52298    0.000
 4653.00    1.93334   1.52301    0.000
 4654.00    1.88346   1.52310    0.000
 4655.00    1.84141   1.52310    0.000
 4656.00    1.84316   1.52315    0.000
 4657.00    1.85579   1.52355    0.000
 4658.00    1.91691   1.52414    0.000
 4659.00    1.96547   1.52467    0.000
 4660.00    1.96799   1.52522    0.000
 4661.00    1.97453   1.52592    0.000
 4662.00    1.99341   1.52647    0.000
 4663.00    1.98772   1.52667    0.000
 4664.00    1.91799   1.52661    0.000
 4665.00    1.87295   1.52643    0.000
 4666.00    1.88328   1.52589    0.000
 4667.00    1.89837   1.52473    0.000
 4668.00    1.92270   1.52283    0.000
 4669.00    1.90874   1.51990    0.000
 4670.00    1.82993   1.51541    0.000
 4671.00    1.81808   1.50831    0.000
 4672.00    1.90559   1.49747    0.000
 4673.00    1.94747   1.48422    0.000
 4674.00    1.92983   1.47055    0.000
 4675.00    1.93260   1.45511    0.000
 4676.00    1.95882   1.43825    0.000
 4677.00    1.94776   1.42777    0.000
 4678.00    1.89892   1.42713    0.000
 4679.00    1.87415   1.43085    0.000
 4680.00    1.87091   1.43782    0.000
 4681.00    1.89441   1.45221    0.000
 4682.00    1.93897   1.47071    0.000
 4683.00    1.93352   1.48718    0.000
 4684.00    1.89343   1.50073    0.000
 4685.00    1.87169   1.51250    0.000
 4686.00    1.86110   1.52144    0.000
 4687.00    1.86092   1.52738    0.000
 4688.00    1.86626   1.53126    0.000
 4689.00    1.86543   1.53373    0.000
 4690.00    1.86176   1.53528    0.000
 4691.00    1.85486   1.53636    0.000
 4692.00    1.84668   1.53716    0.000
 4693.00    1.88142   1.53768    0.000
 4694.00    1.93063   1.53820    0.000
 4695.00    1.92810   1.53867    0.000
 4696.00    1.91089   1.53886    0.000
 4697.00    1.90561   1.53883    0.000
 4698.00    1.90312   1.53865    0.000
 4699.00    1.86441   1.53758    0.000
 4700.00    1.81888   1.53537    0.000
 4701.00    1.86605   1.53305    0.000
 4702.00    1.92671   1.53114    0.000
 4703.00    1.91923   1.52762    0.000
 4704.00    1.90455   1.52396    0.000
 4705.00    1.89100   1.52355    0.000
 4706.00    1.87753   1.52554    0.000
 4707.00    1.86770   1.52652    0.000
 4708.00    1.85801   1.52878    0.000
 4709.00    1.90002   1.53345    0.000
 4710.00    1.93977   1.53810    0.000
 4711.00    1.90319   1.54114    0.000
 4712.00    1.86919   1.54386    0.000
 4713.00    1.87473   1.54628    0.000
 4714.00    1.87789   1.54784    0.000
 4715.00    1.85772   1.54880    0.000
 4716.00    1.84006   1.54951    0.000
 4717.00    1.84024   1.55005    0.000
 4718.00    1.84431   1.55045    0.000
 4719.00    1.86961   1.55081    0.000
 4720.00    1.88844   1.55116    0.000
 4721.00    1.87912   1.55150    0.000
 4722.00    1.87319   1.55185    0.000
 4723.00    1.87944   1.55221    0.000
 4724.00    1.88732   1.55261    0.000
 4725.00    1.90006   1.55297    0.000
 4726.00    1.90039   1.55335    0.000
 4727.00    1.86890   1.55370    0.000
 4728.00    1.85472   1.55409    0.000
 4729.00    1.87870   1.55443    0.000
 4730.00    1.89748   1.55479    0.000
 4731.00    1.90633   1.55515    0.000
 4732.00    1.90484   1.55553    0.000
 4733.00    1.88607   1.55592    0.000
 4734.00    1.88333   1.55629    0.000
 4735.00    1.90401   1.55668    0.000
 4736.00    1.91604   1.55707    0.000
 4737.00    1.91698   1.55745    0.000
 4738.00    1.91949   1.55781    0.000
 4739.00    1.92380   1.55815    0.000
 4740.00    1.91887   1.55850    0.000
 4741.00    1.90473   1.55883    0.000
 4742.00    1.89164   1.55913    0.000
 4743.00    1.87947   1.55943    0.000
 4744.00    1.88037   1.55977    0.000
 4745.00    1.89141   1.56009    0.000
 4746.00    1.88465   1.56041    0.000
 4747.00    1.86572   1.56076    0.000
 4748.00    1.85371   1.56111    0.000
 4749.00    1.84583   1.56145    0.000
 4750.00    1.86486   1.56180    0.000
 4751.00    1.89792   1.56213    0.000
 4752.00    1.90548   1.56245    0.000
 4753.00    1.90151   1.56278    0.000
 4754.00    1.87527   1.56309    0.000
 4755.00    1.84036   1.56338    0.000
 4756.00    1.82192   1.56371    0.000
 4757.00    1.80895   1.56404    0.000
 4758.00    1.81707   1.56436    0.000
 4759.00    1.83104   1.56468    0.000
 4760.00    1.87183   1.56502    0.000
 4761.00    1.91875   1.56536    0.191
 4762.00    1.89631   1.56569    0.191
 4763.00    1.86118   1.56599    0.190
 4764.00    1.87834   1.56631    0.191
 4765.00    1.90286   1.56666    0.193
 4766.00    1.87947   1.56697    0.191
 4767.00    1.85123   1.56727    0.189
 4768.00    1.86152   1.56760    0.188
 4769.00    1.87430   1.56794    0.187
 4770.00    1.83351   1.56821    0.186
 4771.00    1.79119   1.56849    0.185
 4772.00    1.79901   1.56881    0.185
 4773.00    1.80827   1.56909    0.185
 4774.00    1.85908   1.56933    0.186
 4775.00    1.90145   1.56963    0.186
 4776.00    1.82176   1.56994    0.184
 4777.00    1.74494   1.57020    0.182
 4778.00    1.69514   1.57050    0.179
 4779.00    1.64059   1.57085    0.176
 4780.00    1.55348   1.57118    0.173
 4781.00    1.48005   1.57150    0.169
 4782.00    1.47905   1.57189    0.169
 4783.00    1.47549   1.57225    0.169
 4784.00    1.46097   1.57263    0.169
 4785.00    1.46358   1.57302    0.170
 4786.00    1.52642   1.57341    0.171
 4787.00    1.58271   1.57378    0.173
 4788.00    1.61966   1.57413    0.177
 4789.00    1.65410   1.57448    0.179
 4790.00    1.68222   1.57476    0.180
 4791.00    1.71061   1.57498    0.180
 4792.00    1.73960   1.57519    0.180
 4793.00    1.76697   1.57539    0.179
 4794.00    1.79126   1.57550    0.180
 4795.00    1.81658   1.57565    0.180
 4796.00    1.84361   1.57585    0.180
 4797.00    1.85056   1.57600    0.179
 4798.00    1.82860   1.57615    0.179
 4799.00    1.80813   1.57635    0.178
 4800.00    1.78958   1.57650    0.176
 4801.00    1.78100   1.57656    0.176
 4802.00    1.78355   1.57667    0.177
 4803.00    1.80820   1.57676    0.178
 4804.00    1.85462   1.57674    0.178
 4805.00    1.85922   1.57677    0.178
 4806.00    1.82750   1.57687    0.178
 4807.00    1.79690   1.57686    0.178
 4808.00    1.76717   1.57685    0.178
 4809.00    1.78709   1.57696    0.177
 4810.00    1.84040   1.57702    0.176
 4811.00    1.85792   1.57695    0.176
 4812.00    1.85433   1.57699    0.177
 4813.00    1.83420   1.57705    0.177
 4814.00    1.80557   1.57698    0.176
 4815.00    1.82996   1.57689    0.177
 4816.00    1.87795   1.57680    0.178
 4817.00    1.88539   1.57661    0.179
 4818.00    1.87733   1.57637    0.179
 4819.00    1.85261   1.57611    0.179
 4820.00    1.82249   1.57573    0.178
 4821.00    1.82252   1.57536    0.178
 4822.00    1.83077   1.57507    0.178
 4823.00    1.84241   1.57465    0.178
 4824.00    1.85481   1.57412    0.178
 4825.00    1.85187   1.57362    0.180
 4826.00    1.84619   1.57301    0.182
 4827.00    1.85532   1.57213    0.181
 4828.00    1.86646   1.57113    0.179
 4829.00    1.86758   1.57001    0.179
 4830.00    1.86771   1.56860    0.179
 4831.00    1.85380   1.56694    0.179
 4832.00    1.83904   1.56507    0.179
 4833.00    1.85679   1.56287    0.178
 4834.00    1.87525   1.56024    0.177
 4835.00    1.86704   1.55717    0.178
 4836.00    1.85966   1.55354    0.178
 4837.00    1.87397   1.54918    0.178
 4838.00    1.88446   1.54393    0.178
 4839.00    1.84268   1.53752    0.177
 4840.00    1.80298   1.52966    0.176
 4841.00    1.78208   1.51987    0.174
 4842.00    1.76745   1.50756    0.173
 4843.00    1.79451   1.49205    0.173
 4844.00    1.81641   1.47263    0.174
 4845.00    1.81169   1.44845    0.175
 4846.00    1.81302   1.41904    0.177
 4847.00    1.83957   1.38488    0.177
 4848.00    1.85884   1.34679    0.000
 4849.00    1.85301   1.30650    0.000
 4850.00    1.84812   1.26801    0.000
 4851.00    1.84595   1.23595    0.000
 4852.00    1.84526   1.21254    0.000
 4853.00    1.84823   1.20098    0.000
 4854.00    1.83899   1.20515    0.000
 4855.00    1.80372   1.22369    0.000
 4856.00    1.76806   1.25225    0.000
 4857.00    1.73169   1.28860    0.000
 4858.00    1.72274   1.32952    0.000
 4859.00    1.75819   1.36980    0.000
 4860.00    1.76797   1.40651    0.000
 4861.00    1.74129   1.43881    0.000
 4862.00    1.73374   1.46608    0.000
 4863.00    1.75010   1.48830    0.000
 4864.00    1.76235   1.50622    0.000
 4865.00    1.77007   1.52059    0.000
 4866.00    1.77469   1.53218    0.000
 4867.00    1.77631   1.54165    0.000
 4868.00    1.77211   1.54945    0.000
 4869.00    1.76292   1.55597    0.000
 4870.00    1.76654   1.56147    0.000
 4871.00    1.77981   1.56619    0.000
 4872.00    1.80081   1.57022    0.000
 4873.00    1.82694   1.57371    0.000
 4874.00    1.84361   1.57680    0.000
 4875.00    1.85481   1.57947    0.181
 4876.00    1.83679   1.58185    0.180
 4877.00    1.80399   1.58399    0.179
 4878.00    1.80507   1.58592    0.178
 4879.00    1.82097   1.58764    0.177
 4880.00    1.82143   1.58922    0.176
 4881.00    1.81607   1.59070    0.176
 4882.00    1.83317   1.59203    0.177
 4883.00    1.85743   1.59328    0.177
 4884.00    1.85947   1.59451    0.179
 4885.00    1.85559   1.59565    0.181
 4886.00    1.84717   1.59668    0.180
 4887.00    1.83776   1.59768    0.178
 4888.00    1.81999   1.59858    0.179
 4889.00    1.80077   1.59940    0.180
 4890.00    1.82236   1.60016    0.180
 4891.00    1.84932   1.60083    0.180
 4892.00    1.84834   1.60145    0.178
 4893.00    1.84477   1.60207    0.176
 4894.00    1.85860   1.60264    0.177
 4895.00    1.87341   1.60313    0.178
 4896.00    1.81985   1.60365    0.178
 4897.00    1.76542   1.60416    0.179
 4898.00    1.78655   1.60458    0.178
 4899.00    1.80659   1.60498    0.178
 4900.00    1.80051   1.60535    0.178
 4901.00    1.79558   1.60560    0.179
 4902.00    1.80543   1.60565    0.176
 4903.00    1.81223   1.60547    0.174
 4904.00    1.79244   1.60484    0.176
 4905.00    1.77470   1.60368    0.178
 4906.00    1.77022   1.60157    0.177
 4907.00    1.76903   1.59842    0.176
 4908.00    1.78440   1.59438    0.178
 4909.00    1.80219   1.58937    0.180
 4910.00    1.82982   1.58317    0.181
 4911.00    1.84406   1.57744    0.181
 4912.00    1.81304   1.57341    0.180
 4913.00    1.80258   1.56963    0.179
 4914.00    1.85062   1.56819    0.181
 4915.00    1.87239   1.57101    0.181
 4916.00    1.83023   1.57599    0.178
 4917.00    1.80221   1.58103    0.176
 4918.00    1.80389   1.58766    0.176
 4919.00    1.80009   1.59468    0.176
 4920.00    1.78630   1.60025    0.175
 4921.00    1.77169   1.60477    0.175
 4922.00    1.75578   1.60845    0.175
 4923.00    1.75698   1.61106    0.176
 4924.00    1.78211   1.61273    0.177
 4925.00    1.80883   1.61389    0.177
 4926.00    1.83749   1.61470    0.178
 4927.00    1.83617   1.61526    0.178
 4928.00    1.80230   1.61565    0.177
 4929.00    1.78781   1.61595    0.176
 4930.00    1.79189   1.61622    0.176
 4931.00    1.80705   1.61644    0.175
 4932.00    1.83156   1.61667    0.174
 4933.00    1.81777   1.61695    0.173
 4934.00    1.77550   1.61725    0.172
 4935.00    1.74777   1.61758    0.171
 4936.00    1.72954   1.61802    0.171
 4937.00    1.74363   1.61846    0.172
 4938.00    1.77621   1.61886    0.174
 4939.00    1.78244   1.61931    0.174
 4940.00    1.77557   1.61969    0.000
 4941.00    1.77655   1.62005    0.000
 4942.00    1.78090   1.62036    0.000
 4943.00    1.78878   1.62059    0.000
 4944.00    1.79797   1.62081    0.000
 4945.00    1.81447   1.62101    0.000
 4946.00    1.83326   1.62116    0.000
 4947.00    1.85187   1.62134    0.000
 4948.00    1.87044   1.62155    0.000
 4949.00    1.85127   1.62175    0.000
 4950.00    1.82407   1.62202    0.000
 4951.00    1.85146   1.62234    0.000
 4952.00    1.88804   1.62264    0.000
 4953.00    1.87454   1.62298    0.000
 4954.00    1.85467   1.62333    0.000
 4955.00    1.80266   1.62361    0.000
 4956.00    1.74781   1.62391    0.000
 4957.00    1.76147   1.62420    0.000
 4958.00    1.77875   1.62442    0.000
 4959.00    1.79600   1.62467    0.000
 4960.00    1.81278   1.62493    0.000
 4961.00    1.79386   1.62514    0.000
 4962.00    1.77569   1.62540    0.000
 4963.00    1.77376   1.62566    0.000
 4964.00    1.77226   1.62589    0.000
 4965.00    1.77601   1.62614    0.000
 4966.00    1.78088   1.62637    0.000
 4967.00    1.79511   1.62656    0.000
 4968.00    1.80556   1.62675    0.000
 4969.00    1.79246   1.62689    0.000
 4970.00    1.77899   1.62700    0.000
 4971.00    1.76374   1.62707    0.000
 4972.00    1.75399   1.62715    0.000
 4973.00    1.76611   1.62728    0.000
 4974.00    1.77953   1.62741    0.000
 4975.00    1.79723   1.62759    0.000
 4976.00    1.80490   1.62786    0.000
 4977.00    1.78449   1.62816    0.000
 4978.00    1.77647   1.62848    0.000
 4979.00    1.79809   1.62881    0.000
 4980.00    1.81551   1.62910    0.000
 4981.00    1.82425   1.62940    0.000
 4982.00    1.82131   1.62964    0.000
 4983.00    1.79738   1.62985    0.000
 4984.00    1.78061   1.63008    0.000
 4985.00    1.77507   1.63029    0.000
 4986.00    1.76773   1.63046    0.000
 4987.00    1.75792   1.63058    0.000
 4988.00    1.75737   1.63072    0.000
 4989.00    1.76806   1.63075    0.000
 4990.00    1.77586   1.63067    0.000
 4991.00    1.78055   1.63064    0.000
 4992.00    1.77790   1.63065    0.000
 4993.00    1.76833   1.63054    0.000
 4994.00    1.76534   1.63049    0.000
 4995.00    1.76783   1.63062    0.000
 4996.00    1.76112   1.63065    0.000
 4997.00    1.74767   1.63057    0.000
 4998.00    1.74746   1.63040    0.000
 4999.00    1.75576   1.62999    0.000
 5000.00    1.76676   1.62906    0.000
 5001.00    1.77929   1.62716    0.000
 5002.00    1.78024   1.62505    0.000
 5003.00    1.77552   1.62267    0.000
 5004.00    1.78803   1.61853    0.000
 5005.00    1.80783   1.61513    0.000
 5006.00    1.80135   1.61381    0.000
 5007.00    1.78534   1.61198    0.000
 5008.00    1.76852   1.61114    0.000
 5009.00    1.75146   1.61363    0.000
 5010.00    1.75971   1.61673    0.000
 5011.00    1.77443   1.61946    0.000
 5012.00    1.76342   1.62346    0.000
 5013.00    1.74707   1.62746    0.000
 5014.00    1.73963   1.63016    0.000
 5015.00    1.73365   1.63237    0.000
 5016.00    1.72965   1.63424    0.000
 5017.00    1.72588   1.63536    0.000
 5018.00    1.74086   1.63602    0.000
 5019.00    1.75743   1.63656    0.000
 5020.00    1.74079   1.63691    0.000
 5021.00    1.72254   1.63713    0.000
 5022.00    1.75978   1.63736    0.000
 5023.00    1.79710   1.63756    0.000
 5024.00    1.78701   1.63771    0.000
 5025.00    1.77709   1.63787    0.000
 5026.00    1.77073   1.63801    0.000
 5027.00    1.76324   1.63805    0.000
 5028.00    1.74245   1.63811    0.000
 5029.00    1.72693   1.63806    0.170
 5030.00    1.75391   1.63780    0.170
 5031.00    1.77948   1.63763    0.170
 5032.00    1.79647   1.63733    0.168
 5033.00    1.80619   1.63652    0.167
 5034.00    1.78108   1.63584    0.168
 5035.00    1.76060   1.63528    0.168
 5036.00    1.75808   1.63415    0.170
 5037.00    1.75698   1.63316    0.171
 5038.00    1.76048   1.63300    0.169
 5039.00    1.75926   1.63295    0.168
 5040.00    1.74505   1.63300    0.166
 5041.00    1.74098   1.63407    0.165
 5042.00    1.76074   1.63562    0.166
 5043.00    1.77626   1.63683    0.166
 5044.00    1.78316   1.63811    0.165
 5045.00    1.78417   1.63947    0.164
 5046.00    1.77477   1.64040    0.164
 5047.00    1.76385   1.64095    0.165
 5048.00    1.75058   1.64142    0.165
 5049.00    1.74598   1.64187    0.165
 5050.00    1.75316   1.64227    0.165
 5051.00    1.76355   1.64261    0.165
 5052.00    1.77780   1.64300    0.167
 5053.00    1.77347   1.64346    0.167
 5054.00    1.74955   1.64381    0.166
 5055.00    1.74741   1.64410    0.164
 5056.00    1.76555   1.64441    0.162
 5057.00    1.77840   1.64464    0.162
 5058.00    1.78689   1.64483    0.163
 5059.00    1.78029   1.64503    0.164
 5060.00    1.76280   1.64519    0.164
 5061.00    1.75743   1.64534    0.163
 5062.00    1.75974   1.64550    0.162
 5063.00    1.75967   1.64564    0.162
 5064.00    1.75828   1.64580    0.163
 5065.00    1.75736   1.64597    0.164
 5066.00    1.75667   1.64612    0.164
 5067.00    1.75364   1.64630    0.163
 5068.00    1.74964   1.64650    0.161
 5069.00    1.72813   1.64666    0.159
 5070.00    1.70039   1.64683    0.158
 5071.00    1.72048   1.64703    0.159
 5072.00    1.75497   1.64719    0.162
 5073.00    1.78056   1.64735    0.163
 5074.00    1.80391   1.64756    0.164
 5075.00    1.78968   1.64773    0.164
 5076.00    1.76784   1.64790    0.164
 5077.00    1.74955   1.64812    0.164
 5078.00    1.73182   1.64831    0.165
 5079.00    1.71500   1.64849    0.162
 5080.00    1.69829   1.64871    0.158
 5081.00    1.69389   1.64889    0.157
 5082.00    1.69048   1.64905    0.157
 5083.00    1.67393   1.64924    0.155
 5084.00    1.65678   1.64938    0.154
 5085.00    1.60333   1.64949    0.154
 5086.00    1.55104   1.64961    0.154
 5087.00    1.57801   1.64970    0.151
 5088.00    1.60411   1.64978    0.148
 5089.00    1.61412   1.64987    0.149
 5090.00    1.62465   1.64995    0.149
 5091.00    1.64093   1.65007    0.151
 5092.00    1.65932   1.65022    0.154
 5093.00    1.69418   1.65036    0.156
 5094.00    1.72561   1.65054    0.158
 5095.00    1.73688   1.65074    0.161
 5096.00    1.74072   1.65093    0.163
 5097.00    1.70992   1.65111    0.161
 5098.00    1.68068   1.65130    0.159
 5099.00    1.65739   1.65146    0.157
 5100.00    1.64137   1.65157    0.156
 5101.00    1.64847   1.65170    0.156
 5102.00    1.65100   1.65182    0.156
 5103.00    1.64123   1.65190    0.156
 5104.00    1.63887   1.65202    0.157
 5105.00    1.65364   1.65216    0.161
 5106.00    1.67506   1.65229    0.163
 5107.00    1.70979   1.65245    0.162
 5108.00    1.73047   1.65264    0.161
 5109.00    1.72667   1.65281    0.160
 5110.00    1.71193   1.65298    0.159
 5111.00    1.68049   1.65314    0.159
 5112.00    1.66796   1.65325    0.159
 5113.00    1.68075   1.65335    0.162
 5114.00    1.70424   1.65344    0.164
 5115.00    1.74036   1.65350    0.164
 5116.00    1.75863   1.65355    0.165
 5117.00    1.75831   1.65364    0.166
 5118.00    1.75301   1.65373    0.166
 5119.00    1.74314   1.65382    0.167
 5120.00    1.73298   1.65396    0.166
 5121.00    1.72260   1.65411    0.166
 5122.00    1.71704   1.65427    0.165
 5123.00    1.71491   1.65443    0.163
 5124.00    1.69812   1.65461    0.162
 5125.00    1.67216   1.65477    0.163
 5126.00    1.67689   1.65491    0.163
 5127.00    1.69838   1.65504    0.161
 5128.00    1.69439   1.65517    0.161
 5129.00    1.67832   1.65525    0.162
 5130.00    1.70205   1.65531    0.163
 5131.00    1.74206   1.65540    0.164
 5132.00    1.75831   1.65544    0.163
 5133.00    1.76625   1.65547    0.160
 5134.00    1.74696   1.65556    0.161
 5135.00    1.71963   1.65564    0.163
 5136.00    1.71271   1.65571    0.163
 5137.00    1.71077   1.65588    0.163
 5138.00    1.71213   1.65601    0.163
 5139.00    1.71414   1.65615    0.162
 5140.00    1.71179   1.65635    0.161
 5141.00    1.70878   1.65650    0.159
 5142.00    1.69405   1.65663    0.160
 5143.00    1.67799   1.65683    0.160
 5144.00    1.66693   1.65698    0.160
 5145.00    1.65625   1.65712    0.160
 5146.00    1.66242   1.65732    0.161
 5147.00    1.66928   1.65750    0.162
 5148.00    1.67181   1.65767    0.161
 5149.00    1.67459   1.65785    0.159
 5150.00    1.68956   1.65800    0.158
 5151.00    1.70493   1.65811    0.158
 5152.00    1.72736   1.65818    0.160
 5153.00    1.74611   1.65817    0.163
 5154.00    1.72570   1.65809    0.161
 5155.00    1.70882   1.65799    0.159
 5156.00    1.71852   1.65781    0.159
 5157.00    1.72582   1.65760    0.158
 5158.00    1.71944   1.65745    0.159
 5159.00    1.71607   1.65730    0.160
 5160.00    1.72643   1.65724    0.159
 5161.00    1.73422   1.65729    0.159
 5162.00    1.73243   1.65739    0.158
 5163.00    1.72967   1.65761    0.159
 5164.00    1.72389   1.65792    0.160
 5165.00    1.71473   1.65822    0.161
 5166.00    1.69663   1.65853    0.165
 5167.00    1.68157   1.65887    0.167
 5168.00    1.67343   1.65914    0.166
 5169.00    1.66922   1.65933    0.166
 5170.00    1.67273   1.65949    0.166
 5171.00    1.67401   1.65962    0.166
 5172.00    1.67148   1.65966    0.166
 5173.00    1.66808   1.65970    0.165
 5174.00    1.66336   1.65976    0.162
 5175.00    1.66776   1.65980    0.161
 5176.00    1.68421   1.65990    0.162
 5177.00    1.68754   1.66003    0.161
 5178.00    1.67561   1.66017    0.159
 5179.00    1.64249   1.66035    0.157
 5180.00    1.58764   1.66053    0.157
 5181.00    1.56608   1.66066    0.156
 5182.00    1.57464   1.66082    0.156
 5183.00    1.57259   1.66094    0.157
 5184.00    1.56208   1.66100    0.158
 5185.00    1.57575   1.66109    0.159
 5186.00    1.60640   1.66116    0.159
 5187.00    1.61753   1.66111    0.158
 5188.00    1.61666   1.66109    0.157
 5189.00    1.62516   1.66109    0.158
 5190.00    1.63871   1.66092    0.000
 5191.00    1.66189   1.66080    0.000
 5192.00    1.68957   1.66077    0.000
 5193.00    1.69729   1.66064    0.000
 5194.00    1.69698   1.66056    0.000
 5195.00    1.70051   1.66064    0.000
 5196.00    1.70535   1.66074    0.000
 5197.00    1.69602   1.66085    0.000
 5198.00    1.68259   1.66109    0.000
 5199.00    1.70444   1.66132    0.000
 5200.00    1.73472   1.66156    0.000
 5201.00    1.72191   1.66181    0.000
 5202.00    1.70080   1.66198    0.000
 5203.00    1.69360   1.66217    0.000
 5204.00    1.68849   1.66239    0.000
 5205.00    1.68712   1.66251    0.000
 5206.00    1.68616   1.66268    0.000
 5207.00    1.67756   1.66292    0.000
 5208.00    1.66841   1.66309    0.000
 5209.00    1.69274   1.66328    0.000
 5210.00    1.71832   1.66348    0.000
 5211.00    1.70954   1.66364    0.158
 5212.00    1.70065   1.66375    0.156
 5213.00    1.69311   1.66376    0.155
 5214.00    1.68712   1.66382    0.154
 5215.00    1.70627   1.66377    0.155
 5216.00    1.72327   1.66365    0.156
 5217.00    1.71826   1.66367    0.156
 5218.00    1.71346   1.66360    0.155
 5219.00    1.71023   1.66358    0.156
 5220.00    1.70842   1.66369    0.156
 5221.00    1.71453   1.66373    0.155
 5222.00    1.71584   1.66386    0.154
 5223.00    1.69577   1.66401    0.155
 5224.00    1.68657   1.66411    0.156
 5225.00    1.71707   1.66428    0.158
 5226.00    1.73861   1.66443    0.159
 5227.00    1.73269   1.66456    0.157
 5228.00    1.72300   1.66477    0.156
 5229.00    1.70349   1.66494    0.157
 5230.00    1.68882   1.66513    0.157
 5231.00    1.68496   1.66536    0.155
 5232.00    1.68684   1.66554    0.154
 5233.00    1.69985   1.66577    0.154
 5234.00    1.70654   1.66592    0.153
 5235.00    1.70256   1.66611    0.152
 5236.00    1.70475   1.66625    0.152
 5237.00    1.71608   1.66628    0.153
 5238.00    1.72211   1.66634    0.153
 5239.00    1.72125   1.66631    0.152
 5240.00    1.71560   1.66624    0.151
 5241.00    1.70448   1.66612    0.150
 5242.00    1.69522   1.66602    0.150
 5243.00    1.68784   1.66596    0.151
 5244.00    1.68977   1.66584    0.151
 5245.00    1.70000   1.66582    0.152
 5246.00    1.70892   1.66586    0.152
 5247.00    1.71681   1.66579    0.152
 5248.00    1.71055   1.66584    0.152
 5249.00    1.69450   1.66589    0.152
 5250.00    1.68579   1.66581    0.152
 5251.00    1.68153   1.66582    0.153
 5252.00    1.67732   1.66581    0.154
 5253.00    1.67314   1.66571    0.155
 5254.00    1.67839   1.66564    0.155
 5255.00    1.68798   1.66563    0.154
 5256.00    1.69864   1.66555    0.154
 5257.00    1.70973   1.66547    0.154
 5258.00    1.70542   1.66549    0.154
 5259.00    1.69592   1.66545    0.155
 5260.00    1.68809   1.66541    0.155
 5261.00    1.68074   1.66545    0.155
 5262.00    1.67733   1.66548    0.156
 5263.00    1.67484   1.66549    0.158
 5264.00    1.67370   1.66561    0.160
 5265.00    1.67282   1.66576    0.162
 5266.00    1.66751   1.66585    0.165
 5267.00    1.66156   1.66606    0.167
 5268.00    1.66045   1.66629    0.167
 5269.00    1.65984   1.66641    0.167
 5270.00    1.64963   1.66661    0.166
 5271.00    1.63877   1.66681    0.165
 5272.00    1.67764   1.66688    0.164
 5273.00    1.71819   1.66702    0.163
 5274.00    1.72742   1.66716    0.163
 5275.00    1.73545   1.66721    0.162
 5276.00    1.70599   1.66735    0.159
 5277.00    1.67859   1.66748    0.156
 5278.00    1.68275   1.66754    0.157
 5279.00    1.68720   1.66769    0.158
 5280.00    1.69455   1.66778    0.156
 5281.00    1.70035   1.66781    0.154
 5282.00    1.69531   1.66791    0.153
 5283.00    1.68986   1.66791    0.153
 5284.00    1.68224   1.66789    0.150
 5285.00    1.67881   1.66794    0.149
 5286.00    1.69353   1.66788    0.150
 5287.00    1.70414   1.66786    0.151
 5288.00    1.70006   1.66788    0.151
 5289.00    1.69882   1.66784    0.151
 5290.00    1.70612   1.66787    0.151
 5291.00    1.70803   1.66791    0.150
 5292.00    1.69614   1.66794    0.148
 5293.00    1.69162   1.66800    0.148
 5294.00    1.70328   1.66807    0.150
 5295.00    1.71272   1.66813    0.151
 5296.00    1.71789   1.66814    0.151
 5297.00    1.71600   1.66820    0.151
 5298.00    1.70231   1.66819    0.150
 5299.00    1.70033   1.66814    0.150
 5300.00    1.71542   1.66814    0.151
 5301.00    1.72611   1.66804    0.151
 5302.00    1.73114   1.66794    0.151
 5303.00    1.73521   1.66787    0.150
 5304.00    1.73820   1.66770    0.150
 5305.00    1.72962   1.66757    0.149
 5306.00    1.70948   1.66747    0.148
 5307.00    1.70579   1.66729    0.148
 5308.00    1.71658   1.66717    0.149
 5309.00    1.71232   1.66715    0.148
 5310.00    1.69640   1.66702    0.147
 5311.00    1.69282   1.66700    0.147
 5312.00    1.69765   1.66707    0.148
 5313.00    1.69934   1.66701    0.150
 5314.00    1.69917   1.66705    0.152
 5315.00    1.69305   1.66711    0.150
 5316.00    1.68384   1.66710    0.147
 5317.00    1.67335   1.66712    0.146
 5318.00    1.66229   1.66715    0.148
 5319.00    1.67846   1.66720    0.149
 5320.00    1.70523   1.66725    0.151
 5321.00    1.68096   1.66729    0.151
 5322.00    1.63981   1.66742    0.150
 5323.00    1.62246   1.66751    0.150
 5324.00    1.61170   1.66758    0.151
 5325.00    1.62400   1.66771    0.152
 5326.00    1.64157   1.66775    0.152
 5327.00    1.66727   1.66779    0.152
 5328.00    1.69445   1.66784    0.152
 5329.00    1.69842   1.66779    0.152
 5330.00    1.69913   1.66781    0.152
 5331.00    1.70667   1.66777    0.153
 5332.00    1.71489   1.66772    0.153
 5333.00    1.72841   1.66773    0.152
 5334.00    1.74228   1.66768    0.150
 5335.00    1.70424   1.66768    0.148
 5336.00    1.66473   1.66772    0.147
 5337.00    1.65933   1.66775    0.147
 5338.00    1.65455   1.66784    0.148
 5339.00    1.66749   1.66792    0.148
 5340.00    1.67967   1.66803    0.148
 5341.00    1.68097   1.66816    0.147
 5342.00    1.68075   1.66825    0.146
 5343.00    1.66636   1.66839    0.145
 5344.00    1.65575   1.66848    0.145
 5345.00    1.67091   1.66857    0.144
 5346.00    1.67976   1.66864    0.143
 5347.00    1.65530   1.66867    0.143
 5348.00    1.63604   1.66874    0.143
 5349.00    1.63890   1.66871    0.144
 5350.00    1.64636   1.66872    0.144
 5351.00    1.66996   1.66870    0.146
 5352.00    1.68719   1.66861    0.147
 5353.00    1.68562   1.66858    0.145
 5354.00    1.68738   1.66847    0.143
 5355.00    1.69745   1.66836    0.143
 5356.00    1.70314   1.66828    0.142
 5357.00    1.69936   1.66814    0.142
 5358.00    1.69281   1.66805    0.141
 5359.00    1.68103   1.66796    0.141
 5360.00    1.67638   1.66786    0.142
 5361.00    1.68343   1.66782    0.141
 5362.00    1.67923   1.66777    0.142
 5363.00    1.65883   1.66776    0.142
 5364.00    1.65245   1.66776    0.143
 5365.00    1.66379   1.66775    0.145
 5366.00    1.66010   1.66779    0.146
 5367.00    1.63967   1.66778    0.146
 5368.00    1.63245   1.66777   -2.000
 5369.00    1.63823   1.66779   -2.000
 5370.00    1.64508   1.66773   -2.000
 5371.00    1.65286   1.66771   -2.000
 5372.00    1.65948   1.66767   -2.000
 5373.00    1.66521   1.66759   -2.000
 5374.00    1.66434   1.66757   -2.000
 5375.00    1.65904   1.66748   -2.000
 5376.00    1.67331   1.66740   -2.000
 5377.00    1.69909   1.66733   -2.000
 5378.00    1.70832   1.66720   -2.000
 5379.00    1.70905   1.66710   -2.000
 5380.00    1.69752   1.66692   -2.000
 5381.00    1.68055   1.66674   -2.000
 5382.00    1.68518   1.66653   -2.000
 5383.00    1.69806   1.66624    0.148
 5384.00    1.69923   1.66595    0.147
 5385.00    1.69659   1.66554    0.147
 5386.00    1.68190   1.66505    0.146
 5387.00    1.66394   1.66445    0.144
 5388.00    1.65723   1.66362    0.143
 5389.00    1.65302   1.66251    0.142
 5390.00    1.65931   1.66094    0.143
 5391.00    1.66747   1.65874    0.144
 5392.00    1.66187   1.65561    0.145
 5393.00    1.65441   1.65120    0.145
 5394.00    1.66385   1.64532    0.145
 5395.00    1.67493   1.63740    0.145
 5396.00    1.66545   1.62747    0.146
 5397.00    1.65472   1.61621    0.148
 5398.00    1.65661   1.60352    0.146
 5399.00    1.65880   1.59050    0.144
 5400.00    1.65740   1.57907    0.142
 5401.00    1.65664   1.57017    0.140
 5402.00    1.67242   1.56492    0.141
 5403.00    1.68653   1.56413    0.142
 5404.00    1.67792   1.56805    0.143
 5405.00    1.66720   1.57608    0.143
 5406.00    1.63752   1.58704    0.141
 5407.00    1.61378   1.59952    0.140
 5408.00    1.62929   1.61221    0.141
 5409.00    1.64536   1.62429    0.142
 5410.00    1.66425   1.63461    0.142
 5411.00    1.68046   1.64284    0.143
 5412.00    1.68552   1.64937    0.140
 5413.00    1.68389   1.65408    0.139
 5414.00    1.65925   1.65735    0.140
 5415.00    1.64650   1.65964    0.141
 5416.00    1.66816   1.66110    0.141
 5417.00    1.68232   1.66212    0.141
 5418.00    1.67797   1.66282    0.141
 5419.00    1.66349   1.66324    0.140
 5420.00    1.62743   1.66360    0.139
 5421.00    1.61421   1.66386    0.139
 5422.00    1.64322   1.66405    0.140
 5423.00    1.66031   1.66430    0.142
 5424.00    1.65812   1.66446    0.142
 5425.00    1.65580   1.66464    0.142
 5426.00    1.65328   1.66485    0.142
 5427.00    1.65372   1.66501    0.142
 5428.00    1.65786   1.66517    0.142
 5429.00    1.66279   1.66531    0.143
 5430.00    1.66859   1.66543    0.143
 5431.00    1.66760   1.66546    0.143
 5432.00    1.66002   1.66552    0.143
 5433.00    1.67533   1.66551    0.144
 5434.00    1.71019   1.66540    0.146
 5435.00    1.71011   1.66540    0.146
 5436.00    1.68373   1.66527    0.144
 5437.00    1.66521   1.66514    0.143
 5438.00    1.65190   1.66505    0.143
 5439.00    1.64928   1.66486    0.142
 5440.00    1.65285   1.66469    0.141
 5441.00    1.66365   1.66450    0.141
 5442.00    1.67808   1.66431    0.142
 5443.00    1.67325   1.66416    0.141
 5444.00    1.66001   1.66405    0.140
 5445.00    1.66166   1.66397    0.139
 5446.00    1.66891   1.66397    0.139
 5447.00    1.68349   1.66403    0.140
 5448.00    1.70041   1.66408    0.141
 5449.00    1.68838   1.66417    0.141
 5450.00    1.66867   1.66424    0.141
 5451.00    1.65375   1.66428    0.139
 5452.00    1.63987   1.66429    0.137
 5453.00    1.62836   1.66423    0.138
 5454.00    1.61726   1.66417    0.140
 5455.00    1.65170   1.66409    0.141
 5456.00    1.69212   1.66399    0.142
 5457.00    1.69396   1.66391    0.140
 5458.00    1.69223   1.66383    0.138
 5459.00    1.67884   1.66374    0.139
 5460.00    1.66478   1.66369    0.139
 5461.00    1.67131   1.66359    0.138
 5462.00    1.67827   1.66352    0.137
 5463.00    1.68211   1.66348    0.137
 5464.00    1.68573   1.66335    0.136
 5465.00    1.68446   1.66331    0.137
 5466.00    1.68333   1.66324    0.137
 5467.00    1.68400   1.66318    0.138
 5468.00    1.68393   1.66317    0.138
 5469.00    1.67748   1.66313    0.137
 5470.00    1.67416   1.66313    0.137
 5471.00    1.69090   1.66313    0.139
 5472.00    1.70053   1.66313    0.140
 5473.00    1.67456   1.66310    0.139
 5474.00    1.65167   1.66310    0.138
 5475.00    1.64131   1.66307    0.139
 5476.00    1.63012   1.66302    0.140
 5477.00    1.61618   1.66299    0.139
 5478.00    1.60769   1.66292   -2.000
 5479.00    1.61469   1.66287   -2.000
 5480.00    1.62336   1.66281   -2.000
 5481.00    1.63609   1.66275   -2.000
 5482.00    1.63774   1.66267   -2.000
 5483.00    1.61619   1.66260   -2.000
 5484.00    1.57990   1.66254   -2.000
 5485.00    1.51678   1.66246   -2.000
 5486.00    1.42942   1.66242   -2.000
 5487.00    1.30347   1.66233   -2.000
 5488.00    1.30943   1.66228   -2.000
 5489.00    1.49968   1.66222   -2.000
 5490.00    1.63568   1.66212   -2.000
 5491.00    1.70497   1.66206   -2.000
 5492.00    1.74954   1.66197   -2.000
 5493.00    1.76733   1.66183   -2.000
 5494.00    1.75506   1.66177   -2.000
 5495.00    1.71405   1.66161   -2.000
 5496.00    1.67416   1.66154   -2.000
 5497.00    1.63521   1.66146   -2.000
 5498.00    1.62207   1.66130   -2.000
 5499.00    1.62809   1.66131   -2.000
 5500.00    1.62024   1.66121   -2.000
 5501.00    1.60333   1.66117   -2.000
 5502.00    1.60629   1.66113    0.135
 5503.00    1.62059   1.66106    0.134
 5504.00    1.62426   1.66105    0.135
 5505.00    1.62265   1.66098    0.137
 5506.00    1.63203   1.66094    0.138
 5507.00    1.64613   1.66088    0.137
 5508.00    1.64023   1.66082    0.136
 5509.00    1.62697   1.66071    0.135
 5510.00    1.61164   1.66062    0.134
 5511.00    1.59566   1.66051    0.133
 5512.00    1.59052   1.66036    0.133
 5513.00    1.58820   1.66025    0.133
 5514.00    1.59045   1.66008    0.135
 5515.00    1.59366   1.65991    0.137
 5516.00    1.61787   1.65980    0.136
 5517.00    1.64561   1.65962    0.136
 5518.00    1.62870   1.65953    0.136
 5519.00    1.60614   1.65944    0.136
 5520.00    1.61082   1.65932    0.136
 5521.00    1.61790   1.65933    0.136
 5522.00    1.61090   1.65926    0.137
 5523.00    1.60315   1.65920    0.137
 5524.00    1.61238   1.65921    0.137
 5525.00    1.62155   1.65913    0.136
 5526.00    1.60244   1.65909    0.135
 5527.00    1.58471   1.65907    0.135
 5528.00    1.59668   1.65898    0.136
 5529.00    1.60804   1.65893    0.137
 5530.00    1.61198   1.65890    0.137
 5531.00    1.61610   1.65880    0.137
 5532.00    1.62178   1.65874    0.137
 5533.00    1.62774   1.65868    0.137
 5534.00    1.63545   1.65859    0.138
 5535.00    1.63863   1.65854    0.138
 5536.00    1.61965   1.65847    0.136
 5537.00    1.60261   1.65837    0.135
 5538.00    1.59332   1.65831    0.134
 5539.00    1.59317   1.65823    0.152
 5540.00    1.62321   1.65814    0.357
 5541.00    1.64359   1.65805   -1.000
 5542.00    1.63702   1.65796   -1.000
 5543.00    1.63585   1.65785   -1.000
 5544.00    1.64759   1.65779   -1.000
 5545.00    1.65208   1.65764   -1.000
 5546.00    1.64159   1.65755   -1.000
 5547.00    1.63321   1.65746    0.743
 5548.00    1.62859   1.65733    0.196
 5549.00    1.63172   1.65723    0.135
 5550.00    1.64702   1.65707    0.134
 5551.00    1.64463   1.65696    0.132
 5552.00    1.61788   1.65678    0.131
 5553.00    1.59918   1.65666    0.130
 5554.00    1.59023   1.65651    0.131
 5555.00    1.60049   1.65632    0.132
 5556.00    1.63127   1.65623    0.133
 5557.00    1.64176   1.65607    0.134
 5558.00    1.63314   1.65598    0.134
 5559.00    1.62184   1.65589    0.133
 5560.00    1.60831   1.65575    0.131
 5561.00    1.60839   1.65570    0.131
 5562.00    1.61841   1.65562    0.131
 5563.00    1.62515   1.65555    0.132
 5564.00    1.62978   1.65548    0.134
 5565.00    1.62324   1.65541    0.134
 5566.00    1.61044   1.65536    0.134
 5567.00    1.60212   1.65527    0.134
 5568.00    1.59598   1.65517    0.134
 5569.00    1.59373   1.65508    0.135
 5570.00    1.59311   1.65493    0.136
 5571.00    1.60309   1.65481    0.136
 5572.00    1.61690   1.65461    0.136
 5573.00    1.62203   1.65437    0.136
 5574.00    1.62450   1.65406    0.136
 5575.00    1.61418   1.65366    0.136
 5576.00    1.60060   1.65321    0.135
 5577.00    1.61909   1.65253    0.137
 5578.00    1.64423   1.65182    0.138
 5579.00    1.64295   1.65105    0.137
 5580.00    1.63736   1.65037    0.135
 5581.00    1.62930   1.64982    0.135
 5582.00    1.62094   1.64916    0.135
 5583.00    1.61235   1.64892    0.134
 5584.00    1.60374   1.64887    0.133
 5585.00    1.58606   1.64925    0.132
 5586.00    1.56795   1.64963    0.131
 5587.00    1.59171   1.64999    0.134
 5588.00    1.61532   1.65068    0.136
 5589.00    1.59244   1.65111    0.136
 5590.00    1.57091   1.65150    0.135
 5591.00    1.57610   1.65175    0.136
 5592.00    1.58070   1.65187    0.136
 5593.00    1.57845   1.65199    0.135
 5594.00    1.57798   1.65197    0.133
 5595.00    1.59182   1.65192    0.135
 5596.00    1.60315   1.65183    0.136
 5597.00    1.59928   1.65174    0.135
 5598.00    1.59770   1.65166    0.134
 5599.00    1.60703   1.65157    0.135
 5600.00    1.61429   1.65149    0.135
 5601.00    1.61351   1.65138    0.135
 5602.00    1.61375   1.65129    0.135
 5603.00    1.61728   1.65119    0.135
 5604.00    1.61659   1.65106    0.134
 5605.00    1.60437   1.65097    0.133
 5606.00    1.59819   1.65083    0.133
 5607.00    1.60618   1.65075    0.132
 5608.00    1.61447   1.65064    0.131
 5609.00    1.62337   1.65056    0.130
 5610.00    1.62510   1.65047    0.130
 5611.00    1.61416   1.65036    0.131
 5612.00    1.60550   1.65031    0.132
 5613.00    1.60037   1.65016    0.134
 5614.00    1.59632   1.65007    0.135
 5615.00    1.59373   1.64996    0.135
 5616.00    1.58257   1.64981    0.134
 5617.00    1.56118   1.64972    0.134
 5618.00    1.55887   1.64957    0.133
 5619.00    1.57667   1.64946    0.132
 5620.00    1.57141   1.64933    0.132
 5621.00    1.54471   1.64918    0.131
 5622.00    1.54486   1.64904    0.131
 5623.00    1.56699   1.64887    0.132
 5624.00    1.56635   1.64872    0.132
 5625.00    1.54927   1.64847    0.130
 5626.00    1.54551   1.64826    0.130
 5627.00    1.55018   1.64802    0.130
 5628.00    1.57091   1.64776    0.130
 5629.00    1.60052   1.64758    0.129
 5630.00    1.61316   1.64729    0.128
 5631.00    1.61764   1.64713    0.128
 5632.00    1.60369   1.64697    0.128
 5633.00    1.58209   1.64682    0.129
 5634.00    1.57875   1.64672    0.128
 5635.00    1.58189   1.64660    0.126
 5636.00    1.58209   1.64656    0.126
 5637.00    1.58141   1.64648    0.125
 5638.00    1.58208   1.64645    0.125
 5639.00    1.58310   1.64638    0.125
 5640.00    1.59296   1.64635    0.125
 5641.00    1.60460   1.64631    0.125
 5642.00    1.59758   1.64623    0.125
 5643.00    1.58760   1.64618    0.125
 5644.00    1.59021   1.64602    0.124
 5645.00    1.59430   1.64589    0.124
 5646.00    1.59799   1.64571    0.125
 5647.00    1.60164   1.64547    0.125
 5648.00    1.59728   1.64527    0.125
 5649.00    1.59256   1.64499    0.125
 5650.00    1.59214   1.64476    0.127
 5651.00    1.59165   1.64453    0.128
 5652.00    1.58487   1.64428    0.128
 5653.00    1.57828   1.64409    0.129
 5654.00    1.57509   1.64388    0.130
 5655.00    1.57148   1.64374    0.132
 5656.00    1.56318   1.64360    0.132
 5657.00    1.55585   1.64347    0.132
 5658.00    1.55615   1.64340    0.130
 5659.00    1.55784   1.64332    0.129
 5660.00    1.56771   1.64324    0.131
 5661.00    1.57592   1.64316    0.132
 5662.00    1.57639   1.64304    0.131
 5663.00    1.57721   1.64293    0.130
 5664.00    1.57929   1.64277    0.130
 5665.00    1.58003   1.64254    0.130
 5666.00    1.57654   1.64237    0.128
 5667.00    1.57734   1.64213    0.126
 5668.00    1.58969   1.64195    0.127
 5669.00    1.59554   1.64175    0.127
 5670.00    1.58641   1.64159    0.127
 5671.00    1.57662   1.64151    0.126
 5672.00    1.56550   1.64140    0.126
 5673.00    1.56309   1.64134    0.125
 5674.00    1.57583   1.64124    0.125
 5675.00    1.58749   1.64120    0.126
 5676.00    1.59752   1.64112    0.127
 5677.00    1.60314   1.64103    0.127
 5678.00    1.60288   1.64091    0.128
 5679.00    1.60089   1.64075    0.128
 5680.00    1.59685   1.64059    0.126
 5681.00    1.58771   1.64032    0.125
 5682.00    1.57326   1.64011    0.124
 5683.00    1.56842   1.63982    0.124
 5684.00    1.57236   1.63951    0.124
 5685.00    1.58228   1.63925    0.124
 5686.00    1.59702   1.63895    0.124
 5687.00    1.58879   1.63886    0.124
 5688.00    1.56425   1.63873    0.122
 5689.00    1.55098   1.63861    0.123
 5690.00    1.54475   1.63862    0.125
 5691.00    1.55997   1.63857    0.125
 5692.00    1.58687   1.63864    0.124
 5693.00    1.59253   1.63863    0.124
 5694.00    1.58812   1.63853    0.125
 5695.00    1.58674   1.63852    0.126
 5696.00    1.58660   1.63838    0.127
 5697.00    1.58313   1.63827    0.128
 5698.00    1.57851   1.63815    0.128
 5699.00    1.57554   1.63796    0.128
 5700.00    1.57307   1.63787    0.127
 5701.00    1.57450   1.63768    0.127
 5702.00    1.57689   1.63758    0.127
 5703.00    1.56487   1.63748    0.126
 5704.00    1.55001   1.63733    0.125
 5705.00    1.54238   1.63731    0.124
 5706.00    1.53585   1.63711    0.124
 5707.00    1.55403   1.63704    0.123
 5708.00    1.57500   1.63691    0.123
 5709.00    1.57058   1.63671    0.124
 5710.00    1.56424   1.63661    0.124
 5711.00    1.56537   1.63633    0.123
 5712.00    1.56681   1.63620    0.122
 5713.00    1.56620   1.63600    0.122
 5714.00    1.56590   1.63587    0.121
 5715.00    1.57874   1.63569    0.121
 5716.00    1.59107   1.63555    0.120
 5717.00    1.59448   1.63545    0.121
 5718.00    1.59737   1.63529    0.122
 5719.00    1.59469   1.63525    0.121
 5720.00    1.59205   1.63503    0.120
 5721.00    1.58979   1.63494    0.120
 5722.00    1.58992   1.63475    0.120
 5723.00    1.60368   1.63452    0.120
 5724.00    1.61331   1.63431    0.120
 5725.00    1.60416   1.63403    0.120
 5726.00    1.59529   1.63378    0.121
 5727.00    1.58750   1.63346    0.121
 5728.00    1.58225   1.63314    0.122
 5729.00    1.58492   1.63284    0.121
 5730.00    1.58532   1.63265    0.121
 5731.00    1.57978   1.63252    0.122
 5732.00    1.57667   1.63235    0.123
 5733.00    1.57909   1.63225    0.121
 5734.00    1.57941   1.63219    0.120
 5735.00    1.57564   1.63218    0.121
 5736.00    1.58084   1.63217    0.122
 5737.00    1.60142   1.63207    0.123
 5738.00    1.61199   1.63201    0.124
 5739.00    1.60751   1.63187    0.123
 5740.00    1.59723   1.63181    0.000
 5741.00    1.57927   1.63159    0.000
 5742.00    1.57368   1.63146    0.000
 5743.00    1.58243   1.63132    0.000
 5744.00    1.59350   1.63112    0.000
 5745.00    1.60696   1.63107    0.000
 5746.00    1.60966   1.63084    0.000
 5747.00    1.60265   1.63079    0.000
 5748.00    1.59755   1.63065    0.000
 5749.00    1.59397   1.63054    0.000
 5750.00    1.59552   1.63048    0.000
 5751.00    1.60067   1.63027    0.000
 5752.00    1.60005   1.63021    0.000
 5753.00    1.59588   1.63002    0.000
 5754.00    1.59230   1.62987    0.000
 5755.00    1.58905   1.62975    0.000
 5756.00    1.58657   1.62949    0.000
 5757.00    1.58445   1.62940    0.000
 5758.00    1.57382   1.62917    0.000
 5759.00    1.55978   1.62900    0.000
 5760.00    1.56272   1.62884    0.000
 5761.00    1.57148   1.62858    0.000
 5762.00    1.58397   1.62848    0.000
 5763.00    1.59753   1.62821    0.000
 5764.00    1.59345   1.62803    0.000
 5765.00    1.58516   1.62782    0.000
 5766.00    1.59307   1.62759    0.000
 5767.00    1.60409   1.62744    0.000
 5768.00    1.59796   1.62719    0.000
 5769.00    1.58928   1.62700    0.000
 5770.00    1.59185   1.62680    0.000
 5771.00    1.59565   1.62660    0.000
 5772.00    1.59541   1.62645    0.000
 5773.00    1.59487   1.62623    0.000
 5774.00    1.58959   1.62609    0.000
 5775.00    1.58414   1.62590    0.000
 5776.00    1.59398   1.62577    0.000
 5777.00    1.60350   1.62563    0.000
 5778.00    1.59890   1.62547    0.000
 5779.00    1.59414   1.62535    0.000
 5780.00    1.58672   1.62514    0.000
 5781.00    1.57927   1.62502    0.000
 5782.00    1.57163   1.62476    0.000
 5783.00    1.56449   1.62454    0.000
 5784.00    1.56096   1.62421    0.000
 5785.00    1.55905   1.62384    0.000
 5786.00    1.56610   1.62347    0.000
 5787.00    1.57256   1.62296    0.000
 5788.00    1.57639   1.62257    0.000
 5789.00    1.57808   1.62198    0.000
 5790.00    1.57201   1.62163    0.000
 5791.00    1.56316   1.62126   -2.000
 5792.00    1.54583   1.62106   -2.000
 5793.00    1.52808   1.62096   -2.000
 5794.00    1.50927   1.62077   -2.000
 5795.00    1.49952   1.62077   -2.000
 5796.00    1.51001   1.62069   -2.000
 5797.00    1.51835   1.62068   -2.000
 5798.00    1.52256   1.62057   -2.000
 5799.00    1.52466   1.62037   -2.000
 5800.00    1.52320   1.62011   -2.000
 5801.00    1.52542   1.61998   -2.000
 5802.00    1.53309   1.61977   -2.000
 5803.00    1.54557   1.61980   -2.000
 5804.00    1.56432   1.61969   -2.000
 5805.00    1.57887   1.61973   -2.000
 5806.00    1.58862   1.61987   -2.000
 5807.00    1.59062   1.61998   -2.000
 5808.00    1.58478   1.62025   -2.000
 5809.00    1.58134   1.62040   -2.000
 5810.00    1.58005   1.62061   -2.000
 5811.00    1.57804   1.62077    0.000
 5812.00    1.57547   1.62103    0.000
 5813.00    1.56444   1.62113    0.000
 5814.00    1.54757   1.62138    0.000
 5815.00    1.54969   1.62141    0.000
 5816.00    1.56330   1.62139    0.000
 5817.00    1.57164   1.62133    0.000
 5818.00    1.57721   1.62103    0.000
 5819.00    1.57973   1.62087    0.000
 5820.00    1.58085   1.62047    0.000
 5821.00    1.57779   1.62009    0.000
 5822.00    1.57308   1.61971    0.000
 5823.00    1.56888   1.61929    0.000
 5824.00    1.56485   1.61902    0.000
 5825.00    1.56850   1.61872    0.000
 5826.00    1.57432   1.61845    0.000
 5827.00    1.57403   1.61825    0.000
 5828.00    1.57231   1.61801    0.000
 5829.00    1.57686   1.61785    0.000
 5830.00    1.58258   1.61763    0.000
 5831.00    1.59361   1.61745    0.000
 5832.00    1.60541   1.61723    0.000
 5833.00    1.60187   1.61702    0.000
 5834.00    1.59672   1.61681    0.000
 5835.00    1.57503   1.61657    0.000
 5836.00    1.55222   1.61635    0.000
 5837.00    1.55167   1.61610    0.000
 5838.00    1.55186   1.61588    0.000
 5839.00    1.55998   1.61560    0.000
 5840.00    1.56819   1.61539    0.000
 5841.00    1.57898   1.61512    0.000
 5842.00    1.58893   1.61491    0.000
 5843.00    1.58596   1.61468    0.000
 5844.00    1.58331   1.61447    0.000
 5845.00    1.58378   1.61429    0.000
 5846.00    1.58181   1.61408    0.000
 5847.00    1.56272   1.61392    0.000
 5848.00    1.54522   1.61371    0.000
 5849.00    1.53633   1.61353    0.000
 5850.00    1.52930   1.61325    0.000
 5851.00    1.53025   1.61295    0.000
 5852.00    1.53243   1.61245    0.000
 5853.00    1.53893   1.61184    0.000
 5854.00    1.54001   1.61073    0.000
 5855.00    1.52485   1.60943    0.000
 5856.00    1.51508   1.60690    0.000
 5857.00    1.51905   1.60319    0.000
 5858.00    1.52071   1.59883    0.000
 5859.00    1.51732   1.59208    0.000
 5860.00    1.51869   1.58614    0.000
 5861.00    1.52913   1.57605    0.000
 5862.00    1.54167   1.56621    0.000
 5863.00    1.55768   1.55730    0.000
 5864.00    1.56594   1.54834    0.000
 5865.00    1.56291   1.54629    0.000
 5866.00    1.56012   1.54141    0.000
 5867.00    1.55762   1.54352    0.000
 5868.00    1.55724   1.54660    0.000
 5869.00    1.55923   1.55247    0.000
 5870.00    1.55818   1.56299    0.000
 5871.00    1.55411   1.57034    0.000
 5872.00    1.54933   1.58068    0.000
 5873.00    1.54394   1.58696    0.000
 5874.00    1.54525   1.59309    0.000
 5875.00    1.55175   1.59789    0.000
 5876.00    1.54853   1.60082    0.000
 5877.00    1.53870   1.60325    0.000
 5878.00    1.54193   1.60413    0.000
 5879.00    1.55294   1.60481    0.000
 5880.00    1.55266   1.60500    0.000
 5881.00    1.54651   1.60509    0.000
 5882.00    1.54051   1.60502    0.000
 5883.00    1.53457   1.60495    0.000
 5884.00    1.52926   1.60498    0.000
 5885.00    1.52418   1.60494    0.000
 5886.00    1.51995   1.60506    0.000
 5887.00    1.51599   1.60502    0.000
 5888.00    1.50087   1.60512    0.000
 5889.00    1.48268   1.60514    0.000
 5890.00    1.46246   1.60523    0.000
 5891.00    1.44177   1.60529    0.000
 5892.00    1.44165   1.60533    0.000
 5893.00    1.44527   1.60534    0.000
 5894.00    1.45227   1.60532    0.000
 5895.00    1.45974   1.60528    0.000
 5896.00    1.46807   1.60518    0.000
 5897.00    1.47648   1.60512    0.000
 5898.00    1.49035   1.60493    0.000
 5899.00    1.50458   1.60484    0.000
 5900.00    1.50651   1.60464    0.000
 5901.00    1.50807   1.60446    0.110
 5902.00    1.50885   1.60430    0.110
 5903.00    1.50951   1.60409    0.109
 5904.00    1.50707   1.60394    0.109
 5905.00    1.50506   1.60373    0.110
 5906.00    1.50926   1.60354    0.110
 5907.00    1.51210   1.60339    0.110
 5908.00    1.50225   1.60319    0.109
 5909.00    1.49356   1.60305    0.110
 5910.00    1.49272   1.60288    0.111
 5911.00    1.49426   1.60270    0.112
 5912.00    1.50835   1.60257    0.111
 5913.00    1.52064   1.60237    0.110
 5914.00    1.52530   1.60223    0.110
 5915.00    1.52441   1.60202    0.111
 5916.00    1.50411   1.60185    0.110
 5917.00    1.49072   1.60164    0.110
 5918.00    1.49761   1.60144    0.110
 5919.00    1.50461   1.60124    0.110
 5920.00    1.51187   1.60102    0.110
 5921.00    1.51529   1.60086    0.110
 5922.00    1.51040   1.60061    0.109
 5923.00    1.50538   1.60050    0.109
 5924.00    1.50011   1.60025    0.108
 5925.00    1.49987   1.60014    0.108
 5926.00    1.50788   1.59991    0.108
 5927.00    1.51333   1.59973    0.108
 5928.00    1.51512   1.59955    0.108
 5929.00    1.51220   1.59931    0.108
 5930.00    1.50333   1.59916    0.108
 5931.00    1.50244   1.59888    0.108
 5932.00    1.51041   1.59873    0.108
 5933.00    1.51361   1.59844    0.108
 5934.00    1.51212   1.59829    0.108
 5935.00    1.51075   1.59806    0.108
 5936.00    1.50949   1.59783    0.107
 5937.00    1.50807   1.59767    0.107
 5938.00    1.50653   1.59737    0.108
 5939.00    1.50416   1.59721    0.108
 5940.00    1.50123   1.59694    0.108
 5941.00    1.49842   1.59673    0.108
 5942.00    1.49567   1.59649    0.108
 5943.00    1.50552   1.59626    0.108
 5944.00    1.52182   1.59605    0.109
 5945.00    1.53152   1.59587    0.110
 5946.00    1.53830   1.59571    0.109
 5947.00    1.53424   1.59558    0.110
 5948.00    1.52604   1.59546    0.110
 5949.00    1.51798   1.59535    0.110
 5950.00    1.50995   1.59532    0.111
 5951.00    1.50599   1.59520    0.111
 5952.00    1.50314   1.59522    0.110
 5953.00    1.50944   1.59508    0.109
 5954.00    1.51778   1.59501    0.109
 5955.00    1.52021   1.59492    0.108
 5956.00    1.52159   1.59473    0.108
 5957.00    1.51867   1.59464    0.107
 5958.00    1.51517   1.59438    0.107
 5959.00    1.51017   1.59420    0.107
 5960.00    1.50502   1.59392    0.107
 5961.00    1.50812   1.59363    0.107
 5962.00    1.51171   1.59333    0.106
 5963.00    1.51950   1.59298    0.106
 5964.00    1.52737   1.59263    0.105
 5965.00    1.52980   1.59228    0.105
 5966.00    1.53170   1.59196    0.105
 5967.00    1.52043   1.59164    0.106
 5968.00    1.51002   1.59142    0.106
 5969.00    1.51105   1.59119    0.106
 5970.00    1.51223   1.59102    0.106
 5971.00    1.51486   1.59091    0.106
 5972.00    1.51747   1.59083    0.106
 5973.00    1.51992   1.59082    0.106
 5974.00    1.52019   1.59079    0.106
 5975.00    1.50926   1.59071    0.106
 5976.00    1.50000   1.59070    0.106
 5977.00    1.49769   1.59060    0.106
 5978.00    1.49590   1.59054    0.106
 5979.00    1.49593   1.59047    0.107
 5980.00    1.49596   1.59030    0.108
 5981.00    1.49602   1.59021    0.108
 5982.00    1.49576   1.59002    0.108
 5983.00    1.49473   1.58989    0.108
 5984.00    1.49424   1.58971    0.108
 5985.00    1.49488   1.58949    0.108
 5986.00    1.49733   1.58931    0.107
 5987.00    1.50313   1.58904    0.107
 5988.00    1.50840   1.58883    0.106
 5989.00    1.51282   1.58854    0.106
 5990.00    1.51507   1.58831    0.106
 5991.00    1.51425   1.58805    0.106
 5992.00    1.51209   1.58778    0.105
 5993.00    1.50827   1.58756    0.104
 5994.00    1.50425   1.58729    0.104
 5995.00    1.50002   1.58712    0.104
 5996.00    1.50149   1.58692    0.104
 5997.00    1.50847   1.58675    0.104
 5998.00    1.50476   1.58663    0.104
 5999.00    1.49192   1.58645    0.104
 6000.00    1.48256   1.58642    0.104
 6001.00    1.47583   1.58625    0.104
 6002.00    1.47186   1.58623    0.103
 6003.00    1.46971   1.58610    0.103
 6004.00    1.46568   1.58603    0.103
 6005.00    1.46056   1.58593    0.103
 6006.00    1.45992   1.58580    0.104
 6007.00    1.46155   1.58571    0.104
 6008.00    1.46812   1.58553    0.105
 6009.00    1.47685   1.58542    0.105
 6010.00    1.48525   1.58519    0.106
 6011.00    1.49353   1.58507    0.108
 6012.00    1.48660   1.58481    0.108
 6013.00    1.47484   1.58465    0.107
 6014.00    1.46998   1.58437    0.108
 6015.00    1.46694   1.58414    0.109
 6016.00    1.47208   1.58389    0.108
 6017.00    1.47901   1.58357    0.108
 6018.00    1.48324   1.58334    0.108
 6019.00    1.48700   1.58298    0.108
 6020.00    1.47889   1.58270    0.107
 6021.00    1.46923   1.58239    0.106
 6022.00    1.46272   1.58206    0.108
 6023.00    1.45651   1.58182    0.110
 6024.00    1.45843   1.58148    0.110
 6025.00    1.46081   1.58129    0.110
 6026.00    1.47089   1.58104    0.110
 6027.00    1.48113   1.58085    0.110
 6028.00    1.49017   1.58071    0.107
 6029.00    1.49865   1.58055    0.104
 6030.00    1.49391   1.58049    0.104
 6031.00    1.48945   1.58035    0.103
 6032.00    1.48858   1.58032    0.103
 6033.00    1.48773   1.58022    0.102
 6034.00    1.48706   1.58014    0.103
 6035.00    1.48602   1.58007    0.103
 6036.00    1.48265   1.57994    0.103
 6037.00    1.47834   1.57989    0.102
 6038.00    1.46938   1.57973    0.102
 6039.00    1.46134   1.57967    0.102
 6040.00    1.45701   1.57950    0.103
 6041.00    1.45406   1.57940    0.103
 6042.00    1.45571   1.57925    0.104
 6043.00    1.45786   1.57909    0.105
 6044.00    1.46144   1.57897    0.105
 6045.00    1.46559   1.57875    0.105
 6046.00    1.47111   1.57863    0.105
 6047.00    1.47724   1.57838    0.106
 6048.00    1.48466   1.57822    0.106
 6049.00    1.49285   1.57796    0.106
 6050.00    1.50243   1.57776    0.105
 6051.00    1.50587   1.57745    0.104
 6052.00    1.49955   1.57722    0.104
 6053.00    1.49061   1.57688    0.103
 6054.00    1.47803   1.57658    0.103
 6055.00    1.47545   1.57626    0.103
 6056.00    1.48514   1.57585    0.103
 6057.00    1.49145   1.57558    0.103
 6058.00    1.49411   1.57511    0.103
 6059.00    1.49078   1.57484    0.103
 6060.00    1.48174   1.57444    0.103
 6061.00    1.47452   1.57413    0.103
 6062.00    1.46883   1.57387    0.103
 6063.00    1.46869   1.57356    0.103
 6064.00    1.47266   1.57342    0.104
 6065.00    1.47594   1.57320    0.103
 6066.00    1.47877   1.57311    0.102
 6067.00    1.47795   1.57302    0.103
 6068.00    1.47504   1.57295    0.103
 6069.00    1.47495   1.57291    0.103
 6070.00    1.47625   1.57288    0.103
 6071.00    1.46893   1.57283    0.104
 6072.00    1.45792   1.57283    0.105
 6073.00    1.45978   1.57274    0.105
 6074.00    1.46638   1.57276    0.104
 6075.00    1.47734   1.57264    0.104
 6076.00    1.48967   1.57261    0.104
 6077.00    1.48643   1.57249    0.104
 6078.00    1.47915   1.57239    0.104
 6079.00    1.47386   1.57229    0.104
 6080.00    1.46898   1.57213    0.103
 6081.00    1.47206   1.57205    0.102
 6082.00    1.47648   1.57187    0.102
 6083.00    1.47738   1.57176    0.102
 6084.00    1.47783   1.57160    0.103
 6085.00    1.47236   1.57143    0.102
 6086.00    1.46638   1.57128    0.101
 6087.00    1.46134   1.57107    0.102
 6088.00    1.45634   1.57090    0.102
 6089.00    1.45850   1.57067    0.101
 6090.00    1.46084   1.57045    0.100
 6091.00    1.46772   1.57020    0.101
 6092.00    1.47460   1.56991    0.101
 6093.00    1.48141   1.56967    0.101
 6094.00    1.48748   1.56932    0.102
 6095.00    1.48457   1.56907    0.102
 6096.00    1.48123   1.56871    0.103
 6097.00    1.47443   1.56839    0.103
 6098.00    1.46922   1.56802    0.103
 6099.00    1.47386   1.56763    0.103
 6100.00    1.47855   1.56723    0.103
 6101.00    1.48354   1.56686    0.105
 6102.00    1.48583   1.56641    0.106
 6103.00    1.47742   1.56608    0.105
 6104.00    1.47039   1.56563    0.105
 6105.00    1.46791   1.56535    0.104
 6106.00    1.46664   1.56495    0.104
 6107.00    1.46875   1.56475    0.104
 6108.00    1.47104   1.56444    0.103
 6109.00    1.47379   1.56435    0.103
 6110.00    1.47526   1.56415    0.103
 6111.00    1.47412   1.56415    0.103
 6112.00    1.47202   1.56404    0.102
 6113.00    1.46823   1.56409    0.101
 6114.00    1.46458   1.56411    0.101
 6115.00    1.46113   1.56414    0.100
 6116.00    1.45839   1.56421    0.100
 6117.00    1.45662   1.56424    0.100
 6118.00    1.45509   1.56428    0.101
 6119.00    1.45387   1.56428    0.101
 6120.00    1.45166   1.56428    0.101
 6121.00    1.44841   1.56418    0.102
 6122.00    1.44659   1.56415    0.102
 6123.00    1.44612   1.56398    0.101
 6124.00    1.44757   1.56388    0.101
 6125.00    1.45063   1.56367    0.101
 6126.00    1.45411   1.56353    0.101
 6127.00    1.45790   1.56331    0.101
 6128.00    1.46200   1.56318    0.101
 6129.00    1.46630   1.56299    0.102
 6130.00    1.46221   1.56284    0.101
 6131.00    1.45340   1.56268    0.101
 6132.00    1.44579   1.56249    0.101
 6133.00    1.43876   1.56234    0.102
 6134.00    1.43330   1.56214    0.103
 6135.00    1.42850   1.56194    0.104
 6136.00    1.43091   1.56174    0.104
 6137.00    1.43592   1.56147    0.104
 6138.00    1.43943   1.56126    0.104
 6139.00    1.44248   1.56093    0.104
 6140.00    1.44335   1.56069    0.104
 6141.00    1.44366   1.56037    0.104
 6142.00    1.45042   1.56014    0.103
 6143.00    1.45852   1.55979    0.103
 6144.00    1.46268   1.55957    0.102
 6145.00    1.46620   1.55919    0.101
 6146.00    1.46688   1.55896    0.100
 6147.00    1.46722   1.55857    0.100
 6148.00    1.45416   1.55825    0.100
 6149.00    1.43998   1.55789    0.100
 6150.00    1.42879   1.55743    0.099
 6151.00    1.41774   1.55706    0.098
 6152.00    1.42158   1.55648    0.099
 6153.00    1.42550   1.55607    0.099
 6154.00    1.42183   1.55551    0.100
 6155.00    1.41832   1.55501    0.100
 6156.00    1.41811   1.55453    0.102
 6157.00    1.41787   1.55402    0.103
 6158.00    1.41749   1.55368    0.104
 6159.00    1.41771   1.55329    0.104
 6160.00    1.42276   1.55307    0.104
 6161.00    1.42674   1.55291    0.104
 6162.00    1.42431   1.55285    0.104
 6163.00    1.42112   1.55285    0.104
 6164.00    1.41426   1.55291    0.104
 6165.00    1.40985   1.55301    0.103
 6166.00    1.41490   1.55315    0.103
 6167.00    1.42021   1.55325    0.103
 6168.00    1.42637   1.55341    0.103
 6169.00    1.43126   1.55352    0.103
 6170.00    1.43270   1.55361    0.103
 6171.00    1.43362   1.55368    0.102
 6172.00    1.43330   1.55371    0.101
 6173.00    1.43301   1.55374    0.101
 6174.00    1.43279   1.55368    0.102
 6175.00    1.42810   1.55372    0.102
 6176.00    1.41551   1.55353    0.101
 6177.00    1.40199   1.55360    0.100
 6178.00    1.38704   1.55334    0.099
 6179.00    1.37285   1.55337    0.099
 6180.00    1.35971   1.55312    0.099
 6181.00    1.35684   1.55307    0.099
 6182.00    1.36623   1.55285    0.098
 6183.00    1.37666   1.55273    0.099
 6184.00    1.38820   1.55254    0.100
 6185.00    1.39386   1.55237    0.100
 6186.00    1.39408   1.55216    0.100
 6187.00    1.39491   1.55202    0.101
 6188.00    1.39623   1.55178    0.102
 6189.00    1.39505   1.55164    0.103
 6190.00    1.39205   1.55145    0.102
 6191.00    1.39102   1.55129    0.102
 6192.00    1.39123   1.55115    0.102
 6193.00    1.39170   1.55094    0.103
 6194.00    1.39231   1.55083    0.105
 6195.00    1.37337   1.55057    0.108
 6196.00    1.34505   1.55049   -2.000
 6197.00    1.31411   1.55020   -2.000
 6198.00    1.28208   1.55010   -2.000
 6199.00    1.29074   1.54982   -2.000
 6200.00    1.31383   1.54966   -2.000
 6201.00    1.37413   1.54942   -2.000
 6202.00    1.44557   1.54917   -2.000
 6203.00    1.49673   1.54898   -2.000
 6204.00    1.54286   1.54867   -2.000
 6205.00    1.53722   1.54849   -2.000
 6206.00    1.52116   1.54814   -2.000
 6207.00    1.48564   1.54794   -2.000
 6208.00    1.44704   1.54755    0.103
 6209.00    1.43203   1.54728    0.102
 6210.00    1.41979   1.54685    0.102
 6211.00    1.41258   1.54648    0.100
 6212.00    1.40578   1.54602    0.098
 6213.00    1.40386   1.54551    0.099
 6214.00    1.40215   1.54502    0.101
 6215.00    1.39542   1.54441    0.101
 6216.00    1.38858   1.54387    0.101
 6217.00    1.37940   1.54322    0.102
 6218.00    1.37086   1.54265    0.102
 6219.00    1.37391   1.54203    0.101
 6220.00    1.37793   1.54149    0.101
 6221.00    1.39260   1.54100    0.102
 6222.00    1.40547   1.54059    0.102
 6223.00    1.40446   1.54031    0.102
 6224.00    1.40351   1.54010    0.101
 6225.00    1.40290   1.54001    0.101
 6226.00    1.40233   1.54002    0.100
 6227.00    1.40190   1.54007    0.102
 6228.00    1.40016   1.54023    0.103
 6229.00    1.39348   1.54040    0.103
 6230.00    1.38970   1.54061    0.103
 6231.00    1.39513   1.54082    0.101
 6232.00    1.39816   1.54102    0.100
 6233.00    1.39477   1.54120    0.100
 6234.00    1.39334   1.54137    0.099
 6235.00    1.39645   1.54145    0.098
 6236.00    1.39810   1.54162    0.097
 6237.00    1.39686   1.54156    0.098
 6238.00    1.39378   1.54170    0.098
 6239.00    1.38750   1.54158    0.099
 6240.00    1.38157   1.54160    0.100
 6241.00    1.37618   1.54149    0.100
 6242.00    1.37721   1.54137    0.100
 6243.00    1.38681   1.54130    0.100
 6244.00    1.39406   1.54107    0.101
 6245.00    1.39855   1.54102    0.102
 6246.00    1.39923   1.54075    0.102
 6247.00    1.39595   1.54066    0.101
 6248.00    1.39317   1.54045    0.101
 6249.00    1.39083   1.54027    0.101
 6250.00    1.38743   1.54013    0.101
 6251.00    1.38319   1.53988    0.102
 6252.00    1.37869   1.53978    0.101
 6253.00    1.37403   1.53951    0.101
 6254.00    1.37230   1.53937    0.101
 6255.00    1.37240   1.53916    0.101
 6256.00    1.37313   1.53895    0.101
 6257.00    1.37421   1.53879    0.101
 6258.00    1.37062   1.53855    0.102
 6259.00    1.36484   1.53840    0.103
 6260.00    1.35460   1.53816    0.109
 6261.00    1.34254   1.53797    0.116
 6262.00    1.34916   1.53778    0.119
 6263.00    1.36229   1.53753    0.120
 6264.00    1.38919   1.53737    0.118
 6265.00    1.42015   1.53709    0.114
 6266.00    1.43636   1.53691    0.109
 6267.00    1.44900   1.53667    0.104
 6268.00    1.44339   1.53643    0.101
 6269.00    1.43420   1.53624    0.099
 6270.00    1.42488   1.53597    0.099
 6271.00    1.41555   1.53580    0.099
 6272.00    1.41880   1.53554    0.100
 6273.00    1.42348   1.53536    0.101
 6274.00    1.41708   1.53515    0.101
 6275.00    1.40985   1.53496    0.101
 6276.00    1.40715   1.53478    0.101
 6277.00    1.40462   1.53459    0.101
 6278.00    1.39515   1.53443    0.100
 6279.00    1.38585   1.53422    0.099
 6280.00    1.38551   1.53407    0.000
 6281.00    1.38520   1.53380    0.000
 6282.00    1.38545   1.53362    0.000
 6283.00    1.38592   1.53331    0.000
 6284.00    1.38854   1.53304    0.000
 6285.00    1.39186   1.53270    0.000
 6286.00    1.40039   1.53234    0.000
 6287.00    1.40761   1.53194    0.000
 6288.00    1.40740   1.53146    0.000
 6289.00    1.40663   1.53101    0.000
 6290.00    1.40337   1.53042    0.000
 6291.00    1.40047   1.52988    0.000
 6292.00    1.39889   1.52920    0.000
 6293.00    1.39354   1.52859    0.000
 6294.00    1.37647   1.52785    0.000
 6295.00    1.36319   1.52722    0.000
 6296.00    1.35993   1.52651    0.000
 6297.00    1.35982   1.52592    0.000
 6298.00    1.36685   1.52537    0.000
 6299.00    1.37386   1.52493    0.000
 6300.00    1.38081   1.52462    0.000
 6301.00    1.38541   1.52445    0.000
 6302.00    1.38598   1.52438    0.000
 6303.00    1.38607   1.52450    0.000
 6304.00    1.38542   1.52463    0.000
 6305.00    1.38475   1.52499    0.000
 6306.00    1.38403   1.52522    0.000
 6307.00    1.38303   1.52567    0.000
 6308.00    1.38169   1.52596    0.000
 6309.00    1.37990   1.52632    0.000
 6310.00    1.37763   1.52664    0.000
 6311.00    1.37524   1.52684    0.000
 6312.00    1.37274   1.52710    0.000
 6313.00    1.36689   1.52719    0.000
 6314.00    1.35838   1.52732    0.000
 6315.00    1.35743   1.52734    0.000
 6316.00    1.36176   1.52733    0.000
 6317.00    1.37134   1.52731    0.000
 6318.00    1.38413   1.52719    0.000
 6319.00    1.38755   1.52713    0.000
 6320.00    1.38596   1.52696    0.000
 6321.00    1.38830   1.52681    0.095
 6322.00    1.39246   1.52663    0.096
 6323.00    1.39657   1.52643    0.097
 6324.00    1.40065   1.52623    0.098
 6325.00    1.40023   1.52598    0.098
 6326.00    1.39826   1.52572    0.099
 6327.00    1.39112   1.52543    0.099
 6328.00    1.38249   1.52508    0.098
 6329.00    1.37580   1.52474    0.098
 6330.00    1.36957   1.52425    0.097
 6331.00    1.37055   1.52389    0.097
 6332.00    1.37292   1.52327    0.096
 6333.00    1.37219   1.52290    0.097
 6334.00    1.37101   1.52234    0.097
 6335.00    1.36606   1.52209    0.097
 6336.00    1.36071   1.52175    0.096
 6337.00    1.36072   1.52161    0.096
 6338.00    1.36113   1.52154    0.096
 6339.00    1.36705   1.52151    0.097
 6340.00    1.37318   1.52162    0.097
 6341.00    1.37352   1.52169    0.097
 6342.00    1.37390   1.52183    0.096
 6343.00    1.37597   1.52190    0.096
 6344.00    1.37779   1.52195    0.097
 6345.00    1.37568   1.52200    0.097
 6346.00    1.37385   1.52193    0.097
 6347.00    1.37486   1.52192    0.097
 6348.00    1.37636   1.52172    0.097
 6349.00    1.38144   1.52162    0.097
 6350.00    1.38599   1.52139    0.097
 6351.00    1.38764   1.52119    0.098
 6352.00    1.38825   1.52090    0.098
 6353.00    1.38422   1.52063    0.097
 6354.00    1.37962   1.52025    0.097
 6355.00    1.37294   1.51995    0.098
 6356.00    1.36559   1.51947    0.099
 6357.00    1.35621   1.51914    0.099
 6358.00    1.35014   1.51869    0.099
 6359.00    1.35265   1.51841    0.099
 6360.00    1.35646   1.51806    0.100
 6361.00    1.36317   1.51781    0.101
 6362.00    1.36656   1.51759    0.102
 6363.00    1.36355   1.51737    0.100
 6364.00    1.36202   1.51724    0.099
 6365.00    1.36299   1.51703    0.099
 6366.00    1.36427   1.51688    0.098
 6367.00    1.36602   1.51669    0.097
 6368.00    1.36691   1.51650    0.097
 6369.00    1.36671   1.51636    0.097
 6370.00    1.36931   1.51618    0.096
 6371.00    1.37512   1.51603    0.096
 6372.00    1.37700   1.51591    0.096
 6373.00    1.37492   1.51576    0.097
 6374.00    1.36977   1.51570    0.096
 6375.00    1.36190   1.51556    0.095
 6376.00    1.35766   1.51550    0.095
 6377.00    1.35627   1.51534    0.096
 6378.00    1.35662   1.51520    0.096
 6379.00    1.35818   1.51500    0.097
 6380.00    1.36074   1.51471    0.097
 6381.00    1.36389   1.51445    0.096
 6382.00    1.36779   1.51398    0.097
 6383.00    1.37208   1.51361    0.098
 6384.00    1.36893   1.51297    0.098
 6385.00    1.36238   1.51243    0.098
 6386.00    1.35666   1.51164    0.098
 6387.00    1.35126   1.51090    0.097
 6388.00    1.34969   1.51003    0.097
 6389.00    1.34940   1.50912    0.097
 6390.00    1.34800   1.50822    0.097
 6391.00    1.34629   1.50731    0.096
 6392.00    1.33863   1.50649    0.096
 6393.00    1.32960   1.50579    0.097
 6394.00    1.32721   1.50520    0.097
 6395.00    1.32607   1.50485    0.097
 6396.00    1.33685   1.50461    0.098
 6397.00    1.34935   1.50466    0.098
 6398.00    1.35868   1.50481    0.098
 6399.00    1.36769   1.50518    0.099
 6400.00    1.36793   1.50562    0.098
 6401.00    1.36759   1.50615    0.097
 6402.00    1.36669   1.50675    0.098
 6403.00    1.36577   1.50726    0.098
 6404.00    1.36908   1.50785    0.099
 6405.00    1.37240   1.50824    0.099
 6406.00    1.37629   1.50870    0.100
 6407.00    1.37936   1.50894    0.100
 6408.00    1.37015   1.50925    0.100
 6409.00    1.36080   1.50937    0.100
 6410.00    1.35023   1.50952    0.100
 6411.00    1.34051   1.50957    0.100
 6412.00    1.33670   1.50960    0.098
 6413.00    1.33465   1.50962    0.097
 6414.00    1.34210   1.50955    0.096
 6415.00    1.34866   1.50956    0.095
 6416.00    1.35136   1.50943    0.096
 6417.00    1.35347   1.50939    0.097
 6418.00    1.35348   1.50923    0.097
 6419.00    1.35376   1.50914    0.098
 6420.00    1.35483   1.50896    0.096
 6421.00    1.35496   1.50883    0.096
 6422.00    1.35270   1.50862    0.095
 6423.00    1.35292   1.50849    0.095
 6424.00    1.35855   1.50824    0.096
 6425.00    1.36335   1.50811    0.097
 6426.00    1.36654   1.50785    0.097
 6427.00    1.36758   1.50772    0.098
 6428.00    1.36502   1.50746    0.100
 6429.00    1.36713   1.50731    0.100
 6430.00    1.37603   1.50708    0.100
 6431.00    1.37804   1.50691    0.100
 6432.00    1.37124   1.50670    0.099
 6433.00    1.36694   1.50652    0.099
 6434.00    1.36544   1.50631    0.100
 6435.00    1.36307   1.50611    0.100
 6436.00    1.35982   1.50589    0.100
 6437.00    1.35271   1.50567    0.100
 6438.00    1.34221   1.50543    0.099
 6439.00    1.33622   1.50520    0.098
 6440.00    1.33372   1.50495    0.098
 6441.00    1.33642   1.50471    0.098
 6442.00    1.34267   1.50447    0.098
 6443.00    1.34536   1.50422    0.097
 6444.00    1.34596   1.50403    0.097
 6445.00    1.34135   1.50379    0.096
 6446.00    1.33405   1.50363    0.095
 6447.00    1.32864   1.50342    0.096
 6448.00    1.32408   1.50329    0.096
 6449.00    1.30929   1.50311    0.097
 6450.00    1.29056   1.50298    0.097
 6451.00    1.26587   1.50281    0.096
 6452.00    1.23922   1.50267    0.094
 6453.00    1.20985   1.50250    0.094
 6454.00    1.17974   1.50235    0.094
 6455.00    1.14874   1.50217    0.094
 6456.00    1.11755   1.50200    0.093
 6457.00    1.09368   1.50180    0.092
 6458.00    1.07113   1.50162    0.092
 6459.00    1.08078   1.50140    0.094
 6460.00    1.09491   1.50121    0.096
 6461.00    1.13203   1.50097    0.096
 6462.00    1.17144   1.50077    0.097
 6463.00    1.20043   1.50052    0.096
 6464.00    1.22875   1.50030    0.096
 6465.00    1.25149   1.50006    0.095
 6466.00    1.27406   1.49982    0.094
 6467.00    1.29302   1.49959    0.095
 6468.00    1.31162   1.49936    0.096
 6469.00    1.32018   1.49916    0.095
 6470.00    1.32780   1.49893    0.095
 6471.00    1.32216   1.49875    0.095
 6472.00    1.31705   1.49855    0.095
 6473.00    1.31690   1.49837    0.096
 6474.00    1.31741   1.49819    0.098
 6475.00    1.32232   1.49798    0.105
 6476.00    1.32804   1.49780    0.113
 6477.00    1.33803   1.49756    0.118
 6478.00    1.34768   1.49736    0.122
 6479.00    1.35592   1.49709    0.123
 6480.00    1.35970   1.49685    0.121
 6481.00    1.34788   1.49654    0.109
 6482.00    1.33527   1.49626    0.101
 6483.00    1.32031   1.49594    0.100
 6484.00    1.30964   1.49564    0.098
 6485.00    1.30968   1.49534    0.098
 6486.00    1.30964   1.49504    0.097
 6487.00    1.30943   1.49477    0.097
 6488.00    1.30935   1.49448    0.097
 6489.00    1.30948   1.49424    0.097
 6490.00    1.30951   1.49395    0.097
 6491.00    1.30936   1.49372    0.097
 6492.00    1.31028   1.49343    0.097
 6493.00    1.31274   1.49320    0.096
 6494.00    1.31153   1.49289    0.096
 6495.00    1.30571   1.49263    0.095
 6496.00    1.30394   1.49231    0.095
 6497.00    1.30668   1.49201    0.096
 6498.00    1.31125   1.49165    0.097
 6499.00    1.31761   1.49126    0.097
 6500.00    1.32191   1.49083    0.097
 6501.00    1.32445   1.49030    0.097
 6502.00    1.32626   1.48976    0.097
 6503.00    1.32752   1.48905    0.097
 6504.00    1.32729   1.48831    0.098
 6505.00    1.32606   1.48741    0.098
 6506.00    1.32774   1.48642    0.098
 6507.00    1.33113   1.48531    0.098
 6508.00    1.33502   1.48408    0.099
 6509.00    1.33916   1.48278    0.099
 6510.00    1.34351   1.48140    0.099
 6511.00    1.34795   1.48001    0.099
 6512.00    1.34607   1.47864    0.099
 6513.00    1.34179   1.47731    0.099
 6514.00    1.34362   1.47618    0.098
 6515.00    1.34741   1.47512    0.097
 6516.00    1.35124   1.47440    0.097
 6517.00    1.35508   1.47374    0.097
 6518.00    1.34767   1.47343    0.097
 6519.00    1.33777   1.47316    0.096
 6520.00    1.33476   1.47312    0.095
 6521.00    1.33296   1.47309    0.095
 6522.00    1.33864   1.47304    0.095
 6523.00    1.34531   1.47299    0.096
 6524.00    1.34963   1.47268    0.096
 6525.00    1.35372   1.47233    0.096
 6526.00    1.34989   1.47157    0.097
 6527.00    1.34559   1.47071    0.098
 6528.00    1.34426   1.46939    0.000
 6529.00    1.34297   1.46786    0.000
 6530.00    1.33819   1.46586    0.000
 6531.00    1.33388   1.46354    0.000
 6532.00    1.34132   1.46064    0.000
 6533.00    1.34786   1.45728    0.000
 6534.00    1.34236   1.45314    0.000
 6535.00    1.33658   1.44828    0.000
 6536.00    1.32833   1.44227    0.000
 6537.00    1.32117   1.43512    0.000
 6538.00    1.32110   1.42629    0.000
 6539.00    1.32220   1.41572    0.000
 6540.00    1.32933   1.40284    0.000
 6541.00    1.33583   1.38764    0.000
 6542.00    1.33977   1.36980    0.000
 6543.00    1.34314   1.34938    0.000
 6544.00    1.34455   1.32673    0.000
 6545.00    1.34667   1.30213    0.000
 6546.00    1.35082   1.27694    0.000
 6547.00    1.35174   1.25167    0.000
 6548.00    1.34473   1.22861    0.000
 6549.00    1.33693   1.20831    0.000
 6550.00    1.32746   1.19325    0.000
 6551.00    1.31924   1.18368    0.000
 6552.00    1.31334   1.18116    0.000
 6553.00    1.31065   1.18539    0.000
 6554.00    1.31313   1.19623    0.000
 6555.00    1.31413   1.21296    0.000
 6556.00    1.31306   1.23374    0.000
 6557.00    1.31243   1.25791    0.000
 6558.00    1.31235   1.28288    0.000
 6559.00    1.31011   1.30836    0.000
 6560.00    1.30548   1.33210    0.000
 6561.00    1.30574   1.35403    0.000
 6562.00    1.31071   1.37310    0.000
 6563.00    1.31055   1.38951    0.000
 6564.00    1.30602   1.40322    0.000
 6565.00    1.30387   1.41458    0.000
 6566.00    1.30352   1.42391    0.000
 6567.00    1.30038   1.43153    0.000
 6568.00    1.29540   1.43784    0.000
 6569.00    1.29306   1.44301    0.000
 6570.00    1.29225   1.44747    0.000
 6571.00    1.29385   1.45111    0.000
 6572.00    1.29665   1.45444    0.000
 6573.00    1.30603   1.45712    0.000
 6574.00    1.31828   1.45973    0.000
 6575.00    1.31637   1.46176    0.000
 6576.00    1.30917   1.46381    0.000
 6577.00    1.30181   1.46532    0.000
 6578.00    1.29438   1.46690    0.000
 6579.00    1.30496   1.46804    0.000
 6580.00    1.32029   1.46922    0.000
 6581.00    1.33284   1.47008    0.000
 6582.00    1.34478   1.47092    0.000
 6583.00    1.34927   1.47156    0.000
 6584.00    1.35248   1.47219    0.000
 6585.00    1.34850   1.47267    0.000
 6586.00    1.34358   1.47316    0.000
 6587.00    1.33778   1.47351    0.000
 6588.00    1.33189   1.47390    0.000
 6589.00    1.32186   1.47416    0.000
 6590.00    1.31161   1.47447    0.000
 6591.00    1.31218   1.47464    0.000
 6592.00    1.31290   1.47488    0.000
 6593.00    1.30583   1.47499    0.000
 6594.00    1.29886   1.47515    0.000
 6595.00    1.29414   1.47524    0.000
 6596.00    1.29025   1.47532    0.000
 6597.00    1.29680   1.47542    0.000
 6598.00    1.30383   1.47542    0.000
 6599.00    1.31491   1.47554    0.000
 6600.00    1.32276   1.47550    0.000
 6601.00    1.31008   1.47561    0.000
 6602.00    1.30006   1.47557    0.000
 6603.00    1.30335   1.47564    0.000
 6604.00    1.30686   1.47564    0.000
 6605.00    1.31126   1.47561    0.000
 6606.00    1.31177   1.47567    0.000
 6607.00    1.29926   1.47553    0.000
 6608.00    1.29156   1.47564    0.000
 6609.00    1.29742   1.47540    0.102
 6610.00    1.30186   1.47552    0.101
 6611.00    1.30283   1.47524    0.101
 6612.00    1.30391   1.47532    0.101
 6613.00    1.30520   1.47506    0.100
 6614.00    1.30551   1.47506    0.100
 6615.00    1.30403   1.47486    0.099
 6616.00    1.30148   1.47479    0.098
 6617.00    1.29723   1.47466    0.098
 6618.00    1.29934   1.47454    0.098
 6619.00    1.31031   1.47448    0.099
 6620.00    1.32003   1.47435    0.100
 6621.00    1.32821   1.47431    0.100
 6622.00    1.32861   1.47421    0.101
 6623.00    1.32058   1.47416    0.101
 6624.00    1.31504   1.47410    0.101
 6625.00    1.31185   1.47401    0.101
 6626.00    1.30984   1.47400    0.102
 6627.00    1.30884   1.47385    0.103
 6628.00    1.30429   1.47387    0.103
 6629.00    1.29712   1.47366    0.103
 6630.00    1.29448   1.47369    0.103
 6631.00    1.29478   1.47346    0.104
 6632.00    1.29532   1.47347    0.105
 6633.00    1.29599   1.47323    0.108
 6634.00    1.29285   1.47323    0.107
 6635.00    1.28781   1.47299    0.105
 6636.00    1.28786   1.47297    0.103
 6637.00    1.29010   1.47274    0.101
 6638.00    1.28844   1.47271    0.101
 6639.00    1.28536   1.47249    0.101
 6640.00    1.28316   1.47243    0.100
 6641.00    1.28124   1.47223    0.100
 6642.00    1.28249   1.47214    0.100
 6643.00    1.28457   1.47196    0.100
 6644.00    1.28307   1.47184    0.101
 6645.00    1.28081   1.47164    0.101
 6646.00    1.28502   1.47149    0.102
 6647.00    1.29031   1.47127    0.103
 6648.00    1.28915   1.47107    0.103
 6649.00    1.28719   1.47080    0.103
 6650.00    1.28075   1.47055    0.104
 6651.00    1.27391   1.47020    0.104
 6652.00    1.28246   1.46983    0.104
 6653.00    1.29180   1.46933    0.104
 6654.00    1.28707   1.46873    0.104
 6655.00    1.28210   1.46795    0.105
 6656.00    1.27843   1.46693    0.104
 6657.00    1.27531   1.46564    0.103
 6658.00    1.28368   1.46395    0.103
 6659.00    1.29032   1.46192    0.103
 6660.00    1.27607   1.45938    0.103
 6661.00    1.26326   1.45656    0.103
 6662.00    1.26237   1.45326    0.102
 6663.00    1.26158   1.45002    0.101
 6664.00    1.26136   1.44648    0.101
 6665.00    1.25858   1.44358    0.101
 6666.00    1.24336   1.44066    0.102
 6667.00    1.23311   1.43895    0.102
 6668.00    1.24245   1.43745    0.103
 6669.00    1.25174   1.43742    0.103
 6670.00    1.26086   1.43762    0.103
 6671.00    1.26881   1.43914    0.103
 6672.00    1.27352   1.44093    0.104
 6673.00    1.27215   1.44343    0.104
 6674.00    1.25636   1.44604    0.106
 6675.00    1.24634   1.44868    0.106
 6676.00    1.24819   1.45127    0.107
 6677.00    1.25264   1.45371    0.107
 6678.00    1.26174   1.45588    0.106
 6679.00    1.26874   1.45787    0.106
 6680.00    1.27247   1.45944    0.107
 6681.00    1.27418   1.46089    0.107
 6682.00    1.27312   1.46191    0.105
 6683.00    1.27548   1.46284    0.104
 6684.00    1.28198   1.46345    0.104
 6685.00    1.28080   1.46396    0.104
 6686.00    1.27146   1.46428    0.104
 6687.00    1.26761   1.46452    0.104
 6688.00    1.26891   1.46463    0.103
 6689.00    1.27274   1.46474    0.103
 6690.00    1.27867   1.46473    0.104
 6691.00    1.27897   1.46479    0.104
 6692.00    1.27519   1.46471    0.105
 6693.00    1.26830   1.46476    0.106
 6694.00    1.25943   1.46464    0.106
 6695.00    1.25188   1.46470    0.106
 6696.00    1.24508   1.46455    0.000
 6697.00    1.25089   1.46458    0.000
 6698.00    1.26283   1.46442    0.000
 6699.00    1.27076   1.46440    0.000
 6700.00    1.27699   1.46424    0.000
 6701.00    1.26905   1.46414    0.000
 6702.00    1.25600   1.46403    0.000
 6703.00    1.24618   1.46383    0.000
 6704.00    1.23734   1.46377    0.000
 6705.00    1.24388   1.46349    0.000
 6706.00    1.25431   1.46347    0.000
 6707.00    1.24472   1.46314    0.000
 6708.00    1.23101   1.46315    0.000
 6709.00    1.23558   1.46281    0.000
 6710.00    1.24311   1.46281    0.000
 6711.00    1.25342   1.46252    0.000
 6712.00    1.26407   1.46247    0.000
 6713.00    1.25907   1.46228    0.000
 6714.00    1.25277   1.46215    0.000
 6715.00    1.25593   1.46206    0.000
 6716.00    1.25954   1.46186    0.000
 6717.00    1.25478   1.46183    0.000
 6718.00    1.25012   1.46161    0.000
 6719.00    1.25712   1.46159    0.000
 6720.00    1.26291   1.46142    0.000
 6721.00    1.24491   1.46134    0.000
 6722.00    1.22911   1.46125    0.000
 6723.00    1.23846   1.46110    0.000
 6724.00    1.24667   1.46105    0.000
 6725.00    1.24583   1.46084    0.000
 6726.00    1.24659   1.46078    0.000
 6727.00    1.25690   1.46054    0.000
 6728.00    1.26313   1.46045    0.000
 6729.00    1.25002   1.46021    0.000
 6730.00    1.24277   1.46011    0.000
 6731.00    1.25817   1.45992    0.000
 6732.00    1.26595   1.45982    0.000
 6733.00    1.24916   1.45970    0.000
 6734.00    1.23902   1.45964    0.000
 6735.00    1.24698   1.45957    0.000
 6736.00    1.25104   1.45958    0.000
 6737.00    1.24602   1.45953    0.000
 6738.00    1.23966   1.45954    0.000
 6739.00    1.23063   1.45951    0.000
 6740.00    1.22615   1.45945    0.000
 6741.00    1.22968   1.45943    0.000
 6742.00    1.22910   1.45928    0.000
 6743.00    1.22219   1.45925    0.000
 6744.00    1.22526   1.45905    0.000
 6745.00    1.24183   1.45901    0.000
 6746.00    1.23873   1.45879    0.000
 6747.00    1.21219   1.45872    0.000
 6748.00    1.20067   1.45853    0.000
 6749.00    1.20491   1.45841    0.000
 6750.00    1.20607   1.45829    0.000
 6751.00    1.20438   1.45811    0.000
 6752.00    1.20831   1.45804    0.000
 6753.00    1.21683   1.45782    0.119
 6754.00    1.20273   1.45778    0.120
 6755.00    1.17240   1.45755    0.119
 6756.00    1.17192   1.45750    0.119
 6757.00    1.19028   1.45729    0.118
 6758.00    1.21796   1.45719    0.120
 6759.00    1.25079   1.45700    0.123
 6760.00    1.28143   1.45688    0.126
 6761.00    1.31102   1.45668    0.127
 6762.00    1.38103   1.45653    0.131
 6763.00    1.46776   1.45634    0.136
 6764.00    1.47746   1.45614    0.137
 6765.00    1.45993   1.45598    0.137
 6766.00    1.47518   1.45572    0.136
 6767.00    1.50021   1.45560    0.135
 6768.00    1.50279   1.45530    0.135
 6769.00    1.49982   1.45521    0.135
 6770.00    1.43670   1.45491    0.131
 6771.00    1.36151   1.45486    0.126
 6772.00    1.32958   1.45459    0.125
 6773.00    1.30443   1.45458    0.124
 6774.00    1.28869   1.45434    0.121
 6775.00    1.27404   1.45436    0.119
 6776.00    1.26518   1.45415    0.119
 6777.00    1.25678   1.45418    0.119
 6778.00    1.27727   1.45398    0.121
 6779.00    1.29901   1.45401    0.123
 6780.00    1.29758   1.45381    0.123
 6781.00    1.29604   1.45385    0.123
 6782.00    1.30036   1.45363    0.123
 6783.00    1.30534   1.45368    0.122
 6784.00    1.32242   1.45345    0.123
 6785.00    1.33783   1.45351    0.123
 6786.00    1.33498   1.45328    0.124
 6787.00    1.33119   1.45335    0.124
 6788.00    1.32022   1.45314    0.125
 6789.00    1.30723   1.45320    0.126
 6790.00    1.28239   1.45300    0.126
 6791.00    1.26610   1.45307    0.125
 6792.00    1.28931   1.45285    0.125
 6793.00    1.30907   1.45292    0.125
 6794.00    1.31581   1.45268    0.126
 6795.00    1.31622   1.45272    0.126
 6796.00    1.29666   1.45248    0.124
 6797.00    1.28443   1.45246    0.124
 6798.00    1.29189   1.45224    0.123
 6799.00    1.29433   1.45214    0.123
 6800.00    1.28527   1.45199    0.121
 6801.00    1.27863   1.45180    0.120
 6802.00    1.27679   1.45174    0.120
 6803.00    1.26861   1.45149    0.119
 6804.00    1.24942   1.45149    0.118
 6805.00    1.23320   1.45122    0.117
 6806.00    1.22148   1.45127    0.117
 6807.00    1.22514   1.45099    0.118
 6808.00    1.24929   1.45104    0.118
 6809.00    1.26116   1.45078    0.119
 6810.00    1.25859   1.45081    0.120
 6811.00    1.24771   1.45057    0.120
 6812.00    1.22820   1.45056    0.122
 6813.00    1.22871   1.45033    0.124
 6814.00    1.24748   1.45028    0.127
 6815.00    1.26007   1.45007    0.128
 6816.00    1.26767   1.45000    0.127
 6817.00    1.26772   1.44981    0.126
 6818.00    1.26241   1.44972    0.124
 6819.00    1.25797   1.44957    0.122
 6820.00    1.25406   1.44946    0.122
 6821.00    1.26192   1.44935    0.121
 6822.00    1.27618   1.44922    0.121
 6823.00    1.26723   1.44914    0.119
 6824.00    1.24735   1.44897    0.117
 6825.00    1.23464   1.44892    0.116
 6826.00    1.22485   1.44872    0.116
 6827.00    1.22335   1.44868    0.117
 6828.00    1.22475   1.44844    0.119
 6829.00    1.23398   1.44842    0.120
 6830.00    1.24550   1.44813    0.120
 6831.00    1.25903   1.44815    0.121
 6832.00    1.27305   1.44784    0.123
 6833.00    1.27576   1.44789    0.123
 6834.00    1.27625   1.44757    0.122
 6835.00    1.27439   1.44764    0.124
 6836.00    1.27217   1.44733    0.126
 6837.00    1.25481   1.44741    0.126
 6838.00    1.23576   1.44712    0.127
 6839.00    1.23741   1.44719    0.127
 6840.00    1.24061   1.44692    0.127
 6841.00    1.23706   1.44695    0.125
 6842.00    1.23324   1.44671    0.123
 6843.00    1.23024   1.44672    0.121
 6844.00    1.22716   1.44648    0.119
 6845.00    1.22095   1.44649    0.117
 6846.00    1.21570   1.44626    0.115
 6847.00    1.22689   1.44627    0.115
 6848.00    1.23663   1.44603    0.116
 6849.00    1.23123   1.44605    0.117
 6850.00    1.22859   1.44582    0.117
 6851.00    1.24635   1.44580    0.119
 6852.00    1.26020   1.44560    0.120
 6853.00    1.25185   1.44552    0.119
 6854.00    1.24284   1.44537    0.119
 6855.00    1.23084   1.44521    0.120
 6856.00    1.22079   1.44512    0.120
 6857.00    1.21796   1.44487    0.121
 6858.00    1.21287   1.44481    0.122
 6859.00    1.20078   1.44449    0.123
 6860.00    1.19197   1.44439    0.123
 6861.00    1.19178   1.44401    0.122
 6862.00    1.19399   1.44382    0.121
 6863.00    1.20162   1.44335    0.121
 6864.00    1.20353   1.44297    0.121
 6865.00    1.19422   1.44238    0.120
 6866.00    1.18614   1.44173    0.120
 6867.00    1.18016   1.44092    0.119
 6868.00    1.18054   1.43994    0.119
 6869.00    1.19043   1.43882    0.119
 6870.00    1.20159   1.43745    0.118
 6871.00    1.21441   1.43601    0.117
 6872.00    1.21871   1.43430    0.117
 6873.00    1.21312   1.43265    0.117
 6874.00    1.21249   1.43079    0.116
 6875.00    1.21692   1.42919    0.115
 6876.00    1.21799   1.42753    0.116
 6877.00    1.21602   1.42634    0.117
 6878.00    1.21096   1.42529    0.118
 6879.00    1.20346   1.42483    0.119
 6880.00    1.20285   1.42466    0.120
 6881.00    1.20706   1.42505    0.121
 6882.00    1.21716   1.42577    0.122
 6883.00    1.23087   1.42687    0.123
 6884.00    1.22206   1.42822    0.123
 6885.00    1.20122   1.42968    0.123
 6886.00    1.19316   1.43125    0.122
 6887.00    1.19104   1.43271    0.121
 6888.00    1.18957   1.43413    0.120
 6889.00    1.18836   1.43534    0.118
 6890.00    1.17944   1.43640    0.117
 6891.00    1.16790   1.43727    0.117
 6892.00    1.16376   1.43794    0.117
 6893.00    1.16173   1.43849    0.117
 6894.00    1.17534   1.43883    0.118
 6895.00    1.19266   1.43915    0.119
 6896.00    1.19861   1.43928    0.118
 6897.00    1.20240   1.43943    0.117
 6898.00    1.20799   1.43945    0.119
 6899.00    1.21384   1.43950    0.122
 6900.00    1.21309   1.43946    0.122
 6901.00    1.21163   1.43946    0.123
 6902.00    1.21075   1.43938    0.123
 6903.00    1.20990   1.43938    0.124
 6904.00    1.20504   1.43927    0.123
 6905.00    1.20003   1.43926    0.123
 6906.00    1.19149   1.43914    0.122
 6907.00    1.18337   1.43913    0.121
 6908.00    1.19026   1.43902    0.121
 6909.00    1.19657   1.43898    0.122
 6910.00    1.19340   1.43888    0.121
 6911.00    1.19024   1.43881    0.121
 6912.00    1.18716   1.43873    0.119
 6913.00    1.18343   1.43862    0.118
 6914.00    1.17499   1.43856    0.118
 6915.00    1.16777   1.43843    0.119
 6916.00    1.16735   1.43837    0.119
 6917.00    1.16797   1.43825    0.119
 6918.00    1.17318   1.43820    0.118
 6919.00    1.17802   1.43811    0.118
 6920.00    1.18147   1.43804    0.119
 6921.00    1.18396   1.43799    0.119
 6922.00    1.18356   1.43790    0.120
 6923.00    1.18387   1.43790    0.121
 6924.00    1.18600   1.43778    0.123
 6925.00    1.18416   1.43780    0.123
 6926.00    1.17346   1.43765    0.122
 6927.00    1.16835   1.43767    0.122
 6928.00    1.17400   1.43751    0.124
 6929.00    1.18123   1.43750    0.125
 6930.00    1.19108   1.43734    0.124
 6931.00    1.19383   1.43730    0.123
 6932.00    1.18611   1.43715    0.123
 6933.00    1.18362   1.43708    0.123
 6934.00    1.18790   1.43696    0.123
 6935.00    1.18633   1.43685    0.122
 6936.00    1.17807   1.43676    0.122
 6937.00    1.17551   1.43663    0.121
 6938.00    1.17869   1.43656    0.120
 6939.00    1.17716   1.43641    0.120
 6940.00    1.17145   1.43637    0.122
 6941.00    1.16690   1.43621    0.121
 6942.00    1.16326   1.43618    0.119
 6943.00    1.15553   1.43602    0.119
 6944.00    1.14498   1.43599    0.119
 6945.00    1.14059   1.43586    0.120
 6946.00    1.13990   1.43581    0.120
 6947.00    1.16119   1.43572    0.122
 6948.00    1.19404   1.43564    0.124
 6949.00    1.19786   1.43557    0.125
 6950.00    1.18842   1.43547    0.125
 6951.00    1.18125   1.43541    0.125
 6952.00    1.17497   1.43530    0.125
 6953.00    1.17674   1.43523    0.124
 6954.00    1.18120   1.43512    0.124
 6955.00    1.17034   1.43501    0.123
 6956.00    1.15518   1.43491    0.122
 6957.00    1.16115   1.43476    0.121
 6958.00    1.17201   1.43467    0.121
 6959.00    1.17798   1.43449    0.121
 6960.00    1.18303   1.43440    0.121
 6961.00    1.16231   1.43422    0.120
 6962.00    1.13790   1.43412    0.119
 6963.00    1.14393   1.43396    0.120
 6964.00    1.15312   1.43384    0.121
 6965.00    1.15071   1.43373    0.121
 6966.00    1.14754   1.43360    0.121
 6967.00    1.16505   1.43355    0.123
 6968.00    1.18322   1.43339    0.124
 6969.00    1.16471   1.43339    0.124
 6970.00    1.14712   1.43321    0.124
 6971.00    1.15748   1.43322    0.125
 6972.00    1.16654   1.43304    0.126
 6973.00    1.15605   1.43304    0.127
 6974.00    1.14437   1.43286    0.127
 6975.00    1.12127   1.43284    0.126
 6976.00    1.10218   1.43268    0.124
 6977.00    1.11091   1.43265    0.123
 6978.00    1.12006   1.43251    0.122
 6979.00    1.13151   1.43250    0.122
 6980.00    1.14288   1.43237    0.121
 6981.00    1.15390   1.43239    0.122
 6982.00    1.16363   1.43226    0.122
 6983.00    1.16875   1.43231    0.122
 6984.00    1.16984   1.43217    0.122
 6985.00    1.15890   1.43223    0.122
 6986.00    1.15288   1.43208    0.122
 6987.00    1.15934   1.43212    0.122
 6988.00    1.16071   1.43198    0.123
 6989.00    1.15093   1.43198    0.124
 6990.00    1.14065   1.43185    0.124
 6991.00    1.12943   1.43180    0.124
 6992.00    1.12797   1.43171    0.125
 6993.00    1.14266   1.43162    0.128
 6994.00    1.14983   1.43155    0.128
 6995.00    1.14606   1.43143    0.126
 6996.00    1.14637   1.43140    0.125
 6997.00    1.15191   1.43127    0.126
 6998.00    1.14606   1.43125    0.126
 6999.00    1.12742   1.43112    0.126
 7000.00    1.11276   1.43112    0.124
 7001.00    1.10204   1.43100    0.122
 7002.00    1.11138   1.43102    0.122
 7003.00    1.13828   1.43090    0.126
 7004.00    1.14081   1.43093    0.130
 7005.00    1.12458   1.43083    0.136
 7006.00    0.89553   1.43086    0.115
 7007.00    0.52229   1.43076    0.090
 7008.00    0.48401   1.43077    0.122
 7009.00    0.64461   1.43068    0.481
 7010.00    0.69092   1.43067   -1.000
 7011.00    0.67802   1.43058   -1.000
 7012.00    0.67809   1.43054   -1.000
 7013.00    0.68399   1.43045   -1.000
 7014.00    0.69080   1.43039   -1.000
 7015.00    0.69797   1.43030   -1.000
 7016.00    0.69981   1.43021   -1.000
 7017.00    0.69991   1.43013   -1.000
 7018.00    0.70158   1.43002   -1.000
 7019.00    0.70369   1.42995   -1.000
 7020.00    0.69958   1.42984   -1.000
 7021.00    0.69407   1.42977   -1.000
 7022.00    0.68956   1.42968   -1.000
 7023.00    0.68523   1.42963   -1.000
 7024.00    0.68420   1.42957   -1.000
 7025.00    0.68364   1.42954   -1.000
 7026.00    0.69265   1.42951   -1.000
 7027.00    0.70260   1.42949   -1.000
 7028.00    0.70362   1.42949   -1.000
 7029.00    0.70408   1.42948   -1.000
 7030.00    0.70209   1.42949   -1.000
 7031.00    0.70004   1.42947   -1.000
 7032.00    0.69655   1.42948   -1.000
 7033.00    0.69305   1.42945   -1.000
 7034.00    0.68948   1.42945   -1.000
 7035.00    0.68616   1.42938   -1.000
 7036.00    0.68636   1.42937   -1.000
 7037.00    0.68711   1.42928   -1.000
 7038.00    0.69301   1.42925   -1.000
 7039.00    0.69721   1.42914   -1.000
 7040.00    0.68993   1.42908   -1.000
 7041.00    0.68567   1.42896   -1.000
 7042.00    0.69724   1.42888   -1.000
 7043.00    0.71060   1.42877   -1.000
 7044.00    0.73151   1.42866   -1.000
 7045.00    0.74410   1.42856   -1.000
 7046.00    0.72773   1.42842   -1.000
 7047.00    0.71462   1.42836   -1.000
 7048.00    0.71104   1.42819   -1.000
 7049.00    0.71124   1.42816   -1.000
 7050.00    0.72088   1.42796   -2.000
 7051.00    0.72807   1.42797   -2.000
 7052.00    0.72997   1.42776   -2.000
 7053.00    0.73315   1.42781   -2.000
 7054.00    0.73871   1.42761   -2.000
 7055.00    0.74442   1.42767   -2.000
 7056.00    0.75037   1.42751   -2.000
 7057.00    0.75341   1.42754   -2.000
 7058.00    0.75227   1.42744   -2.000
 7059.00    0.75326   1.42743   -2.000
 7060.00    0.75692   1.42737   -2.000
 7061.00    0.76406   1.42729   -2.000
 7062.00    0.77507   1.42725   -2.000
 7063.00    0.79173   1.42710   -2.000
 7064.00    0.81392   1.42704   -2.000
 7065.00    0.80553   1.42683   -2.000
 7066.00    0.77075   1.42672   -2.000
 7067.00    0.74589   1.42647   -2.000
 7068.00    0.72855   1.42631   -2.000
 7069.00    0.73442   1.42603   -2.000
 7070.00    0.75579   1.42581   -2.000
 7071.00    0.76824   1.42552   -2.000
 7072.00    0.77547   1.42527   -2.000
 7073.00    0.78274   1.42497   -2.000
 7074.00    0.79002   1.42472   -2.000
 7075.00    0.79468   1.42444   -2.000
 7076.00    0.79817   1.42421   -2.000
 7077.00    0.79076   1.42398   -2.000
 7078.00    0.77923   1.42380   -2.000
 7079.00    0.77244   1.42363   -2.000
 7080.00    0.76717   1.42352   -2.000
 7081.00    0.76475   1.42345   -2.000
 7082.00    0.76310   1.42341   -2.000
 7083.00    0.75309   1.42346   -2.000
 7084.00    0.74124   1.42351   -2.000
 7085.00    0.73784   1.42365   -2.000
 7086.00    0.73592   1.42377   -2.000
 7087.00    0.74396   1.42396   -2.000
 7088.00    0.75332   1.42413   -2.000
 7089.00    0.75843   1.42430   -2.000
 7090.00    0.76314   1.42448   -2.000
 7091.00    0.73729   1.42459   -2.000
 7092.00    0.70964   1.42473   -2.000
 7093.00    0.70679   1.42476   -2.000
 7094.00    0.70460   1.42485   -2.000
 7095.00    0.70985   1.42481   -2.000
 7096.00    0.71476   1.42485   -2.000
 7097.00    0.71131   1.42476   -2.000
 7098.00    0.70739   1.42476   -2.000
 7099.00    0.69721   1.42466   -2.000
 7100.00    0.68643   1.42463   -2.000
 7101.00    0.67032   1.42455   -2.000
 7102.00    0.65571   1.42450   -2.000
 7103.00    0.65091   1.42445   -2.000
 7104.00    0.64963   1.42437   -2.000
 7105.00    0.66626   1.42436   -2.000
 7106.00    0.67776   1.42425   -2.000
 7107.00    0.66815   1.42426   -2.000
 7108.00    0.66005   1.42415   -2.000
 7109.00    0.65708   1.42415   -2.000
 7110.00    0.66126   1.42406   -2.000
 7111.00    0.68594   1.42402   -2.000
 7112.00    0.69548   1.42397   -2.000
 7113.00    0.66787   1.42391   -2.000
 7114.00    0.65276   1.42389   -2.000
 7115.00    0.66410   1.42381   -2.000
 7116.00    0.67696   1.42382   -2.000
 7117.00    0.69263   1.42373   -2.000
 7118.00    0.70196   1.42374   -2.000
 7119.00    0.70111   1.42364   -2.000
 7120.00    0.70672   1.42367   -2.000
 7121.00    0.72142   1.42354   -2.000
 7122.00    0.73012   1.42359   -2.000
 7123.00    0.73137   1.42343   -2.000
 7124.00    0.73650   1.42349   -2.000
 7125.00    0.74588   1.42332   -2.000
 7126.00    0.74967   1.42337   -2.000
 7127.00    0.74807   1.42320   -2.000
 7128.00    0.75062   1.42323   -2.000
 7129.00    0.75671   1.42310   -2.000
 7130.00    0.75258   1.42308   -2.000
 7131.00    0.74080   1.42300   -2.000
 7132.00    0.71459   1.42293   -2.000
 7133.00    0.67887   1.42292   -2.000
 7134.00    0.66861   1.42281   -2.000
 7135.00    0.67300   1.42283   -2.000
 7136.00    0.67662   1.42270   -2.000
 7137.00    0.67984   1.42273   -2.000
 7138.00    0.69947   1.42260   -2.000
 7139.00    0.72623   1.42262   -2.000
 7140.00    0.72958   1.42251   -2.000
 7141.00    0.72422   1.42249   -2.000
 7142.00    0.69913   1.42241   -2.000
 7143.00    0.66781   1.42235   -2.000
 7144.00    0.66845   1.42231   -2.000
 7145.00    0.67751   1.42222   -2.000
 7146.00    0.67904   1.42220   -2.000
 7147.00    0.67896   1.42210   -2.000
 7148.00    0.67476   1.42209   -2.000
 7149.00    0.66986   1.42202   -2.000
 7150.00    0.66535   1.42198   -2.000
 7151.00    0.66089   1.42197   -2.000
 7152.00    0.66768   1.42189   -2.000
 7153.00    0.67549   1.42192   -2.000
 7154.00    0.66804   1.42183   -2.000
 7155.00    0.65976   1.42188   -2.000
 7156.00    0.66775   1.42181   -2.000
 7157.00    0.67590   1.42184   -2.000
 7158.00    0.66743   1.42180   -2.000
 7159.00    0.66151   1.42178   -2.000
 7160.00    0.71365   1.42176   -2.000
 7161.00    0.76218   1.42171   -2.000
 7162.00    0.76522   1.42168   -2.000
 7163.00    0.76812   1.42161   -2.000
 7164.00    0.76982   1.42153   -2.000
 7165.00    0.76537   1.42149   -2.000
 7166.00    0.72195   1.42135   -2.000
 7167.00    0.69171   1.42134   -2.000
 7168.00    0.72682   1.42116   -2.000
 7169.00    0.75515   1.42118   -2.000
 7170.00    0.75613   1.42099   -2.000
 7171.00    0.74868   1.42102   -2.000
 7172.00    0.71306   1.42086   -2.000
 7173.00    0.68470   1.42086   -2.000
 7174.00    0.67683   1.42077   -2.000
 7175.00    0.67885   1.42073   -2.000
 7176.00    0.70471   1.42070   -2.000
 7177.00    0.71905   1.42063   -2.000
 7178.00    0.70941   1.42065   -2.000
 7179.00    0.70015   1.42055   -2.000
 7180.00    0.69158   1.42060   -2.000
 7181.00    0.68225   1.42047   -2.000
 7182.00    0.67172   1.42054   -2.000
 7183.00    0.66776   1.42040   -2.000
 7184.00    0.67293   1.42048   -2.000
 7185.00    0.67350   1.42032   -2.000
 7186.00    0.66843   1.42042   -2.000
 7187.00    0.66267   1.42026   -2.000
 7188.00    0.65619   1.42035   -2.000
 7189.00    0.66053   1.42021   -2.000
 7190.00    0.67517   1.42027   -2.000
 7191.00    0.67538   1.42019   -2.000
 7192.00    0.66348   1.42017   -2.000
 7193.00    0.66151   1.42018   -2.000
 7194.00    0.66687   1.42007   -2.000
 7195.00    0.65633   1.42018   -2.000
 7196.00    0.63547   1.42001   -2.000
 7197.00    0.63416   1.42017   -2.000
 7198.00    0.64393   1.42000   -2.000
 7199.00    0.66140   1.42012   -2.000
 7200.00    0.68268   1.42004   -2.000
 7201.00    0.70404   1.42007   -2.000
 7202.00    0.72543   1.42011   -2.000
 7203.00    0.71216   1.42001   -2.000
 7204.00    0.68622   1.42017   -2.000
 7205.00    0.65017   1.41996   -2.000
 7206.00    0.61099   1.42021   -2.000
 7207.00    0.61103   1.41993   -2.000
 7208.00    0.62119   1.42021   -2.000
 7209.00    0.61882   1.41992   -2.000
 7210.00    0.61381   1.42020   -2.000
 7211.00    0.62855   1.41992   -2.000
 7212.00    0.64656   1.42018   -2.000
 7213.00    0.64245   1.41992   -2.000
 7214.00    0.63557   1.42015   -2.000
 7215.00    0.63773   1.41991   -2.000
 7216.00    0.64067   1.42011   -2.000
 7217.00    0.62747   1.41990   -2.000
 7218.00    0.61346   1.42003   -2.000
