###################################################################
## OUTPUT of StarlightChains_v04.for    [Cid@UFSC - 01/Apr/2007] ##
###################################################################

## Some input info
KUG0210-078._27_28.txt                   [arq_obs]
Base.CB07.vall.4m                        [arq_base]
Masks.EmLines.NEW.gm                     [arq_masks]
StCv04.C11.config                        [arq_config]
   66                                    [N_base]
    0                                    [N_YAV_components = # of components with extra extinction!]
    0                                    [i_FitPowerLaw (1/0 = Yes/No)]
-9.99                                    [alpha_PowerLaw]
CCM                                      [red_law_option]
 1.458241                                [q_norm = A(l_norm)/A(V)]

## (Re)Sampling Parameters
 3741.00                                 [l_ini (A)]
 7218.00                                 [l_fin (A)]
    1.00                                 [dl    (A)]     (OBS: dl_cushion =    50.00 A)

## Normalization info
 4020.00                                 [l_norm (A) - for base]
 4010.00                                 [llow_norm (A) - window for f_obs]
 4060.00                                 [lupp_norm (A) - window for f_obs]
2.549427E-17                             [fobs_norm (in input units)]

## S/N
 3691.00                                 [llow_SN (A) - window for S/N]
 7268.00                                 [lupp_SN (A) - window for S/N]
   5.620                                 [S/N in S/N window]
   6.494                                 [S/N in norm. window]
   0.038                                 [S/N_err in S/N window]
   0.044                                 [S/N_err in norm. window]
  1.0000                                 [fscale_chi2]

## etc...
    -2007348                             [idum_orig]
  2430                                   [NOl_eff]
  1939                                   [Nl_eff]
   491    NSIGMA                         [Ntot_cliped & clip_method]
 10703280                                [Nglobal_steps]
   7                                     [N_chains]
  43                                     [NEX0s_base = N_base in EX0s-fits]
 0   0   1        0   2.0   2.523E+04    [Clip-Bug, RC-Crash & Burn-In warning-flags, n_censored_weights, wei_nsig_threshold & wei_limit]
    72     72.580     72.183      0.398  [idt_all, wdt_TotTime, wdt_UsrTime & wdt_SysTime (sec)]

## Synthesis Results - Best model ##

 1.01449E-05                             [chi2/Nl_eff]
     6.30804                             [adev (%)]

    92.78063                             [sum-of-x (%)]
 4.00998E-17                             [Flux_tot (units of input spectrum!)]
 1.86554E-12                             [Mini_tot (???)]
 9.27924E-13                             [Mcor_tot (???)]

  52.02                                  [v0_min  (km/s)]
 270.46                                  [vd_min  (km/s)]
 0.3930                                  [AV_min  (mag)]
 0.0000                                  [YAV_min (mag)]

# j     x_j(%)      Mini_j(%)     Mcor_j(%)     age_j(yr)     Z_j      (L/M)_j    YAV?  Mstars   component_j        a/Fe...       SSP_chi2r SSP_adev(%)   SSP_AV   SSP_x(%)
  1      6.2850     1.3310E-02    2.6758E-02    1.000000E+06  0.00400  1.094E-02    0   1.0000   age020_m42            0.0000     1.8700E-05     9.5129   3.1160    78.2267
  2      0.0000     0.0000E+00    0.0000E+00    3.160000E+06  0.00400  4.007E-02    0   0.9999   age045_m42            0.0000     1.7083E-05     8.9985   2.4199    82.5528
  3      0.0000     0.0000E+00    0.0000E+00    5.010000E+06  0.00400  2.539E-02    0   0.9488   age055_m42            0.0000     1.7370E-05     9.1284   2.7228    81.1342
  4      0.5836     5.1601E-04    9.5650E-04    6.610000E+06  0.00400  2.620E-02    0   0.9220   age061_m42            0.0000     1.6352E-05     8.7918   2.3378    83.0689
  5      0.0744     1.3041E-04    2.3235E-04    1.000000E+07  0.00400  1.322E-02    0   0.8862   age070_m42            0.0000     1.3745E-05     7.8698   1.9883    87.6461
  6      0.0000     0.0000E+00    0.0000E+00    1.445000E+07  0.00400  7.883E-03    0   0.8571   age078_m42            0.0000     1.4536E-05     8.1538   2.3163    85.3196
  7      0.0000     0.0000E+00    0.0000E+00    2.512000E+07  0.00400  5.251E-03    0   0.8174   age090_m42            0.0000     1.3263E-05     7.6697   1.8499    88.5434
  8      0.0000     0.0000E+00    0.0000E+00    4.000000E+07  0.00400  3.649E-03    0   0.7851   age104_m42            0.0000     1.3125E-05     7.6306   1.6343    88.8141
  9      0.0000     0.0000E+00    0.0000E+00    5.500000E+07  0.00400  3.098E-03    0   0.7629   age110_m42            0.0000     1.4019E-05     7.9592   1.8211    87.3810
 10      0.0000     0.0000E+00    0.0000E+00    1.015200E+08  0.00400  2.228E-03    0   0.7207   age116_m42            0.0000     1.4466E-05     8.1145   1.8640    86.6137
 11      0.0000     0.0000E+00    0.0000E+00    2.861200E+08  0.00400  1.093E-03    0   0.6648   age125_m42            0.0000     1.3259E-05     7.6117   1.2712    90.1398
 12      0.0000     0.0000E+00    0.0000E+00    5.088000E+08  0.00400  6.597E-04    0   0.6365   age130_m42            0.0000     1.3725E-05     7.7849   1.2986    89.3498
 13      0.0000     0.0000E+00    0.0000E+00    1.434000E+09  0.00400  2.132E-04    0   0.5798   age139_m42            0.0000     1.2036E-05     7.2356   0.3768    89.2788
 14      0.0000     0.0000E+00    0.0000E+00    4.250000E+09  0.00400  5.895E-05    0   0.5377   age158_m42            0.0000     1.3139E-05     7.7159  -0.0060    83.5346
 15      0.0000     0.0000E+00    0.0000E+00    7.500000E+09  0.00400  3.510E-05    0   0.5212   age171_m42            0.0000     1.3447E-05     7.8128  -0.1720    82.0999
 16      0.0000     0.0000E+00    0.0000E+00    1.300000E+10  0.00400  2.005E-05    0   0.5034   age193_m42            0.0000     1.3932E-05     7.9379  -0.3215    81.0206
 17      0.0000     0.0000E+00    0.0000E+00    1.800000E+10  0.00400  1.525E-05    0   0.4967   age213_m42            0.0000     1.3839E-05     7.8903  -0.3463    80.7534
 18      0.0000     0.0000E+00    0.0000E+00    1.000000E+06  0.00800  1.238E-02    0   1.0000   age020_m52            0.0000     1.8697E-05     9.5104   3.1131    78.3566
 19      4.8977     3.6912E-03    7.3957E-03    3.160000E+06  0.00800  3.074E-02    0   0.9966   age045_m52            0.0000     1.8536E-05     9.4704   3.0415    78.8929
 20      0.0000     0.0000E+00    0.0000E+00    5.010000E+06  0.00800  2.668E-02    0   0.9443   age055_m52            0.0000     1.7354E-05     9.1246   2.7991    80.6458
 21      0.0000     0.0000E+00    0.0000E+00    6.610000E+06  0.00800  2.136E-02    0   0.9177   age061_m52            0.0000     1.3190E-05     7.7573   1.5004    88.2279
 22      0.0000     0.0000E+00    0.0000E+00    1.000000E+07  0.00800  1.215E-02    0   0.8827   age070_m52            0.0000     1.3419E-05     7.6746   2.1455    88.3363
 23     14.0996     3.7473E-02    6.4429E-02    1.445000E+07  0.00800  8.717E-03    0   0.8552   age078_m52            0.0000     1.4169E-05     7.9875   2.2824    86.5147
 24      0.0000     0.0000E+00    0.0000E+00    2.512000E+07  0.00800  5.592E-03    0   0.8162   age090_m52            0.0000     1.2936E-05     7.4767   1.9134    89.6062
 25      0.0000     0.0000E+00    0.0000E+00    4.000000E+07  0.00800  3.896E-03    0   0.7841   age104_m52            0.0000     1.3062E-05     7.5319   1.8463    89.3956
 26      0.0000     0.0000E+00    0.0000E+00    1.015200E+08  0.00800  2.148E-03    0   0.7226   age116_m52            0.0000     1.3731E-05     7.8256   1.8197    87.7909
 27      0.0000     0.0000E+00    0.0000E+00    2.861200E+08  0.00800  9.925E-04    0   0.6683   age125_m52            0.0000     1.3382E-05     7.6794   1.3657    90.0808
 28      0.0000     0.0000E+00    0.0000E+00    9.047900E+08  0.00800  3.141E-04    0   0.6138   age135_m52            0.0000     1.2772E-05     7.4327   0.6512    90.3088
 29      0.2608     3.5146E-02    4.1357E-02    1.434000E+09  0.00800  1.719E-04    0   0.5853   age139_m52            0.0000     1.2167E-05     7.2460   0.0855    87.8963
 30      0.5075     1.4935E-01    1.6815E-01    2.500000E+09  0.00800  7.872E-05    0   0.5600   age150_m52            0.0000     1.3034E-05     7.6481  -0.1260    83.3623
 31      0.0000     0.0000E+00    0.0000E+00    4.250000E+09  0.00800  4.336E-05    0   0.5426   age158_m52            0.0000     1.3235E-05     7.7194  -0.1382    82.4572
 32      0.0000     0.0000E+00    0.0000E+00    6.250000E+09  0.00800  3.159E-05    0   0.5319   age166_m52            0.0000     1.3787E-05     7.8555  -0.3069    81.1999
 33      0.0000     0.0000E+00    0.0000E+00    1.300000E+10  0.00800  1.361E-05    0   0.5073   age193_m52            0.0000     1.4358E-05     7.9509  -0.7245    78.8552
 34      2.2256     5.2157E+00    5.2325E+00    1.800000E+10  0.00800  9.886E-06    0   0.4990   age213_m52            0.0000     1.5136E-05     8.1353  -0.7953    77.1493
 35      0.0000     0.0000E+00    0.0000E+00    1.000000E+06  0.02000  1.544E-02    0   1.0000   age020_m62            0.0000     1.8754E-05     9.5263   3.1072    78.6052
 36      0.6399     3.9408E-04    7.8102E-04    3.160000E+06  0.02000  3.762E-02    0   0.9858   age045_m62            0.0000     1.8725E-05     9.5434   3.0462    79.2988
 37      0.0000     0.0000E+00    0.0000E+00    5.010000E+06  0.02000  3.296E-02    0   0.9342   age055_m62            0.0000     1.7328E-05     9.1185   2.6918    81.8001
 38     16.2945     3.2713E-02    5.8276E-02    8.710000E+06  0.02000  1.154E-02    0   0.8861   age067_m62            0.0000     1.0661E-05     6.4166   1.4575    97.2837
 39     11.8599     3.5856E-02    6.1072E-02    1.445000E+07  0.02000  7.663E-03    0   0.8472   age078_m62            0.0000     1.2236E-05     7.1525   1.7508    92.1639
 40      0.0000     0.0000E+00    0.0000E+00    2.512000E+07  0.02000  4.532E-03    0   0.8099   age090_m62            0.0000     1.2029E-05     7.0456   1.7370    92.1713
 41      0.0000     0.0000E+00    0.0000E+00    5.500000E+07  0.02000  2.733E-03    0   0.7595   age110_m62            0.0000     1.2860E-05     7.4869   1.8262    88.8821
 42      0.0000     0.0000E+00    0.0000E+00    1.609000E+08  0.02000  1.369E-03    0   0.6985   age120_m62            0.0000     1.3396E-05     7.7066   1.7110    89.3596
 43      0.0000     0.0000E+00    0.0000E+00    2.861200E+08  0.02000  9.013E-04    0   0.6714   age125_m62            0.0000     1.3350E-05     7.6577   1.4877    90.8217
 44      0.0000     0.0000E+00    0.0000E+00    5.088000E+08  0.02000  5.028E-04    0   0.6449   age130_m62            0.0000     1.3944E-05     7.8643   1.1752    90.4585
 45      0.0000     0.0000E+00    0.0000E+00    9.047900E+08  0.02000  2.428E-04    0   0.6179   age135_m62            0.0000     1.2927E-05     7.6141   0.6413    87.7903
 46      5.4280     9.9568E-01    1.1826E+00    1.434000E+09  0.02000  1.263E-04    0   0.5908   age139_m62            0.0000     1.2553E-05     7.5249   0.2233    85.4944
 47      0.0000     0.0000E+00    0.0000E+00    2.500000E+09  0.02000  5.985E-05    0   0.5673   age150_m62            0.0000     1.3409E-05     7.8176  -0.0942    82.4717
 48      0.0000     0.0000E+00    0.0000E+00    4.250000E+09  0.02000  3.271E-05    0   0.5468   age158_m62            0.0000     1.4360E-05     8.0432  -0.3461    79.8340
 49      0.0000     0.0000E+00    0.0000E+00    1.000000E+10  0.02000  1.360E-05    0   0.5167   age181_m62            0.0000     1.5064E-05     8.1247  -0.6264    77.0883
 50      4.1006     1.3335E+01    1.3440E+01    1.800000E+10  0.02000  7.124E-06    0   0.5013   age213_m62            0.0000     1.5799E-05     8.2699  -0.7840    74.6810
 51      2.4832     2.2195E-03    4.4613E-03    1.000000E+06  0.05000  2.592E-02    0   0.9998   age020_m72            0.0000     1.8759E-05     9.5113   3.0959    78.7400
 52      0.0000     0.0000E+00    0.0000E+00    3.160000E+06  0.05000  4.845E-02    0   0.9577   age045_m72            0.0000     1.8407E-05     9.4471   2.9439    79.8322
 53      0.0000     0.0000E+00    0.0000E+00    5.010000E+06  0.05000  3.072E-02    0   0.9147   age055_m72            0.0000     1.4665E-05     8.0970   2.3733    86.8914
 54      4.5140     7.1876E-03    1.2827E-02    6.610000E+06  0.05000  1.455E-02    0   0.8877   age061_m72            0.0000     1.4449E-05     8.0265   1.4228   101.6341
 55      0.0000     0.0000E+00    0.0000E+00    1.000000E+07  0.05000  9.074E-03    0   0.8524   age070_m72            0.0000     1.6703E-05     8.9202   2.5410    86.9858
 56      0.0000     0.0000E+00    0.0000E+00    2.512000E+07  0.05000  4.250E-03    0   0.7902   age090_m72            0.0000     1.4635E-05     8.0760   2.2573    88.1681
 57      0.0000     0.0000E+00    0.0000E+00    4.000000E+07  0.05000  3.087E-03    0   0.7618   age104_m72            0.0000     1.4025E-05     7.8191   2.0258    89.8764
 58      0.0000     0.0000E+00    0.0000E+00    1.015200E+08  0.05000  1.700E-03    0   0.7096   age116_m72            0.0000     1.3317E-05     7.5795   1.8276    90.0315
 59      2.8855     9.0533E-02    1.2073E-01    2.861200E+08  0.05000  7.384E-04    0   0.6633   age125_m72            0.0000     1.3308E-05     7.6110   1.3999    90.1795
 60      0.0000     0.0000E+00    0.0000E+00    5.088000E+08  0.05000  3.819E-04    0   0.6372   age130_m72            0.0000     1.3086E-05     7.6694   0.9784    88.7665
 61      0.0000     0.0000E+00    0.0000E+00    9.047900E+08  0.05000  1.676E-04    0   0.6110   age135_m72            0.0000     1.3419E-05     7.9005   0.3656    83.9746
 62      0.0000     0.0000E+00    0.0000E+00    1.434000E+09  0.05000  8.837E-05    0   0.5874   age139_m72            0.0000     1.3156E-05     7.7083  -0.0782    83.0535
 63      0.0000     0.0000E+00    0.0000E+00    2.500000E+09  0.05000  4.233E-05    0   0.5598   age150_m72            0.0000     1.4447E-05     8.0743  -0.3248    79.7136
 64      0.0000     0.0000E+00    0.0000E+00    6.250000E+09  0.05000  1.435E-05    0   0.5249   age166_m72            0.0000     1.5281E-05     8.1699  -0.7008    76.0181
 65      0.0000     0.0000E+00    0.0000E+00    1.300000E+10  0.05000  6.513E-06    0   0.5036   age193_m72            0.0000     1.6345E-05     8.3826  -0.9191    74.6074
 66     15.6409     8.0045E+01    7.9578E+01    1.800000E+10  0.05000  4.527E-06    0   0.4945   age213_m72            0.0000     1.6995E-05     8.4038  -1.0000    71.9713


## Synthesis Results - Average & Chains ##

# j      x_j: min, <> & last-chain-values for 1 ...  7 chains
  1      6.2850      0.1456      0.0000      0.9302      0.0000      0.3811      0.0799      0.4039      0.0585
  2      0.0000      0.2415      0.3234      0.5191      0.6491      0.1360      0.7178      1.1767      0.0215
  3      0.0000      0.1923      0.2353      0.9307      0.9391      1.1305      0.7263      0.0000      0.4587
  4      0.5836      0.1947      0.6905      1.3112      0.5442      0.1301      0.2051      1.1107      1.4977
  5      0.0744      0.2203      0.6164      1.8497      0.0000      0.2096      1.2190      0.0511      1.1322
  6      0.0000      0.1969      0.0000      0.0073      0.0000      0.0265      0.2190      0.8406      0.2392
  7      0.0000      0.1862      0.2852      0.1053      0.3208      0.0855      1.3032      1.4556      0.0000
  8      0.0000      0.2080      0.0000      0.6410      0.4725      0.0000      0.0000      0.5510      1.3557
  9      0.0000      0.1575      0.0000      0.0196      0.3696      0.0000      0.5016      0.0000      0.1150
 10      0.0000      0.2444      0.4613      1.9071      0.0000      0.6037      0.0000      0.6471      0.4233
 11      0.0000      0.1988      0.7383      0.2349      0.3947      0.0000      0.5462      0.4271      0.0000
 12      0.0000      0.1977      0.5621      0.4879      1.0058      1.4801      1.3078      0.0426      0.0000
 13      0.0000      0.2024      0.0576      0.0000      0.9637      1.3921      0.0318      0.0000      1.1658
 14      0.0000      0.1570      0.0164      0.2326      0.7591      1.2522      0.5995      0.0000      0.5733
 15      0.0000      0.1655      0.1906      0.0094      0.5758      0.6111      0.7589      0.5254      0.0000
 16      0.0000      0.2116      2.7302      0.0000      0.4761      0.1963      0.0000      1.0408      0.3363
 17      0.0000      0.2069      1.0709      0.0000      0.0000      0.3224      0.0191      1.1435      0.9897
 18      0.0000      0.1608      0.0000      0.2667      0.8898      0.0000      0.0000      0.3634      0.4381
 19      4.8977      0.2111      0.0635      0.3632      0.9892      1.7933      0.0000      1.0665      0.0000
 20      0.0000      0.2402      0.3607      0.9811      0.0776      0.0000      1.6732      0.1425      1.0784
 21      0.0000      0.1892      0.0000      0.3205      1.0430      0.3320      1.0025      0.2722      1.0983
 22      0.0000      0.2178      0.4701      0.9442      0.2862      0.2628      0.2935      0.0150      0.0000
 23     14.0996      0.2181      0.5904      1.1304      1.8246      0.1307      1.0187      0.0000      0.5425
 24      0.0000      0.2135      0.5581      0.0000      0.5356      1.7398      0.2457      0.8966      1.5343
 25      0.0000      0.1199      0.8715      0.0435      0.1734      1.2887      0.4028      0.0000      0.2911
 26      0.0000      0.2293      0.0000      0.0000      0.6043      0.5133      0.5661      0.3990      0.1847
 27      0.0000      2.5220      2.7341      2.0307      3.8062      1.5049      3.3025      2.8869      1.5366
 28      0.0000      0.1708      0.0000      0.1632      0.1623      0.2435      0.7078      0.0000      0.7125
 29      0.2608      0.2213      0.0149      0.5555      1.7291      0.0000      0.0000      0.1054      1.0236
 30      0.5075      0.2111      1.7674      1.2003      0.0000      0.0000      0.0000      0.0000      0.5063
 31      0.0000      0.1909      1.0688      0.5078      0.5781      0.0000      0.3701      1.1167      1.3259
 32      0.0000      0.2169      0.0000      0.6189      0.8827      0.2808      0.4542      2.9047      0.1269
 33      0.0000      1.0908      0.7255      0.8641      0.8086      1.0287      1.4826      0.6945      0.9131
 34      2.2256     33.8279     26.2413     26.1532     23.1747     24.2433     24.3716     21.9735     24.1291
 35      0.0000      0.2437      0.8298      0.0000      0.1141      0.9159      0.0000      1.1810      0.1922
 36      0.6399      0.2251      0.2492      0.3941      0.5839      1.5435      0.8315      1.1443      0.9359
 37      0.0000      0.1758      0.6499      0.6798      0.6090      0.7664      0.1610      0.3095      0.2712
 38     16.2945      0.1844      0.4028      0.7294      0.6203      0.0000      0.0000      0.7202      0.4792
 39     11.8599      0.1923      0.4896      0.9279      0.8189      1.1302      0.2795      0.0723      0.7296
 40      0.0000      0.1578      0.9049      1.0039      0.0760      0.0000      0.6722      0.7862      0.3592
 41      0.0000      0.2291      0.4673      0.4510      0.8599      0.5212      1.5553      0.1188      0.6787
 42      0.0000      1.2797      0.5854      0.8241      1.3732      1.6943      2.6235      1.2578      1.5371
 43      0.0000      4.4582      3.1782      4.6790      2.8065      2.8351      4.1325      4.2533      3.5103
 44      0.0000      0.1566      0.0000      0.2152      0.5491      1.0602      0.3143      0.7731      0.4571
 45      0.0000      0.1864      0.7163      0.7348      0.9638      0.0000      0.0000      1.7484      0.8127
 46      5.4280      0.1600      0.0000      0.4935      0.1927      0.0000      0.3133      0.2286      0.3637
 47      0.0000      0.1950      1.3614      0.0460      0.4637      0.3698      0.0000      0.4305      1.1683
 48      0.0000      0.1720      0.9019      0.0596      0.0000      0.0000      0.3259      0.8652      0.3637
 49      0.0000     24.2506     17.1965     18.6158     17.2562     20.4773     18.2424     16.7577     15.8894
 50      4.1006     22.1461     20.6725     18.9269     21.7898     20.4794     21.7382     21.7249     22.0227
 51      2.4832      0.2082      0.2439      0.8360      1.2012      0.3834      0.5213      1.6310      0.6108
 52      0.0000      0.2802      1.5676      1.4673      0.4418      1.4385      0.9858      0.2001      0.9603
 53      0.0000      0.1668      0.7132      0.0000      0.1547      0.0005      0.0000      0.3255      0.0000
 54      4.5140      0.2047      0.0000      0.4686      0.0000      0.0000      0.0782      0.6479      0.5101
 55      0.0000      0.2803      2.2646      0.4801      1.3522      1.2402      0.3838      0.0000      0.0737
 56      0.0000      0.2170      0.0593      0.1223      0.6775      0.7185      0.2718      1.1635      0.2369
 57      0.0000      0.1560      2.2952      0.4876      0.0000      0.0000      0.0000      0.3797      0.1897
 58      0.0000      2.2979      2.7415      1.8172      1.1367      2.4894      2.1725      2.2698      2.6258
 59      2.8855      2.0859      2.6367      2.2323      1.9232      1.9235      0.9141      0.3099      1.4565
 60      0.0000      0.1963      0.0000      0.8589      0.3213      0.4722      1.1528      0.0000      0.0000
 61      0.0000      0.2577      0.0000      0.2686      1.9085      0.1205      0.5202      1.6683      0.0000
 62      0.0000      0.0836      0.0000      0.9496      0.0000      0.3805      0.0000      0.0000      1.7631
 63      0.0000      0.2186      0.0000      0.0000      0.0000      0.0000      0.0302      0.0000      0.1721
 64      0.0000      0.1589      0.0000      0.2830      0.2818      0.4657      0.6569      0.0000      0.6181
 65      0.0000      0.2294      0.9201      0.1250      0.5944      1.3158      0.9162      0.5772      0.5557
 66     15.6409      0.2646      0.6363      0.7196      1.2561      1.0607      1.8117      0.9827      1.1173

# j      m_j: min, <> & last-chain-values for 1 ...  7 chains
  1  2.6758E-02  3.0775E-04  0.0000E+00  2.3984E-03  0.0000E+00  9.2185E-04  1.8944E-04  1.0178E-03  1.4394E-04
  2  0.0000E+00  1.3928E-04  2.1388E-04  3.6537E-04  4.4170E-04  8.9804E-05  4.6460E-04  8.0957E-04  1.4476E-05
  3  0.0000E+00  1.6614E-04  2.3300E-04  9.8106E-04  9.5703E-04  1.1178E-03  7.0400E-04  0.0000E+00  4.6163E-04
  4  9.5650E-04  1.5841E-04  6.4392E-04  1.3016E-03  5.2224E-04  1.2113E-04  1.8724E-04  1.0776E-03  1.4194E-03
  5  2.3235E-04  3.4131E-04  1.0950E-03  3.4974E-03  0.0000E+00  3.7178E-04  2.1196E-03  9.4357E-05  2.0440E-03
  6  0.0000E+00  4.9484E-04  0.0000E+00  2.2294E-05  0.0000E+00  7.6383E-05  6.1776E-04  2.5198E-03  7.0042E-04
  7  0.0000E+00  6.7020E-04  1.1765E-03  4.6232E-04  1.3617E-03  3.5231E-04  5.2618E-03  6.2469E-03  0.0000E+00
  8  0.0000E+00  1.0347E-03  0.0000E+00  3.8899E-03  2.7720E-03  0.0000E+00  0.0000E+00  3.2684E-03  7.8553E-03
  9  0.0000E+00  8.9680E-04  0.0000E+00  1.3632E-04  2.4819E-03  0.0000E+00  3.2043E-03  0.0000E+00  7.6281E-04
 10  0.0000E+00  1.8273E-03  3.9544E-03  1.7401E-02  0.0000E+00  5.1676E-03  0.0000E+00  5.7706E-03  3.6878E-03
 11  0.0000E+00  2.7951E-03  1.1900E-02  4.0298E-03  6.5458E-03  0.0000E+00  8.6166E-03  7.1620E-03  0.0000E+00
 12  0.0000E+00  4.4084E-03  1.4372E-02  1.3278E-02  2.6464E-02  3.7785E-02  3.2729E-02  1.1340E-03  0.0000E+00
 13  0.0000E+00  1.2726E-02  4.1514E-03  0.0000E+00  7.1466E-02  1.0018E-01  2.2406E-03  0.0000E+00  8.5379E-02
 14  0.0000E+00  3.3107E-02  3.9676E-03  5.9832E-02  1.8881E-01  3.0221E-01  1.4184E-01  0.0000E+00  1.4082E-01
 15  0.0000E+00  5.6817E-02  7.5014E-02  3.9319E-03  2.3314E-01  2.4011E-01  2.9231E-01  2.1509E-01  0.0000E+00
 16  0.0000E+00  1.2279E-01  1.8165E+00  0.0000E+00  3.2599E-01  1.3038E-01  0.0000E+00  7.2048E-01  2.2737E-01
 17  0.0000E+00  1.5576E-01  9.2433E-01  0.0000E+00  0.0000E+00  2.7786E-01  1.6108E-02  1.0268E+00  8.6811E-01
 18  0.0000E+00  3.0032E-04  0.0000E+00  6.0777E-04  1.9599E-03  0.0000E+00  0.0000E+00  8.0938E-04  9.5297E-04
 19  7.3957E-03  1.5819E-04  5.4573E-05  3.3211E-04  8.7456E-04  1.5384E-03  0.0000E+00  9.5323E-04  0.0000E+00
 20  0.0000E+00  1.9649E-04  3.3832E-04  9.7950E-04  7.4927E-05  0.0000E+00  1.5361E-03  1.3905E-04  1.0279E-03
 21  0.0000E+00  1.8789E-04  0.0000E+00  3.8847E-04  1.2220E-03  3.7744E-04  1.1172E-03  3.2239E-04  1.2708E-03
 22  0.0000E+00  3.6582E-04  9.0504E-04  1.9349E-03  5.6693E-04  5.0521E-04  5.5302E-04  2.9988E-05  0.0000E+00
 23  6.4429E-02  4.9471E-04  1.5350E-03  3.1282E-03  4.8814E-03  3.3933E-04  2.5922E-03  0.0000E+00  1.4334E-03
 24  0.0000E+00  7.2054E-04  2.1585E-03  0.0000E+00  2.1319E-03  6.7191E-03  9.3031E-04  3.6080E-03  6.0307E-03
 25  0.0000E+00  5.5760E-04  4.6483E-03  2.4702E-04  9.5191E-04  6.8629E-03  2.1025E-03  0.0000E+00  1.5778E-03
 26  0.0000E+00  1.7829E-03  0.0000E+00  0.0000E+00  5.5434E-03  4.5693E-03  4.9396E-03  3.7003E-03  1.6732E-03
 27  0.0000E+00  3.9257E-02  4.8788E-02  3.8570E-02  6.9889E-02  2.6813E-02  5.7681E-02  5.3594E-02  2.7863E-02
 28  0.0000E+00  7.7136E-03  0.0000E+00  8.9966E-03  8.6496E-03  1.2593E-02  3.5877E-02  0.0000E+00  3.7495E-02
 29  4.1357E-02  1.7416E-02  1.3422E-03  5.3354E-02  1.6055E-01  0.0000E+00  0.0000E+00  9.8904E-03  9.3857E-02
 30  1.6815E-01  3.4714E-02  3.3318E-01  2.4086E-01  0.0000E+00  0.0000E+00  0.0000E+00  0.0000E+00  9.6993E-02
 31  0.0000E+00  5.5228E-02  3.5444E-01  1.7923E-01  1.9726E-01  0.0000E+00  1.2013E-01  3.8526E-01  4.4683E-01
 32  0.0000E+00  8.4420E-02  0.0000E+00  2.9393E-01  4.0528E-01  1.2511E-01  1.9837E-01  1.3484E+00  5.7543E-02
 33  0.0000E+00  9.3987E-01  7.1665E-01  9.0854E-01  8.2189E-01  1.0145E+00  1.4334E+00  7.1373E-01  9.1656E-01
 34  5.2325E+00  3.9471E+01  3.5100E+01  3.7236E+01  3.1899E+01  3.2379E+01  3.1908E+01  3.0579E+01  3.2799E+01
 35  0.0000E+00  3.6481E-04  1.4243E-03  0.0000E+00  2.0151E-04  1.5696E-03  0.0000E+00  2.1088E-03  3.3517E-04
 36  7.8102E-04  1.3637E-04  1.7302E-04  2.9133E-04  4.1725E-04  1.0702E-03  5.6515E-04  8.2672E-04  6.6042E-04
 37  0.0000E+00  1.1519E-04  4.8816E-04  5.4346E-04  4.7069E-04  5.7481E-04  1.1835E-04  2.4188E-04  2.0704E-04
 38  5.8276E-02  3.2731E-04  8.1957E-04  1.5797E-03  1.2988E-03  0.0000E+00  0.0000E+00  1.5246E-03  9.9096E-04
 39  6.1072E-02  4.9146E-04  1.4344E-03  2.8936E-03  2.4687E-03  3.3063E-03  8.0160E-04  2.2047E-04  2.1722E-03
 40  0.0000E+00  6.5177E-04  4.2856E-03  5.0603E-03  3.7022E-04  0.0000E+00  3.1158E-03  3.8734E-03  1.7287E-03
 41  0.0000E+00  1.4721E-03  3.4412E-03  3.5350E-03  6.5169E-03  3.8327E-03  1.1211E-02  9.1013E-04  5.0791E-03
 42  0.0000E+00  1.5094E-02  7.9156E-03  1.1861E-02  1.9106E-02  2.2874E-02  3.4720E-02  1.7694E-02  2.1120E-02
 43  0.0000E+00  7.6771E-02  6.2739E-02  9.8317E-02  5.7012E-02  5.5882E-02  7.9849E-02  8.7354E-02  7.0419E-02
 44  0.0000E+00  4.6443E-03  0.0000E+00  7.7857E-03  1.9206E-02  3.5980E-02  1.0455E-02  2.7339E-02  1.5789E-02
 45  0.0000E+00  1.0965E-02  4.8309E-02  5.2750E-02  6.6889E-02  0.0000E+00  0.0000E+00  1.2267E-01  5.5700E-02
 46  1.1826E+00  1.7305E-02  0.0000E+00  6.5121E-02  2.4583E-02  0.0000E+00  3.8014E-02  2.9476E-02  4.5810E-02
 47  0.0000E+00  4.2720E-02  3.4197E-01  1.2295E-02  1.1987E-01  9.2741E-02  0.0000E+00  1.1250E-01  2.9821E-01
 48  0.0000E+00  6.6459E-02  3.9954E-01  2.8103E-02  0.0000E+00  0.0000E+00  1.4132E-01  3.9875E-01  1.6375E-01
 49  0.0000E+00  2.1299E+01  1.7314E+01  1.9950E+01  1.7878E+01  2.0586E+01  1.7977E+01  1.7553E+01  1.6257E+01
 50  1.3440E+01  3.6025E+01  3.8549E+01  3.7567E+01  4.1813E+01  3.8132E+01  3.9677E+01  4.2148E+01  4.1733E+01
 51  4.4613E-03  1.8564E-04  2.4932E-04  9.0958E-04  1.2635E-03  3.9134E-04  5.2152E-04  1.7345E-03  6.3452E-04
 52  0.0000E+00  1.2804E-04  8.2115E-04  8.1813E-04  2.3815E-04  7.5238E-04  5.0545E-04  1.0904E-04  5.1117E-04
 53  0.0000E+00  1.1481E-04  5.6276E-04  0.0000E+00  1.2562E-04  3.5536E-07  0.0000E+00  2.6717E-04  0.0000E+00
 54  1.2827E-02  2.8864E-04  0.0000E+00  8.0640E-04  0.0000E+00  0.0000E+00  1.2377E-04  1.0898E-03  8.3806E-04
 55  0.0000E+00  6.0875E-04  5.6375E-03  1.2723E-03  3.4638E-03  3.0827E-03  9.3512E-04  0.0000E+00  1.8656E-04
 56  0.0000E+00  9.3271E-04  2.9222E-04  6.4148E-04  3.4353E-03  3.5350E-03  1.3106E-03  5.9644E-03  1.1863E-03
 57  0.0000E+00  8.8993E-04  1.5010E-02  3.3944E-03  0.0000E+00  0.0000E+00  0.0000E+00  2.5832E-03  1.2605E-03
 58  0.0000E+00  2.2173E-02  3.0325E-02  2.1395E-02  1.2939E-02  2.7495E-02  2.3521E-02  2.6121E-02  2.9516E-02
 59  1.2073E-01  4.3315E-02  6.2765E-02  5.6562E-02  4.7112E-02  4.5720E-02  2.1298E-02  7.6742E-03  3.5233E-02
 60  0.0000E+00  7.5714E-03  0.0000E+00  4.0422E-02  1.4619E-02  2.0849E-02  4.9892E-02  0.0000E+00  0.0000E+00
 61  0.0000E+00  2.1714E-02  0.0000E+00  2.7625E-02  1.8973E-01  1.1623E-02  4.9186E-02  1.6768E-01  0.0000E+00
 62  0.0000E+00  1.2852E-02  0.0000E+00  1.7804E-01  0.0000E+00  6.6931E-02  0.0000E+00  0.0000E+00  3.1561E-01
 63  0.0000E+00  6.6821E-02  0.0000E+00  0.0000E+00  0.0000E+00  0.0000E+00  1.0354E-02  0.0000E+00  6.1307E-02
 64  0.0000E+00  1.3438E-01  0.0000E+00  2.9203E-01  2.8109E-01  4.5078E-01  6.2325E-01  0.0000E+00  6.0882E-01
 65  0.0000E+00  4.1002E-01  1.8853E+00  2.7265E-01  1.2533E+00  2.6922E+00  1.8375E+00  1.2305E+00  1.1571E+00
 66  7.9578E+01  6.6814E-01  1.8418E+00  2.2172E+00  3.7417E+00  3.0658E+00  5.1330E+00  2.9596E+00  3.2866E+00

# AV, chi2 & Mass for <> & i_chain = 1 ...  7 solutions
AV       0.3930     -0.9856     -0.9169     -0.8250     -0.8586     -0.8851     -0.9051     -0.8404     -0.8809
chi2 1.0145E-05  2.9911E-05  2.3250E-05  2.1350E-05  2.2082E-05  2.2139E-05  2.2801E-05  2.1565E-05  2.1909E-05
Mass 9.2792E-13  2.9349E-13  2.8077E-13  2.9844E-13  2.9506E-13  2.9347E-13  2.9145E-13  2.9907E-13  2.9000E-13
  52.02                                  [v0_min (km/s) before EX0s...]
 270.46                                  [vd_min (km/s) before EX0s...]


## Synthetic spectrum (Best Model) ##l_obs f_obs f_syn wei
 3478    [Nl_obs]
 3741.00    0.36264   0.71052    0.000
 3742.00    0.37218   0.71674    0.000
 3743.00    0.31649   0.71604    0.000
 3744.00    0.25500   0.70853    0.000
 3745.00    0.19011   0.69630   -1.000
 3746.00    0.19659   0.68096   -1.000
 3747.00    0.23931   0.66403   -1.000
 3748.00    0.29112   0.64942   -1.000
 3749.00    0.34692   0.64095   -1.000
 3750.00    0.48064   0.63838   -1.000
 3751.00    0.64377   0.64158   -1.000
 3752.00    0.59280   0.65237   -1.000
 3753.00    0.47323   0.66978   -1.000
 3754.00    0.57707   0.68905   -1.000
 3755.00    0.74079   0.70700   -1.000
 3756.00    0.72198   0.72350   -1.000
 3757.00    0.66311   0.73761   -1.000
 3758.00    0.59514   0.74767   -1.000
 3759.00    0.52559   0.75354   -1.000
 3760.00    0.46887   0.75643   -1.000
 3761.00    0.41386   0.75678   -1.000
 3762.00    0.44248   0.75466   -1.000
 3763.00    0.47897   0.74988   -1.000
 3764.00    0.52757   0.74127   -1.000
 3765.00    0.57687   0.72928   -1.000
 3766.00    0.51319   0.71640   -1.000
 3767.00    0.44821   0.70317   -1.000
 3768.00    0.54978   0.68895   -1.000
 3769.00    0.64819   0.67742   -1.000
 3770.00    0.66979   0.67257   -1.000
 3771.00    0.67874   0.67327   -1.000
 3772.00    0.52204   0.67828   -1.000
 3773.00    0.38666   0.69001   -1.000
 3774.00    0.43843   0.70830   -1.000
 3775.00    0.48502   0.72891   -1.000
 3776.00    0.49805   0.74942   -1.000
 3777.00    0.53878   0.77026   -1.000
 3778.00    0.71971   0.79047   -1.000
 3779.00    0.84486   0.80753   -1.000
 3780.00    0.74170   0.82063   -1.000
 3781.00    0.67402   0.83086   -1.000
 3782.00    0.72666   0.83787   -1.000
 3783.00    0.76095   0.84003   -1.000
 3784.00    0.74276   0.83776   -1.000
 3785.00    0.73335   0.83283   -1.000
 3786.00    0.74542   0.82528   -1.000
 3787.00    0.68326   0.81445   -1.000
 3788.00    0.46467   0.80133   -1.000
 3789.00    0.38921   0.78730   -1.000
 3790.00    0.57594   0.77173   -1.000
 3791.00    0.66573   0.75360   -1.000
 3792.00    0.60034   0.73321   -1.000
 3793.00    0.57541   0.71160   -1.000
 3794.00    0.60731   0.68935   -1.000
 3795.00    0.60177   0.66700   -1.000
 3796.00    0.54998   0.64705   -1.000
 3797.00    0.47933   0.63342   -1.000
 3798.00    0.38812   0.62774   -1.000
 3799.00    0.38470   0.62923   -1.000
 3800.00    0.46564   0.63847   -1.000
 3801.00    0.45204   0.65601   -1.000
 3802.00    0.35832   0.67876   -1.000
 3803.00    0.38804   0.70252   -1.000
 3804.00    0.50989   0.72528   -1.000
 3805.00    0.67712   0.74680   -1.000
 3806.00    0.87410   0.76622   -1.000
 3807.00    0.91195   0.78181   -1.000
 3808.00    0.85849   0.79354   -1.000
 3809.00    0.76466   0.80307   -1.000
 3810.00    0.65065   0.81016   -1.000
 3811.00    0.45405   0.81335   -1.000
 3812.00    0.22174   0.81326   -1.000
 3813.00    0.34271   0.81024   -1.000
 3814.00    0.59470   0.80383   -1.000
 3815.00    0.68089   0.79536   -1.000
 3816.00    0.71495   0.78593   -1.000
 3817.00    0.66525   0.77463   -1.000
 3818.00    0.59358   0.76354   -1.000
 3819.00    0.54086   0.75583   -1.000
 3820.00    0.49220   0.74981   -1.000
 3821.00    0.43472   0.74366   -1.000
 3822.00    0.37573   0.74003   -1.000
 3823.00    0.36000   0.73937   -1.000
 3824.00    0.34982   0.73796   -1.000
 3825.00    0.41335   0.73419   -1.000
 3826.00    0.48351   0.72824   -1.000
 3827.00    0.38044   0.71973   -1.000
 3828.00    0.26807   0.70789   -1.000
 3829.00    0.39105   0.69227   -1.000
 3830.00    0.51592   0.67333   -1.000
 3831.00    0.40305   0.65254   -1.000
 3832.00    0.29174   0.63114   -1.000
 3833.00    0.21533   0.61050   -1.000
 3834.00    0.15916   0.59368   -1.000
 3835.00    0.35477   0.58308   -1.000
 3836.00    0.52041   0.57898   -1.000
 3837.00    0.43276   0.58267   -1.000
 3838.00    0.35475   0.59494   -1.000
 3839.00    0.33744   0.61344   -1.000
 3840.00    0.33549   0.63585   -1.000
 3841.00    0.40931   0.66100   -1.000
 3842.00    0.47568   0.68655   -1.000
 3843.00    0.51225   0.71049   -1.000
 3844.00    0.53546   0.73198   -1.000
 3845.00    0.51428   0.75025   -1.000
 3846.00    0.46113   0.76505   -1.000
 3847.00    0.31818   0.77629    0.000
 3848.00    0.28145   0.78430    0.000
 3849.00    0.49984   0.79039    0.000
 3850.00    0.63558   0.79482    0.000
 3851.00    0.59994   0.79698    0.000
 3852.00    0.52532   0.79791    0.000
 3853.00    0.38039   0.79858    0.000
 3854.00    0.28050   0.79813    0.000
 3855.00    0.25162   0.79669    0.000
 3856.00    0.38764   0.79542    0.000
 3857.00    0.75196   0.79390    0.000
 3858.00    0.85214   0.79227    0.000
 3859.00    0.63046   0.79207    0.000
 3860.00    0.48759   0.79271    0.000
 3861.00    0.42937   0.79318    0.000
 3862.00    0.42918   0.79401    0.000
 3863.00    0.48396   0.79553    0.000
 3864.00    0.45546   0.79672    0.000
 3865.00    0.35736   0.79640    0.000
 3866.00    0.33798   0.79515    0.000
 3867.00    0.37648   0.79387    0.000
 3868.00    0.44584   0.79179    0.000
 3869.00    0.53512   0.78836    0.000
 3870.00    0.60533   0.78510    0.000
 3871.00    0.66477   0.78281    0.000
 3872.00    0.66549   0.78043    0.000
 3873.00    0.63734   0.77753    0.000
 3874.00    0.60231   0.77476    0.000
 3875.00    0.56434   0.77247    0.000
 3876.00    0.57293   0.76909    0.000
 3877.00    0.59848   0.76389    0.000
 3878.00    0.66758   0.75790    0.000
 3879.00    0.75010   0.75032    0.000
 3880.00    0.71585   0.73968    0.000
 3881.00    0.65162   0.72748   -1.000
 3882.00    0.50822   0.71409   -1.000
 3883.00    0.34827   0.69681   -1.000
 3884.00    0.46692   0.67680   -1.000
 3885.00    0.63151   0.65786   -1.000
 3886.00    0.65726   0.63967   -1.000
 3887.00    0.66582   0.62238   -1.000
 3888.00    0.64289   0.61094   -1.000
 3889.00    0.61727   0.60777   -1.000
 3890.00    0.72015   0.61085   -1.000
 3891.00    0.82944   0.62086   -1.000
 3892.00    0.87864   0.63860   -1.000
 3893.00    0.92203   0.65997   -1.000
 3894.00    0.65383   0.68212   -1.000
 3895.00    0.40105   0.70485   -1.000
 3896.00    0.46356   0.72593   -1.000
 3897.00    0.52060   0.74337   -1.000
 3898.00    0.51294   0.75849   -1.000
 3899.00    0.50921   0.77213   -1.000
 3900.00    0.53752   0.78246   -1.000
 3901.00    0.55891   0.79018   -1.000
 3902.00    0.53806   0.79802   -1.000
 3903.00    0.52175   0.80514   -1.000
 3904.00    0.52724   0.81014   -1.000
 3905.00    0.55099   0.81535   -1.000
 3906.00    0.64621   0.82188   -1.000
 3907.00    0.71498   0.82765   -1.000
 3908.00    0.69754   0.83303   -1.000
 3909.00    0.66451   0.83925   -1.000
 3910.00    0.58850   0.84481   -1.000
 3911.00    0.58045   0.84874   -1.000
 3912.00    0.73288   0.85132   -1.000
 3913.00    0.86593   0.85225   -1.000
 3914.00    0.95939   0.85086   -1.000
 3915.00    0.93359   0.84724   -1.000
 3916.00    0.69594   0.84200   -1.000
 3917.00    0.54965   0.83520   -1.000
 3918.00    0.54530   0.82684   -1.000
 3919.00    0.52473   0.81844   -1.000
 3920.00    0.48203   0.81060   -1.000
 3921.00    0.46421   0.80250   -1.000
 3922.00    0.47626   0.79512   -1.000
 3923.00    0.50893   0.78904   -1.000
 3924.00    0.56343   0.78268   -1.000
 3925.00    0.56635   0.77548   -1.000
 3926.00    0.52109   0.76826   -1.000
 3927.00    0.49228   0.76018   -1.000
 3928.00    0.47702   0.75059   -1.000
 3929.00    0.40627   0.74114   -1.000
 3930.00    0.29528   0.73224   -1.000
 3931.00    0.28284   0.72360   -1.000
 3932.00    0.33312   0.71686   -1.000
 3933.00    0.32307   0.71309   -1.000
 3934.00    0.27945   0.71216   -1.000
 3935.00    0.29152   0.71426   -1.000
 3936.00    0.33054   0.71978   -1.000
 3937.00    0.28270   0.72815   -1.000
 3938.00    0.19856   0.73792   -1.000
 3939.00    0.37048   0.74813   -1.000
 3940.00    0.63401   0.75844   -1.000
 3941.00    0.70609   0.76821   -1.000
 3942.00    0.72030   0.77625   -1.000
 3943.00    0.75805   0.78301   -1.000
 3944.00    0.80172   0.78998   -1.000
 3945.00    0.77778   0.79624   -1.000
 3946.00    0.74005   0.80131   -1.000
 3947.00    0.67118   0.80691   -1.000
 3948.00    0.59732   0.81281   -1.000
 3949.00    0.61790   0.81728   -1.000
 3950.00    0.64975   0.82044   -1.000
 3951.00    0.57508   0.82286   -1.000
 3952.00    0.49174   0.82415   -1.000
 3953.00    0.65283   0.82336   -1.000
 3954.00    0.82516   0.82016   -1.000
 3955.00    0.79839   0.81551   -1.000
 3956.00    0.76702   0.80912   -1.000
 3957.00    0.62771   0.79971   -1.000
 3958.00    0.49687   0.78753   -1.000
 3959.00    0.52648   0.77254   -1.000
 3960.00    0.55891   0.75441    0.000
 3961.00    0.62313   0.73348    0.000
 3962.00    0.66804   0.70921    0.000
 3963.00    0.56115   0.68196    0.000
 3964.00    0.45884   0.65391    0.000
 3965.00    0.38374   0.62537    0.000
 3966.00    0.34456   0.59691    0.000
 3967.00    0.47402   0.57165    0.000
 3968.00    0.55354   0.55152    0.000
 3969.00    0.44170   0.53795    0.000
 3970.00    0.32555   0.53315    0.000
 3971.00    0.19559   0.53727    0.000
 3972.00    0.16157   0.55038    0.000
 3973.00    0.38739   0.57241    0.000
 3974.00    0.54705   0.60008    0.000
 3975.00    0.55308   0.63079    0.000
 3976.00    0.57073   0.66358    0.000
 3977.00    0.61170   0.69557    0.000
 3978.00    0.71158   0.72438    0.000
 3979.00    0.91450   0.75000    0.000
 3980.00    0.94583   0.77204    0.000
 3981.00    0.71448   0.79001   -1.000
 3982.00    0.59985   0.80493   -1.000
 3983.00    0.64220   0.81755   -1.000
 3984.00    0.67867   0.82791   -1.000
 3985.00    0.70818   0.83682   -1.000
 3986.00    0.70947   0.84524   -1.000
 3987.00    0.68128   0.85267   -1.000
 3988.00    0.73231   0.85852   -1.000
 3989.00    0.85629   0.86388   -1.000
 3990.00    0.91749   0.86873   -1.000
 3991.00    0.92772   0.87174   -1.000
 3992.00    0.98427   0.87358   -1.000
 3993.00    1.07391   0.87513   -1.000
 3994.00    1.11800   0.87612   -1.000
 3995.00    1.13351   0.87669   -1.000
 3996.00    1.06310   0.87705   -1.000
 3997.00    0.94559   0.87823   -1.000
 3998.00    1.00582   0.88050   -1.000
 3999.00    1.15070   0.88204   -1.000
 4000.00    1.14747   0.88310   -1.000
 4001.00    1.08337   0.88480   -1.000
 4002.00    1.02092   0.88518   -1.000
 4003.00    0.95905   0.88297   -1.000
 4004.00    0.94518   0.88035   -1.000
 4005.00    0.94554   0.87825   -1.000
 4006.00    0.98427   0.87524   -1.000
 4007.00    1.03243   0.87233   -1.000
 4008.00    0.93148   0.87232   -1.000
 4009.00    0.80090   0.87435   -1.000
 4010.00    0.86099   0.87678   -1.000
 4011.00    0.95071   0.88104   -1.000
 4012.00    0.98710   0.88704   -1.000
 4013.00    1.01735   0.89264   -1.000
 4014.00    0.97255   0.89790   -1.000
 4015.00    0.92194   0.90261   -1.000
 4016.00    1.00000   0.90569   -1.000
 4017.00    1.08347   0.90779   -1.000
 4018.00    1.05514   0.90824   -1.000
 4019.00    1.02579   0.90588   -1.000
 4020.00    0.99658   0.90219   -1.000
 4021.00    0.97408   0.89721   -1.000
 4022.00    1.07003   0.88994   -1.000
 4023.00    1.15472   0.88189   -1.000
 4024.00    1.11824   0.87423   -1.000
 4025.00    1.07527   0.86693   -1.000
 4026.00    0.98300   0.86094   -1.000
 4027.00    0.91665   0.85661   -1.000
 4028.00    0.99974   0.85335   -1.000
 4029.00    1.03477   0.85161   -1.000
 4030.00    0.84952   0.85136   -1.000
 4031.00    0.74101   0.85148   -1.000
 4032.00    0.92035   0.85264   -1.000
 4033.00    1.04767   0.85602   -1.000
 4034.00    1.01191   0.86099   -1.000
 4035.00    0.97662   0.86704   -1.000
 4036.00    0.94256   0.87429   -1.000
 4037.00    1.09654   0.88186   -1.000
 4038.00    1.67990   0.88827   -1.000
 4039.00    1.93614   0.89218   -1.000
 4040.00    1.54569   0.89329   -1.000
 4041.00    1.27591   0.89182   -1.000
 4042.00    1.21403   0.88749   -1.000
 4043.00    1.10595   0.88133   -1.000
 4044.00    0.92819   0.87535   -1.000
 4045.00    0.96181   0.87063   -1.000
 4046.00    1.27566   0.86784   -1.000
 4047.00    1.22428   0.86740   -1.000
 4048.00    0.74647   0.86990   -1.000
 4049.00    0.51867   0.87452   -1.000
 4050.00    0.54826   0.87889   -1.000
 4051.00    0.72904   0.88282   -1.000
 4052.00    1.04713   0.88602   -1.000
 4053.00    1.20212   0.88648   -1.000
 4054.00    1.22657   0.88496   -1.000
 4055.00    1.14381   0.88257   -1.000
 4056.00    0.98556   0.87849   -1.000
 4057.00    0.92250   0.87396   -1.000
 4058.00    0.91826   0.86985   -1.000
 4059.00    0.98747   0.86520   -1.000
 4060.00    1.09633   0.86097   -1.000
 4061.00    1.22926   0.85728   -1.000
 4062.00    1.37349   0.85330   -1.000
 4063.00    1.39976   0.85057   -1.000
 4064.00    1.37839   0.84889   -1.000
 4065.00    1.17132   0.84707   -1.000
 4066.00    0.90024   0.84670   -1.000
 4067.00    0.87823   0.84755   -1.000
 4068.00    0.92855   0.84765   -1.000
 4069.00    1.02136   0.84739   -1.000
 4070.00    1.12437   0.84703   -1.000
 4071.00    1.11404   0.84615   -1.000
 4072.00    1.08175   0.84469   -1.000
 4073.00    0.98950   0.84245   -1.000
 4074.00    0.88822   0.84079   -1.000
 4075.00    0.88787   0.84032   -1.000
 4076.00    0.89869   0.84006   -1.000
 4077.00    0.90478   0.84100   -1.000
 4078.00    0.91053   0.84397   -1.000
 4079.00    0.95308   0.84805   -1.000
 4080.00    0.99704   0.85283   -1.000
 4081.00    1.24000   0.85790   -1.000
 4082.00    1.47896   0.86295   -1.000
 4083.00    1.52560   0.86743   -1.000
 4084.00    1.57426   0.87054   -1.000
 4085.00    1.65618   0.87284   -1.000
 4086.00    1.73221   0.87459   -1.000
 4087.00    1.74767   0.87479   -1.000
 4088.00    1.74222   0.87362   -1.000
 4089.00    1.58344   0.87146   -1.000
 4090.00    1.48182   0.86663   -1.000
 4091.00    1.70095   0.85855   -1.000
 4092.00    1.81412   0.84826    0.000
 4093.00    1.45315   0.83434    0.000
 4094.00    1.15605   0.81610    0.000
 4095.00    1.09353   0.79582    0.000
 4096.00    1.08448   0.77318    0.000
 4097.00    1.23988   0.74825    0.000
 4098.00    1.30154   0.72444    0.000
 4099.00    1.11816   0.70252    0.000
 4100.00    0.94802   0.68359    0.000
 4101.00    0.80758   0.67147    0.000
 4102.00    0.69626   0.66608    0.000
 4103.00    0.64161   0.66704    0.000
 4104.00    0.63069   0.67632    0.000
 4105.00    0.69398   0.69145    0.000
 4106.00    0.82685   0.70916    0.000
 4107.00    1.06319   0.72948    0.000
 4108.00    1.13017   0.75008    0.000
 4109.00    0.97588   0.76841    0.000
 4110.00    0.96683   0.78474    0.000
 4111.00    1.12494   0.79890    0.000
 4112.00    1.17409   0.81056    0.000
 4113.00    1.11263   0.81989   -1.000
 4114.00    0.98860   0.82709   -1.000
 4115.00    0.80855   0.83282   -1.000
 4116.00    0.78369   0.83661   -1.000
 4117.00    0.88128   0.83828   -1.000
 4118.00    0.99263   0.83944   -1.000
 4119.00    1.11353   0.84006   -1.000
 4120.00    1.18731   0.83997   -1.000
 4121.00    1.23242   0.84079   -1.000
 4122.00    1.25529   0.84237   -1.000
 4123.00    1.26635   0.84410   -1.000
 4124.00    1.26818   0.84617   -1.000
 4125.00    1.26574   0.84776   -1.000
 4126.00    1.01357   0.84826   -1.000
 4127.00    0.66224   0.84761   -1.000
 4128.00    0.56759   0.84567   -1.000
 4129.00    0.55981   0.84272   -1.000
 4130.00    0.71339   0.83947   -1.000
 4131.00    0.91289   0.83694   -1.000
 4132.00    0.98236   0.83540   -1.000
 4133.00    1.02131   0.83505   -1.000
 4134.00    1.15342   0.83677   -1.000
 4135.00    1.30311   0.83945   -1.000
 4136.00    1.30195   0.84192   -1.000
 4137.00    1.27877   0.84455   -1.000
 4138.00    1.27678   0.84530   -1.000
 4139.00    1.27706   0.84331   -1.000
 4140.00    1.33509   0.84012   -1.000
 4141.00    1.39712   0.83468   -1.000
 4142.00    1.06319   0.82760   -1.000
 4143.00    0.71560   0.82216   -1.000
 4144.00    0.94988   0.81786   -1.000
 4145.00    1.17464   0.81449   -1.000
 4146.00    1.04658   0.81462   -1.000
 4147.00    0.92323   0.81681   -1.000
 4148.00    0.87263   0.81881   -1.000
 4149.00    0.80401   0.82189   -1.000
 4150.00    0.55764   0.82513   -1.000
 4151.00    0.39219   0.82680   -1.000
 4152.00    0.80128   0.82813   -1.000
 4153.00    1.10877   0.82968   -1.000
 4154.00    0.86166   0.83100   -1.000
 4155.00    0.66242   0.83275   -1.000
 4156.00    0.67248   0.83562   -1.000
 4157.00    0.68827   0.83935   -1.000
 4158.00    0.72468   0.84353   -1.000
 4159.00    0.80442   0.84800   -1.000
 4160.00    1.01497   0.85231   -1.000
 4161.00    1.15526   0.85603   -1.000
 4162.00    1.11515   0.85836   -1.000
 4163.00    1.09640   0.85912   -1.000
 4164.00    1.12483   0.85894   -1.000
 4165.00    1.10502   0.85709   -1.000
 4166.00    0.99279   0.85373   -1.000
 4167.00    0.85153   0.85011   -1.000
 4168.00    0.66178   0.84570   -1.000
 4169.00    0.66446   0.84078   -1.000
 4170.00    0.94905   0.83609   -1.000
 4171.00    1.09975   0.83136   -1.000
 4172.00    1.07802   0.82724   -1.000
 4173.00    0.94051   0.82379   -1.000
 4174.00    0.67161   0.82102   -1.000
 4175.00    0.58638   0.81980   -1.000
 4176.00    0.68496   0.81958   -1.000
 4177.00    0.73406   0.82018   -1.000
 4178.00    0.73946   0.82214   -1.000
 4179.00    0.81376   0.82454   -1.000
 4180.00    0.94164   0.82699   -1.000
 4181.00    0.93289   0.83003   -1.000
 4182.00    0.83069   0.83266   -1.000
 4183.00    0.79161   0.83455   -1.000
 4184.00    0.79037   0.83670   -1.000
 4185.00    0.93102   0.83803   -1.000
 4186.00    1.14588   0.83859   -1.000
 4187.00    1.06130   0.83970   -1.000
 4188.00    0.84089   0.84037   -1.000
 4189.00    0.81869   0.84076   -1.000
 4190.00    0.87383   0.84159   -1.000
 4191.00    0.87046   0.84193   -1.000
 4192.00    0.84765   0.84160   -1.000
 4193.00    0.83032   0.84035   -1.000
 4194.00    0.81452   0.83779   -1.000
 4195.00    0.87655   0.83425   -1.000
 4196.00    0.95643   0.82975   -1.000
 4197.00    1.01730   0.82456   -1.000
 4198.00    1.07468   0.82013   -1.000
 4199.00    0.95909   0.81694   -1.000
 4200.00    0.81903   0.81467   -1.000
 4201.00    0.73447   0.81492   -1.000
 4202.00    0.65556   0.81762   -1.000
 4203.00    0.62174   0.82126   -1.000
 4204.00    0.59086   0.82684   -1.000
 4205.00    0.78012   0.83350   -1.000
 4206.00    0.97572   0.83944   -1.000
 4207.00    0.90262   0.84544   -1.000
 4208.00    0.82752   0.85031   -1.000
 4209.00    0.69411   0.85331   -1.000
 4210.00    0.57586   0.85547   -1.000
 4211.00    0.67853   0.85585   -1.000
 4212.00    0.76971   0.85528   -1.000
 4213.00    0.75225   0.85498   -1.000
 4214.00    0.75180   0.85407   -1.000
 4215.00    0.86834   0.85401   -1.000
 4216.00    0.96405   0.85523   -1.000
 4217.00    0.94908   0.85610   -1.000
 4218.00    0.95412   0.85707   -1.000
 4219.00    1.04467   0.85731   -1.000
 4220.00    1.07715   0.85499   -1.000
 4221.00    0.90502   0.85019   -1.000
 4222.00    0.79405   0.84281   -1.000
 4223.00    0.86419   0.83294   -1.000
 4224.00    0.85968   0.82239   -1.000
 4225.00    0.66678   0.81223   -1.000
 4226.00    0.62927   0.80403   -1.000
 4227.00    0.92943   0.79986   -1.000
 4228.00    1.11818   0.79881   -1.000
 4229.00    1.09683   0.80126   -1.000
 4230.00    1.04445   0.80743   -1.000
 4231.00    0.94098   0.81378   -1.000
 4232.00    0.85867   0.82020   -1.000
 4233.00    0.80691   0.82712   -1.000
 4234.00    0.78863   0.83159   -1.000
 4235.00    0.81285   0.83484   -1.000
 4236.00    0.83081   0.83874   -1.000
 4237.00    0.84176   0.84164   -1.000
 4238.00    0.81119   0.84482   -1.000
 4239.00    0.73964   0.84971   -1.000
 4240.00    0.72941   0.85482   -1.000
 4241.00    0.77252   0.85997   -1.000
 4242.00    0.87420   0.86547   -1.000
 4243.00    1.02078   0.86985   -1.000
 4244.00    1.05940   0.87224   -1.000
 4245.00    1.02527   0.87297   -1.000
 4246.00    0.88149   0.87102   -1.000
 4247.00    0.67298   0.86668   -1.000
 4248.00    0.55842   0.86123   -1.000
 4249.00    0.49223   0.85414   -1.000
 4250.00    0.37969   0.84707   -1.000
 4251.00    0.24647   0.84107   -1.000
 4252.00    0.32999   0.83571   -1.000
 4253.00    0.49660   0.83240   -1.000
 4254.00    0.64321   0.83066   -1.000
 4255.00    0.78330   0.83010   -1.000
 4256.00    0.80503   0.83124   -1.000
 4257.00    0.79445   0.83291   -1.000
 4258.00    0.80340   0.83543   -1.000
 4259.00    0.81673   0.83860   -1.000
 4260.00    0.80786   0.84189   -1.000
 4261.00    0.79503   0.84625   -1.000
 4262.00    0.88825   0.85037   -1.000
 4263.00    0.99598   0.85366   -1.000
 4264.00    0.92539   0.85665   -1.000
 4265.00    0.83737   0.85732   -1.000
 4266.00    0.78950   0.85523    0.121
 4267.00    0.74409   0.85091    0.059
 4268.00    0.87064   0.84373    0.058
 4269.00    1.00144   0.83501    0.057
 4270.00    1.05412   0.82557    0.058
 4271.00    1.10053   0.81655    0.058
 4272.00    0.98120   0.80996    0.057
 4273.00    0.86501   0.80558    0.056
 4274.00    0.79181   0.80485    0.056
 4275.00    0.71694   0.80749    0.056
 4276.00    0.62690   0.81174    0.057
 4277.00    0.56104   0.81887    0.058
 4278.00    0.65622   0.82595    0.058
 4279.00    0.74625   0.83152    0.057
 4280.00    0.80966   0.83728    0.055
 4281.00    0.85600   0.84007    0.054
 4282.00    0.83108   0.84050   -2.000
 4283.00    0.82614   0.84027   -2.000
 4284.00    0.89017   0.83724   -2.000
 4285.00    0.97549   0.83324   -2.000
 4286.00    1.12273   0.82909   -2.000
 4287.00    1.17337   0.82367   -2.000
 4288.00    0.98444   0.81894   -2.000
 4289.00    0.80681   0.81505   -2.000
 4290.00    0.65332   0.81104   -2.000
 4291.00    0.68542   0.80885   -2.000
 4292.00    1.06212   0.80757   -2.000
 4293.00    1.28148   0.80549   -2.000
 4294.00    1.24566   0.80428   -2.000
 4295.00    1.10691   0.80175   -2.000
 4296.00    0.82174   0.79730   -2.000
 4297.00    0.65263   0.79278   -2.000
 4298.00    0.62878   0.78564    0.054
 4299.00    0.66723   0.77778    0.054
 4300.00    0.77440   0.77097    0.054
 4301.00    0.84761   0.76291    0.054
 4302.00    0.88779   0.75624    0.054
 4303.00    0.86613   0.75123    0.054
 4304.00    0.79140   0.74615    0.054
 4305.00    0.74219   0.74348    0.053
 4306.00    0.71225   0.74230    0.053
 4307.00    0.72901   0.74195    0.053
 4308.00    0.77678   0.74493    0.054
 4309.00    0.79625   0.75045    0.054
 4310.00    0.79926   0.75811    0.053
 4311.00    0.78699   0.76933    0.053
 4312.00    0.76698   0.78348    0.053
 4313.00    0.81965   0.79891    0.053
 4314.00    0.90423   0.81559    0.051
 4315.00    0.91187   0.83255    0.051
 4316.00    0.89053   0.84719    0.052
 4317.00    0.87874   0.85941    0.053
 4318.00    0.87001   0.86813    0.054
 4319.00    0.87740   0.87147    0.053
 4320.00    0.88909   0.87094    0.053
 4321.00    0.87089   0.86636    0.053
 4322.00    0.84616   0.85782    0.054
 4323.00    0.88809   0.84893    0.054
 4324.00    0.94163   0.84002    0.054
 4325.00    0.85050   0.83189    0.054
 4326.00    0.74024   0.82722    0.054
 4327.00    0.70033   0.82547    0.053
 4328.00    0.66700   0.82649    0.053
 4329.00    0.84317   0.82915    0.053
 4330.00    1.03133   0.83159    0.000
 4331.00    1.03385   0.83324    0.000
 4332.00    1.03150   0.83156    0.000
 4333.00    0.96606   0.82481    0.000
 4334.00    0.90805   0.81415    0.000
 4335.00    1.02822   0.79918    0.000
 4336.00    1.13454   0.77952    0.000
 4337.00    1.06054   0.75881    0.000
 4338.00    0.98709   0.73903    0.000
 4339.00    0.91855   0.72112    0.000
 4340.00    0.84589   0.70902    0.000
 4341.00    0.74664   0.70362    0.000
 4342.00    0.66651   0.70478    0.000
 4343.00    0.68285   0.71342    0.000
 4344.00    0.72251   0.72697    0.000
 4345.00    0.85734   0.74374    0.000
 4346.00    0.97923   0.76283    0.000
 4347.00    1.05733   0.78012    0.000
 4348.00    1.08679   0.79497    0.000
 4349.00    0.97748   0.80871    0.000
 4350.00    0.89974   0.81882    0.000
 4351.00    0.89896   0.82571    0.053
 4352.00    0.88741   0.83218    0.053
 4353.00    0.85319   0.83836    0.052
 4354.00    0.88993   0.84416    0.052
 4355.00    1.05641   0.85005    0.053
 4356.00    1.10428   0.85714    0.053
 4357.00    0.96262   0.86536    0.052
 4358.00    0.88726   0.87310    0.052
 4359.00    0.90482   0.88015    0.052
 4360.00    0.93914   0.88750    0.052
 4361.00    0.99410   0.89462    0.052
 4362.00    1.06058   0.89975    0.052
 4363.00    1.13958   0.90332    0.052
 4364.00    1.18502   0.90623    0.052
 4365.00    1.19825   0.90748    0.052
 4366.00    1.14815   0.90651    0.052
 4367.00    1.04446   0.90380    0.052
 4368.00    0.91490   0.90016    0.051
 4369.00    0.76608   0.89561    0.051
 4370.00    0.80017   0.89002    0.051
 4371.00    0.95396   0.88409    0.051
 4372.00    1.00604   0.87888    0.051
 4373.00    0.99987   0.87457    0.051
 4374.00    0.96050   0.87034    0.051
 4375.00    0.90457   0.86645    0.052
 4376.00    0.87380   0.86330    0.051
 4377.00    0.85387   0.86001    0.050
 4378.00    0.87857   0.85538    0.050
 4379.00    0.91977   0.84875    0.050
 4380.00    0.84558   0.84105    0.050
 4381.00    0.73520   0.83253    0.049
 4382.00    0.73279   0.82297    0.049
 4383.00    0.75862   0.81292    0.050
 4384.00    0.79941   0.80444    0.049
 4385.00    0.84339   0.79966    0.049
 4386.00    0.84977   0.79722    0.049
 4387.00    0.84980   0.79767    0.049
 4388.00    0.87576   0.80209    0.050
 4389.00    0.90503   0.80895    0.050
 4390.00    0.84385   0.81788    0.049
 4391.00    0.77459   0.82694    0.048
 4392.00    0.81544   0.83639    0.049
 4393.00    0.86215   0.84683    0.049
 4394.00    0.93145   0.85529    0.049
 4395.00    1.00069   0.86263    0.049
 4396.00    1.02977   0.86886    0.049
 4397.00    1.05242   0.87290    0.049
 4398.00    0.93387   0.87569    0.049
 4399.00    0.82007   0.87489    0.049
 4400.00    0.76500   0.87136    0.048
 4401.00    0.71610   0.86754    0.048
 4402.00    0.71904   0.86198    0.049
 4403.00    0.71664   0.85536    0.049
 4404.00    0.68073   0.84915    0.049
 4405.00    0.65908   0.84481    0.049
 4406.00    0.70752   0.84379    0.049
 4407.00    0.77017   0.84450    0.049
 4408.00    0.88953   0.84671    0.049
 4409.00    0.96422   0.85175    0.049
 4410.00    0.89075   0.85776    0.049
 4411.00    0.84442   0.86327    0.049
 4412.00    0.87414   0.86832    0.049
 4413.00    0.91944   0.87190    0.049
 4414.00    1.00208   0.87490    0.049
 4415.00    1.05806   0.87705    0.049
 4416.00    1.05884   0.87812    0.049
 4417.00    1.04489   0.88049    0.049
 4418.00    1.00440   0.88225    0.049
 4419.00    0.95356   0.88367    0.049
 4420.00    0.88645   0.88704    0.049
 4421.00    0.89546   0.88915    0.049
 4422.00    1.00966   0.89026    0.050
 4423.00    1.07065   0.89137    0.050
 4424.00    1.06689   0.89151    0.050
 4425.00    1.03676   0.89123    0.050
 4426.00    0.97836   0.88936    0.050
 4427.00    0.93869   0.88803    0.050
 4428.00    0.91673   0.88761    0.050
 4429.00    0.96498   0.88528    0.050
 4430.00    1.07175   0.88308    0.049
 4431.00    1.10314   0.88085    0.050
 4432.00    1.07917   0.87887    0.050
 4433.00    1.04875   0.87804    0.051
 4434.00    1.01416   0.87635    0.052
 4435.00    0.97109   0.87647    0.052
 4436.00    0.92324   0.87857    0.052
 4437.00    0.82991   0.88035    0.051
 4438.00    0.71424   0.88301    0.051
 4439.00    0.81714   0.88590    0.051
 4440.00    1.01278   0.88903    0.052
 4441.00    1.07692   0.89266    0.052
 4442.00    1.09328   0.89542    0.051
 4443.00    1.10899   0.89798    0.051
 4444.00    1.12451   0.90135    0.052
 4445.00    1.11038   0.90430    0.052
 4446.00    1.08867   0.90635    0.052
 4447.00    1.07436   0.90902    0.051
 4448.00    1.06160   0.91061    0.050
 4449.00    0.99087   0.91054    0.051
 4450.00    0.91062   0.90902    0.052
 4451.00    0.92668   0.90399    0.051
 4452.00    0.95462   0.89837    0.050
 4453.00    0.95254   0.89204    0.050
 4454.00    0.94791   0.88301    0.050
 4455.00    0.89593   0.87487    0.049
 4456.00    0.84163   0.86784    0.048
 4457.00    0.86891   0.86108    0.048
 4458.00    0.89628   0.85578    0.049
 4459.00    0.84783   0.85271    0.049
 4460.00    0.80366   0.85157    0.049
 4461.00    0.84624   0.85195    0.000
 4462.00    0.88858   0.85390    0.000
 4463.00    0.92808   0.85629    0.000
 4464.00    0.95645   0.85958    0.000
 4465.00    0.89451   0.86247    0.000
 4466.00    0.85343   0.86436    0.000
 4467.00    0.93929   0.86715    0.000
 4468.00    1.00494   0.86962    0.000
 4469.00    0.97363   0.87186    0.000
 4470.00    0.93428   0.87455    0.000
 4471.00    0.86352   0.87860    0.000
 4472.00    0.83235   0.88454    0.000
 4473.00    0.92990   0.89102    0.000
 4474.00    1.01942   0.89814    0.000
 4475.00    1.08683   0.90469    0.000
 4476.00    1.10067   0.91017    0.000
 4477.00    0.98825   0.91521    0.000
 4478.00    0.93000   0.91795    0.000
 4479.00    0.98207   0.91835    0.000
 4480.00    1.02673   0.91804    0.000
 4481.00    1.05825   0.91780    0.000
 4482.00    1.05825   0.91831    0.050
 4483.00    1.00936   0.91884    0.049
 4484.00    1.00018   0.91957    0.049
 4485.00    1.04508   0.92098    0.049
 4486.00    1.01857   0.92242    0.049
 4487.00    0.90642   0.92382    0.049
 4488.00    0.87497   0.92386    0.049
 4489.00    0.92883   0.92240    0.049
 4490.00    0.97011   0.92025    0.049
 4491.00    0.99966   0.91792    0.048
 4492.00    0.98866   0.91557    0.048
 4493.00    0.94430   0.91323    0.048
 4494.00    0.90193   0.91251    0.048
 4495.00    0.86099   0.91322    0.048
 4496.00    0.86076   0.91562    0.048
 4497.00    0.88639   0.91942    0.048
 4498.00    0.94411   0.92389    0.049
 4499.00    1.01964   0.93058    0.049
 4500.00    1.06319   0.93769    0.049
 4501.00    1.09128   0.94524    0.049
 4502.00    1.03534   0.95332    0.049
 4503.00    0.94435   0.96012    0.048
 4504.00    0.91546   0.96640    0.048
 4505.00    0.90874   0.97058    0.048
 4506.00    0.99820   0.97313    0.048
 4507.00    1.11667   0.97530    0.049
 4508.00    1.11622   0.97494    0.049
 4509.00    1.08598   0.97302    0.048
 4510.00    1.02430   0.97007    0.047
 4511.00    0.95623   0.96584    0.046
 4512.00    0.88486   0.96185    0.047
 4513.00    0.81296   0.95738    0.048
 4514.00    0.83648   0.95313    0.048
 4515.00    0.87134   0.95033    0.048
 4516.00    0.90844   0.94723    0.048
 4517.00    0.94571   0.94510    0.048
 4518.00    0.84435   0.94361    0.047
 4519.00    0.73669   0.94149    0.046
 4520.00    0.81945   0.94034    0.047
 4521.00    0.90400   0.93695    0.047
 4522.00    0.96089   0.93145    0.046
 4523.00    1.01104   0.92568    0.046
 4524.00    0.93489   0.91751    0.046
 4525.00    0.87315   0.90891    0.046
 4526.00    0.97297   0.89956    0.047
 4527.00    1.06062   0.88952    0.048
 4528.00    1.05302   0.88215    0.048
 4529.00    1.03362   0.87603    0.048
 4530.00    0.94451   0.87139    0.047
 4531.00    0.88179   0.87012    0.047
 4532.00    0.94261   0.87034    0.046
 4533.00    0.98608   0.87330    0.046
 4534.00    0.96328   0.87774    0.046
 4535.00    0.94668   0.88263    0.046
 4536.00    0.94987   0.88976    0.046
 4537.00    0.97093   0.89607    0.046
 4538.00    1.04027   0.90204    0.046
 4539.00    1.10655   0.90718    0.046
 4540.00    1.16574   0.91068    0.047
 4541.00    1.17782   0.91453    0.046
 4542.00    1.09547   0.91683    0.046
 4543.00    1.00846   0.91714    0.046
 4544.00    0.91334   0.91681    0.046
 4545.00    0.88096   0.91563    0.046
 4546.00    0.94447   0.91453    0.045
 4547.00    0.97067   0.91395    0.045
 4548.00    0.94676   0.91163    0.045
 4549.00    0.93651   0.90965    0.045
 4550.00    0.94241   0.90899    0.000
 4551.00    0.95013   0.90825    0.000
 4552.00    0.95974   0.90919    0.000
 4553.00    0.98727   0.91038    0.000
 4554.00    1.03125   0.91257    0.000
 4555.00    1.00923   0.91732    0.000
 4556.00    0.93371   0.92222    0.000
 4557.00    0.90366   0.92754    0.000
 4558.00    0.90604   0.93344    0.000
 4559.00    0.94649   0.93788    0.000
 4560.00    1.01077   0.94191    0.000
 4561.00    1.01287   0.94527    0.000
 4562.00    0.98096   0.94639    0.000
 4563.00    0.94941   0.94700    0.000
 4564.00    0.91802   0.94656    0.000
 4565.00    0.97430   0.94572    0.000
 4566.00    1.06652   0.94619    0.000
 4567.00    1.13641   0.94594    0.000
 4568.00    1.19849   0.94603    0.000
 4569.00    1.14379   0.94706    0.000
 4570.00    1.05458   0.94704    0.000
 4571.00    0.98239   0.94773    0.000
 4572.00    0.91436   0.94853    0.000
 4573.00    0.93569   0.94788    0.000
 4574.00    0.97474   0.94735    0.000
 4575.00    0.98187   0.94545    0.000
 4576.00    0.98405   0.94268    0.000
 4577.00    0.96133   0.94053    0.000
 4578.00    0.93575   0.93696    0.000
 4579.00    0.94033   0.93267    0.000
 4580.00    0.94722   0.92883    0.000
 4581.00    0.99624   0.92577    0.000
 4582.00    1.04700   0.92359    0.000
 4583.00    0.98313   0.92234    0.000
 4584.00    0.91850   0.92201    0.000
 4585.00    0.86437   0.92241    0.000
 4586.00    0.81425   0.92423    0.000
 4587.00    0.83435   0.92610    0.000
 4588.00    0.85565   0.92772    0.000
 4589.00    0.88968   0.92894    0.000
 4590.00    0.92571   0.92882    0.000
 4591.00    0.97690   0.92804    0.000
 4592.00    1.01521   0.92673    0.000
 4593.00    0.97951   0.92479    0.000
 4594.00    0.94165   0.92221    0.000
 4595.00    0.89388   0.91979    0.000
 4596.00    0.86368   0.91758    0.000
 4597.00    0.89918   0.91618    0.000
 4598.00    0.92216   0.91608    0.000
 4599.00    0.90602   0.91559    0.000
 4600.00    0.91629   0.91627    0.000
 4601.00    0.99668   0.91788    0.000
 4602.00    1.05370   0.91982    0.000
 4603.00    1.05750   0.92359    0.000
 4604.00    1.02907   0.92709    0.000
 4605.00    0.93707   0.93152    0.000
 4606.00    0.91457   0.93704    0.000
 4607.00    1.01159   0.94261    0.000
 4608.00    1.08708   0.94882    0.000
 4609.00    1.13019   0.95405    0.000
 4610.00    1.14004   0.95840    0.000
 4611.00    1.10589   0.96247    0.000
 4612.00    1.07141   0.96507    0.000
 4613.00    1.03654   0.96725    0.000
 4614.00    1.02496   0.96890    0.000
 4615.00    1.03729   0.96918    0.000
 4616.00    1.01889   0.97017    0.000
 4617.00    0.97263   0.97051    0.000
 4618.00    0.95521   0.97033    0.000
 4619.00    0.96081   0.97099    0.000
 4620.00    0.98746   0.97098    0.000
 4621.00    1.02889   0.97092    0.000
 4622.00    1.05616   0.97109    0.000
 4623.00    1.07470   0.97034    0.000
 4624.00    1.08616   0.96959    0.000
 4625.00    1.09380   0.96891    0.000
 4626.00    1.06889   0.96760    0.000
 4627.00    1.02875   0.96628    0.000
 4628.00    1.01555   0.96440    0.000
 4629.00    1.01322   0.96205    0.000
 4630.00    1.02464   0.95986    0.000
 4631.00    1.04080   0.95700    0.000
 4632.00    1.05196   0.95355    0.000
 4633.00    1.06167   0.94955    0.000
 4634.00    1.05475   0.94471    0.000
 4635.00    1.04385   0.94029    0.000
 4636.00    1.01317   0.93529    0.000
 4637.00    0.97866   0.92996    0.000
 4638.00    0.98484   0.92506    0.000
 4639.00    0.99711   0.91985    0.000
 4640.00    0.96244   0.91562    0.000
 4641.00    0.92261   0.91153    0.000
 4642.00    0.90281   0.90727    0.000
 4643.00    0.88446   0.90355    0.000
 4644.00    0.87785   0.89973    0.000
 4645.00    0.87169   0.89611    0.000
 4646.00    0.85185   0.89354    0.000
 4647.00    0.83482   0.89179    0.000
 4648.00    0.92452   0.89126    0.000
 4649.00    1.01280   0.89260    0.000
 4650.00    1.07791   0.89483    0.000
 4651.00    1.13576   0.89858    0.000
 4652.00    1.11946   0.90383    0.000
 4653.00    1.09206   0.90894    0.000
 4654.00    0.98348   0.91504    0.000
 4655.00    0.88674   0.92062    0.000
 4656.00    0.85615   0.92585    0.000
 4657.00    0.83991   0.93124    0.000
 4658.00    0.88766   0.93508    0.000
 4659.00    0.92038   0.93801    0.000
 4660.00    0.89803   0.93848    0.000
 4661.00    0.91368   0.93665    0.000
 4662.00    1.04595   0.93299    0.000
 4663.00    1.11931   0.92762    0.000
 4664.00    1.03907   0.92136    0.000
 4665.00    0.96437   0.91412    0.000
 4666.00    0.90211   0.90682    0.000
 4667.00    0.85416   0.90080    0.000
 4668.00    0.83403   0.89693    0.000
 4669.00    0.81839   0.89560    0.000
 4670.00    0.81038   0.89671    0.000
 4671.00    0.88330   0.89895    0.000
 4672.00    1.07634   0.90222    0.000
 4673.00    1.19669   0.90609    0.000
 4674.00    1.22226   0.90977    0.000
 4675.00    1.21756   0.91351    0.000
 4676.00    1.17809   0.91579    0.000
 4677.00    1.13995   0.91696    0.000
 4678.00    1.10316   0.91704    0.000
 4679.00    1.07593   0.91608    0.000
 4680.00    1.05724   0.91513    0.000
 4681.00    1.02105   0.91387    0.000
 4682.00    0.97108   0.91307    0.000
 4683.00    0.91271   0.91245    0.000
 4684.00    0.84851   0.91192    0.000
 4685.00    0.84815   0.91198    0.000
 4686.00    0.88656   0.91213    0.000
 4687.00    0.92235   0.91275    0.000
 4688.00    0.95675   0.91374    0.000
 4689.00    0.96229   0.91474    0.000
 4690.00    0.95455   0.91578    0.000
 4691.00    0.96017   0.91685    0.000
 4692.00    0.97110   0.91745    0.000
 4693.00    0.95096   0.91809    0.000
 4694.00    0.92034   0.91856    0.000
 4695.00    0.90199   0.91811    0.000
 4696.00    0.88713   0.91698    0.000
 4697.00    0.91537   0.91433    0.000
 4698.00    0.95371   0.91124    0.000
 4699.00    0.89321   0.90812    0.000
 4700.00    0.81413   0.90451    0.000
 4701.00    0.78281   0.90129    0.000
 4702.00    0.75844   0.89809    0.000
 4703.00    0.75393   0.89571    0.000
 4704.00    0.75153   0.89426    0.000
 4705.00    0.85378   0.89379    0.000
 4706.00    0.96322   0.89382    0.000
 4707.00    0.99181   0.89426    0.000
 4708.00    1.01764   0.89496    0.000
 4709.00    0.94441   0.89631    0.000
 4710.00    0.87431   0.89904    0.000
 4711.00    0.91114   0.90147    0.000
 4712.00    0.94025   0.90469    0.000
 4713.00    0.85112   0.90815    0.000
 4714.00    0.77102   0.91258    0.000
 4715.00    0.77949   0.91848    0.000
 4716.00    0.79783   0.92464    0.000
 4717.00    0.88593   0.93137    0.000
 4718.00    0.95531   0.93814    0.000
 4719.00    0.92284   0.94404    0.000
 4720.00    0.89252   0.94924    0.000
 4721.00    0.87160   0.95255    0.000
 4722.00    0.86400   0.95409    0.000
 4723.00    0.90422   0.95408    0.000
 4724.00    0.95210   0.95178    0.000
 4725.00    1.02306   0.94804    0.000
 4726.00    1.06579   0.94246    0.000
 4727.00    1.03620   0.93609    0.000
 4728.00    0.99502   0.92975    0.000
 4729.00    0.92828   0.92434    0.000
 4730.00    0.87778   0.92023    0.000
 4731.00    0.85830   0.91764    0.000
 4732.00    0.86445   0.91681    0.000
 4733.00    0.91335   0.91703    0.000
 4734.00    0.88983   0.91903    0.000
 4735.00    0.76043   0.92149    0.000
 4736.00    0.72033   0.92475    0.000
 4737.00    0.79504   0.92881    0.000
 4738.00    0.85770   0.93224    0.000
 4739.00    0.90672   0.93581    0.000
 4740.00    0.90080   0.93895    0.000
 4741.00    0.83999   0.94178    0.000
 4742.00    0.82365   0.94468    0.000
 4743.00    0.84650   0.94709    0.000
 4744.00    0.86385   0.94954    0.000
 4745.00    0.87695   0.95201    0.000
 4746.00    0.88617   0.95338    0.000
 4747.00    0.89273   0.95447    0.000
 4748.00    0.94161   0.95508    0.000
 4749.00    1.01581   0.95492    0.000
 4750.00    1.01580   0.95407    0.000
 4751.00    0.97707   0.95200    0.000
 4752.00    0.93973   0.94981    0.000
 4753.00    0.90303   0.94691    0.000
 4754.00    0.92734   0.94397    0.000
 4755.00    0.97540   0.94075    0.000
 4756.00    0.95487   0.93756    0.000
 4757.00    0.91162   0.93457    0.000
 4758.00    0.87498   0.93117    0.000
 4759.00    0.84019   0.92801    0.000
 4760.00    0.85817   0.92419    0.000
 4761.00    0.88821   0.92028    0.042
 4762.00    0.89834   0.91652    0.042
 4763.00    0.90483   0.91273    0.042
 4764.00    0.83952   0.90972    0.042
 4765.00    0.76410   0.90725    0.042
 4766.00    0.83058   0.90637    0.042
 4767.00    0.91146   0.90678    0.043
 4768.00    0.89221   0.90866    0.042
 4769.00    0.86650   0.91219    0.042
 4770.00    0.88242   0.91590    0.042
 4771.00    0.89959   0.92052    0.042
 4772.00    0.91343   0.92512    0.042
 4773.00    0.92903   0.93009    0.041
 4774.00    0.99595   0.93482    0.042
 4775.00    1.05625   0.93825    0.043
 4776.00    1.02088   0.94121    0.043
 4777.00    0.98340   0.94223    0.042
 4778.00    0.92597   0.94223    0.041
 4779.00    0.88533   0.94159    0.041
 4780.00    0.95957   0.93955    0.041
 4781.00    1.02490   0.93683    0.041
 4782.00    1.04300   0.93302    0.041
 4783.00    1.04551   0.92945    0.040
 4784.00    0.98161   0.92657    0.040
 4785.00    0.92402   0.92349    0.041
 4786.00    0.88858   0.92197    0.040
 4787.00    0.86674   0.92164    0.040
 4788.00    0.88505   0.92212    0.041
 4789.00    0.89907   0.92426    0.042
 4790.00    0.90229   0.92726    0.042
 4791.00    0.91677   0.93146    0.042
 4792.00    0.95566   0.93594    0.042
 4793.00    0.98846   0.94045    0.042
 4794.00    1.00978   0.94506    0.041
 4795.00    1.02328   0.94838    0.041
 4796.00    1.02395   0.95078    0.042
 4797.00    0.99522   0.95205    0.043
 4798.00    0.92414   0.95222    0.042
 4799.00    0.90500   0.95169    0.042
 4800.00    0.95166   0.95099    0.042
 4801.00    0.99057   0.94995    0.043
 4802.00    1.02082   0.94843    0.043
 4803.00    1.02122   0.94687    0.043
 4804.00    0.99221   0.94477    0.043
 4805.00    0.98376   0.94306    0.043
 4806.00    0.99315   0.94115    0.042
 4807.00    1.01003   0.93975    0.042
 4808.00    1.03265   0.93906    0.042
 4809.00    0.98132   0.93854    0.042
 4810.00    0.88025   0.93876    0.043
 4811.00    0.86492   0.93946    0.042
 4812.00    0.90011   0.94092    0.042
 4813.00    0.96503   0.94301    0.042
 4814.00    1.04521   0.94526    0.042
 4815.00    1.01763   0.94782    0.042
 4816.00    0.94207   0.95043    0.043
 4817.00    0.89924   0.95211    0.043
 4818.00    0.86893   0.95339    0.042
 4819.00    0.84246   0.95363    0.042
 4820.00    0.81724   0.95289    0.043
 4821.00    0.87822   0.95137    0.043
 4822.00    0.96267   0.94837    0.044
 4823.00    0.97000   0.94538    0.044
 4824.00    0.96010   0.94228    0.043
 4825.00    0.98030   0.93923    0.043
 4826.00    1.00586   0.93658    0.043
 4827.00    0.97028   0.93399    0.043
 4828.00    0.92637   0.93183    0.043
 4829.00    0.95117   0.93018    0.043
 4830.00    0.98264   0.92876    0.044
 4831.00    0.94650   0.92789    0.043
 4832.00    0.90627   0.92760    0.042
 4833.00    0.90446   0.92707    0.043
 4834.00    0.90392   0.92686    0.043
 4835.00    0.94894   0.92633    0.043
 4836.00    0.99096   0.92596    0.043
 4837.00    0.95439   0.92499    0.043
 4838.00    0.92603   0.92346    0.043
 4839.00    1.00959   0.92216    0.043
 4840.00    1.08614   0.92065    0.042
 4841.00    1.09937   0.91927    0.042
 4842.00    1.10835   0.91746    0.042
 4843.00    1.08916   0.91618    0.042
 4844.00    1.06773   0.91502    0.042
 4845.00    1.03472   0.91350    0.042
 4846.00    0.99365   0.91180    0.042
 4847.00    0.91909   0.90906    0.043
 4848.00    0.85567   0.90549    0.000
 4849.00    0.83063   0.90097    0.000
 4850.00    0.80426   0.89487    0.000
 4851.00    0.77405   0.88754    0.000
 4852.00    0.76291   0.87821    0.000
 4853.00    0.79898   0.86647    0.000
 4854.00    0.81266   0.85287    0.000
 4855.00    0.77854   0.83800    0.000
 4856.00    0.79157   0.82273    0.000
 4857.00    0.89200   0.80695    0.000
 4858.00    0.91625   0.79160    0.000
 4859.00    0.81720   0.77739    0.000
 4860.00    0.75711   0.76515    0.000
 4861.00    0.75233   0.75704    0.000
 4862.00    0.74957   0.75362    0.000
 4863.00    0.74933   0.75410    0.000
 4864.00    0.77465   0.75900    0.000
 4865.00    0.82814   0.76634    0.000
 4866.00    0.87631   0.77589    0.000
 4867.00    0.91933   0.78636    0.000
 4868.00    0.96029   0.79759    0.000
 4869.00    0.99947   0.80857    0.000
 4870.00    0.94380   0.81788    0.000
 4871.00    0.81659   0.82719    0.000
 4872.00    0.75701   0.83582    0.000
 4873.00    0.74225   0.84420    0.000
 4874.00    0.82437   0.85245    0.000
 4875.00    0.96272   0.86064    0.041
 4876.00    0.97019   0.86872    0.040
 4877.00    0.91146   0.87565    0.040
 4878.00    0.90374   0.88272    0.040
 4879.00    0.91836   0.88825    0.040
 4880.00    0.90917   0.89192    0.040
 4881.00    0.89103   0.89425    0.040
 4882.00    0.91170   0.89475    0.040
 4883.00    0.94474   0.89376    0.040
 4884.00    0.91952   0.89166    0.040
 4885.00    0.87878   0.88899    0.040
 4886.00    0.85377   0.88650    0.040
 4887.00    0.83221   0.88451    0.040
 4888.00    0.83905   0.88375    0.040
 4889.00    0.85082   0.88467    0.041
 4890.00    0.88336   0.88665    0.041
 4891.00    0.91864   0.89168    0.040
 4892.00    0.89971   0.89830    0.040
 4893.00    0.87573   0.90671    0.039
 4894.00    0.86796   0.91624    0.040
 4895.00    0.86112   0.92505    0.040
 4896.00    0.82653   0.93337    0.040
 4897.00    0.79219   0.94008    0.040
 4898.00    0.85488   0.94520    0.040
 4899.00    0.91609   0.94833    0.040
 4900.00    0.94210   0.95017    0.040
 4901.00    0.96543   0.95044    0.040
 4902.00    0.95392   0.94939    0.040
 4903.00    0.93958   0.94785    0.040
 4904.00    0.90059   0.94597    0.040
 4905.00    0.86715   0.94413    0.039
 4906.00    0.86940   0.94186    0.039
 4907.00    0.88059   0.93963    0.039
 4908.00    0.93668   0.93704    0.039
 4909.00    0.98395   0.93418    0.040
 4910.00    0.99534   0.93163    0.040
 4911.00    1.00772   0.92882    0.040
 4912.00    1.02343   0.92597    0.040
 4913.00    1.02959   0.92248    0.040
 4914.00    1.00856   0.91853    0.040
 4915.00    0.98494   0.91321    0.040
 4916.00    0.95499   0.90683    0.040
 4917.00    0.91664   0.89935    0.040
 4918.00    0.86064   0.89144    0.040
 4919.00    0.82740   0.88421    0.040
 4920.00    0.83569   0.87816    0.039
 4921.00    0.81997   0.87536    0.039
 4922.00    0.76598   0.87465    0.039
 4923.00    0.76013   0.87743    0.039
 4924.00    0.82165   0.88232    0.039
 4925.00    0.87720   0.89013    0.039
 4926.00    0.92541   0.89902    0.039
 4927.00    0.96500   0.90876    0.040
 4928.00    0.99522   0.91853    0.040
 4929.00    0.99709   0.92627    0.040
 4930.00    0.97181   0.93242    0.040
 4931.00    0.95691   0.93589    0.040
 4932.00    0.95076   0.93654    0.039
 4933.00    0.90689   0.93527    0.039
 4934.00    0.83497   0.93292    0.039
 4935.00    0.85387   0.92952    0.039
 4936.00    0.93209   0.92590    0.040
 4937.00    0.90064   0.92248    0.040
 4938.00    0.80650   0.92033    0.039
 4939.00    0.82772   0.91998    0.040
 4940.00    0.90637   0.92196    0.000
 4941.00    0.97332   0.92525    0.000
 4942.00    1.03524   0.93031    0.000
 4943.00    1.02847   0.93627    0.000
 4944.00    0.99635   0.94238    0.000
 4945.00    1.00470   0.94816    0.000
 4946.00    1.02571   0.95364    0.000
 4947.00    0.99319   0.95802    0.000
 4948.00    0.94671   0.96134    0.000
 4949.00    0.92371   0.96278    0.000
 4950.00    0.90571   0.96243    0.000
 4951.00    0.94304   0.96002    0.000
 4952.00    0.98970   0.95580    0.000
 4953.00    0.91391   0.95019    0.000
 4954.00    0.82256   0.94309    0.000
 4955.00    0.85244   0.93610    0.000
 4956.00    0.89308   0.92815    0.000
 4957.00    0.91833   0.92168    0.000
 4958.00    0.94278   0.91699    0.000
 4959.00    0.98158   0.91380    0.000
 4960.00    1.01960   0.91249    0.000
 4961.00    0.97518   0.91173    0.000
 4962.00    0.93213   0.91219    0.000
 4963.00    0.91872   0.91270    0.000
 4964.00    0.90621   0.91324    0.000
 4965.00    0.90480   0.91363    0.000
 4966.00    0.90292   0.91428    0.000
 4967.00    0.89706   0.91518    0.000
 4968.00    0.88887   0.91657    0.000
 4969.00    0.86610   0.91780    0.000
 4970.00    0.85071   0.91941    0.000
 4971.00    0.87148   0.92144    0.000
 4972.00    0.89520   0.92290    0.000
 4973.00    0.93064   0.92411    0.000
 4974.00    0.93503   0.92392    0.000
 4975.00    0.83673   0.92254    0.000
 4976.00    0.78472   0.91963    0.000
 4977.00    0.86207   0.91471    0.000
 4978.00    0.89521   0.90881    0.000
 4979.00    0.82261   0.90188    0.000
 4980.00    0.77741   0.89467    0.000
 4981.00    0.78879   0.88744    0.000
 4982.00    0.80450   0.88130    0.000
 4983.00    0.82799   0.87693    0.000
 4984.00    0.85432   0.87442    0.000
 4985.00    0.88509   0.87408    0.000
 4986.00    0.88135   0.87577    0.000
 4987.00    0.82999   0.87865    0.000
 4988.00    0.83049   0.88249    0.000
 4989.00    0.89397   0.88674    0.000
 4990.00    0.92478   0.89035    0.000
 4991.00    0.92062   0.89417    0.000
 4992.00    0.91833   0.89688    0.000
 4993.00    0.91779   0.89849    0.000
 4994.00    0.89183   0.89924    0.000
 4995.00    0.84470   0.89844    0.000
 4996.00    0.82977   0.89643    0.000
 4997.00    0.83844   0.89328    0.000
 4998.00    0.84362   0.88875    0.000
 4999.00    0.84655   0.88342    0.000
 5000.00    0.84441   0.87780    0.000
 5001.00    0.83942   0.87184    0.000
 5002.00    0.82493   0.86641    0.000
 5003.00    0.80579   0.86115    0.000
 5004.00    0.81240   0.85668    0.000
 5005.00    0.82990   0.85259    0.000
 5006.00    0.84116   0.84976    0.000
 5007.00    0.85016   0.84775    0.000
 5008.00    0.79201   0.84613    0.000
 5009.00    0.71326   0.84464    0.000
 5010.00    0.74614   0.84311    0.000
 5011.00    0.80751   0.84083    0.000
 5012.00    0.84604   0.83861    0.000
 5013.00    0.87982   0.83620    0.000
 5014.00    0.85056   0.83411    0.000
 5015.00    0.81097   0.83319    0.000
 5016.00    0.77878   0.83267    0.000
 5017.00    0.74750   0.83337    0.000
 5018.00    0.76791   0.83486    0.000
 5019.00    0.79269   0.83746    0.000
 5020.00    0.81478   0.84067    0.000
 5021.00    0.83675   0.84439    0.000
 5022.00    0.84940   0.84871    0.000
 5023.00    0.86173   0.85360    0.000
 5024.00    0.86324   0.85832    0.000
 5025.00    0.86467   0.86355    0.000
 5026.00    0.86434   0.86805    0.000
 5027.00    0.86466   0.87275    0.000
 5028.00    0.87256   0.87759    0.000
 5029.00    0.87740   0.88163    0.037
 5030.00    0.85745   0.88544    0.038
 5031.00    0.83837   0.88798    0.038
 5032.00    0.82455   0.88955    0.038
 5033.00    0.81234   0.88928    0.038
 5034.00    0.80783   0.88726    0.038
 5035.00    0.80558   0.88327    0.037
 5036.00    0.81211   0.87873    0.038
 5037.00    0.81818   0.87318    0.039
 5038.00    0.82277   0.86763    0.039
 5039.00    0.82131   0.86265    0.039
 5040.00    0.80321   0.85855    0.037
 5041.00    0.78104   0.85686    0.036
 5042.00    0.74932   0.85731    0.037
 5043.00    0.73637   0.85931    0.037
 5044.00    0.76157   0.86300    0.037
 5045.00    0.79528   0.86706    0.037
 5046.00    0.84406   0.87118    0.038
 5047.00    0.87883   0.87466    0.039
 5048.00    0.89190   0.87763    0.038
 5049.00    0.87937   0.88019    0.038
 5050.00    0.83203   0.88238    0.039
 5051.00    0.81843   0.88486    0.040
 5052.00    0.84522   0.88754    0.040
 5053.00    0.86678   0.89104    0.040
 5054.00    0.88282   0.89469    0.040
 5055.00    0.86973   0.89894    0.039
 5056.00    0.82953   0.90307    0.039
 5057.00    0.82617   0.90739    0.039
 5058.00    0.85307   0.91063    0.039
 5059.00    0.89836   0.91322    0.040
 5060.00    0.95695   0.91452    0.040
 5061.00    0.92178   0.91424    0.040
 5062.00    0.82717   0.91251    0.039
 5063.00    0.81913   0.90912    0.039
 5064.00    0.85910   0.90473    0.039
 5065.00    0.85300   0.90035    0.039
 5066.00    0.82468   0.89555    0.039
 5067.00    0.81099   0.89125    0.039
 5068.00    0.80340   0.88746    0.039
 5069.00    0.79147   0.88448    0.039
 5070.00    0.77801   0.88199    0.039
 5071.00    0.80426   0.87967    0.039
 5072.00    0.84246   0.87794    0.039
 5073.00    0.80767   0.87607    0.039
 5074.00    0.75467   0.87384    0.039
 5075.00    0.76922   0.87130    0.039
 5076.00    0.79746   0.86832    0.039
 5077.00    0.79698   0.86522    0.039
 5078.00    0.79193   0.86117    0.039
 5079.00    0.80562   0.85789    0.039
 5080.00    0.82154   0.85523    0.040
 5081.00    0.78902   0.85386    0.039
 5082.00    0.75260   0.85361    0.039
 5083.00    0.79963   0.85495    0.039
 5084.00    0.85041   0.85781    0.039
 5085.00    0.83919   0.86165    0.038
 5086.00    0.82895   0.86649    0.037
 5087.00    0.90473   0.87165    0.038
 5088.00    0.97418   0.87709    0.038
 5089.00    0.92597   0.88192    0.038
 5090.00    0.87456   0.88612    0.037
 5091.00    0.78759   0.88929    0.037
 5092.00    0.70435   0.89133    0.037
 5093.00    0.65012   0.89180    0.037
 5094.00    0.61482   0.89082    0.037
 5095.00    0.69102   0.88866    0.037
 5096.00    0.76901   0.88540    0.037
 5097.00    0.85534   0.88173    0.038
 5098.00    0.91549   0.87753    0.038
 5099.00    0.87585   0.87417    0.037
 5100.00    0.82941   0.87108    0.037
 5101.00    0.76133   0.86870    0.036
 5102.00    0.70143   0.86667    0.036
 5103.00    0.66357   0.86503    0.036
 5104.00    0.65408   0.86374    0.037
 5105.00    0.71015   0.86273    0.037
 5106.00    0.74853   0.86196    0.037
 5107.00    0.75149   0.86151    0.037
 5108.00    0.75020   0.86187    0.037
 5109.00    0.74149   0.86244    0.036
 5110.00    0.73332   0.86434    0.036
 5111.00    0.72599   0.86692    0.036
 5112.00    0.72567   0.87005    0.037
 5113.00    0.73476   0.87387    0.037
 5114.00    0.74908   0.87761    0.037
 5115.00    0.76959   0.88101    0.038
 5116.00    0.80479   0.88377    0.038
 5117.00    0.85529   0.88521    0.038
 5118.00    0.88226   0.88502    0.038
 5119.00    0.88763   0.88326    0.038
 5120.00    0.92038   0.87955    0.038
 5121.00    0.97528   0.87485    0.038
 5122.00    0.92957   0.86878    0.038
 5123.00    0.81223   0.86256    0.037
 5124.00    0.72045   0.85665    0.037
 5125.00    0.64463   0.85144    0.037
 5126.00    0.68445   0.84741    0.037
 5127.00    0.78739   0.84468    0.038
 5128.00    0.80912   0.84361    0.038
 5129.00    0.79233   0.84371    0.037
 5130.00    0.76843   0.84551    0.037
 5131.00    0.74162   0.84769    0.037
 5132.00    0.78181   0.85061    0.037
 5133.00    0.84541   0.85312    0.038
 5134.00    0.84798   0.85571    0.038
 5135.00    0.83256   0.85717    0.038
 5136.00    0.79783   0.85764    0.038
 5137.00    0.75838   0.85739    0.038
 5138.00    0.79605   0.85579    0.039
 5139.00    0.84895   0.85408    0.039
 5140.00    0.83076   0.85193    0.039
 5141.00    0.80161   0.84900    0.039
 5142.00    0.90718   0.84641    0.039
 5143.00    1.02809   0.84393    0.039
 5144.00    0.91060   0.84166    0.038
 5145.00    0.77492   0.83953    0.037
 5146.00    0.72720   0.83805    0.038
 5147.00    0.68309   0.83668    0.039
 5148.00    0.72251   0.83637    0.039
 5149.00    0.76119   0.83612    0.039
 5150.00    0.73970   0.83679    0.039
 5151.00    0.72447   0.83799    0.038
 5152.00    0.81750   0.84007    0.039
 5153.00    0.89609   0.84283    0.040
 5154.00    0.82113   0.84625    0.039
 5155.00    0.76086   0.85008    0.038
 5156.00    0.81120   0.85363    0.039
 5157.00    0.85515   0.85669    0.040
 5158.00    0.86253   0.85790    0.040
 5159.00    0.86011   0.85754    0.039
 5160.00    0.81310   0.85454    0.039
 5161.00    0.78795   0.84858    0.039
 5162.00    0.84441   0.83986    0.039
 5163.00    0.87334   0.82851    0.039
 5164.00    0.81640   0.81469    0.039
 5165.00    0.76250   0.79958    0.038
 5166.00    0.71664   0.78370    0.038
 5167.00    0.69596   0.76892    0.038
 5168.00    0.73252   0.75594    0.038
 5169.00    0.72479   0.74581    0.038
 5170.00    0.62982   0.73830    0.037
 5171.00    0.56254   0.73376    0.037
 5172.00    0.54277   0.73274    0.037
 5173.00    0.54566   0.73516    0.037
 5174.00    0.58261   0.74008    0.037
 5175.00    0.63394   0.74629    0.038
 5176.00    0.70428   0.75304    0.038
 5177.00    0.73021   0.75939    0.037
 5178.00    0.70448   0.76455    0.037
 5179.00    0.68941   0.76830    0.037
 5180.00    0.68527   0.77050    0.037
 5181.00    0.68919   0.77151    0.036
 5182.00    0.70040   0.77174    0.035
 5183.00    0.71804   0.77241    0.035
 5184.00    0.74081   0.77470    0.035
 5185.00    0.71732   0.77819    0.035
 5186.00    0.66137   0.78327    0.035
 5187.00    0.64617   0.78917    0.035
 5188.00    0.65605   0.79579    0.035
 5189.00    0.71921   0.80294    0.035
 5190.00    0.81101   0.80921    0.000
 5191.00    0.80112   0.81501    0.000
 5192.00    0.74378   0.82023    0.000
 5193.00    0.74635   0.82520    0.000
 5194.00    0.77303   0.82924    0.000
 5195.00    0.78763   0.83314    0.000
 5196.00    0.79807   0.83660    0.000
 5197.00    0.80270   0.83931    0.000
 5198.00    0.80565   0.84150    0.000
 5199.00    0.81182   0.84213    0.000
 5200.00    0.81875   0.84168    0.000
 5201.00    0.81822   0.83914    0.000
 5202.00    0.81626   0.83557    0.000
 5203.00    0.82372   0.83018    0.000
 5204.00    0.83260   0.82427    0.000
 5205.00    0.82346   0.81821    0.000
 5206.00    0.81235   0.81344    0.000
 5207.00    0.79673   0.80964    0.000
 5208.00    0.78078   0.80833    0.000
 5209.00    0.73249   0.80947    0.000
 5210.00    0.68299   0.81292    0.000
 5211.00    0.78020   0.81886    0.038
 5212.00    0.87378   0.82600    0.038
 5213.00    0.81043   0.83438    0.038
 5214.00    0.75125   0.84252    0.039
 5215.00    0.75963   0.85062    0.039
 5216.00    0.76370   0.85787    0.039
 5217.00    0.72384   0.86402    0.038
 5218.00    0.69637   0.86874    0.038
 5219.00    0.75905   0.87146    0.039
 5220.00    0.82345   0.87262    0.039
 5221.00    0.89749   0.87175    0.039
 5222.00    0.94903   0.86942    0.040
 5223.00    0.90054   0.86576    0.039
 5224.00    0.85302   0.86151    0.039
 5225.00    0.80905   0.85734    0.039
 5226.00    0.78813   0.85373    0.039
 5227.00    0.83781   0.85196    0.039
 5228.00    0.85479   0.85176    0.039
 5229.00    0.78672   0.85300    0.039
 5230.00    0.74063   0.85602    0.038
 5231.00    0.74367   0.86006    0.037
 5232.00    0.76944   0.86495    0.037
 5233.00    0.83925   0.87090    0.038
 5234.00    0.87966   0.87705    0.039
 5235.00    0.87036   0.88369    0.039
 5236.00    0.86213   0.89000    0.038
 5237.00    0.85548   0.89590    0.038
 5238.00    0.86755   0.90102    0.038
 5239.00    0.90398   0.90520    0.037
 5240.00    0.90993   0.90840    0.037
 5241.00    0.88091   0.91021    0.036
 5242.00    0.84658   0.91065    0.036
 5243.00    0.80685   0.90980    0.036
 5244.00    0.80623   0.90769    0.037
 5245.00    0.84048   0.90416    0.037
 5246.00    0.86245   0.89971    0.037
 5247.00    0.87475   0.89521    0.037
 5248.00    0.86020   0.89093    0.036
 5249.00    0.82707   0.88679    0.035
 5250.00    0.81478   0.88379    0.035
 5251.00    0.81513   0.88199    0.036
 5252.00    0.85888   0.88128    0.036
 5253.00    0.92560   0.88166    0.037
 5254.00    0.88777   0.88234    0.037
 5255.00    0.80192   0.88378    0.037
 5256.00    0.82246   0.88475    0.037
 5257.00    0.88506   0.88471    0.037
 5258.00    0.88407   0.88302    0.037
 5259.00    0.86166   0.87905    0.037
 5260.00    0.86634   0.87294    0.037
 5261.00    0.87869   0.86438    0.037
 5262.00    0.81078   0.85425    0.038
 5263.00    0.72415   0.84278    0.039
 5264.00    0.70128   0.83129    0.039
 5265.00    0.69036   0.82009    0.038
 5266.00    0.69229   0.81091    0.038
 5267.00    0.69607   0.80374    0.038
 5268.00    0.66953   0.79876    0.038
 5269.00    0.63979   0.79698    0.039
 5270.00    0.67956   0.79887    0.039
 5271.00    0.72405   0.80380    0.040
 5272.00    0.74707   0.81097    0.040
 5273.00    0.76936   0.82027    0.041
 5274.00    0.74981   0.83061    0.040
 5275.00    0.73336   0.84163    0.039
 5276.00    0.81726   0.85300    0.039
 5277.00    0.89415   0.86351    0.040
 5278.00    0.86428   0.87311    0.039
 5279.00    0.83842   0.88122    0.039
 5280.00    0.85174   0.88835    0.039
 5281.00    0.86959   0.89437    0.039
 5282.00    0.91935   0.89995    0.039
 5283.00    0.95784   0.90501    0.039
 5284.00    0.93521   0.91053    0.040
 5285.00    0.91283   0.91598    0.040
 5286.00    0.89147   0.92138    0.039
 5287.00    0.86002   0.92632    0.039
 5288.00    0.79246   0.93069    0.039
 5289.00    0.75623   0.93418    0.039
 5290.00    0.81409   0.93618    0.039
 5291.00    0.87896   0.93656    0.039
 5292.00    0.96179   0.93497    0.039
 5293.00    1.00109   0.93196    0.039
 5294.00    0.94467   0.92751    0.039
 5295.00    0.89972   0.92219    0.039
 5296.00    0.87665   0.91650    0.039
 5297.00    0.84817   0.91146    0.039
 5298.00    0.81068   0.90790    0.039
 5299.00    0.82366   0.90612    0.038
 5300.00    0.91031   0.90595    0.038
 5301.00    0.92335   0.90802    0.038
 5302.00    0.84193   0.91191    0.037
 5303.00    0.79821   0.91750    0.037
 5304.00    0.79710   0.92387    0.037
 5305.00    0.81698   0.93067    0.037
 5306.00    0.85780   0.93712    0.037
 5307.00    0.86218   0.94311    0.036
 5308.00    0.83452   0.94820    0.036
 5309.00    0.84072   0.95205    0.036
 5310.00    0.87317   0.95451    0.036
 5311.00    0.89180   0.95564    0.036
 5312.00    0.90101   0.95548    0.036
 5313.00    0.89743   0.95424    0.037
 5314.00    0.88622   0.95204    0.037
 5315.00    0.88055   0.94889    0.037
 5316.00    0.87778   0.94505    0.036
 5317.00    0.89848   0.94062    0.036
 5318.00    0.92979   0.93551    0.036
 5319.00    0.96772   0.92962    0.036
 5320.00    1.00822   0.92323    0.036
 5321.00    0.96280   0.91588    0.036
 5322.00    0.88898   0.90827    0.036
 5323.00    0.88344   0.89966    0.036
 5324.00    0.89684   0.89180    0.037
 5325.00    0.87270   0.88382    0.037
 5326.00    0.84001   0.87709    0.037
 5327.00    0.81063   0.87099    0.037
 5328.00    0.78185   0.86787    0.037
 5329.00    0.74769   0.86693    0.037
 5330.00    0.71278   0.86846    0.036
 5331.00    0.75368   0.87177    0.037
 5332.00    0.80223   0.87663    0.038
 5333.00    0.85817   0.88277    0.038
 5334.00    0.91458   0.88907    0.038
 5335.00    0.89158   0.89504    0.038
 5336.00    0.86640   0.89995    0.038
 5337.00    0.91624   0.90389    0.038
 5338.00    0.96429   0.90630    0.038
 5339.00    0.96075   0.90753    0.038
 5340.00    0.95787   0.90782    0.038
 5341.00    0.96430   0.90814    0.038
 5342.00    0.96875   0.90790    0.039
 5343.00    0.95453   0.90804    0.039
 5344.00    0.93600   0.90830    0.039
 5345.00    0.88808   0.90927    0.038
 5346.00    0.85144   0.91113    0.037
 5347.00    0.87434   0.91374    0.038
 5348.00    0.89699   0.91717    0.038
 5349.00    0.91863   0.92171    0.038
 5350.00    0.92422   0.92717    0.038
 5351.00    0.87357   0.93331    0.037
 5352.00    0.85370   0.93980    0.037
 5353.00    0.92455   0.94645    0.037
 5354.00    0.97004   0.95297    0.037
 5355.00    0.95179   0.95858    0.037
 5356.00    0.93776   0.96327    0.037
 5357.00    0.93284   0.96635    0.037
 5358.00    0.93452   0.96791    0.037
 5359.00    0.94861   0.96755    0.037
 5360.00    0.97064   0.96543    0.036
 5361.00    1.00571   0.96158    0.036
 5362.00    0.98264   0.95639    0.036
 5363.00    0.87596   0.95015    0.036
 5364.00    0.81174   0.94290    0.036
 5365.00    0.80126   0.93562    0.035
 5366.00    0.83207   0.92816    0.035
 5367.00    0.90891   0.92140    0.036
 5368.00    0.91505   0.91541   -2.000
 5369.00    0.85166   0.91067   -2.000
 5370.00    0.78366   0.90768   -2.000
 5371.00    0.71167   0.90654   -2.000
 5372.00    0.69094   0.90769   -2.000
 5373.00    0.70937   0.91014   -2.000
 5374.00    0.71663   0.91419   -2.000
 5375.00    0.71638   0.91888   -2.000
 5376.00    0.81013   0.92408   -2.000
 5377.00    0.95917   0.92916   -2.000
 5378.00    1.03429   0.93374   -2.000
 5379.00    1.07150   0.93737   -2.000
 5380.00    1.00754   0.93986   -2.000
 5381.00    0.89864   0.94134   -2.000
 5382.00    0.91433   0.94157   -2.000
 5383.00    0.97756   0.94090    0.038
 5384.00    1.00139   0.93933    0.038
 5385.00    1.01244   0.93688    0.038
 5386.00    0.93137   0.93370    0.038
 5387.00    0.82528   0.92982    0.038
 5388.00    0.86705   0.92539    0.037
 5389.00    0.94175   0.92040    0.037
 5390.00    0.94721   0.91521    0.037
 5391.00    0.94036   0.90977    0.037
 5392.00    0.86399   0.90440    0.038
 5393.00    0.77818   0.89920    0.038
 5394.00    0.79959   0.89432    0.038
 5395.00    0.83135   0.89010    0.039
 5396.00    0.87048   0.88614    0.039
 5397.00    0.91005   0.88324    0.040
 5398.00    0.88539   0.88061    0.039
 5399.00    0.85924   0.87848    0.038
 5400.00    0.86277   0.87627    0.038
 5401.00    0.86698   0.87431    0.037
 5402.00    0.88871   0.87212    0.038
 5403.00    0.90466   0.86984    0.038
 5404.00    0.84217   0.86781    0.038
 5405.00    0.79271   0.86609    0.037
 5406.00    0.86051   0.86544    0.037
 5407.00    0.92030   0.86555    0.037
 5408.00    0.92715   0.86725    0.037
 5409.00    0.92781   0.87007    0.037
 5410.00    0.89667   0.87481    0.036
 5411.00    0.86473   0.88058    0.036
 5412.00    0.82946   0.88758    0.036
 5413.00    0.80337   0.89494    0.035
 5414.00    0.80879   0.90260    0.035
 5415.00    0.82257   0.90986    0.035
 5416.00    0.86053   0.91652    0.036
 5417.00    0.90960   0.92200    0.036
 5418.00    0.98612   0.92636    0.036
 5419.00    1.01901   0.92931    0.036
 5420.00    0.95902   0.93109    0.036
 5421.00    0.91443   0.93156    0.036
 5422.00    0.89832   0.93110    0.035
 5423.00    0.90280   0.92948    0.035
 5424.00    0.94053   0.92734    0.035
 5425.00    0.97238   0.92436    0.036
 5426.00    0.99587   0.92092    0.035
 5427.00    1.00626   0.91691    0.036
 5428.00    1.00030   0.91284    0.036
 5429.00    0.99355   0.90859    0.036
 5430.00    0.98593   0.90502    0.037
 5431.00    0.95508   0.90176    0.037
 5432.00    0.90170   0.89969    0.036
 5433.00    0.88454   0.89874    0.036
 5434.00    0.89835   0.89936    0.037
 5435.00    0.90842   0.90150    0.036
 5436.00    0.91567   0.90493    0.036
 5437.00    0.93494   0.90950    0.036
 5438.00    0.96215   0.91450    0.037
 5439.00    0.97247   0.91959    0.037
 5440.00    0.97301   0.92400    0.037
 5441.00    0.92942   0.92738    0.037
 5442.00    0.86355   0.92923    0.037
 5443.00    0.85324   0.92952    0.038
 5444.00    0.86722   0.92816    0.038
 5445.00    0.88933   0.92576    0.038
 5446.00    0.91450   0.92221    0.038
 5447.00    0.88030   0.91856    0.038
 5448.00    0.82721   0.91440    0.038
 5449.00    0.86228   0.91087    0.038
 5450.00    0.92078   0.90725    0.037
 5451.00    0.84907   0.90461    0.037
 5452.00    0.74904   0.90198    0.037
 5453.00    0.77791   0.90036    0.037
 5454.00    0.82903   0.89891    0.037
 5455.00    0.82412   0.89831    0.037
 5456.00    0.81186   0.89795    0.038
 5457.00    0.78546   0.89818    0.037
 5458.00    0.75776   0.89866    0.035
 5459.00    0.84434   0.89953    0.036
 5460.00    0.93735   0.90047    0.038
 5461.00    0.90147   0.90163    0.037
 5462.00    0.86261   0.90269    0.037
 5463.00    0.81279   0.90367    0.036
 5464.00    0.76733   0.90439    0.036
 5465.00    0.82405   0.90488    0.036
 5466.00    0.87571   0.90494    0.036
 5467.00    0.86240   0.90453    0.036
 5468.00    0.84998   0.90361    0.035
 5469.00    0.84522   0.90214    0.036
 5470.00    0.84455   0.90001    0.036
 5471.00    0.87010   0.89740    0.036
 5472.00    0.89126   0.89436    0.036
 5473.00    0.89045   0.89110    0.036
 5474.00    0.87475   0.88775    0.035
 5475.00    0.79859   0.88494    0.035
 5476.00    0.74582   0.88242    0.035
 5477.00    0.77180   0.88091    0.035
 5478.00    0.80227   0.87991   -2.000
 5479.00    0.84547   0.88030   -2.000
 5480.00    0.87573   0.88121   -2.000
 5481.00    0.87458   0.88333   -2.000
 5482.00    0.81351   0.88571   -2.000
 5483.00    0.62691   0.88879   -2.000
 5484.00    0.46267   0.89186   -2.000
 5485.00    0.33912   0.89503   -2.000
 5486.00   -0.00966   0.89801   -2.000
 5487.00   -0.71697   0.90063   -2.000
 5488.00   -0.81138   0.90298   -2.000
 5489.00   -0.04961   0.90478   -2.000
 5490.00    0.63148   0.90636   -2.000
 5491.00    1.21338   0.90743   -2.000
 5492.00    1.64834   0.90828   -2.000
 5493.00    1.92406   0.90876   -2.000
 5494.00    1.80226   0.90904   -2.000
 5495.00    1.30046   0.90901   -2.000
 5496.00    1.01842   0.90870   -2.000
 5497.00    0.92161   0.90811   -2.000
 5498.00    0.89817   0.90725   -2.000
 5499.00    0.92919   0.90605   -2.000
 5500.00    0.91926   0.90466   -2.000
 5501.00    0.88262   0.90290   -2.000
 5502.00    0.89006   0.90111    0.037
 5503.00    0.92266   0.89904    0.037
 5504.00    0.89734   0.89709    0.036
 5505.00    0.84325   0.89499    0.037
 5506.00    0.82569   0.89317    0.036
 5507.00    0.82384   0.89134    0.036
 5508.00    0.85486   0.88989    0.036
 5509.00    0.89799   0.88863    0.036
 5510.00    0.88790   0.88785    0.036
 5511.00    0.86120   0.88750    0.036
 5512.00    0.84889   0.88779    0.036
 5513.00    0.84032   0.88877    0.035
 5514.00    0.82860   0.89045    0.035
 5515.00    0.81621   0.89296    0.034
 5516.00    0.77650   0.89598    0.035
 5517.00    0.73219   0.89961    0.035
 5518.00    0.76968   0.90323    0.035
 5519.00    0.81751   0.90694    0.035
 5520.00    0.85636   0.91001    0.035
 5521.00    0.89441   0.91256    0.035
 5522.00    0.88694   0.91408    0.035
 5523.00    0.87709   0.91476    0.035
 5524.00    0.86554   0.91448    0.035
 5525.00    0.85398   0.91350    0.035
 5526.00    0.84327   0.91204    0.035
 5527.00    0.83343   0.91035    0.035
 5528.00    0.84223   0.90876    0.036
 5529.00    0.84730   0.90745    0.036
 5530.00    0.80687   0.90663    0.035
 5531.00    0.78383   0.90638    0.035
 5532.00    0.90579   0.90667    0.036
 5533.00    1.00459   0.90754    0.037
 5534.00    0.95933   0.90881    0.037
 5535.00    0.92237   0.91050    0.037
 5536.00    0.92601   0.91239    0.036
 5537.00    0.93582   0.91449    0.036
 5538.00    0.97010   0.91667    0.037
 5539.00    0.98511   0.91884    0.038
 5540.00    0.93650   0.92104    0.038
 5541.00    0.91235   0.92309    0.038
 5542.00    0.95642   0.92513    0.038
 5543.00    0.97784   0.92699    0.039
 5544.00    0.94522   0.92882    0.039
 5545.00    0.91934   0.93050    0.039
 5546.00    0.90735   0.93211    0.038
 5547.00    0.89844   0.93353    0.037
 5548.00    0.89506   0.93479    0.038
 5549.00    0.90970   0.93575    0.038
 5550.00    0.95258   0.93638    0.038
 5551.00    0.95635   0.93656    0.037
 5552.00    0.90625   0.93632    0.036
 5553.00    0.88321   0.93554    0.036
 5554.00    0.89296   0.93438    0.036
 5555.00    0.89722   0.93272    0.036
 5556.00    0.89561   0.93083    0.036
 5557.00    0.89249   0.92857    0.036
 5558.00    0.88795   0.92622    0.035
 5559.00    0.91546   0.92362    0.035
 5560.00    0.96960   0.92104    0.036
 5561.00    0.95528   0.91833    0.035
 5562.00    0.89089   0.91571    0.035
 5563.00    0.87339   0.91308    0.035
 5564.00    0.88599   0.91067    0.035
 5565.00    0.91719   0.90840    0.035
 5566.00    0.95883   0.90654    0.035
 5567.00    0.92679   0.90494    0.035
 5568.00    0.85873   0.90394    0.035
 5569.00    0.85869   0.90323    0.035
 5570.00    0.88741   0.90325    0.035
 5571.00    0.91289   0.90349    0.035
 5572.00    0.93719   0.90440    0.036
 5573.00    0.87385   0.90536    0.036
 5574.00    0.78369   0.90674    0.036
 5575.00    0.81579   0.90792    0.036
 5576.00    0.87902   0.90912    0.037
 5577.00    0.85030   0.90977    0.037
 5578.00    0.80253   0.91001    0.036
 5579.00    0.90086   0.90935    0.037
 5580.00    1.02302   0.90794    0.038
 5581.00    1.00264   0.90546    0.037
 5582.00    0.96484   0.90216    0.036
 5583.00    0.91662   0.89793    0.037
 5584.00    0.86752   0.89315    0.039
 5585.00    0.83016   0.88803    0.039
 5586.00    0.79336   0.88293    0.038
 5587.00    0.76452   0.87825    0.038
 5588.00    0.73724   0.87426    0.038
 5589.00    0.79556   0.87133    0.038
 5590.00    0.85103   0.86944    0.038
 5591.00    0.84993   0.86880    0.038
 5592.00    0.84876   0.86914    0.038
 5593.00    0.84671   0.87041    0.037
 5594.00    0.84218   0.87223    0.037
 5595.00    0.81777   0.87442    0.037
 5596.00    0.79867   0.87661    0.038
 5597.00    0.81167   0.87889    0.037
 5598.00    0.82256   0.88089    0.037
 5599.00    0.82345   0.88317    0.037
 5600.00    0.83242   0.88521    0.037
 5601.00    0.87281   0.88793    0.037
 5602.00    0.90314   0.89063    0.037
 5603.00    0.90090   0.89432    0.037
 5604.00    0.88513   0.89795    0.037
 5605.00    0.83229   0.90243    0.036
 5606.00    0.80886   0.90644    0.035
 5607.00    0.85444   0.91064    0.035
 5608.00    0.88463   0.91380    0.035
 5609.00    0.88363   0.91629    0.035
 5610.00    0.88467   0.91734    0.036
 5611.00    0.88930   0.91726    0.035
 5612.00    0.91157   0.91578    0.036
 5613.00    0.96107   0.91336    0.036
 5614.00    0.97291   0.91003    0.037
 5615.00    0.93364   0.90634    0.036
 5616.00    0.90820   0.90247    0.036
 5617.00    0.89928   0.89879    0.036
 5618.00    0.85644   0.89554    0.036
 5619.00    0.77787   0.89290    0.036
 5620.00    0.78104   0.89120    0.036
 5621.00    0.86017   0.88995    0.037
 5622.00    0.87041   0.88955    0.037
 5623.00    0.82422   0.88958    0.036
 5624.00    0.79287   0.89040    0.036
 5625.00    0.77222   0.89156    0.037
 5626.00    0.81033   0.89331    0.037
 5627.00    0.88564   0.89523    0.037
 5628.00    0.92413   0.89756    0.037
 5629.00    0.94225   0.89984    0.037
 5630.00    0.92257   0.90210    0.037
 5631.00    0.88470   0.90381    0.037
 5632.00    0.88121   0.90513    0.036
 5633.00    0.89200   0.90568    0.036
 5634.00    0.88912   0.90561    0.036
 5635.00    0.88139   0.90486    0.036
 5636.00    0.88432   0.90359    0.036
 5637.00    0.89044   0.90208    0.036
 5638.00    0.85484   0.90032    0.036
 5639.00    0.80885   0.89885    0.036
 5640.00    0.83915   0.89747    0.036
 5641.00    0.88487   0.89670    0.035
 5642.00    0.92541   0.89622    0.035
 5643.00    0.96512   0.89639    0.035
 5644.00    0.93324   0.89692    0.035
 5645.00    0.89294   0.89785    0.035
 5646.00    0.91628   0.89909    0.034
 5647.00    0.94471   0.90031    0.034
 5648.00    0.96394   0.90157    0.035
 5649.00    0.98277   0.90247    0.035
 5650.00    0.91106   0.90306    0.035
 5651.00    0.84022   0.90304    0.034
 5652.00    0.86158   0.90249    0.034
 5653.00    0.88041   0.90127    0.035
 5654.00    0.85281   0.89948    0.034
 5655.00    0.82924   0.89718    0.034
 5656.00    0.85039   0.89454    0.035
 5657.00    0.86304   0.89190    0.035
 5658.00    0.80973   0.88934    0.035
 5659.00    0.77143   0.88721    0.035
 5660.00    0.82118   0.88562    0.035
 5661.00    0.86364   0.88500    0.035
 5662.00    0.87220   0.88495    0.035
 5663.00    0.87875   0.88595    0.036
 5664.00    0.87761   0.88741    0.037
 5665.00    0.88098   0.88977    0.038
 5666.00    0.89867   0.89238    0.037
 5667.00    0.88804   0.89557    0.036
 5668.00    0.80122   0.89879    0.037
 5669.00    0.76071   0.90226    0.037
 5670.00    0.82706   0.90574    0.037
 5671.00    0.87467   0.90916    0.036
 5672.00    0.88486   0.91243    0.036
 5673.00    0.87937   0.91538    0.036
 5674.00    0.84660   0.91795    0.036
 5675.00    0.84483   0.91987    0.036
 5676.00    0.89025   0.92113    0.036
 5677.00    0.95354   0.92163    0.036
 5678.00    1.04073   0.92145    0.036
 5679.00    1.04732   0.92051    0.036
 5680.00    0.95894   0.91904    0.036
 5681.00    0.91420   0.91718    0.035
 5682.00    0.91479   0.91511    0.034
 5683.00    0.92482   0.91307    0.034
 5684.00    0.94351   0.91115    0.033
 5685.00    0.93254   0.90990    0.034
 5686.00    0.89761   0.90891    0.034
 5687.00    0.90367   0.90880    0.034
 5688.00    0.93887   0.90885    0.033
 5689.00    0.91958   0.90983    0.033
 5690.00    0.86632   0.91075    0.033
 5691.00    0.86192   0.91226    0.033
 5692.00    0.88415   0.91328    0.033
 5693.00    0.91189   0.91427    0.033
 5694.00    0.94224   0.91449    0.034
 5695.00    0.91793   0.91408    0.035
 5696.00    0.87130   0.91287    0.035
 5697.00    0.86091   0.91085    0.036
 5698.00    0.86317   0.90822    0.036
 5699.00    0.88835   0.90481    0.036
 5700.00    0.92027   0.90112    0.035
 5701.00    0.94844   0.89711    0.036
 5702.00    0.97569   0.89298    0.037
 5703.00    0.97966   0.88894    0.037
 5704.00    0.97904   0.88518    0.036
 5705.00    0.92038   0.88182    0.036
 5706.00    0.85281   0.87896    0.036
 5707.00    0.81696   0.87671    0.036
 5708.00    0.78470   0.87532    0.035
 5709.00    0.83622   0.87496    0.035
 5710.00    0.89409   0.87569    0.035
 5711.00    0.89021   0.87766    0.035
 5712.00    0.88380   0.88092    0.035
 5713.00    0.85406   0.88495    0.035
 5714.00    0.82486   0.89029    0.035
 5715.00    0.82546   0.89598    0.035
 5716.00    0.82775   0.90218    0.034
 5717.00    0.85898   0.90827    0.034
 5718.00    0.89309   0.91430    0.034
 5719.00    0.95775   0.91964    0.034
 5720.00    1.00570   0.92458    0.033
 5721.00    0.92840   0.92851    0.033
 5722.00    0.86497   0.93175    0.034
 5723.00    0.88075   0.93398    0.033
 5724.00    0.89715   0.93550    0.032
 5725.00    0.91641   0.93611    0.033
 5726.00    0.92702   0.93625    0.033
 5727.00    0.90539   0.93582    0.033
 5728.00    0.89430   0.93512    0.033
 5729.00    0.91599   0.93439    0.033
 5730.00    0.94156   0.93389    0.033
 5731.00    0.97742   0.93333    0.033
 5732.00    0.98240   0.93297    0.034
 5733.00    0.91732   0.93272    0.033
 5734.00    0.87812   0.93297    0.033
 5735.00    0.88981   0.93311    0.033
 5736.00    0.89701   0.93344    0.033
 5737.00    0.89654   0.93363    0.034
 5738.00    0.89757   0.93381    0.034
 5739.00    0.90084   0.93398    0.034
 5740.00    0.91223   0.93399    0.000
 5741.00    0.93431   0.93402    0.000
 5742.00    0.95195   0.93383    0.000
 5743.00    0.96442   0.93366    0.000
 5744.00    0.97424   0.93318    0.000
 5745.00    0.98135   0.93274    0.000
 5746.00    0.95064   0.93214    0.000
 5747.00    0.88576   0.93132    0.000
 5748.00    0.89394   0.93030    0.000
 5749.00    0.96028   0.92897    0.000
 5750.00    0.97580   0.92789    0.000
 5751.00    0.95573   0.92681    0.000
 5752.00    0.95068   0.92578    0.000
 5753.00    0.95486   0.92469    0.000
 5754.00    0.96166   0.92376    0.000
 5755.00    0.96987   0.92308    0.000
 5756.00    0.94931   0.92274    0.000
 5757.00    0.91537   0.92278    0.000
 5758.00    0.91320   0.92272    0.000
 5759.00    0.92380   0.92298    0.000
 5760.00    0.91656   0.92316    0.000
 5761.00    0.90321   0.92374    0.000
 5762.00    0.88513   0.92435    0.000
 5763.00    0.86569   0.92553    0.000
 5764.00    0.92862   0.92680    0.000
 5765.00    1.01116   0.92871    0.000
 5766.00    1.01218   0.93050    0.000
 5767.00    0.99755   0.93219    0.000
 5768.00    0.96346   0.93363    0.000
 5769.00    0.92647   0.93467    0.000
 5770.00    0.93234   0.93519    0.000
 5771.00    0.94288   0.93500    0.000
 5772.00    0.94848   0.93425    0.000
 5773.00    0.95372   0.93257    0.000
 5774.00    0.96798   0.93035    0.000
 5775.00    0.98257   0.92733    0.000
 5776.00    0.98738   0.92363    0.000
 5777.00    0.99105   0.91952    0.000
 5778.00    0.95501   0.91486    0.000
 5779.00    0.92316   0.91002    0.000
 5780.00    0.95865   0.90504    0.000
 5781.00    0.98661   0.90035    0.000
 5782.00    0.93833   0.89600    0.000
 5783.00    0.89503   0.89278    0.000
 5784.00    0.88784   0.89070    0.000
 5785.00    0.88583   0.88976    0.000
 5786.00    0.91262   0.88997    0.000
 5787.00    0.93359   0.89143    0.000
 5788.00    0.92878   0.89434    0.000
 5789.00    0.92257   0.89776    0.000
 5790.00    0.91121   0.90196    0.000
 5791.00    0.89700   0.90641   -2.000
 5792.00    0.87405   0.91089   -2.000
 5793.00    0.85671   0.91563   -2.000
 5794.00    0.85393   0.92018   -2.000
 5795.00    0.84354   0.92432   -2.000
 5796.00    0.81616   0.92825   -2.000
 5797.00    0.82568   0.93148   -2.000
 5798.00    0.90660   0.93443   -2.000
 5799.00    0.96753   0.93664   -2.000
 5800.00    0.99474   0.93900   -2.000
 5801.00    1.01180   0.94063   -2.000
 5802.00    1.01384   0.94193   -2.000
 5803.00    1.01601   0.94255   -2.000
 5804.00    1.01833   0.94302   -2.000
 5805.00    1.03096   0.94277   -2.000
 5806.00    1.05539   0.94260   -2.000
 5807.00    1.03957   0.94222   -2.000
 5808.00    0.98313   0.94183   -2.000
 5809.00    0.94703   0.94138   -2.000
 5810.00    0.92903   0.94094   -2.000
 5811.00    0.92952   0.94059    0.000
 5812.00    0.94450   0.94035    0.000
 5813.00    0.95595   0.94019    0.000
 5814.00    0.96496   0.94021    0.000
 5815.00    0.96723   0.94047    0.000
 5816.00    0.96541   0.94087    0.000
 5817.00    0.94996   0.94160    0.000
 5818.00    0.92732   0.94266    0.000
 5819.00    0.89913   0.94411    0.000
 5820.00    0.86841   0.94562    0.000
 5821.00    0.88544   0.94706    0.000
 5822.00    0.92132   0.94861    0.000
 5823.00    0.96046   0.94981    0.000
 5824.00    1.00069   0.95111    0.000
 5825.00    1.02970   0.95194    0.000
 5826.00    1.05555   0.95287    0.000
 5827.00    1.04190   0.95325    0.000
 5828.00    1.01906   0.95357    0.000
 5829.00    0.96350   0.95352    0.000
 5830.00    0.90184   0.95335    0.000
 5831.00    0.86691   0.95302    0.000
 5832.00    0.83583   0.95243    0.000
 5833.00    0.84085   0.95191    0.000
 5834.00    0.84965   0.95128    0.000
 5835.00    0.86340   0.95078    0.000
 5836.00    0.87748   0.95023    0.000
 5837.00    0.93122   0.95002    0.000
 5838.00    0.98627   0.94984    0.000
 5839.00    0.98354   0.94953    0.000
 5840.00    0.97940   0.94928    0.000
 5841.00    0.93166   0.94897    0.000
 5842.00    0.88912   0.94834    0.000
 5843.00    0.92507   0.94732    0.000
 5844.00    0.95833   0.94572    0.000
 5845.00    0.96544   0.94370    0.000
 5846.00    0.96887   0.94093    0.000
 5847.00    0.94660   0.93787    0.000
 5848.00    0.92890   0.93415    0.000
 5849.00    0.93590   0.93034    0.000
 5850.00    0.94404   0.92618    0.000
 5851.00    0.95713   0.92202    0.000
 5852.00    0.96740   0.91772    0.000
 5853.00    0.96764   0.91364    0.000
 5854.00    0.95993   0.90976    0.000
 5855.00    0.92844   0.90645    0.000
 5856.00    0.90426   0.90385    0.000
 5857.00    0.89873   0.90160    0.000
 5858.00    0.90767   0.90016    0.000
 5859.00    0.94834   0.89914    0.000
 5860.00    0.96138   0.89952    0.000
 5861.00    0.92183   0.89997    0.000
 5862.00    0.89664   0.90139    0.000
 5863.00    0.89533   0.90267    0.000
 5864.00    0.89234   0.90446    0.000
 5865.00    0.88694   0.90631    0.000
 5866.00    0.88643   0.90820    0.000
 5867.00    0.89221   0.90989    0.000
 5868.00    0.88988   0.91121    0.000
 5869.00    0.87841   0.91254    0.000
 5870.00    0.87958   0.91331    0.000
 5871.00    0.89333   0.91360    0.000
 5872.00    0.89744   0.91325    0.000
 5873.00    0.89310   0.91229    0.000
 5874.00    0.89693   0.91072    0.000
 5875.00    0.90709   0.90868    0.000
 5876.00    0.90359   0.90592    0.000
 5877.00    0.89080   0.90282    0.000
 5878.00    0.89563   0.89863    0.000
 5879.00    0.91095   0.89429    0.000
 5880.00    0.90999   0.88841    0.000
 5881.00    0.90056   0.88201    0.000
 5882.00    0.89013   0.87408    0.000
 5883.00    0.87924   0.86537    0.000
 5884.00    0.85875   0.85500    0.000
 5885.00    0.83452   0.84344    0.000
 5886.00    0.80945   0.83095    0.000
 5887.00    0.78410   0.81777    0.000
 5888.00    0.76436   0.80436    0.000
 5889.00    0.74616   0.79115    0.000
 5890.00    0.72432   0.77902    0.000
 5891.00    0.70164   0.76889    0.000
 5892.00    0.69419   0.76196    0.000
 5893.00    0.68950   0.75833    0.000
 5894.00    0.69910   0.75687    0.000
 5895.00    0.71070   0.75868    0.000
 5896.00    0.69730   0.76293    0.000
 5897.00    0.68138   0.76975    0.000
 5898.00    0.69997   0.77964    0.000
 5899.00    0.72076   0.79138    0.000
 5900.00    0.77334   0.80376    0.000
 5901.00    0.82668   0.81656    0.029
 5902.00    0.82049   0.82932    0.029
 5903.00    0.81453   0.84133    0.029
 5904.00    0.81505   0.85232    0.029
 5905.00    0.81785   0.86209    0.029
 5906.00    0.85313   0.87041    0.029
 5907.00    0.88317   0.87722    0.030
 5908.00    0.86433   0.88280    0.030
 5909.00    0.85032   0.88694    0.030
 5910.00    0.86914   0.89007    0.030
 5911.00    0.88246   0.89195    0.030
 5912.00    0.86684   0.89340    0.030
 5913.00    0.85541   0.89393    0.030
 5914.00    0.86179   0.89441    0.031
 5915.00    0.87194   0.89425    0.031
 5916.00    0.89530   0.89463    0.031
 5917.00    0.90964   0.89492    0.031
 5918.00    0.89744   0.89556    0.031
 5919.00    0.89669   0.89646    0.030
 5920.00    0.92461   0.89726    0.031
 5921.00    0.95048   0.89842    0.031
 5922.00    0.97190   0.89937    0.031
 5923.00    0.98093   0.90037    0.031
 5924.00    0.96675   0.90119    0.032
 5925.00    0.95020   0.90206    0.031
 5926.00    0.92976   0.90257    0.030
 5927.00    0.91517   0.90297    0.029
 5928.00    0.90896   0.90315    0.030
 5929.00    0.90794   0.90302    0.030
 5930.00    0.91348   0.90301    0.030
 5931.00    0.92354   0.90282    0.029
 5932.00    0.93865   0.90290    0.030
 5933.00    0.94737   0.90309    0.030
 5934.00    0.94982   0.90306    0.029
 5935.00    0.95611   0.90324    0.029
 5936.00    0.96574   0.90326    0.030
 5937.00    0.98281   0.90385    0.029
 5938.00    1.00556   0.90425    0.029
 5939.00    1.01223   0.90467    0.029
 5940.00    1.00810   0.90504    0.030
 5941.00    0.99425   0.90537    0.030
 5942.00    0.97469   0.90543    0.029
 5943.00    0.94656   0.90562    0.029
 5944.00    0.91405   0.90582    0.029
 5945.00    0.90938   0.90582    0.030
 5946.00    0.91706   0.90573    0.030
 5947.00    0.92714   0.90535    0.030
 5948.00    0.93814   0.90480    0.030
 5949.00    0.93789   0.90401    0.030
 5950.00    0.93399   0.90320    0.031
 5951.00    0.93219   0.90254    0.031
 5952.00    0.93094   0.90202    0.031
 5953.00    0.94345   0.90155    0.031
 5954.00    0.95901   0.90115    0.030
 5955.00    0.94987   0.90138    0.030
 5956.00    0.93636   0.90191    0.030
 5957.00    0.95021   0.90270    0.030
 5958.00    0.96776   0.90374    0.030
 5959.00    0.94751   0.90540    0.030
 5960.00    0.92362   0.90722    0.030
 5961.00    0.89724   0.90940    0.030
 5962.00    0.87070   0.91143    0.029
 5963.00    0.88465   0.91359    0.029
 5964.00    0.89959   0.91545    0.029
 5965.00    0.90762   0.91721    0.029
 5966.00    0.91646   0.91884    0.028
 5967.00    0.94574   0.91993    0.029
 5968.00    0.97435   0.92116    0.029
 5969.00    0.99380   0.92173    0.029
 5970.00    1.00833   0.92206    0.029
 5971.00    0.97869   0.92174    0.029
 5972.00    0.94791   0.92116    0.029
 5973.00    0.90970   0.91993    0.029
 5974.00    0.88173   0.91840    0.029
 5975.00    0.90630   0.91643    0.029
 5976.00    0.92088   0.91425    0.029
 5977.00    0.89408   0.91187    0.029
 5978.00    0.87411   0.90963    0.029
 5979.00    0.87754   0.90756    0.029
 5980.00    0.88073   0.90574    0.029
 5981.00    0.88327   0.90424    0.030
 5982.00    0.88796   0.90304    0.030
 5983.00    0.89796   0.90197    0.030
 5984.00    0.90001   0.90143    0.030
 5985.00    0.88515   0.90118    0.030
 5986.00    0.88328   0.90157    0.030
 5987.00    0.90539   0.90259    0.030
 5988.00    0.93154   0.90365    0.030
 5989.00    0.96424   0.90495    0.030
 5990.00    0.98052   0.90629    0.030
 5991.00    0.97360   0.90761    0.030
 5992.00    0.95115   0.90878    0.029
 5993.00    0.90937   0.90957    0.029
 5994.00    0.88885   0.91040    0.029
 5995.00    0.89165   0.91067    0.029
 5996.00    0.89787   0.91048    0.029
 5997.00    0.90741   0.90985    0.029
 5998.00    0.91286   0.90890    0.029
 5999.00    0.91484   0.90778    0.029
 6000.00    0.92488   0.90657    0.029
 6001.00    0.94099   0.90523    0.028
 6002.00    0.93379   0.90373    0.028
 6003.00    0.91120   0.90229    0.028
 6004.00    0.90529   0.90065    0.028
 6005.00    0.90902   0.89941    0.028
 6006.00    0.90431   0.89824    0.028
 6007.00    0.89536   0.89690    0.028
 6008.00    0.91337   0.89596    0.029
 6009.00    0.94315   0.89497    0.029
 6010.00    0.96677   0.89445    0.030
 6011.00    0.98809   0.89419    0.030
 6012.00    0.95020   0.89367    0.030
 6013.00    0.89351   0.89322    0.030
 6014.00    0.87983   0.89267    0.030
 6015.00    0.87754   0.89241    0.030
 6016.00    0.91313   0.89237    0.031
 6017.00    0.95693   0.89235    0.031
 6018.00    0.97979   0.89249    0.031
 6019.00    0.99905   0.89299    0.031
 6020.00    0.94830   0.89392    0.031
 6021.00    0.88842   0.89490    0.030
 6022.00    0.88042   0.89669    0.029
 6023.00    0.87720   0.89861    0.029
 6024.00    0.90625   0.90121    0.029
 6025.00    0.93709   0.90386    0.029
 6026.00    0.92786   0.90686    0.029
 6027.00    0.91780   0.91022    0.030
 6028.00    0.91267   0.91318    0.029
 6029.00    0.90689   0.91657    0.028
 6030.00    0.88615   0.91951    0.028
 6031.00    0.86651   0.92249    0.028
 6032.00    0.86104   0.92488    0.028
 6033.00    0.85709   0.92728    0.029
 6034.00    0.86622   0.92926    0.028
 6035.00    0.87399   0.93096    0.027
 6036.00    0.87305   0.93232    0.027
 6037.00    0.87801   0.93344    0.028
 6038.00    0.91243   0.93448    0.028
 6039.00    0.93676   0.93517    0.028
 6040.00    0.92025   0.93608    0.029
 6041.00    0.90623   0.93654    0.029
 6042.00    0.90058   0.93750    0.029
 6043.00    0.90251   0.93808    0.030
 6044.00    0.92593   0.93889    0.030
 6045.00    0.93555   0.93964    0.030
 6046.00    0.91171   0.93999    0.030
 6047.00    0.90981   0.94044    0.030
 6048.00    0.95377   0.94020    0.031
 6049.00    0.99179   0.94018    0.031
 6050.00    1.01900   0.93926    0.030
 6051.00    1.01674   0.93861    0.030
 6052.00    0.96767   0.93727    0.030
 6053.00    0.93861   0.93582    0.030
 6054.00    0.93747   0.93414    0.029
 6055.00    0.95242   0.93227    0.029
 6056.00    0.98714   0.93075    0.030
 6057.00    1.00628   0.92890    0.030
 6058.00    1.00857   0.92764    0.029
 6059.00    1.00107   0.92635    0.029
 6060.00    0.98422   0.92557    0.028
 6061.00    0.95332   0.92498    0.028
 6062.00    0.91061   0.92459    0.028
 6063.00    0.89345   0.92474    0.028
 6064.00    0.89522   0.92490    0.028
 6065.00    0.90221   0.92593    0.028
 6066.00    0.91259   0.92714    0.027
 6067.00    0.90694   0.92896    0.028
 6068.00    0.89217   0.93135    0.028
 6069.00    0.90626   0.93346    0.028
 6070.00    0.93467   0.93550    0.029
 6071.00    0.94767   0.93711    0.029
 6072.00    0.95405   0.93835    0.029
 6073.00    0.94770   0.93898    0.029
 6074.00    0.93666   0.93900    0.030
 6075.00    0.94589   0.93820    0.030
 6076.00    0.96142   0.93686    0.029
 6077.00    0.95905   0.93477    0.030
 6078.00    0.95205   0.93230    0.030
 6079.00    0.93352   0.92962    0.030
 6080.00    0.91255   0.92656    0.029
 6081.00    0.90991   0.92387    0.029
 6082.00    0.91034   0.92114    0.030
 6083.00    0.90571   0.91864    0.029
 6084.00    0.90044   0.91655    0.029
 6085.00    0.88257   0.91509    0.029
 6086.00    0.86359   0.91366    0.029
 6087.00    0.87685   0.91268    0.028
 6088.00    0.89179   0.91210    0.028
 6089.00    0.89895   0.91169    0.028
 6090.00    0.90588   0.91157    0.027
 6091.00    0.90701   0.91136    0.028
 6092.00    0.90828   0.91143    0.028
 6093.00    0.91251   0.91170    0.028
 6094.00    0.91679   0.91198    0.027
 6095.00    0.92166   0.91211    0.027
 6096.00    0.92872   0.91237    0.028
 6097.00    0.95402   0.91205    0.028
 6098.00    0.97577   0.91163    0.028
 6099.00    0.97551   0.91106    0.029
 6100.00    0.96966   0.91056    0.029
 6101.00    0.93657   0.90973    0.029
 6102.00    0.90892   0.90886    0.028
 6103.00    0.90283   0.90832    0.029
 6104.00    0.90409   0.90787    0.030
 6105.00    0.92951   0.90891    0.029
 6106.00    0.94634   0.90988    0.029
 6107.00    0.93926   0.91105    0.029
 6108.00    0.92782   0.91249    0.029
 6109.00    0.90599   0.91387    0.030
 6110.00    0.88869   0.91543    0.030
 6111.00    0.88070   0.91680    0.030
 6112.00    0.88099   0.91753    0.029
 6113.00    0.89607   0.91798    0.029
 6114.00    0.90380   0.91824    0.029
 6115.00    0.90002   0.91772    0.029
 6116.00    0.89671   0.91660    0.029
 6117.00    0.89405   0.91484    0.028
 6118.00    0.87457   0.91267    0.027
 6119.00    0.83474   0.91045    0.027
 6120.00    0.81077   0.90816    0.027
 6121.00    0.80373   0.90547    0.028
 6122.00    0.81539   0.90367    0.028
 6123.00    0.84464   0.90205    0.027
 6124.00    0.88073   0.90116    0.027
 6125.00    0.92250   0.90113    0.027
 6126.00    0.94201   0.90065    0.027
 6127.00    0.94525   0.90033    0.027
 6128.00    0.93751   0.90014    0.027
 6129.00    0.92273   0.89996    0.027
 6130.00    0.90405   0.89966    0.028
 6131.00    0.88319   0.89899    0.028
 6132.00    0.87040   0.89811    0.028
 6133.00    0.86155   0.89662    0.029
 6134.00    0.88202   0.89511    0.029
 6135.00    0.91484   0.89326    0.029
 6136.00    0.90559   0.89122    0.029
 6137.00    0.88115   0.89002    0.030
 6138.00    0.86906   0.88924    0.030
 6139.00    0.86073   0.88992    0.030
 6140.00    0.87696   0.89158    0.030
 6141.00    0.89942   0.89339    0.030
 6142.00    0.90231   0.89544    0.030
 6143.00    0.90115   0.89761    0.029
 6144.00    0.90968   0.90028    0.029
 6145.00    0.91980   0.90277    0.029
 6146.00    0.93286   0.90456    0.028
 6147.00    0.94628   0.90580    0.028
 6148.00    0.95878   0.90637    0.028
 6149.00    0.97120   0.90632    0.028
 6150.00    0.96727   0.90539    0.028
 6151.00    0.96256   0.90347    0.027
 6152.00    0.95468   0.90108    0.028
 6153.00    0.94641   0.89778    0.028
 6154.00    0.91773   0.89398    0.027
 6155.00    0.89011   0.88923    0.027
 6156.00    0.88320   0.88377    0.028
 6157.00    0.87516   0.87827    0.028
 6158.00    0.85416   0.87222    0.029
 6159.00    0.83550   0.86604    0.029
 6160.00    0.83555   0.85962    0.028
 6161.00    0.83593   0.85367    0.028
 6162.00    0.83822   0.84801    0.029
 6163.00    0.83882   0.84338    0.029
 6164.00    0.83132   0.84043    0.029
 6165.00    0.82584   0.83845    0.028
 6166.00    0.82818   0.83792    0.029
 6167.00    0.82820   0.83791    0.029
 6168.00    0.82078   0.83878    0.029
 6169.00    0.81821   0.84056    0.029
 6170.00    0.82890   0.84265    0.029
 6171.00    0.83767   0.84557    0.029
 6172.00    0.84198   0.84923    0.028
 6173.00    0.84884   0.85360    0.028
 6174.00    0.86091   0.85742    0.028
 6175.00    0.86326   0.86129    0.029
 6176.00    0.84848   0.86482    0.029
 6177.00    0.83705   0.86807    0.028
 6178.00    0.83081   0.87086    0.028
 6179.00    0.83579   0.87308    0.027
 6180.00    0.85596   0.87499    0.027
 6181.00    0.86195   0.87599    0.027
 6182.00    0.85104   0.87657    0.028
 6183.00    0.84123   0.87619    0.028
 6184.00    0.83258   0.87518    0.027
 6185.00    0.81956   0.87350    0.028
 6186.00    0.80249   0.87155    0.028
 6187.00    0.80090   0.86913    0.028
 6188.00    0.81196   0.86663    0.028
 6189.00    0.82664   0.86467    0.029
 6190.00    0.84391   0.86242    0.029
 6191.00    0.86656   0.86103    0.029
 6192.00    0.89260   0.86002    0.029
 6193.00    0.90933   0.85970    0.029
 6194.00    0.92091   0.86084    0.029
 6195.00    0.86214   0.86202    0.031
 6196.00    0.76957   0.86365   -2.000
 6197.00    0.47353   0.86540   -2.000
 6198.00    0.09315   0.86742   -2.000
 6199.00   -0.04754   0.86941   -2.000
 6200.00   -0.10326   0.87121   -2.000
 6201.00    0.29297   0.87297   -2.000
 6202.00    0.82445   0.87483   -2.000
 6203.00    1.17938   0.87658   -2.000
 6204.00    1.49045   0.87756   -2.000
 6205.00    1.46070   0.87768   -2.000
 6206.00    1.36233   0.87716   -2.000
 6207.00    1.15988   0.87610   -2.000
 6208.00    0.94101   0.87432    0.029
 6209.00    0.90445   0.87181    0.029
 6210.00    0.88924   0.86869    0.028
 6211.00    0.89330   0.86517    0.028
 6212.00    0.89890   0.86097    0.028
 6213.00    0.88023   0.85673    0.027
 6214.00    0.86049   0.85229    0.026
 6215.00    0.85338   0.84799    0.027
 6216.00    0.84668   0.84455    0.028
 6217.00    0.85286   0.84156    0.027
 6218.00    0.85773   0.83925    0.027
 6219.00    0.83878   0.83746    0.028
 6220.00    0.82148   0.83589    0.029
 6221.00    0.82244   0.83480    0.029
 6222.00    0.82413   0.83425    0.029
 6223.00    0.83149   0.83387    0.029
 6224.00    0.83345   0.83394    0.028
 6225.00    0.80379   0.83376    0.028
 6226.00    0.77863   0.83387    0.028
 6227.00    0.77433   0.83396    0.028
 6228.00    0.77710   0.83382    0.028
 6229.00    0.80668   0.83346    0.028
 6230.00    0.84357   0.83296    0.029
 6231.00    0.90356   0.83279    0.029
 6232.00    0.94459   0.83233    0.029
 6233.00    0.93470   0.83318    0.028
 6234.00    0.91665   0.83348    0.027
 6235.00    0.87985   0.83385    0.027
 6236.00    0.84689   0.83422    0.027
 6237.00    0.82160   0.83389    0.027
 6238.00    0.80811   0.83347    0.027
 6239.00    0.81512   0.83245    0.027
 6240.00    0.81729   0.83197    0.027
 6241.00    0.81211   0.83098    0.027
 6242.00    0.80850   0.83022    0.027
 6243.00    0.80698   0.82983    0.027
 6244.00    0.80768   0.82850    0.028
 6245.00    0.81098   0.82783    0.028
 6246.00    0.82085   0.82739    0.028
 6247.00    0.83754   0.82682    0.028
 6248.00    0.84696   0.82626    0.028
 6249.00    0.84975   0.82578    0.028
 6250.00    0.84377   0.82491    0.028
 6251.00    0.83074   0.82337    0.028
 6252.00    0.82033   0.82237    0.028
 6253.00    0.81178   0.82057    0.029
 6254.00    0.80994   0.81945    0.029
 6255.00    0.81229   0.81859    0.029
 6256.00    0.82485   0.81812    0.029
 6257.00    0.84296   0.81774    0.028
 6258.00    0.81120   0.81786    0.029
 6259.00    0.75588   0.81931    0.030
 6260.00    0.66046   0.82075    0.031
 6261.00    0.54871   0.82389    0.032
 6262.00    0.56146   0.82690    0.032
 6263.00    0.61755   0.83035    0.033
 6264.00    0.79299   0.83403    0.033
 6265.00    1.00343   0.83743    0.033
 6266.00    1.11850   0.84060    0.032
 6267.00    1.21040   0.84359    0.031
 6268.00    1.16345   0.84694    0.030
 6269.00    1.08925   0.84952    0.028
 6270.00    0.99187   0.85172    0.027
 6271.00    0.89094   0.85376    0.026
 6272.00    0.84315   0.85529    0.027
 6273.00    0.80135   0.85648    0.027
 6274.00    0.77215   0.85762    0.029
 6275.00    0.74390   0.85847    0.032
 6276.00    0.72706   0.85929    0.033
 6277.00    0.71068   0.85992    0.033
 6278.00    0.75047   0.86070    0.033
 6279.00    0.79073   0.86122    0.033
 6280.00    0.83368   0.86211    0.000
 6281.00    0.87475   0.86294    0.000
 6282.00    0.88407   0.86384    0.000
 6283.00    0.89203   0.86540    0.000
 6284.00    0.88579   0.86653    0.000
 6285.00    0.87961   0.86814    0.000
 6286.00    0.87392   0.86929    0.000
 6287.00    0.87358   0.87038    0.000
 6288.00    0.90368   0.87130    0.000
 6289.00    0.92851   0.87148    0.000
 6290.00    0.92949   0.87163    0.000
 6291.00    0.93041   0.87107    0.000
 6292.00    0.93118   0.87004    0.000
 6293.00    0.92275   0.86873    0.000
 6294.00    0.88577   0.86697    0.000
 6295.00    0.85201   0.86532    0.000
 6296.00    0.82669   0.86361    0.000
 6297.00    0.81504   0.86163    0.000
 6298.00    0.83433   0.86000    0.000
 6299.00    0.84848   0.85896    0.000
 6300.00    0.85259   0.85841    0.000
 6301.00    0.85202   0.85819    0.000
 6302.00    0.84345   0.85818    0.000
 6303.00    0.83280   0.85867    0.000
 6304.00    0.81902   0.85952    0.000
 6305.00    0.82246   0.86072    0.000
 6306.00    0.84857   0.86204    0.000
 6307.00    0.87287   0.86299    0.000
 6308.00    0.89509   0.86433    0.000
 6309.00    0.89744   0.86491    0.000
 6310.00    0.87949   0.86480    0.000
 6311.00    0.85611   0.86455    0.000
 6312.00    0.82784   0.86401    0.000
 6313.00    0.81739   0.86334    0.000
 6314.00    0.82109   0.86229    0.000
 6315.00    0.81563   0.86165    0.000
 6316.00    0.80376   0.86079    0.000
 6317.00    0.81066   0.86005    0.000
 6318.00    0.82907   0.86028    0.000
 6319.00    0.84591   0.86010    0.000
 6320.00    0.86191   0.86116    0.000
 6321.00    0.88251   0.86295    0.027
 6322.00    0.90526   0.86473    0.027
 6323.00    0.90569   0.86696    0.027
 6324.00    0.89718   0.86896    0.027
 6325.00    0.88432   0.87196    0.027
 6326.00    0.86996   0.87377    0.027
 6327.00    0.86225   0.87564    0.027
 6328.00    0.85645   0.87742    0.028
 6329.00    0.86480   0.87821    0.028
 6330.00    0.87651   0.87931    0.028
 6331.00    0.89279   0.87904    0.028
 6332.00    0.90994   0.87909    0.028
 6333.00    0.91581   0.87864    0.028
 6334.00    0.92001   0.87755    0.029
 6335.00    0.91412   0.87638    0.029
 6336.00    0.90714   0.87451    0.028
 6337.00    0.91658   0.87353    0.028
 6338.00    0.92718   0.87248    0.028
 6339.00    0.90364   0.87215    0.028
 6340.00    0.87886   0.87181    0.028
 6341.00    0.88328   0.87167    0.028
 6342.00    0.88864   0.87187    0.028
 6343.00    0.92296   0.87153    0.027
 6344.00    0.95518   0.87186    0.027
 6345.00    0.95400   0.87230    0.027
 6346.00    0.95135   0.87329    0.027
 6347.00    0.93381   0.87392    0.027
 6348.00    0.91977   0.87438    0.027
 6349.00    0.93106   0.87459    0.027
 6350.00    0.94361   0.87421    0.027
 6351.00    0.96315   0.87327    0.027
 6352.00    0.97458   0.87179    0.028
 6353.00    0.95021   0.87001    0.027
 6354.00    0.92643   0.86765    0.027
 6355.00    0.90482   0.86485    0.028
 6356.00    0.88705   0.86171    0.028
 6357.00    0.88098   0.85879    0.028
 6358.00    0.87414   0.85591    0.028
 6359.00    0.86529   0.85310    0.029
 6360.00    0.86172   0.85094    0.029
 6361.00    0.86987   0.84961    0.029
 6362.00    0.86984   0.84908    0.029
 6363.00    0.85400   0.84930    0.029
 6364.00    0.84507   0.85085    0.029
 6365.00    0.84780   0.85349    0.029
 6366.00    0.86317   0.85652    0.029
 6367.00    0.89720   0.86023    0.029
 6368.00    0.92340   0.86449    0.029
 6369.00    0.93946   0.86889    0.028
 6370.00    0.94760   0.87307    0.028
 6371.00    0.94668   0.87700    0.028
 6372.00    0.94802   0.88089    0.028
 6373.00    0.95165   0.88427    0.028
 6374.00    0.96296   0.88716    0.027
 6375.00    0.98109   0.88931    0.027
 6376.00    0.98176   0.89085    0.027
 6377.00    0.96877   0.89190    0.027
 6378.00    0.94186   0.89230    0.027
 6379.00    0.90536   0.89245    0.027
 6380.00    0.89960   0.89234    0.027
 6381.00    0.91241   0.89249    0.027
 6382.00    0.91128   0.89219    0.028
 6383.00    0.90281   0.89178    0.028
 6384.00    0.88900   0.89153    0.028
 6385.00    0.87275   0.89080    0.028
 6386.00    0.88537   0.89015    0.029
 6387.00    0.90936   0.88935    0.029
 6388.00    0.93261   0.88889    0.029
 6389.00    0.95560   0.88823    0.029
 6390.00    0.94616   0.88741    0.029
 6391.00    0.92759   0.88660    0.028
 6392.00    0.89547   0.88493    0.028
 6393.00    0.86021   0.88372    0.029
 6394.00    0.83533   0.88237    0.029
 6395.00    0.81239   0.88184    0.028
 6396.00    0.82926   0.88206    0.028
 6397.00    0.85187   0.88192    0.028
 6398.00    0.89374   0.88209    0.028
 6399.00    0.93763   0.88155    0.028
 6400.00    0.95360   0.88173    0.028
 6401.00    0.96770   0.88171    0.028
 6402.00    0.95967   0.88261    0.028
 6403.00    0.95092   0.88467    0.027
 6404.00    0.95249   0.88541    0.028
 6405.00    0.95394   0.88605    0.028
 6406.00    0.95178   0.88608    0.028
 6407.00    0.94932   0.88599    0.028
 6408.00    0.94264   0.88603    0.028
 6409.00    0.93559   0.88596    0.028
 6410.00    0.92505   0.88660    0.028
 6411.00    0.91451   0.88656    0.028
 6412.00    0.90395   0.88576    0.029
 6413.00    0.89868   0.88513    0.029
 6414.00    0.92191   0.88474    0.029
 6415.00    0.93412   0.88463    0.029
 6416.00    0.89870   0.88449    0.029
 6417.00    0.87337   0.88496    0.029
 6418.00    0.88398   0.88526    0.029
 6419.00    0.89889   0.88512    0.028
 6420.00    0.92663   0.88535    0.028
 6421.00    0.94110   0.88600    0.028
 6422.00    0.92179   0.88697    0.028
 6423.00    0.90475   0.88784    0.027
 6424.00    0.89266   0.88911    0.027
 6425.00    0.87508   0.88973    0.027
 6426.00    0.84707   0.89023    0.028
 6427.00    0.83124   0.89091    0.028
 6428.00    0.83562   0.89145    0.028
 6429.00    0.86007   0.89181    0.028
 6430.00    0.91371   0.89161    0.028
 6431.00    0.94096   0.89167    0.028
 6432.00    0.93447   0.89123    0.028
 6433.00    0.92017   0.89141    0.028
 6434.00    0.89706   0.89212    0.028
 6435.00    0.88789   0.89270    0.028
 6436.00    0.89256   0.89329    0.028
 6437.00    0.89003   0.89351    0.029
 6438.00    0.88119   0.89407    0.029
 6439.00    0.88317   0.89476    0.030
 6440.00    0.89350   0.89569    0.030
 6441.00    0.92940   0.89701    0.030
 6442.00    0.98267   0.89795    0.030
 6443.00    0.99583   0.89790    0.030
 6444.00    0.98512   0.89739    0.029
 6445.00    0.96723   0.89701    0.029
 6446.00    0.94561   0.89638    0.028
 6447.00    0.92633   0.89557    0.028
 6448.00    0.90812   0.89423    0.028
 6449.00    0.88481   0.89244    0.029
 6450.00    0.85953   0.89067    0.029
 6451.00    0.85577   0.88908    0.028
 6452.00    0.85910   0.88922    0.028
 6453.00    0.88037   0.88955    0.028
 6454.00    0.90659   0.88955    0.027
 6455.00    0.90601   0.88982    0.028
 6456.00    0.89936   0.88954    0.028
 6457.00    0.88550   0.89013    0.028
 6458.00    0.87034   0.89157    0.029
 6459.00    0.88085   0.89336    0.029
 6460.00    0.89493   0.89502    0.029
 6461.00    0.89600   0.89546    0.029
 6462.00    0.89576   0.89594    0.029
 6463.00    0.86382   0.89609    0.029
 6464.00    0.82987   0.89634    0.029
 6465.00    0.84836   0.89782    0.029
 6466.00    0.86839   0.89873    0.030
 6467.00    0.89883   0.89968    0.029
 6468.00    0.92783   0.89983    0.028
 6469.00    0.91699   0.89997    0.029
 6470.00    0.90304   0.90016    0.029
 6471.00    0.84505   0.90030    0.029
 6472.00    0.79622   0.90097    0.028
 6473.00    0.83230   0.90080    0.029
 6474.00    0.86549   0.90085    0.029
 6475.00    0.87916   0.90001    0.029
 6476.00    0.89268   0.89886    0.029
 6477.00    0.90542   0.89778    0.028
 6478.00    0.92277   0.89678    0.028
 6479.00    0.95953   0.89580    0.028
 6480.00    0.98295   0.89400    0.029
 6481.00    0.95980   0.89219    0.028
 6482.00    0.93004   0.89005    0.028
 6483.00    0.88088   0.88761    0.028
 6484.00    0.84753   0.88530    0.029
 6485.00    0.85371   0.88301    0.029
 6486.00    0.86326   0.88024    0.029
 6487.00    0.88005   0.87676    0.029
 6488.00    0.88833   0.87226    0.029
 6489.00    0.88068   0.86776    0.029
 6490.00    0.87963   0.86316    0.029
 6491.00    0.88938   0.85827    0.030
 6492.00    0.89576   0.85380    0.030
 6493.00    0.89732   0.84864    0.029
 6494.00    0.88884   0.84436    0.029
 6495.00    0.86771   0.84029    0.029
 6496.00    0.84811   0.83736    0.029
 6497.00    0.83021   0.83679    0.030
 6498.00    0.81078   0.83655    0.030
 6499.00    0.78986   0.83837    0.029
 6500.00    0.80251   0.84044    0.028
 6501.00    0.84418   0.84373    0.028
 6502.00    0.86321   0.84830    0.028
 6503.00    0.86499   0.85280    0.028
 6504.00    0.86571   0.85852    0.028
 6505.00    0.86573   0.86364    0.028
 6506.00    0.87120   0.86857    0.028
 6507.00    0.87987   0.87309    0.028
 6508.00    0.85813   0.87677    0.028
 6509.00    0.82087   0.88003    0.028
 6510.00    0.81623   0.88249    0.028
 6511.00    0.82604   0.88470    0.029
 6512.00    0.85753   0.88631    0.029
 6513.00    0.89727   0.88715    0.029
 6514.00    0.90936   0.88786    0.030
 6515.00    0.91253   0.88819    0.030
 6516.00    0.91177   0.88848    0.030
 6517.00    0.90995   0.88848    0.030
 6518.00    0.89773   0.88870    0.030
 6519.00    0.88321   0.88917    0.030
 6520.00    0.87137   0.88924    0.030
 6521.00    0.86002   0.88977    0.029
 6522.00    0.88743   0.89026    0.029
 6523.00    0.92006   0.89091    0.029
 6524.00    0.92428   0.89145    0.029
 6525.00    0.92579   0.89173    0.028
 6526.00    0.92700   0.89225    0.028
 6527.00    0.92820   0.89246    0.028
 6528.00    0.93502   0.89269    0.000
 6529.00    0.94189   0.89330    0.000
 6530.00    0.93769   0.89372    0.000
 6531.00    0.93371   0.89389    0.000
 6532.00    0.93534   0.89383    0.000
 6533.00    0.93644   0.89381    0.000
 6534.00    0.93044   0.89423    0.000
 6535.00    0.92486   0.89447    0.000
 6536.00    0.92287   0.89469    0.000
 6537.00    0.92071   0.89445    0.000
 6538.00    0.91740   0.89378    0.000
 6539.00    0.91559   0.89292    0.000
 6540.00    0.92147   0.89161    0.000
 6541.00    0.91917   0.89041    0.000
 6542.00    0.88317   0.88854    0.000
 6543.00    0.85691   0.88614    0.000
 6544.00    0.86398   0.88333    0.000
 6545.00    0.87076   0.87987    0.000
 6546.00    0.87674   0.87666    0.000
 6547.00    0.88414   0.87274    0.000
 6548.00    0.89500   0.86876    0.000
 6549.00    0.90374   0.86455    0.000
 6550.00    0.90797   0.85962    0.000
 6551.00    0.90467   0.85478    0.000
 6552.00    0.88746   0.84901    0.000
 6553.00    0.87862   0.84326    0.000
 6554.00    0.88322   0.83726    0.000
 6555.00    0.89066   0.83045    0.000
 6556.00    0.90211   0.82253    0.000
 6557.00    0.90280   0.81415    0.000
 6558.00    0.89013   0.80799    0.000
 6559.00    0.88815   0.80210    0.000
 6560.00    0.89788   0.79625    0.000
 6561.00    0.90153   0.79063    0.000
 6562.00    0.89930   0.78564    0.000
 6563.00    0.87524   0.78249    0.000
 6564.00    0.83258   0.78072    0.000
 6565.00    0.82827   0.78300    0.000
 6566.00    0.85274   0.78662    0.000
 6567.00    0.87292   0.78981    0.000
 6568.00    0.89028   0.79346    0.000
 6569.00    0.87020   0.79756    0.000
 6570.00    0.82850   0.80430    0.000
 6571.00    0.79985   0.81143    0.000
 6572.00    0.77777   0.81818    0.000
 6573.00    0.78138   0.82442    0.000
 6574.00    0.79617   0.82947    0.000
 6575.00    0.82000   0.83415    0.000
 6576.00    0.84720   0.83883    0.000
 6577.00    0.85102   0.84422    0.000
 6578.00    0.84743   0.84881    0.000
 6579.00    0.87965   0.85244    0.000
 6580.00    0.92134   0.85518    0.000
 6581.00    0.94488   0.85798    0.000
 6582.00    0.96450   0.86074    0.000
 6583.00    0.97719   0.86314    0.000
 6584.00    0.98868   0.86568    0.000
 6585.00    0.97983   0.86677    0.000
 6586.00    0.96833   0.86750    0.000
 6587.00    0.96397   0.86710    0.000
 6588.00    0.96026   0.86722    0.000
 6589.00    0.97821   0.86805    0.000
 6590.00    0.99736   0.86753    0.000
 6591.00    0.95641   0.86699    0.000
 6592.00    0.91440   0.86537    0.000
 6593.00    0.89387   0.86418    0.000
 6594.00    0.87515   0.86363    0.000
 6595.00    0.89785   0.86342    0.000
 6596.00    0.92003   0.86406    0.000
 6597.00    0.93569   0.86403    0.000
 6598.00    0.94670   0.86383    0.000
 6599.00    0.91786   0.86368    0.000
 6600.00    0.88856   0.86430    0.000
 6601.00    0.85640   0.86571    0.000
 6602.00    0.82446   0.86657    0.000
 6603.00    0.79361   0.86666    0.000
 6604.00    0.77325   0.86687    0.000
 6605.00    0.79527   0.86723    0.000
 6606.00    0.81779   0.86763    0.000
 6607.00    0.84200   0.86806    0.000
 6608.00    0.86794   0.86810    0.000
 6609.00    0.89874   0.86882    0.030
 6610.00    0.92260   0.86934    0.031
 6611.00    0.92969   0.87015    0.032
 6612.00    0.93776   0.87158    0.032
 6613.00    0.94785   0.87267    0.032
 6614.00    0.94319   0.87399    0.032
 6615.00    0.91179   0.87487    0.032
 6616.00    0.89551   0.87629    0.032
 6617.00    0.90322   0.87772    0.031
 6618.00    0.89878   0.87800    0.031
 6619.00    0.87743   0.87795    0.031
 6620.00    0.87747   0.87794    0.031
 6621.00    0.90371   0.87777    0.030
 6622.00    0.91030   0.87711    0.030
 6623.00    0.89568   0.87560    0.030
 6624.00    0.88182   0.87382    0.031
 6625.00    0.86867   0.87223    0.030
 6626.00    0.86931   0.87022    0.030
 6627.00    0.88154   0.86864    0.030
 6628.00    0.89966   0.86679    0.030
 6629.00    0.92214   0.86490    0.030
 6630.00    0.92325   0.86331    0.031
 6631.00    0.91047   0.86166    0.030
 6632.00    0.90035   0.86084    0.031
 6633.00    0.89174   0.85984    0.032
 6634.00    0.86547   0.85894    0.033
 6635.00    0.83048   0.85868    0.032
 6636.00    0.83735   0.85874    0.032
 6637.00    0.86214   0.85882    0.033
 6638.00    0.85333   0.85887    0.033
 6639.00    0.83220   0.85909    0.033
 6640.00    0.82937   0.85937    0.032
 6641.00    0.83221   0.85989    0.032
 6642.00    0.84359   0.86046    0.032
 6643.00    0.85718   0.86104    0.032
 6644.00    0.88690   0.86115    0.031
 6645.00    0.92002   0.86109    0.031
 6646.00    0.90170   0.86142    0.031
 6647.00    0.87480   0.86181    0.030
 6648.00    0.87884   0.86203    0.031
 6649.00    0.88677   0.86170    0.031
 6650.00    0.88151   0.86140    0.030
 6651.00    0.87511   0.86152    0.030
 6652.00    0.86133   0.86120    0.031
 6653.00    0.84717   0.86057    0.031
 6654.00    0.84881   0.85996    0.031
 6655.00    0.85063   0.85918    0.032
 6656.00    0.84575   0.85842    0.032
 6657.00    0.84136   0.85694    0.032
 6658.00    0.84724   0.85563    0.033
 6659.00    0.85443   0.85469    0.033
 6660.00    0.87752   0.85333    0.033
 6661.00    0.90194   0.85227    0.033
 6662.00    0.93729   0.85074    0.033
 6663.00    0.95586   0.84985    0.034
 6664.00    0.87083   0.84924    0.033
 6665.00    0.81067   0.84872    0.033
 6666.00    0.87130   0.84877    0.033
 6667.00    0.91059   0.84842    0.032
 6668.00    0.86569   0.84867    0.032
 6669.00    0.82891   0.84885    0.032
 6670.00    0.81882   0.84925    0.032
 6671.00    0.81603   0.84978    0.032
 6672.00    0.83351   0.84936    0.031
 6673.00    0.85066   0.84922    0.031
 6674.00    0.86702   0.84914    0.031
 6675.00    0.87915   0.84894    0.032
 6676.00    0.88261   0.84863    0.032
 6677.00    0.87983   0.84772    0.032
 6678.00    0.86593   0.84692    0.032
 6679.00    0.86371   0.84629    0.032
 6680.00    0.87974   0.84632    0.033
 6681.00    0.86893   0.84707    0.033
 6682.00    0.82130   0.84718    0.033
 6683.00    0.82079   0.84725    0.033
 6684.00    0.87719   0.84745    0.034
 6685.00    0.92093   0.84851    0.034
 6686.00    0.95118   0.85018    0.035
 6687.00    0.93684   0.85074    0.035
 6688.00    0.88060   0.85131    0.034
 6689.00    0.85639   0.85176    0.034
 6690.00    0.85870   0.85200    0.033
 6691.00    0.86498   0.85235    0.033
 6692.00    0.87417   0.85204    0.033
 6693.00    0.87890   0.85180    0.033
 6694.00    0.88077   0.85143    0.033
 6695.00    0.89982   0.85083    0.033
 6696.00    0.92849   0.85049    0.000
 6697.00    0.89605   0.84956    0.000
 6698.00    0.83385   0.84894    0.000
 6699.00    0.80185   0.84872    0.000
 6700.00    0.78254   0.84840    0.000
 6701.00    0.80991   0.84839    0.000
 6702.00    0.85409   0.84771    0.000
 6703.00    0.88518   0.84726    0.000
 6704.00    0.91230   0.84689    0.000
 6705.00    0.92957   0.84637    0.000
 6706.00    0.94436   0.84608    0.000
 6707.00    0.91389   0.84531    0.000
 6708.00    0.87411   0.84440    0.000
 6709.00    0.87142   0.84282    0.000
 6710.00    0.87473   0.84128    0.000
 6711.00    0.89900   0.83955    0.000
 6712.00    0.92582   0.83798    0.000
 6713.00    0.88973   0.83682    0.000
 6714.00    0.84843   0.83486    0.000
 6715.00    0.86371   0.83351    0.000
 6716.00    0.88168   0.83184    0.000
 6717.00    0.83029   0.83081    0.000
 6718.00    0.77885   0.83073    0.000
 6719.00    0.77930   0.83034    0.000
 6720.00    0.78237   0.83094    0.000
 6721.00    0.83638   0.83133    0.000
 6722.00    0.88680   0.83197    0.000
 6723.00    0.89594   0.83303    0.000
 6724.00    0.90210   0.83434    0.000
 6725.00    0.88448   0.83636    0.000
 6726.00    0.86597   0.83773    0.000
 6727.00    0.84212   0.83858    0.000
 6728.00    0.83599   0.83955    0.000
 6729.00    0.91378   0.84082    0.000
 6730.00    0.96703   0.84204    0.000
 6731.00    0.92544   0.84257    0.000
 6732.00    0.89136   0.84244    0.000
 6733.00    0.88146   0.84241    0.000
 6734.00    0.87864   0.84234    0.000
 6735.00    0.89510   0.84216    0.000
 6736.00    0.89573   0.84165    0.000
 6737.00    0.85941   0.84078    0.000
 6738.00    0.84723   0.83983    0.000
 6739.00    0.88382   0.83849    0.000
 6740.00    0.90015   0.83760    0.000
 6741.00    0.88087   0.83671    0.000
 6742.00    0.88201   0.83572    0.000
 6743.00    0.91461   0.83477    0.000
 6744.00    0.93276   0.83324    0.000
 6745.00    0.93138   0.83268    0.000
 6746.00    0.91952   0.83231    0.000
 6747.00    0.89518   0.83179    0.000
 6748.00    0.86092   0.83174    0.000
 6749.00    0.81626   0.83107    0.000
 6750.00    0.79196   0.83174    0.000
 6751.00    0.78652   0.83251    0.000
 6752.00    0.75070   0.83309    0.000
 6753.00    0.69008   0.83456    0.039
 6754.00    0.67673   0.83531    0.040
 6755.00    0.69733   0.83710    0.042
 6756.00    0.76029   0.83869    0.043
 6757.00    0.84995   0.84017    0.043
 6758.00    0.96312   0.84212    0.043
 6759.00    1.08925   0.84315    0.044
 6760.00    1.13513   0.84450    0.044
 6761.00    1.14254   0.84540    0.044
 6762.00    1.14332   0.84597    0.044
 6763.00    1.14137   0.84654    0.045
 6764.00    1.11846   0.84674    0.044
 6765.00    1.08815   0.84684    0.044
 6766.00    0.99992   0.84659    0.042
 6767.00    0.89439   0.84629    0.041
 6768.00    0.89490   0.84612    0.041
 6769.00    0.92168   0.84630    0.042
 6770.00    0.95123   0.84679    0.042
 6771.00    0.98133   0.84696    0.041
 6772.00    0.92555   0.84708    0.040
 6773.00    0.85627   0.84752    0.040
 6774.00    0.81525   0.84827    0.040
 6775.00    0.77753   0.84929    0.039
 6776.00    0.84970   0.84956    0.040
 6777.00    0.93053   0.84938    0.041
 6778.00    0.90481   0.84913    0.041
 6779.00    0.87445   0.84878    0.041
 6780.00    0.85478   0.84844    0.041
 6781.00    0.83639   0.84745    0.040
 6782.00    0.87232   0.84613    0.041
 6783.00    0.91256   0.84455    0.042
 6784.00    1.03066   0.84309    0.041
 6785.00    1.12681   0.84186    0.041
 6786.00    0.98281   0.84081    0.040
 6787.00    0.85442   0.83990    0.039
 6788.00    0.84605   0.83898    0.039
 6789.00    0.84233   0.83843    0.038
 6790.00    0.86565   0.83798    0.039
 6791.00    0.88020   0.83817    0.039
 6792.00    0.85417   0.83848    0.039
 6793.00    0.83577   0.83887    0.040
 6794.00    0.84622   0.83945    0.039
 6795.00    0.87420   0.83966    0.039
 6796.00    0.95752   0.84058    0.040
 6797.00    1.02009   0.84134    0.041
 6798.00    1.02706   0.84208    0.041
 6799.00    1.01511   0.84290    0.042
 6800.00    0.95967   0.84313    0.042
 6801.00    0.91861   0.84402    0.042
 6802.00    0.90612   0.84468    0.042
 6803.00    0.87441   0.84497    0.042
 6804.00    0.80939   0.84546    0.041
 6805.00    0.79288   0.84542    0.040
 6806.00    0.84997   0.84568    0.040
 6807.00    0.90270   0.84613    0.040
 6808.00    0.94961   0.84591    0.040
 6809.00    0.95030   0.84590    0.040
 6810.00    0.89675   0.84588    0.039
 6811.00    0.86534   0.84571    0.039
 6812.00    0.85685   0.84626    0.039
 6813.00    0.89541   0.84635    0.039
 6814.00    0.97690   0.84631    0.041
 6815.00    1.00623   0.84677    0.041
 6816.00    0.99358   0.84681    0.041
 6817.00    1.01423   0.84769    0.040
 6818.00    1.05845   0.84857    0.040
 6819.00    1.02298   0.84888    0.040
 6820.00    0.93799   0.84960    0.040
 6821.00    0.90668   0.84985    0.040
 6822.00    0.90449   0.85066    0.040
 6823.00    0.88919   0.85164    0.040
 6824.00    0.86771   0.85185    0.041
 6825.00    0.90562   0.85221    0.041
 6826.00    0.96768   0.85224    0.041
 6827.00    0.90329   0.85237    0.040
 6828.00    0.79499   0.85257    0.039
 6829.00    0.81689   0.85217    0.039
 6830.00    0.87689   0.85186    0.039
 6831.00    0.88316   0.85144    0.039
 6832.00    0.87641   0.85081    0.040
 6833.00    0.93559   0.85000    0.039
 6834.00    1.00766   0.84891    0.038
 6835.00    0.94145   0.84785    0.039
 6836.00    0.85416   0.84693    0.039
 6837.00    0.82319   0.84578    0.040
 6838.00    0.79854   0.84442    0.041
 6839.00    0.74717   0.84332    0.041
 6840.00    0.69381   0.84228    0.042
 6841.00    0.73341   0.84157    0.041
 6842.00    0.77671   0.84101    0.041
 6843.00    0.89015   0.84041    0.040
 6844.00    0.99927   0.84043    0.039
 6845.00    0.91733   0.84048    0.040
 6846.00    0.84104   0.84057    0.040
 6847.00    0.86031   0.84086    0.041
 6848.00    0.87370   0.84096    0.041
 6849.00    0.82550   0.84123    0.040
 6850.00    0.78720   0.84136    0.040
 6851.00    0.82255   0.84088    0.040
 6852.00    0.85680   0.84062    0.040
 6853.00    0.88483   0.84023    0.039
 6854.00    0.90205   0.83946    0.039
 6855.00    0.87052   0.83882    0.039
 6856.00    0.85314   0.83749    0.039
 6857.00    0.88810   0.83657    0.038
 6858.00    0.90512   0.83623    0.038
 6859.00    0.86655   0.83549    0.038
 6860.00    0.83845   0.83514    0.038
 6861.00    0.83792   0.83432    0.038
 6862.00    0.87257   0.83371    0.039
 6863.00    0.98673   0.83400    0.040
 6864.00    1.00652   0.83412    0.040
 6865.00    0.84154   0.83455    0.040
 6866.00    0.75500   0.83455    0.040
 6867.00    0.80227   0.83425    0.041
 6868.00    0.84989   0.83467    0.042
 6869.00    0.89801   0.83520    0.043
 6870.00    0.90300   0.83600    0.043
 6871.00    0.85131   0.83656    0.041
 6872.00    0.83773   0.83658    0.041
 6873.00    0.86824   0.83710    0.041
 6874.00    0.89166   0.83796    0.040
 6875.00    0.90784   0.83897    0.039
 6876.00    0.91083   0.83996    0.039
 6877.00    0.90195   0.84040    0.040
 6878.00    0.90821   0.84118    0.039
 6879.00    0.92648   0.84237    0.039
 6880.00    0.91854   0.84345    0.038
 6881.00    0.89230   0.84464    0.037
 6882.00    0.86441   0.84539    0.037
 6883.00    0.83549   0.84647    0.038
 6884.00    0.81589   0.84802    0.038
 6885.00    0.80126   0.84938    0.038
 6886.00    0.80186   0.85087    0.039
 6887.00    0.80953   0.85208    0.040
 6888.00    0.84492   0.85348    0.040
 6889.00    0.89138   0.85516    0.041
 6890.00    0.88426   0.85669    0.041
 6891.00    0.85889   0.85797    0.042
 6892.00    0.93842   0.85914    0.041
 6893.00    1.04803   0.86032    0.041
 6894.00    0.99740   0.86130    0.041
 6895.00    0.90882   0.86234    0.042
 6896.00    0.84402   0.86291    0.041
 6897.00    0.78375   0.86356    0.041
 6898.00    0.82285   0.86449    0.040
 6899.00    0.87663   0.86486    0.040
 6900.00    0.85880   0.86540    0.039
 6901.00    0.83323   0.86581    0.039
 6902.00    0.87863   0.86622    0.039
 6903.00    0.92904   0.86706    0.039
 6904.00    1.03042   0.86728    0.040
 6905.00    1.13363   0.86735    0.041
 6906.00    1.08057   0.86768    0.040
 6907.00    1.02633   0.86770    0.040
 6908.00    0.94911   0.86780    0.041
 6909.00    0.87837   0.86766    0.041
 6910.00    0.91029   0.86696    0.041
 6911.00    0.93740   0.86676    0.041
 6912.00    0.91630   0.86635    0.042
 6913.00    0.88183   0.86547    0.042
 6914.00    0.75124   0.86512    0.041
 6915.00    0.65899   0.86417    0.041
 6916.00    0.77817   0.86365    0.041
 6917.00    0.86972   0.86342    0.041
 6918.00    0.83949   0.86241    0.041
 6919.00    0.81586   0.86216    0.041
 6920.00    0.81620   0.86148    0.040
 6921.00    0.82860   0.86101    0.039
 6922.00    0.87765   0.86093    0.040
 6923.00    0.91937   0.86029    0.040
 6924.00    0.94213   0.86001    0.040
 6925.00    0.95296   0.85952    0.040
 6926.00    0.93729   0.85937    0.040
 6927.00    0.91165   0.85934    0.040
 6928.00    0.86679   0.85928    0.041
 6929.00    0.85786   0.85927    0.041
 6930.00    0.90931   0.85930    0.042
 6931.00    0.92789   0.85989    0.042
 6932.00    0.89803   0.86017    0.042
 6933.00    0.86820   0.86063    0.043
 6934.00    0.83840   0.86102    0.042
 6935.00    0.84135   0.86150    0.042
 6936.00    0.88165   0.86228    0.043
 6937.00    0.93566   0.86257    0.043
 6938.00    1.00348   0.86286    0.043
 6939.00    0.97659   0.86296    0.043
 6940.00    0.86565   0.86320    0.042
 6941.00    0.83650   0.86331    0.041
 6942.00    0.87130   0.86311    0.041
 6943.00    0.91315   0.86306    0.041
 6944.00    0.95985   0.86257    0.040
 6945.00    0.91652   0.86239    0.040
 6946.00    0.81892   0.86222    0.039
 6947.00    0.78417   0.86181    0.039
 6948.00    0.78249   0.86197    0.040
 6949.00    0.83899   0.86174    0.041
 6950.00    0.92204   0.86166    0.042
 6951.00    0.88306   0.86212    0.041
 6952.00    0.79616   0.86231    0.040
 6953.00    0.83516   0.86304    0.041
 6954.00    0.91627   0.86375    0.042
 6955.00    0.85196   0.86440    0.043
 6956.00    0.74680   0.86558    0.043
 6957.00    0.76639   0.86663    0.043
 6958.00    0.81485   0.86795    0.042
 6959.00    0.79348   0.86924    0.042
 6960.00    0.75914   0.87050    0.042
 6961.00    0.75324   0.87178    0.042
 6962.00    0.75142   0.87276    0.042
 6963.00    0.83758   0.87404    0.042
 6964.00    0.93285   0.87504    0.042
 6965.00    0.92070   0.87559    0.041
 6966.00    0.90140   0.87598    0.040
 6967.00    0.87442   0.87585    0.040
 6968.00    0.84720   0.87595    0.040
 6969.00    0.88115   0.87573    0.040
 6970.00    0.91102   0.87451    0.039
 6971.00    0.81579   0.87345    0.040
 6972.00    0.72503   0.87215    0.041
 6973.00    0.70065   0.87080    0.041
 6974.00    0.68716   0.86938    0.041
 6975.00    0.77824   0.86730    0.042
 6976.00    0.85885   0.86616    0.042
 6977.00    0.86662   0.86519    0.043
 6978.00    0.86385   0.86424    0.043
 6979.00    0.80452   0.86386    0.043
 6980.00    0.76282   0.86334    0.044
 6981.00    0.79705   0.86417    0.043
 6982.00    0.81374   0.86525    0.042
 6983.00    0.76815   0.86608    0.042
 6984.00    0.74245   0.86774    0.042
 6985.00    0.77607   0.86894    0.041
 6986.00    0.79702   0.87071    0.041
 6987.00    0.78581   0.87270    0.041
 6988.00    0.79214   0.87382    0.040
 6989.00    0.83682   0.87529    0.041
 6990.00    0.86112   0.87600    0.041
 6991.00    0.84677   0.87654    0.040
 6992.00    0.85492   0.87757    0.040
 6993.00    0.90032   0.87759    0.041
 6994.00    0.91473   0.87756    0.042
 6995.00    0.88418   0.87703    0.042
 6996.00    0.87376   0.87626    0.042
 6997.00    0.88906   0.87626    0.042
 6998.00    0.90134   0.87553    0.042
 6999.00    0.91024   0.87463    0.043
 7000.00    0.46494   0.87367    0.032
 7001.00   -0.43093   0.87270    0.000
 7002.00   -0.38253   0.87234    0.000
 7003.00    0.49199   0.87168    0.083
 7004.00    0.86940   0.87097   -1.000
 7005.00    0.86363   0.87041   -1.000
 7006.00    0.83780   0.86996   -1.000
 7007.00    0.79839   0.86946   -1.000
 7008.00    0.78459   0.86913   -1.000
 7009.00    0.78600   0.86902   -1.000
 7010.00    0.80190   0.86863   -1.000
 7011.00    0.82531   0.86835   -1.000
 7012.00    0.81824   0.86765   -1.000
 7013.00    0.79747   0.86742   -1.000
 7014.00    0.79864   0.86777   -1.000
 7015.00    0.80828   0.86715   -1.000
 7016.00    0.81192   0.86690   -1.000
 7017.00    0.81359   0.86687   -1.000
 7018.00    0.81159   0.86695   -1.000
 7019.00    0.80856   0.86758   -1.000
 7020.00    0.80199   0.86734   -1.000
 7021.00    0.79462   0.86760   -1.000
 7022.00    0.83431   0.86873   -1.000
 7023.00    0.88250   0.86930   -1.000
 7024.00    0.86802   0.86994   -1.000
 7025.00    0.84486   0.87060   -1.000
 7026.00    0.82236   0.87149   -1.000
 7027.00    0.79992   0.87309   -1.000
 7028.00    0.79540   0.87404   -1.000
 7029.00    0.79201   0.87465   -1.000
 7030.00    0.81427   0.87603   -1.000
 7031.00    0.83712   0.87745   -1.000
 7032.00    0.82336   0.87907   -1.000
 7033.00    0.81148   0.88043   -1.000
 7034.00    0.85135   0.88118   -1.000
 7035.00    0.88527   0.88289   -1.000
 7036.00    0.83557   0.88490   -1.000
 7037.00    0.79882   0.88656   -1.000
 7038.00    0.88136   0.88829   -1.000
 7039.00    0.94039   0.88966   -1.000
 7040.00    0.84098   0.89150   -1.000
 7041.00    0.76057   0.89346   -1.000
 7042.00    0.77947   0.89486   -1.000
 7043.00    0.79985   0.89588   -1.000
 7044.00    0.82650   0.89665   -1.000
 7045.00    0.85225   0.89727   -1.000
 7046.00    0.87484   0.89690   -1.000
 7047.00    0.87633   0.89618   -1.000
 7048.00    0.81606   0.89454   -1.000
 7049.00    0.73700   0.89194   -1.000
 7050.00    0.61106   0.88942   -2.000
 7051.00    0.61013   0.88549   -2.000
 7052.00    0.87809   0.88159   -2.000
 7053.00    1.04646   0.87732   -2.000
 7054.00    1.02883   0.87187   -2.000
 7055.00    1.01933   0.86733   -2.000
 7056.00    1.02310   0.86221   -2.000
 7057.00    1.01721   0.85738   -2.000
 7058.00    0.99751   0.85327   -2.000
 7059.00    0.98375   0.84834   -2.000
 7060.00    0.97747   0.84487   -2.000
 7061.00    0.97529   0.84193   -2.000
 7062.00    0.97765   0.83889   -2.000
 7063.00    0.97882   0.83692   -2.000
 7064.00    0.97884   0.83460   -2.000
 7065.00    0.96962   0.83347   -2.000
 7066.00    0.95242   0.83356   -2.000
 7067.00    0.96202   0.83301   -2.000
 7068.00    0.99198   0.83311   -2.000
 7069.00    0.97038   0.83363   -2.000
 7070.00    0.91434   0.83435   -2.000
 7071.00    0.93435   0.83596   -2.000
 7072.00    0.99884   0.83710   -2.000
 7073.00    1.01774   0.83798   -2.000
 7074.00    1.01340   0.83943   -2.000
 7075.00    0.96789   0.84013   -2.000
 7076.00    0.90420   0.84056   -2.000
 7077.00    0.93748   0.84111   -2.000
 7078.00    1.00752   0.84042   -2.000
 7079.00    1.02812   0.83956   -2.000
 7080.00    1.03280   0.83800   -2.000
 7081.00    1.02563   0.83535   -2.000
 7082.00    1.01527   0.83352   -2.000
 7083.00    0.90527   0.83025   -2.000
 7084.00    0.77327   0.82623   -2.000
 7085.00    0.87878   0.82313   -2.000
 7086.00    1.02605   0.81883   -2.000
 7087.00    0.31486   0.81552   -2.000
 7088.00   -0.51133   0.81216   -2.000
 7089.00   -0.03216   0.80780   -2.000
 7090.00    0.57105   0.80590   -2.000
 7091.00    0.60052   0.80346   -2.000
 7092.00    0.59633   0.80102   -2.000
 7093.00    0.60529   0.80000   -2.000
 7094.00    0.61494   0.79808   -2.000
 7095.00    0.67304   0.79829   -2.000
 7096.00    0.72556   0.79874   -2.000
 7097.00    0.63955   0.79806   -2.000
 7098.00    0.55968   0.79871   -2.000
 7099.00    0.56149   0.79890   -2.000
 7100.00    0.56624   0.80001   -2.000
 7101.00    0.59709   0.80135   -2.000
 7102.00    0.61904   0.80130   -2.000
 7103.00    0.58278   0.80191   -2.000
 7104.00    0.55984   0.80268   -2.000
 7105.00    0.60479   0.80343   -2.000
 7106.00    0.63089   0.80388   -2.000
 7107.00    0.57945   0.80360   -2.000
 7108.00    0.54344   0.80385   -2.000
 7109.00    0.56003   0.80453   -2.000
 7110.00    0.57091   0.80480   -2.000
 7111.00    0.56540   0.80445   -2.000
 7112.00    0.56235   0.80445   -2.000
 7113.00    0.56533   0.80468   -2.000
 7114.00    0.57584   0.80500   -2.000
 7115.00    0.60228   0.80511   -2.000
 7116.00    0.60754   0.80440   -2.000
 7117.00    0.57384   0.80437   -2.000
 7118.00    0.56732   0.80403   -2.000
 7119.00    0.60445   0.80336   -2.000
 7120.00    0.65073   0.80306   -2.000
 7121.00    0.70992   0.80130   -2.000
 7122.00    0.72483   0.79992   -2.000
 7123.00    0.68481   0.79876   -2.000
 7124.00    0.59980   0.79706   -2.000
 7125.00    0.46560   0.79603   -2.000
 7126.00    0.44156   0.79354   -2.000
 7127.00    0.52375   0.79141   -2.000
 7128.00    0.55413   0.79088   -2.000
 7129.00    0.54044   0.78945   -2.000
 7130.00    0.50323   0.78837   -2.000
 7131.00    0.44841   0.78734   -2.000
 7132.00    0.41063   0.78674   -2.000
 7133.00    0.38405   0.78781   -2.000
 7134.00    0.49187   0.78780   -2.000
 7135.00    0.67710   0.78740   -2.000
 7136.00    0.69579   0.78835   -2.000
 7137.00    0.63092   0.78973   -2.000
 7138.00    0.60384   0.79101   -2.000
 7139.00    0.59318   0.79140   -2.000
 7140.00    0.55353   0.79182   -2.000
 7141.00    0.50309   0.79298   -2.000
 7142.00    0.54837   0.79427   -2.000
 7143.00    0.62390   0.79482   -2.000
 7144.00    0.59322   0.79446   -2.000
 7145.00    0.53453   0.79548   -2.000
 7146.00    0.53280   0.79630   -2.000
 7147.00    0.54334   0.79635   -2.000
 7148.00    0.56347   0.79726   -2.000
 7149.00    0.58523   0.79746   -2.000
 7150.00    0.58378   0.79865   -2.000
 7151.00    0.57932   0.79960   -2.000
 7152.00    0.53270   0.79944   -2.000
 7153.00    0.48224   0.80141   -2.000
 7154.00    0.51350   0.80255   -2.000
 7155.00    0.54923   0.80290   -2.000
 7156.00    0.61520   0.80386   -2.000
 7157.00    0.68097   0.80415   -2.000
 7158.00    0.67157   0.80571   -2.000
 7159.00    0.65594   0.80641   -2.000
 7160.00    0.49882   0.80573   -2.000
 7161.00    0.30171   0.80635   -2.000
 7162.00   -0.39899   0.80712   -2.000
 7163.00   -0.93826   0.80778   -2.000
 7164.00   -0.10031   0.80806   -2.000
 7165.00    0.64234   0.80800   -2.000
 7166.00    0.78094   0.80906   -2.000
 7167.00    0.86598   0.81030   -2.000
 7168.00    0.68505   0.81101   -2.000
 7169.00    0.53671   0.81175   -2.000
 7170.00    0.51953   0.81283   -2.000
 7171.00    0.50927   0.81424   -2.000
 7172.00    0.52215   0.81505   -2.000
 7173.00    0.54287   0.81552   -2.000
 7174.00    0.58571   0.81637   -2.000
 7175.00    0.60545   0.81670   -2.000
 7176.00    0.56949   0.81692   -2.000
 7177.00    0.53902   0.81665   -2.000
 7178.00    0.51996   0.81598   -2.000
 7179.00    0.52057   0.81623   -2.000
 7180.00    0.55682   0.81509   -2.000
 7181.00    0.56802   0.81386   -2.000
 7182.00    0.53958   0.81388   -2.000
 7183.00    0.53286   0.81235   -2.000
 7184.00    0.55631   0.81128   -2.000
 7185.00    0.57259   0.81012   -2.000
 7186.00    0.58011   0.80884   -2.000
 7187.00    0.57797   0.80973   -2.000
 7188.00    0.56543   0.80875   -2.000
 7189.00    0.53836   0.80731   -2.000
 7190.00    0.49749   0.80742   -2.000
 7191.00    0.51337   0.80723   -2.000
 7192.00    0.57681   0.80795   -2.000
 7193.00    0.62703   0.80783   -2.000
 7194.00    0.66748   0.80784   -2.000
 7195.00    0.65718   0.80923   -2.000
 7196.00    0.61399   0.80968   -2.000
 7197.00    0.60912   0.80990   -2.000
 7198.00    0.62599   0.80996   -2.000
 7199.00    0.54671   0.81105   -2.000
 7200.00    0.41995   0.81235   -2.000
 7201.00    0.40538   0.81236   -2.000
 7202.00    0.43871   0.81256   -2.000
 7203.00    0.43843   0.81207   -2.000
 7204.00    0.42584   0.81275   -2.000
 7205.00    0.53592   0.81344   -2.000
 7206.00    0.68399   0.81273   -2.000
 7207.00    0.66493   0.81363   -2.000
 7208.00    0.60273   0.81385   -2.000
 7209.00    0.52568   0.81414   -2.000
 7210.00    0.44551   0.81516   -2.000
 7211.00    0.45932   0.81487   -2.000
 7212.00    0.48874   0.81608   -2.000
 7213.00    0.43596   0.81783   -2.000
 7214.00    0.37290   0.81903   -2.000
 7215.00    0.36956   0.82084   -2.000
 7216.00    0.37138   0.82184   -2.000
 7217.00    0.42883   0.82309   -2.000
 7218.00    0.48911   0.82538   -2.000
