###################################################################
## OUTPUT of StarlightChains_v04.for    [Cid@UFSC - 01/Apr/2007] ##
###################################################################

## Some input info
KUG0210-078._35_34.txt                   [arq_obs]
Base.CB07.vall.4m                        [arq_base]
Masks.EmLines.NEW.gm                     [arq_masks]
StCv04.C11.config                        [arq_config]
   66                                    [N_base]
    0                                    [N_YAV_components = # of components with extra extinction!]
    0                                    [i_FitPowerLaw (1/0 = Yes/No)]
-9.99                                    [alpha_PowerLaw]
CCM                                      [red_law_option]
 1.458241                                [q_norm = A(l_norm)/A(V)]

## (Re)Sampling Parameters
 3741.00                                 [l_ini (A)]
 7218.00                                 [l_fin (A)]
    1.00                                 [dl    (A)]     (OBS: dl_cushion =    50.00 A)

## Normalization info
 4020.00                                 [l_norm (A) - for base]
 4010.00                                 [llow_norm (A) - window for f_obs]
 4060.00                                 [lupp_norm (A) - window for f_obs]
3.864326E-17                             [fobs_norm (in input units)]

## S/N
 3691.00                                 [llow_SN (A) - window for S/N]
 7268.00                                 [lupp_SN (A) - window for S/N]
   3.893                                 [S/N in S/N window]
   2.550                                 [S/N in norm. window]
   0.081                                 [S/N_err in S/N window]
   0.053                                 [S/N_err in norm. window]
  1.0000                                 [fscale_chi2]

## etc...
    -2007569                             [idum_orig]
  2432                                   [NOl_eff]
  2428                                   [Nl_eff]
     4    NSIGMA                         [Ntot_cliped & clip_method]
 12596570                                [Nglobal_steps]
   7                                     [N_chains]
  32                                     [NEX0s_base = N_base in EX0s-fits]
 0   1   1        6   2.0   3.869E+03    [Clip-Bug, RC-Crash & Burn-In warning-flags, n_censored_weights, wei_nsig_threshold & wei_limit]
   129    128.701    128.155      0.546  [idt_all, wdt_TotTime, wdt_UsrTime & wdt_SysTime (sec)]

## Synthesis Results - Best model ##

 1.84124E-02                             [chi2/Nl_eff]
    13.35880                             [adev (%)]

   110.01023                             [sum-of-x (%)]
 9.26796E-17                             [Flux_tot (units of input spectrum!)]
 5.34317E-12                             [Mini_tot (???)]
 2.71334E-12                             [Mcor_tot (???)]

-323.86                                  [v0_min  (km/s)]
 371.94                                  [vd_min  (km/s)]
 0.5803                                  [AV_min  (mag)]
 0.0000                                  [YAV_min (mag)]

# j     x_j(%)      Mini_j(%)     Mcor_j(%)     age_j(yr)     Z_j      (L/M)_j    YAV?  Mstars   component_j        a/Fe...       SSP_chi2r SSP_adev(%)   SSP_AV   SSP_x(%)
  1      4.1802     6.0246E-03    1.1864E-02    1.000000E+06  0.00400  1.094E-02    0   1.0000   age020_m42            0.0000     2.7691E-02   100.0868   1.2447   354.0664
  2      0.0000     0.0000E+00    0.0000E+00    3.160000E+06  0.00400  4.007E-02    0   0.9999   age045_m42            0.0000     2.6313E-02    96.5551   0.5555   376.8224
  3      0.0000     0.0000E+00    0.0000E+00    5.010000E+06  0.00400  2.539E-02    0   0.9488   age055_m42            0.0000     1.8628E-02    86.3179   1.0876   333.4669
  4      0.0000     0.0000E+00    0.0000E+00    6.610000E+06  0.00400  2.620E-02    0   0.9220   age061_m42            0.0000     1.9346E-02    86.4451   0.6755   347.6844
  5      0.0000     0.0000E+00    0.0000E+00    1.000000E+07  0.00400  1.322E-02    0   0.8862   age070_m42            0.0000     1.2832E-02    73.9322   0.6973   315.1199
  6      0.0000     0.0000E+00    0.0000E+00    1.445000E+07  0.00400  7.883E-03    0   0.8571   age078_m42            0.0000     1.9732E-02    87.0551   0.7622   342.8448
  7      0.0000     0.0000E+00    0.0000E+00    2.512000E+07  0.00400  5.251E-03    0   0.8174   age090_m42            0.0000     1.5421E-02    78.0264   0.4841   329.3752
  8      0.0000     0.0000E+00    0.0000E+00    4.000000E+07  0.00400  3.649E-03    0   0.7851   age104_m42            0.0000     1.1998E-02    70.3596   0.4056   310.9974
  9      0.3429     1.7454E-03    2.6222E-03    5.500000E+07  0.00400  3.098E-03    0   0.7629   age110_m42            0.0000     1.3688E-02    74.8865   0.4302   327.2651
 10      0.0000     0.0000E+00    0.0000E+00    1.015200E+08  0.00400  2.228E-03    0   0.7207   age116_m42            0.0000     1.6440E-02    79.5793   0.3266   345.0976
 11      0.0000     0.0000E+00    0.0000E+00    2.861200E+08  0.00400  1.093E-03    0   0.6648   age125_m42            0.0000     5.2784E-03    50.3928   0.4541   266.0009
 12      0.4980     1.1902E-02    1.4918E-02    5.088000E+08  0.00400  6.597E-04    0   0.6365   age130_m42            0.0000     2.2970E-03    35.8141   0.8692   221.6521
 13      0.0249     1.8451E-03    2.1067E-03    1.434000E+09  0.00400  2.132E-04    0   0.5798   age139_m42            0.0000     1.3810E-03    28.6574   0.1192   202.7697
 14     15.4578     4.1344E+00    4.3778E+00    4.250000E+09  0.00400  5.895E-05    0   0.5377   age158_m42            0.0000     2.0036E-03    34.3115  -0.5839   215.0433
 15      2.4964     1.1214E+00    1.1509E+00    7.500000E+09  0.00400  3.510E-05    0   0.5212   age171_m42            0.0000     2.0260E-04    15.7419   0.2173   138.8497
 16      7.0910     5.5763E+00    5.5278E+00    1.300000E+10  0.00400  2.005E-05    0   0.5034   age193_m42            0.0000     2.0043E-04    15.5861   0.8796    96.3595
 17      8.4145     8.6998E+00    8.5094E+00    1.800000E+10  0.00400  1.525E-05    0   0.4967   age213_m42            0.0000     1.1218E-04    13.4658   0.4147   116.0443
 18      0.0000     0.0000E+00    0.0000E+00    1.000000E+06  0.00800  1.238E-02    0   1.0000   age020_m52            0.0000     2.8446E-02   101.5617   1.2136   358.8317
 19      0.0000     0.0000E+00    0.0000E+00    3.160000E+06  0.00800  3.074E-02    0   0.9966   age045_m52            0.0000     2.9729E-02   102.0277   1.1250   363.8734
 20      0.0000     0.0000E+00    0.0000E+00    5.010000E+06  0.00800  2.668E-02    0   0.9443   age055_m52            0.0000     2.4409E-02    94.4819   1.0154   352.7625
 21      0.0000     0.0000E+00    0.0000E+00    6.610000E+06  0.00800  2.136E-02    0   0.9177   age061_m52            0.0000     1.7987E-02    82.7846   0.0081   344.1888
 22      0.0000     0.0000E+00    0.0000E+00    1.000000E+07  0.00800  1.215E-02    0   0.8827   age070_m52            0.0000     1.2462E-02    72.2028   0.9313   307.8253
 23      0.0000     0.0000E+00    0.0000E+00    1.445000E+07  0.00800  8.717E-03    0   0.8552   age078_m52            0.0000     1.8389E-02    83.7855   0.7873   338.7093
 24      0.0000     0.0000E+00    0.0000E+00    2.512000E+07  0.00800  5.592E-03    0   0.8162   age090_m52            0.0000     1.4003E-02    75.1123   0.6047   325.1039
 25      0.8688     3.5160E-03    5.4289E-03    4.000000E+07  0.00800  3.896E-03    0   0.7841   age104_m52            0.0000     1.3223E-02    72.0736   0.5654   320.7155
 26      0.0000     0.0000E+00    0.0000E+00    1.015200E+08  0.00800  2.148E-03    0   0.7226   age116_m52            0.0000     1.7189E-02    81.4263   0.2712   352.3946
 27      0.7483     1.1887E-02    1.5644E-02    2.861200E+08  0.00800  9.925E-04    0   0.6683   age125_m52            0.0000     7.8554E-03    59.0829   0.2292   302.1480
 28      0.6457     3.2411E-02    3.9175E-02    9.047900E+08  0.00800  3.141E-04    0   0.6138   age135_m52            0.0000     3.6713E-03    42.5648  -0.1853   263.8309
 29      0.2775     2.5448E-02    2.9331E-02    1.434000E+09  0.00800  1.719E-04    0   0.5853   age139_m52            0.0000     5.5937E-04    21.2787   0.1492   172.7467
 30      2.1894     4.3852E-01    4.8358E-01    2.500000E+09  0.00800  7.872E-05    0   0.5600   age150_m52            0.0000     1.7930E-04    14.8569   0.9971   102.5396
 31      4.1016     1.4915E+00    1.5936E+00    4.250000E+09  0.00800  4.336E-05    0   0.5426   age158_m52            0.0000     2.4412E-04    16.0488   0.1165   147.8056
 32      5.3422     2.6664E+00    2.7928E+00    6.250000E+09  0.00800  3.159E-05    0   0.5319   age166_m52            0.0000     1.7067E-04    13.8486   0.0081   141.2382
 33     12.5031     1.4485E+01    1.4470E+01    1.300000E+10  0.00800  1.361E-05    0   0.5073   age193_m52            0.0000     6.8907E-05    10.3434  -0.1227   119.9808
 34      4.3172     6.8855E+00    6.7659E+00    1.800000E+10  0.00800  9.886E-06    0   0.4990   age213_m52            0.0000     2.6205E-04    17.1808   0.5403    85.2775
 35      0.0000     0.0000E+00    0.0000E+00    1.000000E+06  0.02000  1.544E-02    0   1.0000   age020_m62            0.0000     2.7530E-02    99.1345   1.2542   352.6559
 36      0.0000     0.0000E+00    0.0000E+00    3.160000E+06  0.02000  3.762E-02    0   0.9858   age045_m62            0.0000     2.8220E-02   100.9626   1.1574   361.0107
 37      0.0000     0.0000E+00    0.0000E+00    5.010000E+06  0.02000  3.296E-02    0   0.9342   age055_m62            0.0000     2.9040E-02   100.5985   0.7554   382.2823
 38      0.0000     0.0000E+00    0.0000E+00    8.710000E+06  0.02000  1.154E-02    0   0.8861   age067_m62            0.0000     6.6444E-03    56.4209   0.8692   262.5653
 39      1.6129     3.3186E-03    5.5365E-03    1.445000E+07  0.02000  7.663E-03    0   0.8472   age078_m62            0.0000     1.0437E-02    66.4759   0.7272   297.6167
 40      0.7356     2.5592E-03    4.0815E-03    2.512000E+07  0.02000  4.532E-03    0   0.8099   age090_m62            0.0000     7.8715E-03    59.8945   0.8788   277.8042
 41      0.0000     0.0000E+00    0.0000E+00    5.500000E+07  0.02000  2.733E-03    0   0.7595   age110_m62            0.0000     1.0536E-02    67.2723   0.6563   303.3714
 42      0.0000     0.0000E+00    0.0000E+00    1.609000E+08  0.02000  1.369E-03    0   0.6985   age120_m62            0.0000     1.1630E-02    69.2487   0.3850   325.4951
 43      0.2284     3.9955E-03    5.2825E-03    2.861200E+08  0.02000  9.013E-04    0   0.6714   age125_m62            0.0000     1.1764E-02    69.1051   0.0835   341.0980
 44      0.0000     0.0000E+00    0.0000E+00    5.088000E+08  0.02000  5.028E-04    0   0.6449   age130_m62            0.0000     8.4103E-03    60.0523  -0.1378   324.3807
 45      0.0000     0.0000E+00    0.0000E+00    9.047900E+08  0.02000  2.428E-04    0   0.6179   age135_m62            0.0000     1.6357E-03    30.3426   0.1457   219.4061
 46      0.4662     5.8202E-02    6.7713E-02    1.434000E+09  0.02000  1.263E-04    0   0.5908   age139_m62            0.0000     3.9052E-04    18.1213   0.3000   165.2801
 47      0.2779     7.3212E-02    8.1789E-02    2.500000E+09  0.02000  5.985E-05    0   0.5673   age150_m62            0.0000     1.0287E-04    12.3687   0.4056   132.0146
 48      5.6415     2.7194E+00    2.9281E+00    4.250000E+09  0.02000  3.271E-05    0   0.5468   age158_m62            0.0000     2.8575E-04    17.7697   1.0414    86.4033
 49      5.5647     6.4514E+00    6.5643E+00    1.000000E+10  0.02000  1.360E-05    0   0.5167   age181_m62            0.0000     6.3173E-04    27.4279   1.2940    65.9459
 50      7.8230     1.7314E+01    1.7092E+01    1.800000E+10  0.02000  7.124E-06    0   0.5013   age213_m62            0.0000     1.6990E-03    46.2145   2.3163    38.1589
 51      0.0000     0.0000E+00    0.0000E+00    1.000000E+06  0.05000  2.592E-02    0   0.9998   age020_m72            0.0000     2.8869E-02   102.0572   1.1981   360.0876
 52      0.0000     0.0000E+00    0.0000E+00    3.160000E+06  0.05000  4.845E-02    0   0.9577   age045_m72            0.0000     2.9595E-02   102.1107   1.0049   371.8409
 53      0.0000     0.0000E+00    0.0000E+00    5.010000E+06  0.05000  3.072E-02    0   0.9147   age055_m72            0.0000     1.2950E-02    74.7007   1.1264   307.4953
 54      0.0000     0.0000E+00    0.0000E+00    6.610000E+06  0.05000  1.455E-02    0   0.8877   age061_m72            0.0000     6.9255E-04    32.3683   2.4642   139.6917
 55      0.0000     0.0000E+00    0.0000E+00    1.000000E+07  0.05000  9.074E-03    0   0.8524   age070_m72            0.0000     2.3055E-02    91.1020   0.9971   353.1912
 56      0.0000     0.0000E+00    0.0000E+00    2.512000E+07  0.05000  4.250E-03    0   0.7902   age090_m72            0.0000     9.9071E-03    66.4998   1.1825   291.9633
 57      1.7884     9.1343E-03    1.3703E-02    4.000000E+07  0.05000  3.087E-03    0   0.7618   age104_m72            0.0000     1.0715E-02    68.0621   0.9104   303.1570
 58      3.4234     3.1752E-02    4.4368E-02    1.015200E+08  0.05000  1.700E-03    0   0.7096   age116_m72            0.0000     1.3448E-02    72.8658   0.4686   333.8934
 59      0.0000     0.0000E+00    0.0000E+00    2.861200E+08  0.05000  7.384E-04    0   0.6633   age125_m72            0.0000     1.0012E-02    64.3288   0.0273   333.0680
 60      0.0000     0.0000E+00    0.0000E+00    5.088000E+08  0.05000  3.819E-04    0   0.6372   age130_m72            0.0000     3.2533E-03    41.3953   0.1160   260.0016
 61      0.5107     4.8048E-02    5.7811E-02    9.047900E+08  0.05000  1.676E-04    0   0.6110   age135_m72            0.0000     2.4775E-03    38.2204  -0.5066   243.4364
 62      1.8710     3.3383E-01    3.8614E-01    1.434000E+09  0.05000  8.837E-05    0   0.5874   age139_m72            0.0000     4.5932E-04    17.7900  -0.1979   173.0291
 63      0.0000     0.0000E+00    0.0000E+00    2.500000E+09  0.05000  4.233E-05    0   0.5598   age150_m72            0.0000     1.5551E-04    13.2206   0.7512    98.3836
 64      2.2201     2.4394E+00    2.5215E+00    6.250000E+09  0.05000  1.435E-05    0   0.5249   age166_m72            0.0000     5.3910E-04    25.2309   1.0798    68.5526
 65      3.9109     9.4677E+00    9.3892E+00    1.300000E+10  0.05000  6.513E-06    0   0.5036   age193_m72            0.0000     7.8492E-04    30.9041   1.1789    58.3717
 66      4.4362     1.5451E+01    1.5046E+01    1.800000E+10  0.05000  4.527E-06    0   0.4945   age213_m72            0.0000     1.1787E-03    38.3506   1.5329    46.3648


## Synthesis Results - Average & Chains ##

# j      x_j: min, <> & last-chain-values for 1 ...  7 chains
  1      4.1802      4.3871      4.3012      4.3626      4.1646      4.2464      4.5160      4.5499      4.3444
  2      0.0000      0.2253      0.1625      0.1849      0.2300      0.2077      0.2492      0.3387      0.2429
  3      0.0000      0.0161      0.0000      0.0000      0.0000      0.0000      0.0000      0.0470      0.0000
  4      0.0000      0.0286      0.0125      0.0000      0.0005      0.0000      0.0000      0.0856      0.0101
  5      0.0000      0.0245      0.0615      0.0000      0.0072      0.0000      0.0000      0.0000      0.0791
  6      0.0000      0.0140      0.0000      0.0000      0.0000      0.0000      0.0501      0.0580      0.0000
  7      0.0000      0.0366      0.0000      0.0883      0.0000      0.0000      0.0003      0.0453      0.0000
  8      0.0000      0.2573      0.3767      0.2555      0.2504      0.1868      0.2931      0.1896      0.2741
  9      0.3429      0.3438      0.4055      0.3029      0.3845      0.3219      0.3355      0.3392      0.3076
 10      0.0000      0.0277      0.0000      0.0000      0.0448      0.0441      0.1554      0.1625      0.0400
 11      0.0000      0.0439      0.0799      0.0000      0.0162      0.0000      0.0717      0.0000      0.0145
 12      0.4980      0.3821      0.3907      0.3633      0.4418      0.3882      0.3949      0.2922      0.1992
 13      0.0249      0.5341      0.4778      0.4786      0.5431      0.4771      0.5188      0.6498      0.5030
 14     15.4578     15.3124     15.2717     15.1536     15.2578     15.3155     15.5997     15.5411     15.5953
 15      2.4964      2.1920      2.1702      1.8724      2.2108      2.5353      2.9038      2.3303      2.3818
 16      7.0910      5.5354      6.4815      7.1376      5.0620      6.3208      6.1760      6.1210      6.5484
 17      8.4145      9.4517      9.4732      9.4387     10.1885      9.6801      9.3251      9.3264      9.9757
 18      0.0000      0.0173      0.0000      0.0428      0.0000      0.1326      0.0130      0.0142      0.0000
 19      0.0000      0.0354      0.0000      0.0904      0.0642      0.0440      0.0000      0.0496      0.0000
 20      0.0000      0.0227      0.0351      0.0000      0.0494      0.0000      0.1284      0.0000      0.0000
 21      0.0000      0.0277      0.0000      0.0000      0.0000      0.0000      0.0000      0.0148      0.0000
 22      0.0000      0.0280      0.0245      0.0000      0.0000      0.0000      0.1035      0.0832      0.0177
 23      0.0000      0.0606      0.0753      0.0033      0.1208      0.0000      0.0441      0.0586      0.1338
 24      0.0000      0.0269      0.0000      0.0594      0.0000      0.0625      0.0000      0.0000      0.0000
 25      0.8688      0.7879      0.7571      0.7171      0.8029      0.7399      0.8350      0.7727      0.7669
 26      0.0000      0.0247      0.0000      0.0878      0.0314      0.0000      0.0595      0.0000      0.0288
 27      0.7483      0.7087      0.7103      0.7031      0.6746      0.6361      0.8400      0.7654      0.7937
 28      0.6457      0.3562      0.3636      0.3644      0.4109      0.2570      0.5559      0.2748      0.5896
 29      0.2775      0.2489      0.2075      0.1872      0.4908      0.2656      0.3024      0.2728      0.1760
 30      2.1894      1.7508      1.7803      1.7491      1.6593      2.0189      1.6488      1.4597      1.6993
 31      4.1016      3.0390      3.1073      2.4873      2.9289      3.1173      3.0806      3.6435      3.1333
 32      5.3422      4.2506      4.1085      3.9700      4.2830      4.1794      4.1722      4.5694      3.9714
 33     12.5031     13.3073     12.9090     13.2382     13.2611     13.2465     13.2461     13.7833     13.2307
 34      4.3172      4.1577      4.0439      4.0723      4.1884      3.8799      3.8931      3.9121      3.9121
 35      0.0000      0.0255      0.0000      0.0672      0.0545      0.0115      0.0000      0.0157      0.0188
 36      0.0000      0.0175      0.0000      0.0000      0.0262      0.0000      0.0177      0.0073      0.0156
 37      0.0000      0.0278      0.0000      0.0000      0.0735      0.0000      0.0626      0.0584      0.0000
 38      0.0000      0.0311      0.0544      0.0373      0.0000      0.0000      0.0000      0.0000      0.1497
 39      1.6129      1.6720      1.6888      1.7006      1.6571      1.6714      1.6990      1.6974      1.5412
 40      0.7356      0.8326      0.7644      0.8207      0.7924      0.8201      0.8750      0.8528      0.8308
 41      0.0000      0.0451      0.0000      0.0152      0.0318      0.0335      0.0000      0.0000      0.0000
 42      0.0000      0.0243      0.0000      0.0000      0.1090      0.0042      0.0000      0.0000      0.0000
 43      0.2284      0.2303      0.2164      0.2202      0.2367      0.3257      0.3453      0.3322      0.0885
 44      0.0000      0.0944      0.1625      0.1239      0.1007      0.1053      0.1446      0.1137      0.0967
 45      0.0000      0.2686      0.2626      0.1378      0.2046      0.1412      0.2211      0.0000      0.2283
 46      0.4662      0.9212      1.0063      0.7090      1.0433      1.0725      0.9032      0.6791      0.8933
 47      0.2779      1.0475      1.6349      1.2708      2.4153      1.0055      1.8058      0.9591      0.8582
 48      5.6415      5.0512      4.6415      5.0671      5.0105      4.7799      4.5126      3.9460      4.8118
 49      5.5647      5.6099      5.7145      5.6654      5.6652      5.4176      5.5202      5.9015      5.3305
 50      7.8230      8.3541      8.1413      8.3423      8.2381      8.4772      8.2469      8.3112      8.3304
 51      0.0000      0.0200      0.0000      0.0000      0.0673      0.0000      0.1227      0.0000      0.0123
 52      0.0000      0.0146      0.0000      0.0000      0.0507      0.0647      0.0100      0.0000      0.0000
 53      0.0000      0.0364      0.0466      0.0887      0.0000      0.0200      0.0212      0.0000      0.0535
 54      0.0000      0.0214      0.0188      0.0000      0.0740      0.0000      0.0000      0.0000      0.0000
 55      0.0000      0.0321      0.0220      0.0000      0.0000      0.0886      0.0789      0.0127      0.0136
 56      0.0000      0.0206      0.0005      0.0399      0.0000      0.0000      0.0000      0.0413      0.0000
 57      1.7884      1.8624      1.8191      1.8248      1.6822      1.8613      1.8473      1.8895      1.7891
 58      3.4234      3.3697      3.2386      3.3852      3.2430      3.3792      3.4229      3.3834      3.3905
 59      0.0000      0.0230      0.0000      0.0000      0.0000      0.0000      0.0520      0.0000      0.0712
 60      0.0000      0.0594      0.0000      0.0000      0.0000      0.1520      0.2252      0.0104      0.2007
 61      0.5107      0.6598      0.5690      0.5961      0.6652      0.8804      0.8612      0.7037      0.6650
 62      1.8710      0.8354      1.0966      0.9553      0.2056      0.7109      0.5153      0.7381      0.9039
 63      0.0000      0.7274      1.0387      0.6101      0.4133      0.8534      0.0931      0.0772      0.3723
 64      2.2201      2.3326      2.2065      2.2011      2.3872      2.2582      2.1161      2.3126      2.2532
 65      3.9109      4.3732      4.1664      4.3406      4.1048      4.1113      4.3538      4.3465      4.4255
 66      4.4362      4.2564      4.2440      4.3951      4.2127      3.9952      4.2577      4.4278      4.2029

# j      m_j: min, <> & last-chain-values for 1 ...  7 chains
  1  1.1864E-02  1.2299E-02  1.2158E-02  1.2142E-02  1.1726E-02  1.2036E-02  1.2750E-02  1.2659E-02  1.2173E-02
  2  0.0000E+00  1.7245E-04  1.2541E-04  1.4045E-04  1.7681E-04  1.6072E-04  1.9207E-04  2.5726E-04  1.8584E-04
  3  0.0000E+00  1.8402E-05  0.0000E+00  0.0000E+00  0.0000E+00  0.0000E+00  0.0000E+00  5.3425E-05  0.0000E+00
  4  0.0000E+00  3.0865E-05  1.3555E-05  0.0000E+00  5.3536E-07  0.0000E+00  0.0000E+00  9.1639E-05  1.0851E-05
  5  0.0000E+00  5.0366E-05  1.2757E-04  0.0000E+00  1.4810E-05  0.0000E+00  0.0000E+00  0.0000E+00  1.6244E-04
  6  0.0000E+00  4.6813E-05  0.0000E+00  0.0000E+00  0.0000E+00  0.0000E+00  1.6808E-04  1.9203E-04  0.0000E+00
  7  0.0000E+00  1.7464E-04  0.0000E+00  4.1831E-04  0.0000E+00  0.0000E+00  1.2309E-06  2.1471E-04  0.0000E+00
  8  0.0000E+00  1.6977E-03  2.5061E-03  1.6738E-03  1.6599E-03  1.2466E-03  1.9479E-03  1.2416E-03  1.8075E-03
  9  2.6222E-03  2.5968E-03  3.0882E-03  2.2713E-03  2.9166E-03  2.4580E-03  2.5515E-03  2.5420E-03  2.3218E-03
 10  0.0000E+00  2.7502E-04  0.0000E+00  0.0000E+00  4.4597E-04  4.4226E-04  1.5522E-03  1.6000E-03  3.9647E-04
 11  0.0000E+00  8.1968E-04  1.5032E-03  0.0000E+00  3.0266E-04  0.0000E+00  1.3473E-03  0.0000E+00  2.6965E-04
 12  1.4918E-02  1.1307E-02  1.1657E-02  1.0673E-02  1.3129E-02  1.1615E-02  1.1769E-02  8.5801E-03  5.8912E-03
 13  2.1067E-03  4.4550E-02  4.0184E-02  3.9630E-02  4.5493E-02  4.0232E-02  4.3573E-02  5.3783E-02  4.1936E-02
 14  4.3778E+00  4.2835E+00  4.3077E+00  4.2085E+00  4.2869E+00  4.3317E+00  4.3947E+00  4.3145E+00  4.3605E+00
 15  1.1509E+00  9.9824E-01  9.9653E-01  8.4653E-01  1.0112E+00  1.1673E+00  1.3318E+00  1.0532E+00  1.0841E+00
 16  5.5278E+00  4.2624E+00  5.0324E+00  5.4564E+00  3.9149E+00  4.9208E+00  4.7893E+00  4.6775E+00  5.0399E+00
 17  8.5094E+00  9.4414E+00  9.5417E+00  9.3603E+00  1.0222E+01  9.7763E+00  9.3807E+00  9.2456E+00  9.9599E+00
 18  0.0000E+00  4.2849E-05  0.0000E+00  1.0538E-04  0.0000E+00  3.3200E-04  3.2546E-05  3.4961E-05  0.0000E+00
 19  0.0000E+00  3.5164E-05  0.0000E+00  8.9223E-05  6.4117E-05  4.4225E-05  0.0000E+00  4.8959E-05  0.0000E+00
 20  0.0000E+00  2.4677E-05  3.8441E-05  0.0000E+00  5.3885E-05  0.0000E+00  1.4039E-04  0.0000E+00  0.0000E+00
 21  0.0000E+00  3.6537E-05  0.0000E+00  0.0000E+00  0.0000E+00  0.0000E+00  0.0000E+00  1.9366E-05  0.0000E+00
 22  0.0000E+00  6.2455E-05  5.5036E-05  0.0000E+00  0.0000E+00  0.0000E+00  2.3224E-04  1.8394E-04  3.9380E-05
 23  0.0000E+00  1.8227E-04  2.2853E-04  9.9008E-06  3.6504E-04  0.0000E+00  1.3358E-04  1.7511E-04  4.0249E-04
 24  0.0000E+00  1.2054E-04  0.0000E+00  2.6408E-04  0.0000E+00  2.8272E-04  0.0000E+00  0.0000E+00  0.0000E+00
 25  5.4289E-03  4.8630E-03  4.7121E-03  4.3943E-03  4.9775E-03  4.6172E-03  5.1903E-03  4.7330E-03  4.7312E-03
 26  0.0000E+00  2.5519E-04  0.0000E+00  8.9911E-04  3.2570E-04  0.0000E+00  6.1865E-04  0.0000E+00  2.9723E-04
 27  1.5644E-02  1.4636E-02  1.4790E-02  1.4416E-02  1.3992E-02  1.3280E-02  1.7470E-02  1.5687E-02  1.6383E-02
 28  3.9175E-02  2.1347E-02  2.1971E-02  2.1681E-02  2.4735E-02  1.5573E-02  3.3551E-02  1.6343E-02  3.5318E-02
 29  2.9331E-02  2.5989E-02  2.1850E-02  1.9404E-02  5.1476E-02  2.8041E-02  3.1803E-02  2.8271E-02  1.8367E-02
 30  4.8358E-01  3.8197E-01  3.9166E-01  3.7886E-01  3.6360E-01  4.4533E-01  3.6226E-01  3.1604E-01  3.7056E-01
 31  1.5936E+00  1.1664E+00  1.2025E+00  9.4770E-01  1.1290E+00  1.2096E+00  1.1906E+00  1.3877E+00  1.2020E+00
 32  2.7928E+00  2.1950E+00  2.1393E+00  2.0353E+00  2.2214E+00  2.1820E+00  2.1697E+00  2.3417E+00  2.0498E+00
 33  1.4470E+01  1.5212E+01  1.4880E+01  1.5024E+01  1.5226E+01  1.5310E+01  1.5249E+01  1.5637E+01  1.5117E+01
 34  6.7659E+00  6.4364E+00  6.3122E+00  6.2585E+00  6.5122E+00  6.0725E+00  6.0692E+00  6.0101E+00  6.0531E+00
 35  0.0000E+00  5.0696E-05  0.0000E+00  1.3244E-04  1.0883E-04  2.2997E-05  0.0000E+00  3.0898E-05  3.7257E-05
 36  0.0000E+00  1.4095E-05  0.0000E+00  0.0000E+00  2.1113E-05  0.0000E+00  1.4345E-05  5.8209E-06  1.2503E-05
 37  0.0000E+00  2.4141E-05  0.0000E+00  0.0000E+00  6.4205E-05  0.0000E+00  5.4766E-05  5.0398E-05  0.0000E+00
 38  0.0000E+00  7.3218E-05  1.2906E-04  8.7158E-05  0.0000E+00  0.0000E+00  0.0000E+00  0.0000E+00  3.5243E-04
 39  5.5365E-03  5.6692E-03  5.7740E-03  5.7247E-03  5.6435E-03  5.7297E-03  5.8016E-03  5.7118E-03  5.2233E-03
 40  4.0815E-03  4.5634E-03  4.2242E-03  4.4655E-03  4.3622E-03  4.5446E-03  4.8297E-03  4.6388E-03  4.5512E-03
 41  0.0000E+00  3.8477E-04  0.0000E+00  1.2886E-04  2.7222E-04  2.8889E-04  0.0000E+00  0.0000E+00  0.0000E+00
 42  0.0000E+00  3.8047E-04  0.0000E+00  0.0000E+00  1.7123E-03  6.6824E-05  0.0000E+00  0.0000E+00  0.0000E+00
 43  5.2825E-03  5.2609E-03  4.9860E-03  4.9941E-03  5.4321E-03  7.5233E-03  7.9457E-03  7.5322E-03  2.0200E-03
 44  0.0000E+00  3.7119E-03  6.4468E-03  4.8401E-03  3.9798E-03  4.1895E-03  5.7269E-03  4.4391E-03  3.8021E-03
 45  0.0000E+00  2.0964E-02  2.0668E-02  1.0674E-02  1.6036E-02  1.1145E-02  1.7379E-02  0.0000E+00  1.7813E-02
 46  6.7713E-02  1.3216E-01  1.4557E-01  1.0098E-01  1.5033E-01  1.5557E-01  1.3049E-01  9.6686E-02  1.2810E-01
 47  8.1789E-02  3.0452E-01  4.7923E-01  3.6675E-01  7.0522E-01  2.9551E-01  5.2865E-01  2.7669E-01  2.4935E-01
 48  2.9281E+00  2.5897E+00  2.3995E+00  2.5790E+00  2.5800E+00  2.4776E+00  2.3299E+00  2.0077E+00  2.4657E+00
 49  6.5643E+00  6.5367E+00  6.7140E+00  6.5536E+00  6.6300E+00  6.3822E+00  6.4776E+00  6.8243E+00  6.2080E+00
 50  1.7092E+01  1.8029E+01  1.7716E+01  1.7874E+01  1.7857E+01  1.8497E+01  1.7924E+01  1.7801E+01  1.7969E+01
 51  0.0000E+00  2.3694E-05  0.0000E+00  0.0000E+00  7.9996E-05  0.0000E+00  1.4622E-04  0.0000E+00  1.4517E-05
 52  0.0000E+00  8.8766E-06  0.0000E+00  0.0000E+00  3.0856E-05  3.9662E-05  6.1339E-06  0.0000E+00  0.0000E+00
 53  0.0000E+00  3.3236E-05  4.2927E-05  8.0422E-05  0.0000E+00  1.8492E-05  1.9542E-05  0.0000E+00  4.8877E-05
 54  0.0000E+00  4.0135E-05  3.5403E-05  0.0000E+00  1.3898E-04  0.0000E+00  0.0000E+00  0.0000E+00  0.0000E+00
 55  0.0000E+00  9.2455E-05  6.3826E-05  0.0000E+00  0.0000E+00  2.5796E-04  2.2904E-04  3.6333E-05  3.9211E-05
 56  0.0000E+00  1.1735E-04  2.7403E-06  2.2592E-04  0.0000E+00  0.0000E+00  0.0000E+00  2.3369E-04  0.0000E+00
 57  1.3703E-02  1.4095E-02  1.3882E-02  1.3711E-02  1.2787E-02  1.4243E-02  1.4080E-02  1.4192E-02  1.3534E-02
 58  4.4368E-02  4.3138E-02  4.1805E-02  4.3023E-02  4.1698E-02  4.3737E-02  4.4129E-02  4.2985E-02  4.3382E-02
 59  0.0000E+00  6.3378E-04  0.0000E+00  0.0000E+00  0.0000E+00  0.0000E+00  1.4416E-03  0.0000E+00  1.9617E-03
 60  0.0000E+00  3.0397E-03  0.0000E+00  0.0000E+00  0.0000E+00  7.8646E-03  1.1605E-02  5.3022E-04  1.0266E-02
 61  5.7811E-02  7.3767E-02  6.4153E-02  6.6170E-02  7.4695E-02  9.9523E-02  9.6970E-02  7.8087E-02  7.4319E-02
 62  3.8614E-01  1.7031E-01  2.2541E-01  1.9334E-01  4.2089E-02  1.4653E-01  1.0579E-01  1.4932E-01  1.8418E-01
 63  0.0000E+00  2.9503E-01  4.2478E-01  2.4564E-01  1.6836E-01  3.4994E-01  3.8019E-02  3.1084E-02  1.5093E-01
 64  2.5215E+00  2.6168E+00  2.4959E+00  2.4515E+00  2.6898E+00  2.5613E+00  2.3907E+00  2.5746E+00  2.5264E+00
 65  9.3892E+00  1.0371E+01  9.9624E+00  1.0219E+01  9.7768E+00  9.8573E+00  1.0398E+01  1.0229E+01  1.0490E+01
 66  1.5046E+01  1.4259E+01  1.4336E+01  1.4618E+01  1.4175E+01  1.3532E+01  1.4365E+01  1.4721E+01  1.4073E+01

# AV, chi2 & Mass for <> & i_chain = 1 ...  7 solutions
AV       0.5803      0.5806      0.5806      0.5821      0.5803      0.5834      0.5785      0.5813      0.5810
chi2 1.8412E-02  1.4855E-04  1.6512E-04  1.8172E-04  1.8283E-04  1.4826E-04  1.2892E-04  1.8218E-04  1.3958E-04
Mass 2.7133E-12  2.7480E-12  2.7253E-12  2.7738E-12  2.7349E-12  2.7285E-12  2.7210E-12  2.7718E-12  2.7509E-12
-323.86                                  [v0_min (km/s) before EX0s...]
 371.94                                  [vd_min (km/s) before EX0s...]


## Synthetic spectrum (Best Model) ##l_obs f_obs f_syn wei
 3478    [Nl_obs]
 3741.00    0.37304   0.52881    0.000
 3742.00    0.43527   0.52449    0.000
 3743.00    0.42603   0.52319    0.000
 3744.00    0.42853   0.52416    0.000
 3745.00    0.43789   0.52917    0.092
 3746.00    0.42548   0.53787    0.090
 3747.00    0.40201   0.54943    0.088
 3748.00    0.36635   0.56284    0.089
 3749.00    0.32533   0.57592    0.093
 3750.00    0.35354   0.58846    0.091
 3751.00    0.40789   0.59850    0.086
 3752.00    0.45494   0.60596    0.085
 3753.00    0.49965   0.61086    0.084
 3754.00    0.52239   0.61359    0.083
 3755.00    0.53925   0.61505    0.082
 3756.00    0.50367   0.61546    0.081
 3757.00    0.45658   0.61491    0.079
 3758.00    0.41415   0.61410    0.079
 3759.00    0.37253   0.61371    0.080
 3760.00    0.36105   0.61331    0.106
 3761.00    0.35357   0.61410    0.170
 3762.00    0.40622   0.61582    0.114
 3763.00    0.46451   0.61899    0.081
 3764.00    0.49339   0.62373    0.080
 3765.00    0.52057   0.63055    0.080
 3766.00    0.55506   0.63928    0.080
 3767.00    0.58948   0.64973    0.080
 3768.00    0.59333   0.66198    0.081
 3769.00    0.59441   0.67500    0.081
 3770.00    0.52803   0.68885    0.078
 3771.00    0.46835   0.70272    0.076
 3772.00    0.49631   0.71608    0.078
 3773.00    0.52511   0.72851    0.079
 3774.00    0.56119   0.73920    0.079
 3775.00    0.59285   0.74742    0.079
 3776.00    0.59581   0.75276    0.079
 3777.00    0.59059   0.75482    0.080
 3778.00    0.54398   0.75341    0.079
 3779.00    0.51070   0.74848    0.079
 3780.00    0.53198   0.73960    0.080
 3781.00    0.53589   0.72863    0.081
 3782.00    0.48094   0.71487    0.081
 3783.00    0.43236   0.70019    0.080
 3784.00    0.40202   0.68425    0.079
 3785.00    0.39531   0.66870    0.079
 3786.00    0.44632   0.65294    0.079
 3787.00    0.48116   0.63782    0.080
 3788.00    0.48194   0.62388    0.082
 3789.00    0.49260   0.61155    0.082
 3790.00    0.52132   0.60205    0.080
 3791.00    0.50911   0.59500    0.079
 3792.00    0.43136   0.59176    0.077
 3793.00    0.37240   0.59272    0.076
 3794.00    0.33986   0.59827    0.076
 3795.00    0.32928   0.60771    0.075
 3796.00    0.34585   0.62001    0.073
 3797.00    0.34310   0.63515    0.073
 3798.00    0.31932   0.65087    0.075
 3799.00    0.34223   0.66673    0.076
 3800.00    0.41002   0.68113    0.077
 3801.00    0.46233   0.69351    0.078
 3802.00    0.50152   0.70375    0.078
 3803.00    0.49767   0.71082    0.078
 3804.00    0.46170   0.71461    0.077
 3805.00    0.43573   0.71463    0.076
 3806.00    0.41632   0.71164    0.074
 3807.00    0.42741   0.70519    0.075
 3808.00    0.45602   0.69683    0.076
 3809.00    0.47597   0.68645    0.076
 3810.00    0.49160   0.67492    0.076
 3811.00    0.46610   0.66305    0.077
 3812.00    0.42282   0.65057    0.077
 3813.00    0.45509   0.63806    0.077
 3814.00    0.51537   0.62548    0.077
 3815.00    0.52816   0.61400    0.077
 3816.00    0.52602   0.60272    0.077
 3817.00    0.47114   0.59186    0.081
 3818.00    0.40242   0.58047    0.087
 3819.00    0.40134   0.56956    0.083
 3820.00    0.41476   0.55851    0.077
 3821.00    0.39384   0.54766    0.075
 3822.00    0.36709   0.53664    0.073
 3823.00    0.37843   0.52570    0.074
 3824.00    0.39466   0.51483    0.075
 3825.00    0.32417   0.50438    0.074
 3826.00    0.24589   0.49447    0.072
 3827.00    0.22612   0.48596    0.075
 3828.00    0.20949   0.47936    0.077
 3829.00    0.24315   0.47504    0.076
 3830.00    0.27770   0.47374    0.074
 3831.00    0.30186   0.47566    0.075
 3832.00    0.32659   0.48130    0.075
 3833.00    0.36374   0.49059    0.075
 3834.00    0.39516   0.50387    0.074
 3835.00    0.35526   0.51985    0.074
 3836.00    0.31997   0.53865    0.075
 3837.00    0.32355   0.55850    0.078
 3838.00    0.33490   0.57902    0.080
 3839.00    0.39505   0.59903    0.077
 3840.00    0.44105   0.61763    0.075
 3841.00    0.41712   0.63410    0.074
 3842.00    0.40403   0.64780    0.074
 3843.00    0.43430   0.65901    0.075
 3844.00    0.47480   0.66715    0.076
 3845.00    0.54931   0.67261    0.078
 3846.00    0.59589   0.67535    0.080
 3847.00    0.56405   0.67602    0.000
 3848.00    0.53415   0.67464    0.000
 3849.00    0.50890   0.67238    0.000
 3850.00    0.48245   0.66905    0.000
 3851.00    0.45350   0.66553    0.000
 3852.00    0.44964   0.66247    0.000
 3853.00    0.49103   0.66060    0.000
 3854.00    0.48893   0.66011    0.000
 3855.00    0.41824   0.66082    0.000
 3856.00    0.37282   0.66286    0.000
 3857.00    0.36236   0.66574    0.000
 3858.00    0.38355   0.66929    0.000
 3859.00    0.44328   0.67285    0.000
 3860.00    0.48474   0.67572    0.000
 3861.00    0.50658   0.67783    0.000
 3862.00    0.51745   0.67827    0.000
 3863.00    0.51795   0.67789    0.000
 3864.00    0.50068   0.67595    0.000
 3865.00    0.46858   0.67379    0.000
 3866.00    0.47689   0.67070    0.000
 3867.00    0.51493   0.66779    0.000
 3868.00    0.50339   0.66422    0.000
 3869.00    0.45983   0.66110    0.000
 3870.00    0.42997   0.65754    0.000
 3871.00    0.40786   0.65414    0.000
 3872.00    0.43103   0.65022    0.000
 3873.00    0.47648   0.64583    0.000
 3874.00    0.49482   0.64091    0.000
 3875.00    0.50162   0.63511    0.000
 3876.00    0.51880   0.62892    0.000
 3877.00    0.53975   0.62215    0.000
 3878.00    0.51440   0.61564    0.000
 3879.00    0.47477   0.60933    0.000
 3880.00    0.45225   0.60463    0.000
 3881.00    0.43411   0.60130    0.073
 3882.00    0.45125   0.60074    0.072
 3883.00    0.47577   0.60238    0.071
 3884.00    0.48555   0.60742    0.074
 3885.00    0.49290   0.61481    0.079
 3886.00    0.48866   0.62525    0.077
 3887.00    0.48299   0.63740    0.074
 3888.00    0.50027   0.65087    0.073
 3889.00    0.51951   0.66483    0.072
 3890.00    0.54819   0.67839    0.074
 3891.00    0.57734   0.69146    0.076
 3892.00    0.56168   0.70291    0.075
 3893.00    0.54573   0.71322    0.073
 3894.00    0.55843   0.72188    0.074
 3895.00    0.57134   0.72953    0.075
 3896.00    0.58853   0.73614    0.074
 3897.00    0.60014   0.74238    0.073
 3898.00    0.54574   0.74847    0.071
 3899.00    0.49993   0.75483    0.070
 3900.00    0.52409   0.76174    0.070
 3901.00    0.55181   0.76928    0.070
 3902.00    0.60129   0.77731    0.071
 3903.00    0.63030   0.78578    0.070
 3904.00    0.56074   0.79384    0.067
 3905.00    0.51110   0.80144    0.064
 3906.00    0.53945   0.80735    0.065
 3907.00    0.56681   0.81161    0.066
 3908.00    0.59091   0.81312    0.066
 3909.00    0.61865   0.81221    0.067
 3910.00    0.65644   0.80824    0.069
 3911.00    0.69367   0.80169    0.071
 3912.00    0.72959   0.79252    0.073
 3913.00    0.75748   0.78107    0.074
 3914.00    0.76899   0.76773    0.075
 3915.00    0.75206   0.75247    0.076
 3916.00    0.68462   0.73579    0.076
 3917.00    0.64036   0.71720    0.076
 3918.00    0.63212   0.69711    0.075
 3919.00    0.65040   0.67496    0.075
 3920.00    0.70489   0.65111    0.076
 3921.00    0.70469   0.62545    0.077
 3922.00    0.63879   0.59860    0.076
 3923.00    0.58712   0.57121    0.075
 3924.00    0.55053   0.54439    0.075
 3925.00    0.53316   0.51941    0.075
 3926.00    0.53375   0.49771    0.075
 3927.00    0.52876   0.48058    0.075
 3928.00    0.51919   0.46928    0.075
 3929.00    0.47230   0.46441    0.074
 3930.00    0.39834   0.46650    0.073
 3931.00    0.36514   0.47507    0.073
 3932.00    0.35789   0.48976    0.074
 3933.00    0.36903   0.50925    0.074
 3934.00    0.39041   0.53261    0.074
 3935.00    0.39934   0.55825    0.073
 3936.00    0.40225   0.58524    0.072
 3937.00    0.45940   0.61233    0.073
 3938.00    0.53923   0.63887    0.074
 3939.00    0.57977   0.66422    0.076
 3940.00    0.60627   0.68798    0.077
 3941.00    0.58230   0.70997    0.076
 3942.00    0.54308   0.72984    0.075
 3943.00    0.51819   0.74758    0.074
 3944.00    0.49690   0.76278    0.074
 3945.00    0.55637   0.77539    0.075
 3946.00    0.63231   0.78494    0.075
 3947.00    0.63751   0.79128    0.076
 3948.00    0.63137   0.79396    0.077
 3949.00    0.65055   0.79278    0.078
 3950.00    0.67276   0.78735    0.080
 3951.00    0.69348   0.77753    0.079
 3952.00    0.71408   0.76311    0.079
 3953.00    0.74625   0.74416    0.079
 3954.00    0.77895   0.72083    0.079
 3955.00    0.74986   0.69357    0.078
 3956.00    0.72107   0.66307    0.078
 3957.00    0.74871   0.63036    0.079
 3958.00    0.76816   0.59668    0.080
 3959.00    0.63244   0.56361    0.078
 3960.00    0.50598   0.53277    0.000
 3961.00    0.48401   0.50602    0.000
 3962.00    0.46606   0.48490    0.000
 3963.00    0.47974   0.47101    0.000
 3964.00    0.48179   0.46520    0.000
 3965.00    0.41487   0.46823    0.000
 3966.00    0.36044   0.47991    0.000
 3967.00    0.36467   0.49985    0.000
 3968.00    0.38228   0.52679    0.000
 3969.00    0.45120   0.55942    0.000
 3970.00    0.49917   0.59587    0.000
 3971.00    0.48015   0.63449    0.000
 3972.00    0.45707   0.67347    0.000
 3973.00    0.42295   0.71144    0.000
 3974.00    0.44662   0.74719    0.000
 3975.00    0.60443   0.78000    0.000
 3976.00    0.72283   0.80941    0.000
 3977.00    0.76205   0.83535    0.000
 3978.00    0.80448   0.85798    0.000
 3979.00    0.85252   0.87755    0.000
 3980.00    0.88457   0.89452    0.000
 3981.00    0.89214   0.90915    0.079
 3982.00    0.89236   0.92186    0.079
 3983.00    0.88273   0.93283    0.079
 3984.00    0.87544   0.94222    0.078
 3985.00    0.87093   0.95029    0.077
 3986.00    0.90573   0.95691    0.077
 3987.00    0.98157   0.96259    0.078
 3988.00    1.02036   0.96701    0.078
 3989.00    1.02501   0.97097    0.078
 3990.00    1.03544   0.97403    0.078
 3991.00    1.05057   0.97708    0.078
 3992.00    1.01785   0.97962    0.078
 3993.00    0.95093   0.98232    0.076
 3994.00    0.87627   0.98471    0.075
 3995.00    0.79675   0.98715    0.075
 3996.00    0.79704   0.98930    0.075
 3997.00    0.84107   0.99137    0.075
 3998.00    0.87254   0.99327    0.075
 3999.00    0.89804   0.99527    0.075
 4000.00    0.96332   0.99749    0.077
 4001.00    1.04494   1.00026    0.078
 4002.00    1.10777   1.00365    0.079
 4003.00    1.16399   1.00802    0.080
 4004.00    1.11770   1.01305    0.080
 4005.00    1.04105   1.01901    0.080
 4006.00    0.98801   1.02520    0.079
 4007.00    0.94078   1.03184    0.077
 4008.00    0.93551   1.03807    0.078
 4009.00    0.93857   1.04413    0.078
 4010.00    0.98829   1.04928    0.079
 4011.00    1.04526   1.05381    0.078
 4012.00    1.03433   1.05721    0.078
 4013.00    1.01558   1.05984    0.078
 4014.00    1.00000   1.06132    0.078
 4015.00    0.98466   1.06206    0.077
 4016.00    1.03799   1.06171    0.079
 4017.00    1.09422   1.06067    0.081
 4018.00    1.02566   1.05855    0.080
 4019.00    0.95819   1.05574    0.080
 4020.00    0.98850   1.05188    0.079
 4021.00    1.01697   1.04739    0.079
 4022.00    1.01299   1.04211    0.078
 4023.00    1.00803   1.03661    0.078
 4024.00    0.99251   1.03105    0.079
 4025.00    0.98018   1.02610    0.080
 4026.00    0.99196   1.02220    0.079
 4027.00    0.99408   1.01981    0.079
 4028.00    0.94045   1.01927    0.080
 4029.00    0.89584   1.02047    0.081
 4030.00    0.89259   1.02330    0.080
 4031.00    0.89215   1.02699    0.079
 4032.00    0.90231   1.03103    0.077
 4033.00    0.92465   1.03438    0.076
 4034.00    0.98519   1.03658    0.076
 4035.00    1.02444   1.03700    0.076
 4036.00    1.00705   1.03573    0.077
 4037.00    1.00334   1.03288    0.077
 4038.00    1.03085   1.02916    0.077
 4039.00    1.04527   1.02523    0.078
 4040.00    1.03380   1.02191    0.078
 4041.00    0.99303   1.01980    0.078
 4042.00    0.90180   1.01918    0.077
 4043.00    0.85929   1.02018    0.076
 4044.00    0.89031   1.02232    0.076
 4045.00    0.89314   1.02527    0.076
 4046.00    0.85862   1.02812    0.077
 4047.00    0.87383   1.03049    0.078
 4048.00    0.94712   1.03170    0.080
 4049.00    1.02399   1.03155    0.080
 4050.00    1.10457   1.02998    0.081
 4051.00    1.11436   1.02701    0.080
 4052.00    1.05989   1.02310    0.078
 4053.00    1.03165   1.01837    0.078
 4054.00    1.02443   1.01349    0.077
 4055.00    1.00302   1.00860    0.077
 4056.00    0.97162   1.00429    0.077
 4057.00    0.98278   1.00070    0.077
 4058.00    1.02024   0.99813    0.078
 4059.00    1.03337   0.99672    0.079
 4060.00    1.03339   0.99634    0.080
 4061.00    1.00805   0.99707    0.080
 4062.00    0.97081   0.99838    0.079
 4063.00    0.93124   1.00029    0.078
 4064.00    0.89071   1.00209    0.078
 4065.00    0.93209   1.00388    0.078
 4066.00    1.00172   1.00515    0.079
 4067.00    0.97224   1.00620    0.079
 4068.00    0.91398   1.00690    0.078
 4069.00    0.90359   1.00780    0.078
 4070.00    0.90470   1.00905    0.079
 4071.00    0.90065   1.01126    0.080
 4072.00    0.89560   1.01462    0.082
 4073.00    0.94198   1.01945    0.081
 4074.00    0.99611   1.02576    0.080
 4075.00    0.94934   1.03351    0.080
 4076.00    0.89142   1.04238    0.080
 4077.00    0.84872   1.05202    0.080
 4078.00    0.80713   1.06194    0.079
 4079.00    0.88129   1.07161    0.079
 4080.00    0.95988   1.08043    0.079
 4081.00    1.00598   1.08793    0.079
 4082.00    1.05216   1.09345    0.080
 4083.00    1.10868   1.09661    0.080
 4084.00    1.15979   1.09677    0.080
 4085.00    1.12175   1.09382    0.080
 4086.00    1.08648   1.08727    0.080
 4087.00    1.07984   1.07740    0.080
 4088.00    1.06993   1.06413    0.079
 4089.00    1.03603   1.04818    0.078
 4090.00    1.01722   1.03007    0.078
 4091.00    1.08302   1.01081    0.078
 4092.00    1.13537   0.99150    0.000
 4093.00    1.12749   0.97323    0.000
 4094.00    1.11337   0.95734    0.000
 4095.00    1.07629   0.94458    0.000
 4096.00    1.02480   0.93607    0.000
 4097.00    0.92898   0.93193    0.000
 4098.00    0.85705   0.93256    0.000
 4099.00    0.84755   0.93739    0.000
 4100.00    0.83750   0.94611    0.000
 4101.00    0.82620   0.95761    0.000
 4102.00    0.84784   0.97120    0.000
 4103.00    0.93356   0.98571    0.000
 4104.00    0.98580   1.00049    0.000
 4105.00    0.98124   1.01465    0.000
 4106.00    0.98415   1.02781    0.000
 4107.00    0.99818   1.03955    0.000
 4108.00    1.02194   1.04965    0.000
 4109.00    1.05840   1.05814    0.000
 4110.00    1.06997   1.06489    0.000
 4111.00    1.05289   1.07016    0.000
 4112.00    1.04081   1.07395    0.000
 4113.00    1.03379   1.07653    0.075
 4114.00    1.05511   1.07808    0.076
 4115.00    1.10179   1.07865    0.076
 4116.00    1.11442   1.07865    0.077
 4117.00    1.10018   1.07772    0.077
 4118.00    1.06832   1.07644    0.076
 4119.00    1.02425   1.07421    0.075
 4120.00    1.00595   1.07168    0.074
 4121.00    1.00332   1.06832    0.075
 4122.00    1.04060   1.06478    0.075
 4123.00    1.09909   1.06097    0.077
 4124.00    1.11467   1.05729    0.077
 4125.00    1.11047   1.05429    0.078
 4126.00    1.09288   1.05179    0.078
 4127.00    1.06996   1.05080    0.079
 4128.00    1.00655   1.05037    0.078
 4129.00    0.92943   1.05154    0.076
 4130.00    0.97299   1.05288    0.076
 4131.00    1.05087   1.05496    0.077
 4132.00    1.06112   1.05657    0.076
 4133.00    1.05548   1.05771    0.075
 4134.00    1.00589   1.05798    0.075
 4135.00    0.94800   1.05707    0.076
 4136.00    1.00886   1.05552    0.077
 4137.00    1.08706   1.05298    0.079
 4138.00    1.11044   1.05051    0.079
 4139.00    1.12800   1.04781    0.079
 4140.00    1.09182   1.04586    0.078
 4141.00    1.05193   1.04430    0.076
 4142.00    1.08595   1.04378    0.078
 4143.00    1.12252   1.04378    0.081
 4144.00    1.06374   1.04465    0.080
 4145.00    1.00703   1.04599    0.079
 4146.00    1.02476   1.04788    0.080
 4147.00    1.03931   1.05040    0.080
 4148.00    1.00487   1.05325    0.079
 4149.00    0.98084   1.05708    0.077
 4150.00    1.05955   1.06116    0.078
 4151.00    1.11638   1.06636    0.079
 4152.00    1.01786   1.07161    0.078
 4153.00    0.93879   1.07757    0.078
 4154.00    0.96591   1.08316    0.078
 4155.00    0.99491   1.08847    0.078
 4156.00    1.03209   1.09285    0.078
 4157.00    1.04631   1.09584    0.078
 4158.00    0.97800   1.09740    0.077
 4159.00    0.93784   1.09687    0.077
 4160.00    0.98267   1.09474    0.075
 4161.00    1.03326   1.09052    0.074
 4162.00    1.09864   1.08500    0.076
 4163.00    1.13658   1.07805    0.077
 4164.00    1.11394   1.07050    0.077
 4165.00    1.08816   1.06260    0.076
 4166.00    1.05638   1.05499    0.075
 4167.00    1.02135   1.04817    0.075
 4168.00    0.98087   1.04247    0.075
 4169.00    0.96838   1.03830    0.075
 4170.00    0.99691   1.03572    0.074
 4171.00    1.01945   1.03484    0.074
 4172.00    1.03431   1.03559    0.075
 4173.00    1.01918   1.03762    0.076
 4174.00    0.97003   1.04077    0.077
 4175.00    0.97868   1.04462    0.078
 4176.00    1.04516   1.04887    0.077
 4177.00    1.08297   1.05334    0.077
 4178.00    1.09544   1.05751    0.077
 4179.00    1.10062   1.06167    0.076
 4180.00    1.10011   1.06514    0.074
 4181.00    1.06346   1.06841    0.074
 4182.00    1.00210   1.07093    0.074
 4183.00    0.97361   1.07290    0.073
 4184.00    0.96483   1.07414    0.073
 4185.00    1.00695   1.07441    0.073
 4186.00    1.07571   1.07387    0.074
 4187.00    1.13277   1.07199    0.074
 4188.00    1.18452   1.06939    0.074
 4189.00    1.21657   1.06561    0.075
 4190.00    1.24093   1.06140    0.075
 4191.00    1.19373   1.05689    0.075
 4192.00    1.12277   1.05265    0.074
 4193.00    1.06646   1.04936    0.073
 4194.00    1.01424   1.04719    0.073
 4195.00    0.99051   1.04697    0.073
 4196.00    0.97330   1.04849    0.073
 4197.00    0.96397   1.05235    0.073
 4198.00    0.95609   1.05773    0.074
 4199.00    0.97845   1.06487    0.073
 4200.00    1.00508   1.07266    0.072
 4201.00    1.03523   1.08113    0.072
 4202.00    1.06573   1.08935    0.072
 4203.00    1.04398   1.09698    0.071
 4204.00    1.01882   1.10369    0.071
 4205.00    1.05731   1.10909    0.071
 4206.00    1.09774   1.11342    0.071
 4207.00    1.13152   1.11618    0.072
 4208.00    1.16280   1.11818    0.074
 4209.00    1.12097   1.11856    0.073
 4210.00    1.08391   1.11827    0.072
 4211.00    1.11621   1.11621    0.072
 4212.00    1.14267   1.11318    0.072
 4213.00    1.11392   1.10816    0.073
 4214.00    1.08979   1.10162    0.073
 4215.00    1.09742   1.09355    0.073
 4216.00    1.11568   1.08385    0.072
 4217.00    1.19044   1.07337    0.073
 4218.00    1.24541   1.06225    0.073
 4219.00    1.21589   1.05208    0.074
 4220.00    1.16672   1.04287    0.074
 4221.00    1.04837   1.03642    0.072
 4222.00    0.94814   1.03246    0.072
 4223.00    0.90159   1.03162    0.072
 4224.00    0.88093   1.03391    0.072
 4225.00    0.92563   1.03863    0.072
 4226.00    0.97812   1.04566    0.072
 4227.00    1.04755   1.05359    0.073
 4228.00    1.11238   1.06295    0.073
 4229.00    1.16851   1.07188    0.073
 4230.00    1.17813   1.08118    0.072
 4231.00    1.11118   1.09001    0.070
 4232.00    1.08450   1.09858    0.070
 4233.00    1.11597   1.10666    0.071
 4234.00    1.12862   1.11392    0.072
 4235.00    1.11739   1.12083    0.072
 4236.00    1.12260   1.12633    0.071
 4237.00    1.14622   1.13088    0.070
 4238.00    1.17069   1.13367    0.070
 4239.00    1.19600   1.13502    0.071
 4240.00    1.16571   1.13447    0.071
 4241.00    1.08705   1.13222    0.069
 4242.00    1.11207   1.12865    0.069
 4243.00    1.21659   1.12387    0.071
 4244.00    1.21693   1.11893    0.071
 4245.00    1.14707   1.11366    0.071
 4246.00    1.12061   1.10925    0.072
 4247.00    1.11977   1.10503    0.074
 4248.00    1.13711   1.10230    0.075
 4249.00    1.16382   1.10050    0.077
 4250.00    1.17543   1.10044    0.077
 4251.00    1.18031   1.10173    0.076
 4252.00    1.17539   1.10428    0.076
 4253.00    1.16672   1.10792    0.076
 4254.00    1.12221   1.11193    0.074
 4255.00    1.06602   1.11693    0.072
 4256.00    1.04035   1.12092    0.071
 4257.00    1.02301   1.12495    0.071
 4258.00    1.07594   1.12710    0.072
 4259.00    1.14462   1.12797    0.074
 4260.00    1.19013   1.12601    0.074
 4261.00    1.23150   1.12220    0.074
 4262.00    1.18017   1.11687    0.074
 4263.00    1.11617   1.10928    0.074
 4264.00    1.18902   1.10124    0.074
 4265.00    1.27524   1.09298    0.074
 4266.00    1.21542   1.08614    0.074
 4267.00    1.14667   1.08044    0.073
 4268.00    1.11073   1.07721    0.072
 4269.00    1.07537   1.07557    0.072
 4270.00    0.97935   1.07694    0.072
 4271.00    0.88702   1.07984    0.072
 4272.00    0.89221   1.08432    0.072
 4273.00    0.90480   1.08934    0.073
 4274.00    1.01901   1.09351    0.074
 4275.00    1.12452   1.09720    0.075
 4276.00    1.15106   1.09895    0.074
 4277.00    1.17354   1.09937    0.073
 4278.00    1.16899   1.09672    0.073
 4279.00    1.17090   1.09304    0.074
 4280.00    1.20618   1.08748    0.074
 4281.00    1.22960   1.08104    0.073
 4282.00    1.20353   1.07432   -2.000
 4283.00    1.14941   1.06624   -2.000
 4284.00    0.99846   1.05900   -2.000
 4285.00    0.90827   1.05052   -2.000
 4286.00    0.99471   1.04258   -2.000
 4287.00    1.08535   1.03376   -2.000
 4288.00    1.18643   1.02420   -2.000
 4289.00    1.23692   1.01387   -2.000
 4290.00    1.17925   1.00231   -2.000
 4291.00    1.12186   0.99009   -2.000
 4292.00    1.06500   0.97670   -2.000
 4293.00    1.02344   0.96356   -2.000
 4294.00    1.00671   0.94956   -2.000
 4295.00    1.02096   0.93679   -2.000
 4296.00    1.07931   0.92458   -2.000
 4297.00    1.07294   0.91432   -2.000
 4298.00    0.98557   0.90661    0.072
 4299.00    0.92679   0.90148    0.072
 4300.00    0.89952   0.90071    0.072
 4301.00    0.91635   0.90348    0.072
 4302.00    0.97608   0.91155    0.072
 4303.00    0.95161   0.92342    0.071
 4304.00    0.85490   0.94058    0.070
 4305.00    0.84904   0.96194    0.070
 4306.00    0.91182   0.98692    0.071
 4307.00    0.94350   1.01569    0.071
 4308.00    0.95453   1.04495    0.071
 4309.00    0.98251   1.07494    0.072
 4310.00    1.02036   1.10245    0.073
 4311.00    1.06822   1.12863    0.072
 4312.00    1.12116   1.14904    0.070
 4313.00    1.16821   1.16653    0.070
 4314.00    1.21268   1.17714    0.070
 4315.00    1.28430   1.18364    0.070
 4316.00    1.36616   1.18583    0.071
 4317.00    1.39120   1.18503    0.072
 4318.00    1.39808   1.18417    0.072
 4319.00    1.39205   1.18173    0.073
 4320.00    1.38257   1.18082    0.073
 4321.00    1.31781   1.17914    0.073
 4322.00    1.24095   1.17998    0.073
 4323.00    1.21151   1.18155    0.073
 4324.00    1.19032   1.18373    0.073
 4325.00    1.22634   1.18563    0.074
 4326.00    1.26993   1.18610    0.074
 4327.00    1.32165   1.18486    0.074
 4328.00    1.37412   1.17902    0.074
 4329.00    1.36187   1.17136    0.074
 4330.00    1.34592   1.16128    0.000
 4331.00    1.30100   1.14919    0.000
 4332.00    1.25628   1.13760    0.000
 4333.00    1.31120   1.12768    0.000
 4334.00    1.36322   1.11946    0.000
 4335.00    1.34536   1.11333    0.000
 4336.00    1.32923   1.11234    0.000
 4337.00    1.33550   1.11433    0.000
 4338.00    1.33511   1.12007    0.000
 4339.00    1.27648   1.12903    0.000
 4340.00    1.23695   1.14062    0.000
 4341.00    1.32069   1.15270    0.000
 4342.00    1.38302   1.16384    0.000
 4343.00    1.33728   1.17511    0.000
 4344.00    1.29385   1.18631    0.000
 4345.00    1.25982   1.19682    0.000
 4346.00    1.24134   1.20617    0.000
 4347.00    1.27546   1.21525    0.000
 4348.00    1.28559   1.22371    0.000
 4349.00    1.22728   1.23200    0.000
 4350.00    1.20497   1.23988    0.000
 4351.00    1.27042   1.24879    0.074
 4352.00    1.30240   1.25807    0.074
 4353.00    1.26396   1.26783    0.074
 4354.00    1.25573   1.27688    0.075
 4355.00    1.30272   1.28569    0.075
 4356.00    1.34684   1.29360    0.075
 4357.00    1.38637   1.29990    0.075
 4358.00    1.41861   1.30440    0.075
 4359.00    1.44064   1.30628    0.074
 4360.00    1.45128   1.30676    0.074
 4361.00    1.44789   1.30451    0.075
 4362.00    1.43950   1.30109    0.075
 4363.00    1.42567   1.29552    0.076
 4364.00    1.42840   1.28873    0.076
 4365.00    1.44703   1.28070    0.076
 4366.00    1.45337   1.27181    0.076
 4367.00    1.44933   1.26270    0.076
 4368.00    1.41897   1.25381    0.075
 4369.00    1.36901   1.24520    0.075
 4370.00    1.37251   1.23639    0.075
 4371.00    1.41098   1.22696    0.076
 4372.00    1.40516   1.21729    0.076
 4373.00    1.37397   1.20699    0.076
 4374.00    1.35457   1.19564    0.076
 4375.00    1.34105   1.18483    0.077
 4376.00    1.32519   1.17409    0.076
 4377.00    1.30832   1.16604    0.076
 4378.00    1.26482   1.15980    0.076
 4379.00    1.21145   1.15669    0.076
 4380.00    1.16472   1.15566    0.076
 4381.00    1.12006   1.15702    0.075
 4382.00    1.16296   1.16144    0.075
 4383.00    1.22877   1.16785    0.076
 4384.00    1.18095   1.17674    0.074
 4385.00    1.10886   1.18694    0.072
 4386.00    1.15231   1.19797    0.072
 4387.00    1.21531   1.20860    0.073
 4388.00    1.29566   1.21918    0.073
 4389.00    1.37822   1.22923    0.073
 4390.00    1.38775   1.23820    0.074
 4391.00    1.39076   1.24356    0.075
 4392.00    1.33805   1.24693    0.074
 4393.00    1.28236   1.24823    0.073
 4394.00    1.39902   1.24791    0.075
 4395.00    1.51718   1.24696    0.077
 4396.00    1.48374   1.24452    0.075
 4397.00    1.45050   1.24102    0.073
 4398.00    1.42169   1.23789    0.075
 4399.00    1.39372   1.23754    0.076
 4400.00    1.37616   1.23825    0.075
 4401.00    1.35998   1.24027    0.074
 4402.00    1.35535   1.24428    0.074
 4403.00    1.34381   1.25050    0.075
 4404.00    1.28891   1.25760    0.074
 4405.00    1.24941   1.26507    0.073
 4406.00    1.28557   1.27333    0.074
 4407.00    1.32402   1.28061    0.075
 4408.00    1.37164   1.28618    0.075
 4409.00    1.40800   1.29356    0.075
 4410.00    1.40707   1.30107    0.074
 4411.00    1.42104   1.30737    0.073
 4412.00    1.47673   1.31311    0.074
 4413.00    1.50382   1.31738    0.074
 4414.00    1.46234   1.32101    0.074
 4415.00    1.43872   1.32297    0.074
 4416.00    1.45209   1.32458    0.074
 4417.00    1.45904   1.32662    0.074
 4418.00    1.45445   1.32703    0.075
 4419.00    1.46137   1.32698    0.074
 4420.00    1.48639   1.32679    0.073
 4421.00    1.48799   1.32660    0.073
 4422.00    1.45720   1.32634    0.072
 4423.00    1.43413   1.32384    0.072
 4424.00    1.42046   1.32284    0.072
 4425.00    1.42908   1.32219    0.072
 4426.00    1.46159   1.32085    0.073
 4427.00    1.49965   1.31993    0.074
 4428.00    1.54296   1.31949    0.074
 4429.00    1.54330   1.32118    0.074
 4430.00    1.50781   1.32462    0.074
 4431.00    1.49643   1.32832    0.074
 4432.00    1.50276   1.33287    0.074
 4433.00    1.49816   1.33673    0.074
 4434.00    1.48652   1.34020    0.074
 4435.00    1.47222   1.34372    0.074
 4436.00    1.45642   1.34802    0.073
 4437.00    1.46050   1.35279    0.074
 4438.00    1.47434   1.35764    0.075
 4439.00    1.49101   1.36202    0.076
 4440.00    1.50888   1.36387    0.076
 4441.00    1.52515   1.36586    0.076
 4442.00    1.54084   1.36630    0.075
 4443.00    1.53151   1.36325    0.075
 4444.00    1.51449   1.35988    0.074
 4445.00    1.57146   1.35453    0.075
 4446.00    1.64737   1.34735    0.075
 4447.00    1.64852   1.33895    0.075
 4448.00    1.63408   1.32888    0.074
 4449.00    1.60036   1.32080    0.074
 4450.00    1.56347   1.31225    0.074
 4451.00    1.57781   1.30483    0.074
 4452.00    1.59846   1.29816    0.073
 4453.00    1.50723   1.29419    0.072
 4454.00    1.40648   1.29195    0.070
 4455.00    1.43245   1.29100    0.070
 4456.00    1.46467   1.29553    0.071
 4457.00    1.42198   1.30009    0.071
 4458.00    1.37932   1.30695    0.071
 4459.00    1.41275   1.31510    0.071
 4460.00    1.44332   1.32438    0.072
 4461.00    1.41586   1.33548    0.000
 4462.00    1.39062   1.34537    0.000
 4463.00    1.39162   1.35730    0.000
 4464.00    1.40119   1.36854    0.000
 4465.00    1.48025   1.38067    0.000
 4466.00    1.54961   1.39221    0.000
 4467.00    1.55984   1.40339    0.000
 4468.00    1.56930   1.41306    0.000
 4469.00    1.57502   1.42109    0.000
 4470.00    1.58013   1.42876    0.000
 4471.00    1.58284   1.43419    0.000
 4472.00    1.59346   1.43812    0.000
 4473.00    1.62981   1.43935    0.000
 4474.00    1.66230   1.44024    0.000
 4475.00    1.68414   1.44007    0.000
 4476.00    1.69155   1.44097    0.000
 4477.00    1.66494   1.44139    0.000
 4478.00    1.63897   1.44136    0.000
 4479.00    1.61432   1.44159    0.000
 4480.00    1.57748   1.44048    0.000
 4481.00    1.51903   1.43950    0.000
 4482.00    1.50233   1.43746    0.071
 4483.00    1.55038   1.43592    0.071
 4484.00    1.60211   1.43526    0.071
 4485.00    1.65886   1.43502    0.071
 4486.00    1.67120   1.43624    0.071
 4487.00    1.63028   1.43643    0.071
 4488.00    1.62081   1.43859    0.071
 4489.00    1.64460   1.44105    0.071
 4490.00    1.64425   1.44547    0.071
 4491.00    1.62140   1.45243    0.071
 4492.00    1.59286   1.45983    0.071
 4493.00    1.55964   1.46974    0.070
 4494.00    1.55880   1.47877    0.070
 4495.00    1.58138   1.48956    0.070
 4496.00    1.59562   1.50047    0.070
 4497.00    1.60455   1.51062    0.071
 4498.00    1.62468   1.52074    0.071
 4499.00    1.65101   1.52859    0.071
 4500.00    1.65215   1.53519    0.071
 4501.00    1.64111   1.53958    0.070
 4502.00    1.68886   1.54230    0.070
 4503.00    1.76114   1.54338    0.071
 4504.00    1.74323   1.54253    0.070
 4505.00    1.69313   1.54047    0.069
 4506.00    1.70425   1.53660    0.069
 4507.00    1.73384   1.53184    0.069
 4508.00    1.71504   1.52591    0.069
 4509.00    1.68412   1.51983    0.070
 4510.00    1.66377   1.51326    0.070
 4511.00    1.64557   1.50599    0.071
 4512.00    1.66694   1.49930    0.071
 4513.00    1.69463   1.49063    0.072
 4514.00    1.69041   1.48322    0.071
 4515.00    1.68240   1.47340    0.071
 4516.00    1.64048   1.46337    0.070
 4517.00    1.59581   1.45253    0.070
 4518.00    1.60519   1.44042    0.070
 4519.00    1.61703   1.42915    0.069
 4520.00    1.59129   1.41682    0.069
 4521.00    1.56547   1.40578    0.069
 4522.00    1.55852   1.39543    0.069
 4523.00    1.55276   1.38875    0.069
 4524.00    1.56929   1.38256    0.069
 4525.00    1.58103   1.38075    0.070
 4526.00    1.53906   1.37935    0.070
 4527.00    1.50009   1.38135    0.069
 4528.00    1.48469   1.38504    0.069
 4529.00    1.46962   1.39012    0.069
 4530.00    1.45646   1.39885    0.069
 4531.00    1.44976   1.40677    0.069
 4532.00    1.47330   1.41823    0.069
 4533.00    1.49089   1.42640    0.069
 4534.00    1.48572   1.43412    0.069
 4535.00    1.48826   1.44017    0.069
 4536.00    1.51535   1.44504    0.070
 4537.00    1.54883   1.44983    0.070
 4538.00    1.59958   1.45207    0.070
 4539.00    1.64382   1.45423    0.070
 4540.00    1.67293   1.45345    0.070
 4541.00    1.68934   1.45392    0.070
 4542.00    1.68028   1.45270    0.070
 4543.00    1.64811   1.45234    0.070
 4544.00    1.57562   1.45242    0.070
 4545.00    1.52913   1.45299    0.070
 4546.00    1.52235   1.45664    0.070
 4547.00    1.54958   1.45878    0.070
 4548.00    1.62246   1.46333    0.070
 4549.00    1.65746   1.46781    0.070
 4550.00    1.64768   1.47412    0.000
 4551.00    1.65693   1.48096    0.000
 4552.00    1.68602   1.48888    0.000
 4553.00    1.68321   1.49686    0.000
 4554.00    1.65106   1.50312    0.000
 4555.00    1.65011   1.50949    0.000
 4556.00    1.67444   1.51404    0.000
 4557.00    1.68342   1.51798    0.000
 4558.00    1.68145   1.52055    0.000
 4559.00    1.72871   1.52328    0.000
 4560.00    1.80678   1.52616    0.000
 4561.00    1.82356   1.52842    0.000
 4562.00    1.80681   1.53128    0.000
 4563.00    1.75134   1.53285    0.000
 4564.00    1.67746   1.53275    0.000
 4565.00    1.69656   1.53264    0.000
 4566.00    1.75379   1.53107    0.000
 4567.00    1.74586   1.52935    0.000
 4568.00    1.71509   1.52999    0.000
 4569.00    1.70795   1.52841    0.000
 4570.00    1.70779   1.52522    0.000
 4571.00    1.73942   1.52185    0.000
 4572.00    1.77883   1.51739    0.000
 4573.00    1.77567   1.51304    0.000
 4574.00    1.76407   1.50774    0.000
 4575.00    1.76577   1.50464    0.000
 4576.00    1.76954   1.50161    0.000
 4577.00    1.72363   1.50027    0.000
 4578.00    1.67204   1.49945    0.000
 4579.00    1.61973   1.49777    0.000
 4580.00    1.56736   1.49848    0.000
 4581.00    1.63812   1.49812    0.000
 4582.00    1.71400   1.50012    0.000
 4583.00    1.71087   1.50189    0.000
 4584.00    1.70692   1.50341    0.000
 4585.00    1.69694   1.50448    0.000
 4586.00    1.68673   1.50358    0.000
 4587.00    1.67248   1.50370    0.000
 4588.00    1.65891   1.50309    0.000
 4589.00    1.65265   1.50364    0.000
 4590.00    1.65186   1.50377    0.000
 4591.00    1.69250   1.50398    0.000
 4592.00    1.72490   1.50596    0.000
 4593.00    1.70993   1.50630    0.000
 4594.00    1.69126   1.51023    0.000
 4595.00    1.65574   1.51292    0.000
 4596.00    1.63647   1.51717    0.000
 4597.00    1.67802   1.52413    0.000
 4598.00    1.71285   1.52967    0.000
 4599.00    1.72663   1.53739    0.000
 4600.00    1.74085   1.54371    0.000
 4601.00    1.75625   1.55197    0.000
 4602.00    1.75302   1.55970    0.000
 4603.00    1.70731   1.56824    0.000
 4604.00    1.69387   1.57595    0.000
 4605.00    1.74407   1.58171    0.000
 4606.00    1.78342   1.58625    0.000
 4607.00    1.80413   1.59047    0.000
 4608.00    1.80944   1.59412    0.000
 4609.00    1.79156   1.59742    0.000
 4610.00    1.80634   1.60190    0.000
 4611.00    1.86431   1.60277    0.000
 4612.00    1.87815   1.60489    0.000
 4613.00    1.84055   1.60602    0.000
 4614.00    1.83646   1.60550    0.000
 4615.00    1.86681   1.60598    0.000
 4616.00    1.87019   1.60760    0.000
 4617.00    1.84913   1.60740    0.000
 4618.00    1.83490   1.60605    0.000
 4619.00    1.82611   1.60619    0.000
 4620.00    1.83605   1.60413    0.000
 4621.00    1.85915   1.60100    0.000
 4622.00    1.83365   1.59892    0.000
 4623.00    1.77818   1.59641    0.000
 4624.00    1.73923   1.59189    0.000
 4625.00    1.70917   1.58704    0.000
 4626.00    1.72074   1.58378    0.000
 4627.00    1.75177   1.57859    0.000
 4628.00    1.74979   1.57099    0.000
 4629.00    1.73450   1.56610    0.000
 4630.00    1.77193   1.56063    0.000
 4631.00    1.82750   1.55490    0.000
 4632.00    1.82862   1.54854    0.000
 4633.00    1.81396   1.54234    0.000
 4634.00    1.76556   1.53689    0.000
 4635.00    1.70909   1.53012    0.000
 4636.00    1.69671   1.52689    0.000
 4637.00    1.69284   1.52375    0.000
 4638.00    1.69786   1.52022    0.000
 4639.00    1.70423   1.51721    0.000
 4640.00    1.70420   1.51503    0.000
 4641.00    1.70347   1.51330    0.000
 4642.00    1.70583   1.51197    0.000
 4643.00    1.70842   1.51405    0.000
 4644.00    1.71832   1.51702    0.000
 4645.00    1.72849   1.52123    0.000
 4646.00    1.70126   1.52662    0.000
 4647.00    1.67642   1.53150    0.000
 4648.00    1.74697   1.53776    0.000
 4649.00    1.81231   1.54108    0.000
 4650.00    1.79259   1.54520    0.000
 4651.00    1.77053   1.54926    0.000
 4652.00    1.72439   1.55229    0.000
 4653.00    1.68870   1.55639    0.000
 4654.00    1.72940   1.55626    0.000
 4655.00    1.76987   1.55407    0.000
 4656.00    1.80904   1.54923    0.000
 4657.00    1.84586   1.54395    0.000
 4658.00    1.87221   1.53850    0.000
 4659.00    1.87399   1.53331    0.000
 4660.00    1.78578   1.52906    0.000
 4661.00    1.71174   1.52323    0.000
 4662.00    1.68116   1.51720    0.000
 4663.00    1.66673   1.51392    0.000
 4664.00    1.69441   1.51489    0.000
 4665.00    1.69926   1.51646    0.000
 4666.00    1.65293   1.51967    0.000
 4667.00    1.62969   1.52278    0.000
 4668.00    1.65131   1.52524    0.000
 4669.00    1.67104   1.52831    0.000
 4670.00    1.68758   1.53151    0.000
 4671.00    1.68426   1.53744    0.000
 4672.00    1.65147   1.54126    0.000
 4673.00    1.67048   1.54338    0.000
 4674.00    1.75703   1.54520    0.000
 4675.00    1.79456   1.54554    0.000
 4676.00    1.77575   1.54677    0.000
 4677.00    1.75898   1.54797    0.000
 4678.00    1.74428   1.55071    0.000
 4679.00    1.70871   1.55254    0.000
 4680.00    1.65451   1.55349    0.000
 4681.00    1.63547   1.55529    0.000
 4682.00    1.64412   1.55633    0.000
 4683.00    1.68660   1.55815    0.000
 4684.00    1.75250   1.56026    0.000
 4685.00    1.75855   1.56212    0.000
 4686.00    1.72825   1.56184    0.000
 4687.00    1.69614   1.56173    0.000
 4688.00    1.66306   1.56160    0.000
 4689.00    1.70488   1.55992    0.000
 4690.00    1.78115   1.55859    0.000
 4691.00    1.75315   1.55557    0.000
 4692.00    1.68384   1.55269    0.000
 4693.00    1.69768   1.54745    0.000
 4694.00    1.73959   1.54299    0.000
 4695.00    1.72576   1.53990    0.000
 4696.00    1.69611   1.53576    0.000
 4697.00    1.73482   1.53269    0.000
 4698.00    1.78953   1.52944    0.000
 4699.00    1.78599   1.52964    0.000
 4700.00    1.77148   1.52987    0.000
 4701.00    1.74441   1.53155    0.000
 4702.00    1.71551   1.53353    0.000
 4703.00    1.67685   1.53653    0.000
 4704.00    1.63716   1.54146    0.000
 4705.00    1.59810   1.54685    0.000
 4706.00    1.55909   1.55640    0.000
 4707.00    1.64090   1.56472    0.000
 4708.00    1.72681   1.57308    0.000
 4709.00    1.74408   1.58055    0.000
 4710.00    1.75991   1.58737    0.000
 4711.00    1.73246   1.59652    0.000
 4712.00    1.70504   1.60397    0.000
 4713.00    1.67801   1.61127    0.000
 4714.00    1.66036   1.61718    0.000
 4715.00    1.73476   1.61961    0.000
 4716.00    1.80700   1.62070    0.000
 4717.00    1.86390   1.61888    0.000
 4718.00    1.90737   1.61716    0.000
 4719.00    1.87776   1.61497    0.000
 4720.00    1.85073   1.61119    0.000
 4721.00    1.83498   1.60724    0.000
 4722.00    1.82351   1.60101    0.000
 4723.00    1.82739   1.59581    0.000
 4724.00    1.83145   1.59073    0.000
 4725.00    1.83607   1.58795    0.000
 4726.00    1.81677   1.58696    0.000
 4727.00    1.73618   1.58689    0.000
 4728.00    1.68939   1.58886    0.000
 4729.00    1.71709   1.59003    0.000
 4730.00    1.72513   1.59366    0.000
 4731.00    1.69559   1.59704    0.000
 4732.00    1.69837   1.60127    0.000
 4733.00    1.75504   1.60797    0.000
 4734.00    1.78209   1.61368    0.000
 4735.00    1.76583   1.61892    0.000
 4736.00    1.79508   1.62383    0.000
 4737.00    1.88284   1.62866    0.000
 4738.00    1.92270   1.63313    0.000
 4739.00    1.90831   1.63637    0.000
 4740.00    1.89855   1.63939    0.000
 4741.00    1.89343   1.64248    0.000
 4742.00    1.85742   1.64265    0.000
 4743.00    1.79419   1.64265    0.000
 4744.00    1.77398   1.64156    0.000
 4745.00    1.78717   1.63986    0.000
 4746.00    1.82334   1.63730    0.000
 4747.00    1.87520   1.63275    0.000
 4748.00    1.92027   1.62924    0.000
 4749.00    1.96130   1.62364    0.000
 4750.00    1.93185   1.61868    0.000
 4751.00    1.86561   1.61268    0.000
 4752.00    1.86197   1.60649    0.000
 4753.00    1.88667   1.60137    0.000
 4754.00    1.88448   1.59520    0.000
 4755.00    1.87182   1.59091    0.000
 4756.00    1.88771   1.58570    0.000
 4757.00    1.91305   1.58238    0.000
 4758.00    1.85899   1.58045    0.000
 4759.00    1.78284   1.57902    0.000
 4760.00    1.79167   1.58006    0.000
 4761.00    1.81993   1.58051    0.073
 4762.00    1.83274   1.58406    0.072
 4763.00    1.84271   1.58824    0.071
 4764.00    1.80977   1.59403    0.070
 4765.00    1.77077   1.60137    0.069
 4766.00    1.74600   1.60585    0.070
 4767.00    1.72266   1.61224    0.070
 4768.00    1.75163   1.61731    0.070
 4769.00    1.78398   1.62240    0.069
 4770.00    1.77292   1.62737    0.069
 4771.00    1.76068   1.62967    0.069
 4772.00    1.81583   1.63233    0.069
 4773.00    1.86991   1.63121    0.070
 4774.00    1.89279   1.62976    0.070
 4775.00    1.91441   1.62995    0.069
 4776.00    1.91782   1.62715    0.069
 4777.00    1.91787   1.62549    0.069
 4778.00    1.88624   1.62335    0.068
 4779.00    1.85326   1.62118    0.068
 4780.00    1.81102   1.62177    0.067
 4781.00    1.78325   1.62056    0.067
 4782.00    1.83216   1.62237    0.067
 4783.00    1.85015   1.62546    0.067
 4784.00    1.73639   1.62822    0.066
 4785.00    1.65543   1.63341    0.066
 4786.00    1.68977   1.63725    0.066
 4787.00    1.72371   1.64248    0.066
 4788.00    1.75647   1.64664    0.067
 4789.00    1.79468   1.65034    0.068
 4790.00    1.84664   1.65514    0.067
 4791.00    1.89273   1.65821    0.068
 4792.00    1.92609   1.66113    0.068
 4793.00    1.93426   1.66218    0.068
 4794.00    1.89502   1.66198    0.068
 4795.00    1.85989   1.66070    0.067
 4796.00    1.83153   1.66110    0.066
 4797.00    1.80578   1.66105    0.066
 4798.00    1.78381   1.65970    0.067
 4799.00    1.81487   1.65965    0.068
 4800.00    1.91314   1.65825    0.068
 4801.00    1.96522   1.65805    0.068
 4802.00    1.96570   1.65790    0.068
 4803.00    1.95430   1.65885    0.068
 4804.00    1.93120   1.66178    0.068
 4805.00    1.91431   1.66348    0.068
 4806.00    1.90280   1.66594    0.068
 4807.00    1.88734   1.66873    0.068
 4808.00    1.86886   1.67089    0.069
 4809.00    1.87270   1.67439    0.068
 4810.00    1.89156   1.67623    0.067
 4811.00    1.89125   1.67822    0.066
 4812.00    1.87963   1.68025    0.066
 4813.00    1.91055   1.67789    0.066
 4814.00    1.96332   1.67699    0.066
 4815.00    1.99226   1.67654    0.066
 4816.00    2.01060   1.67497    0.067
 4817.00    1.96959   1.67253    0.067
 4818.00    1.90588   1.66741    0.067
 4819.00    1.89366   1.66381    0.067
 4820.00    1.89817   1.66127    0.066
 4821.00    1.90468   1.65760    0.067
 4822.00    1.91174   1.65474    0.067
 4823.00    1.88976   1.65246    0.067
 4824.00    1.86130   1.65026    0.067
 4825.00    1.78910   1.64801    0.066
 4826.00    1.70909   1.64499    0.066
 4827.00    1.74403   1.64499    0.066
 4828.00    1.79462   1.64420    0.066
 4829.00    1.84638   1.64162    0.067
 4830.00    1.89826   1.64051    0.067
 4831.00    1.88925   1.63963    0.067
 4832.00    1.87654   1.63989    0.067
 4833.00    1.86772   1.63695    0.067
 4834.00    1.85896   1.63473    0.066
 4835.00    1.84279   1.63478    0.066
 4836.00    1.82786   1.63362    0.066
 4837.00    1.84564   1.63233    0.066
 4838.00    1.86036   1.62819    0.066
 4839.00    1.83354   1.62517    0.065
 4840.00    1.81503   1.62214    0.065
 4841.00    1.87163   1.61652    0.065
 4842.00    1.92240   1.61167    0.065
 4843.00    1.93445   1.60427    0.066
 4844.00    1.93268   1.59391    0.067
 4845.00    1.85963   1.58025    0.067
 4846.00    1.80687   1.56538    0.066
 4847.00    1.83855   1.55398    0.066
 4848.00    1.85243   1.53979    0.000
 4849.00    1.80500   1.52193    0.000
 4850.00    1.77578   1.50266    0.000
 4851.00    1.79934   1.48223    0.000
 4852.00    1.80352   1.46806    0.000
 4853.00    1.75970   1.45669    0.000
 4854.00    1.72806   1.44638    0.000
 4855.00    1.72239   1.43909    0.000
 4856.00    1.72326   1.43038    0.000
 4857.00    1.73624   1.42718    0.000
 4858.00    1.72858   1.42893    0.000
 4859.00    1.68751   1.43615    0.000
 4860.00    1.64369   1.44637    0.000
 4861.00    1.59598   1.45223    0.000
 4862.00    1.58839   1.46151    0.000
 4863.00    1.63092   1.47223    0.000
 4864.00    1.66827   1.48655    0.000
 4865.00    1.69992   1.50168    0.000
 4866.00    1.70503   1.51227    0.000
 4867.00    1.68437   1.52389    0.000
 4868.00    1.66081   1.53393    0.000
 4869.00    1.63478   1.54639    0.000
 4870.00    1.61208   1.55766    0.000
 4871.00    1.59189   1.56572    0.000
 4872.00    1.62033   1.57371    0.000
 4873.00    1.68101   1.57818    0.000
 4874.00    1.73671   1.58467    0.000
 4875.00    1.78951   1.58951    0.068
 4876.00    1.79670   1.59076    0.068
 4877.00    1.78083   1.59361    0.067
 4878.00    1.80953   1.59386    0.068
 4879.00    1.85774   1.59592    0.068
 4880.00    1.83969   1.59842    0.068
 4881.00    1.79673   1.59845    0.067
 4882.00    1.79054   1.60303    0.068
 4883.00    1.79608   1.60629    0.069
 4884.00    1.82222   1.61307    0.069
 4885.00    1.85385   1.62361    0.069
 4886.00    1.81147   1.63092    0.068
 4887.00    1.75295   1.64094    0.068
 4888.00    1.73310   1.64943    0.068
 4889.00    1.71995   1.66034    0.068
 4890.00    1.77599   1.67327    0.069
 4891.00    1.84114   1.68233    0.070
 4892.00    1.91588   1.68969    0.070
 4893.00    1.99151   1.69421    0.071
 4894.00    2.02824   1.69855    0.071
 4895.00    2.06276   1.70275    0.071
 4896.00    1.98443   1.70476    0.071
 4897.00    1.90472   1.70427    0.070
 4898.00    1.95498   1.70333    0.071
 4899.00    2.00149   1.70055    0.072
 4900.00    1.95898   1.69596    0.070
 4901.00    1.91876   1.69235    0.069
 4902.00    1.90810   1.68806    0.069
 4903.00    1.89788   1.68424    0.069
 4904.00    1.89135   1.67852    0.069
 4905.00    1.89005   1.67018    0.069
 4906.00    1.92231   1.66353    0.069
 4907.00    1.93887   1.65797    0.069
 4908.00    1.87640   1.65172    0.069
 4909.00    1.82365   1.64447    0.069
 4910.00    1.81046   1.63561    0.070
 4911.00    1.80327   1.62852    0.070
 4912.00    1.81634   1.62426    0.069
 4913.00    1.82163   1.62086    0.068
 4914.00    1.80481   1.61931    0.067
 4915.00    1.80443   1.61693    0.067
 4916.00    1.84404   1.61723    0.068
 4917.00    1.85286   1.62128    0.069
 4918.00    1.79705   1.62722    0.069
 4919.00    1.75252   1.63565    0.068
 4920.00    1.72857   1.64155    0.067
 4921.00    1.74361   1.64834    0.067
 4922.00    1.82082   1.65570    0.067
 4923.00    1.86079   1.66240    0.067
 4924.00    1.84862   1.66985    0.067
 4925.00    1.84330   1.67297    0.067
 4926.00    1.84640   1.67554    0.067
 4927.00    1.86088   1.67877    0.066
 4928.00    1.88769   1.67986    0.065
 4929.00    1.89987   1.68032    0.065
 4930.00    1.89803   1.67910    0.065
 4931.00    1.90330   1.67972    0.066
 4932.00    1.91458   1.68449    0.065
 4933.00    1.89029   1.68890    0.066
 4934.00    1.83957   1.69173    0.066
 4935.00    1.81039   1.69475    0.066
 4936.00    1.79527   1.70022    0.064
 4937.00    1.80563   1.70892    0.064
 4938.00    1.83055   1.71773    0.064
 4939.00    1.83752   1.72294    0.064
 4940.00    1.83556   1.72717    0.000
 4941.00    1.84503   1.73203    0.000
 4942.00    1.85942   1.73422    0.000
 4943.00    1.86059   1.73619    0.000
 4944.00    1.85686   1.73462    0.000
 4945.00    1.89958   1.73159    0.000
 4946.00    1.95683   1.72955    0.000
 4947.00    1.98233   1.72172    0.000
 4948.00    1.99955   1.71564    0.000
 4949.00    1.98714   1.70711    0.000
 4950.00    1.96842   1.69934    0.000
 4951.00    1.94325   1.69721    0.000
 4952.00    1.91700   1.68973    0.000
 4953.00    1.87757   1.68509    0.000
 4954.00    1.83647   1.67873    0.000
 4955.00    1.83136   1.67425    0.000
 4956.00    1.82945   1.67829    0.000
 4957.00    1.82371   1.67702    0.000
 4958.00    1.81777   1.67609    0.000
 4959.00    1.83603   1.67564    0.000
 4960.00    1.85446   1.67491    0.000
 4961.00    1.85068   1.68045    0.000
 4962.00    1.84809   1.68143    0.000
 4963.00    1.87145   1.68047    0.000
 4964.00    1.89187   1.68268    0.000
 4965.00    1.87616   1.68118    0.000
 4966.00    1.86249   1.68218    0.000
 4967.00    1.86590   1.68055    0.000
 4968.00    1.86797   1.67538    0.000
 4969.00    1.86163   1.67321    0.000
 4970.00    1.85607   1.66630    0.000
 4971.00    1.85436   1.66074    0.000
 4972.00    1.86683   1.65510    0.000
 4973.00    1.93579   1.64591    0.000
 4974.00    1.97893   1.63968    0.000
 4975.00    1.93661   1.63151    0.000
 4976.00    1.89950   1.62618    0.000
 4977.00    1.87692   1.62403    0.000
 4978.00    1.84271   1.61946    0.000
 4979.00    1.78069   1.61895    0.000
 4980.00    1.73765   1.61838    0.000
 4981.00    1.73382   1.61894    0.000
 4982.00    1.72260   1.62427    0.000
 4983.00    1.69813   1.62583    0.000
 4984.00    1.68740   1.63030    0.000
 4985.00    1.69828   1.63444    0.000
 4986.00    1.74619   1.63371    0.000
 4987.00    1.84518   1.63757    0.000
 4988.00    1.87311   1.63737    0.000
 4989.00    1.81478   1.63684    0.000
 4990.00    1.78561   1.63727    0.000
 4991.00    1.78768   1.62995    0.000
 4992.00    1.76478   1.62579    0.000
 4993.00    1.71832   1.62096    0.000
 4994.00    1.75453   1.61419    0.000
 4995.00    1.85955   1.61075    0.000
 4996.00    1.89060   1.60180    0.000
 4997.00    1.86745   1.59363    0.000
 4998.00    1.83039   1.58788    0.000
 4999.00    1.78438   1.58091    0.000
 5000.00    1.71605   1.57853    0.000
 5001.00    1.63514   1.57298    0.000
 5002.00    1.65526   1.56640    0.000
 5003.00    1.72488   1.56325    0.000
 5004.00    1.81250   1.55793    0.000
 5005.00    1.90776   1.55738    0.000
 5006.00    1.93397   1.55592    0.000
 5007.00    1.93513   1.55307    0.000
 5008.00    1.88146   1.55445    0.000
 5009.00    1.81096   1.55151    0.000
 5010.00    1.76132   1.55286    0.000
 5011.00    1.71702   1.55757    0.000
 5012.00    1.70319   1.56021    0.000
 5013.00    1.69570   1.56713    0.000
 5014.00    1.70589   1.56866    0.000
 5015.00    1.71897   1.57327    0.000
 5016.00    1.74491   1.58464    0.000
 5017.00    1.77242   1.59063    0.000
 5018.00    1.71461   1.59936    0.000
 5019.00    1.64958   1.60418    0.000
 5020.00    1.68234   1.60937    0.000
 5021.00    1.71988   1.62161    0.000
 5022.00    1.68358   1.62493    0.000
 5023.00    1.64759   1.62770    0.000
 5024.00    1.69950   1.63182    0.000
 5025.00    1.74906   1.63280    0.000
 5026.00    1.75171   1.63692    0.000
 5027.00    1.75317   1.63347    0.000
 5028.00    1.74071   1.62591    0.000
 5029.00    1.73238   1.62701    0.064
 5030.00    1.75738   1.62513    0.064
 5031.00    1.78256   1.62068    0.064
 5032.00    1.80877   1.61590    0.064
 5033.00    1.82650   1.60704    0.064
 5034.00    1.80367   1.60984    0.064
 5035.00    1.78128   1.61360    0.063
 5036.00    1.76059   1.61099    0.063
 5037.00    1.74635   1.61360    0.063
 5038.00    1.75305   1.61423    0.063
 5039.00    1.74888   1.62098    0.063
 5040.00    1.71487   1.63048    0.062
 5041.00    1.69668   1.63334    0.062
 5042.00    1.71568   1.64108    0.061
 5043.00    1.74664   1.64809    0.061
 5044.00    1.80189   1.65459    0.062
 5045.00    1.83344   1.66404    0.062
 5046.00    1.82306   1.66873    0.062
 5047.00    1.80050   1.67593    0.062
 5048.00    1.75909   1.68357    0.063
 5049.00    1.75264   1.68777    0.063
 5050.00    1.79374   1.69467    0.063
 5051.00    1.81910   1.69652    0.063
 5052.00    1.82561   1.69822    0.063
 5053.00    1.82112   1.70278    0.063
 5054.00    1.80503   1.70193    0.063
 5055.00    1.80855   1.70188    0.063
 5056.00    1.83032   1.69711    0.063
 5057.00    1.86347   1.69141    0.063
 5058.00    1.90596   1.69146    0.063
 5059.00    1.90821   1.68551    0.063
 5060.00    1.88140   1.67948    0.063
 5061.00    1.85351   1.67228    0.063
 5062.00    1.82492   1.66522    0.063
 5063.00    1.79395   1.66292    0.062
 5064.00    1.76166   1.65590    0.062
 5065.00    1.72233   1.65031    0.062
 5066.00    1.67961   1.64462    0.063
 5067.00    1.69753   1.63834    0.063
 5068.00    1.74069   1.63536    0.064
 5069.00    1.77845   1.63076    0.064
 5070.00    1.81429   1.62762    0.064
 5071.00    1.81425   1.62211    0.065
 5072.00    1.80341   1.61739    0.065
 5073.00    1.77127   1.61811    0.065
 5074.00    1.73381   1.61892    0.065
 5075.00    1.72030   1.61948    0.065
 5076.00    1.71165   1.61902    0.064
 5077.00    1.71894   1.62136    0.065
 5078.00    1.72877   1.62810    0.066
 5079.00    1.70317   1.63444    0.065
 5080.00    1.67337   1.63931    0.064
 5081.00    1.67265   1.64453    0.064
 5082.00    1.67427   1.65089    0.064
 5083.00    1.65889   1.65680    0.064
 5084.00    1.64274   1.66189    0.064
 5085.00    1.70984   1.66528    0.063
 5086.00    1.77683   1.66681    0.062
 5087.00    1.78941   1.66823    0.063
 5088.00    1.80144   1.66769    0.063
 5089.00    1.80312   1.66653    0.063
 5090.00    1.80306   1.66452    0.063
 5091.00    1.78371   1.65891    0.064
 5092.00    1.76828   1.65601    0.065
 5093.00    1.78340   1.65417    0.065
 5094.00    1.79369   1.64967    0.065
 5095.00    1.77546   1.64614    0.065
 5096.00    1.75594   1.64104    0.064
 5097.00    1.73037   1.63872    0.063
 5098.00    1.71501   1.64109    0.063
 5099.00    1.73856   1.63873    0.063
 5100.00    1.74919   1.63760    0.062
 5101.00    1.71870   1.63987    0.061
 5102.00    1.70168   1.63940    0.061
 5103.00    1.72099   1.64450    0.061
 5104.00    1.71958   1.64818    0.062
 5105.00    1.67025   1.64893    0.063
 5106.00    1.65036   1.65549    0.063
 5107.00    1.68937   1.65643    0.061
 5108.00    1.72805   1.65880    0.061
 5109.00    1.76614   1.66455    0.061
 5110.00    1.77258   1.66279    0.062
 5111.00    1.73075   1.66324    0.062
 5112.00    1.71686   1.66159    0.062
 5113.00    1.74043   1.65670    0.063
 5114.00    1.77872   1.65614    0.063
 5115.00    1.83439   1.64976    0.064
 5116.00    1.85207   1.64211    0.064
 5117.00    1.83022   1.63793    0.064
 5118.00    1.81378   1.63142    0.064
 5119.00    1.80229   1.62780    0.064
 5120.00    1.79469   1.62261    0.063
 5121.00    1.79024   1.61570    0.063
 5122.00    1.76067   1.61582    0.062
 5123.00    1.71323   1.61500    0.061
 5124.00    1.66414   1.61417    0.060
 5125.00    1.61401   1.61436    0.059
 5126.00    1.61340   1.61057    0.060
 5127.00    1.63983   1.61434    0.061
 5128.00    1.67518   1.61676    0.062
 5129.00    1.71477   1.61395    0.063
 5130.00    1.63746   1.61499    0.062
 5131.00    1.51231   1.61004    0.061
 5132.00    1.55117   1.61178    0.061
 5133.00    1.64737   1.61464    0.061
 5134.00    1.68710   1.60568    0.062
 5135.00    1.71018   1.60403    0.063
 5136.00    1.73019   1.60232    0.063
 5137.00    1.74944   1.60045    0.063
 5138.00    1.75850   1.60340    0.063
 5139.00    1.76555   1.59657    0.064
 5140.00    1.76693   1.59389    0.064
 5141.00    1.76744   1.59973    0.063
 5142.00    1.71512   1.59986    0.063
 5143.00    1.65679   1.60012    0.063
 5144.00    1.67858   1.60173    0.063
 5145.00    1.70648   1.60320    0.063
 5146.00    1.67050   1.60826    0.064
 5147.00    1.63189   1.61171    0.064
 5148.00    1.66444   1.61131    0.063
 5149.00    1.69537   1.61286    0.062
 5150.00    1.63390   1.61327    0.063
 5151.00    1.57709   1.60788    0.063
 5152.00    1.60083   1.60421    0.063
 5153.00    1.62577   1.59813    0.063
 5154.00    1.66332   1.58627    0.064
 5155.00    1.70269   1.57413    0.065
 5156.00    1.75565   1.55590    0.065
 5157.00    1.79453   1.53888    0.065
 5158.00    1.75277   1.52348    0.064
 5159.00    1.71178   1.49992    0.064
 5160.00    1.67425   1.48032    0.064
 5161.00    1.62610   1.46487    0.065
 5162.00    1.53832   1.45082    0.064
 5163.00    1.47453   1.43917    0.064
 5164.00    1.48561   1.42298    0.063
 5165.00    1.47849   1.41435    0.063
 5166.00    1.42319   1.41780    0.062
 5167.00    1.37855   1.42120    0.062
 5168.00    1.35819   1.42216    0.062
 5169.00    1.34006   1.42098    0.062
 5170.00    1.32636   1.42412    0.061
 5171.00    1.31764   1.43734    0.061
 5172.00    1.31748   1.44674    0.061
 5173.00    1.34702   1.45125    0.062
 5174.00    1.42121   1.45940    0.062
 5175.00    1.48554   1.46281    0.062
 5176.00    1.53686   1.46954    0.062
 5177.00    1.55950   1.48099    0.062
 5178.00    1.54877   1.48868    0.062
 5179.00    1.54693   1.49890    0.061
 5180.00    1.55421   1.50155    0.061
 5181.00    1.54143   1.50653    0.061
 5182.00    1.51051   1.52578    0.061
 5183.00    1.49394   1.53791    0.060
 5184.00    1.48880   1.54491    0.059
 5185.00    1.49854   1.55302    0.059
 5186.00    1.51873   1.56210    0.059
 5187.00    1.56159   1.57674    0.059
 5188.00    1.61840   1.58499    0.059
 5189.00    1.65461   1.58568    0.060
 5190.00    1.67976   1.59314    0.000
 5191.00    1.65014   1.60182    0.000
 5192.00    1.59496   1.60309    0.000
 5193.00    1.62040   1.60381    0.000
 5194.00    1.67827   1.60262    0.000
 5195.00    1.71089   1.60244    0.000
 5196.00    1.73485   1.60450    0.000
 5197.00    1.73446   1.59934    0.000
 5198.00    1.72704   1.59694    0.000
 5199.00    1.73042   1.59731    0.000
 5200.00    1.73638   1.59547    0.000
 5201.00    1.71254   1.59817    0.000
 5202.00    1.68296   1.59826    0.000
 5203.00    1.67308   1.60180    0.000
 5204.00    1.66615   1.61097    0.000
 5205.00    1.63468   1.61492    0.000
 5206.00    1.60052   1.62271    0.000
 5207.00    1.60946   1.63200    0.000
 5208.00    1.62151   1.63936    0.000
 5209.00    1.62332   1.64959    0.000
 5210.00    1.62475   1.65665    0.000
 5211.00    1.62977   1.66193    0.062
 5212.00    1.63685   1.66750    0.062
 5213.00    1.71828   1.66982    0.062
 5214.00    1.79335   1.67177    0.063
 5215.00    1.76520   1.67426    0.062
 5216.00    1.73920   1.67196    0.062
 5217.00    1.73511   1.67135    0.062
 5218.00    1.73213   1.67133    0.063
 5219.00    1.73718   1.66738    0.063
 5220.00    1.74771   1.67049    0.063
 5221.00    1.78878   1.67057    0.063
 5222.00    1.81640   1.66969    0.063
 5223.00    1.78418   1.67536    0.063
 5224.00    1.74476   1.67538    0.062
 5225.00    1.67901   1.68425    0.063
 5226.00    1.64859   1.69524    0.063
 5227.00    1.72634   1.69792    0.065
 5228.00    1.77696   1.70925    0.065
 5229.00    1.75699   1.71738    0.064
 5230.00    1.74761   1.72306    0.063
 5231.00    1.76188   1.73282    0.063
 5232.00    1.78233   1.73762    0.063
 5233.00    1.81473   1.74555    0.063
 5234.00    1.83864   1.75176    0.063
 5235.00    1.84819   1.75134    0.062
 5236.00    1.85131   1.75135    0.062
 5237.00    1.84493   1.75308    0.062
 5238.00    1.85566   1.75374    0.062
 5239.00    1.88867   1.74842    0.061
 5240.00    1.92959   1.74480    0.061
 5241.00    1.97956   1.74344    0.061
 5242.00    1.96474   1.74102    0.061
 5243.00    1.88439   1.73750    0.060
 5244.00    1.83439   1.72794    0.060
 5245.00    1.81145   1.72650    0.061
 5246.00    1.80055   1.72810    0.061
 5247.00    1.79910   1.71986    0.061
 5248.00    1.80514   1.71599    0.060
 5249.00    1.81637   1.71152    0.060
 5250.00    1.80614   1.70511    0.059
 5251.00    1.78290   1.70037    0.059
 5252.00    1.77231   1.68761    0.060
 5253.00    1.76840   1.67731    0.060
 5254.00    1.80011   1.66902    0.060
 5255.00    1.84817   1.65476    0.060
 5256.00    1.86987   1.64456    0.060
 5257.00    1.88114   1.63378    0.060
 5258.00    1.87106   1.61730    0.060
 5259.00    1.85378   1.60611    0.060
 5260.00    1.77898   1.60171    0.060
 5261.00    1.68790   1.59735    0.060
 5262.00    1.63984   1.59381    0.059
 5263.00    1.60183   1.59327    0.059
 5264.00    1.60199   1.59741    0.060
 5265.00    1.60931   1.60795    0.062
 5266.00    1.53359   1.61674    0.062
 5267.00    1.44585   1.62363    0.061
 5268.00    1.48662   1.64149    0.063
 5269.00    1.54091   1.66000    0.064
 5270.00    1.61970   1.67284    0.063
 5271.00    1.70015   1.69003    0.063
 5272.00    1.70471   1.70309    0.063
 5273.00    1.70672   1.71651    0.063
 5274.00    1.75956   1.73688    0.063
 5275.00    1.81103   1.75038    0.064
 5276.00    1.81704   1.76189    0.064
 5277.00    1.82311   1.77323    0.064
 5278.00    1.83012   1.78099    0.064
 5279.00    1.83851   1.79277    0.063
 5280.00    1.86047   1.80147    0.062
 5281.00    1.87755   1.80448    0.062
 5282.00    1.86026   1.81015    0.062
 5283.00    1.85146   1.81570    0.063
 5284.00    1.88867   1.81779    0.063
 5285.00    1.92134   1.81677    0.063
 5286.00    1.93427   1.81311    0.062
 5287.00    1.93496   1.81080    0.062
 5288.00    1.89181   1.81235    0.062
 5289.00    1.86700   1.81053    0.062
 5290.00    1.89726   1.80449    0.063
 5291.00    1.92385   1.80279    0.063
 5292.00    1.94102   1.80352    0.063
 5293.00    1.94249   1.80512    0.063
 5294.00    1.90942   1.80634    0.062
 5295.00    1.89333   1.80650    0.062
 5296.00    1.90962   1.81234    0.062
 5297.00    1.89668   1.82017    0.062
 5298.00    1.83509   1.82532    0.061
 5299.00    1.79431   1.83069    0.061
 5300.00    1.78391   1.83678    0.061
 5301.00    1.80516   1.84390    0.061
 5302.00    1.86703   1.84910    0.061
 5303.00    1.91760   1.85235    0.061
 5304.00    1.95539   1.85470    0.061
 5305.00    1.95812   1.85419    0.061
 5306.00    1.92590   1.85469    0.060
 5307.00    1.91667   1.85403    0.060
 5308.00    1.92766   1.84844    0.059
 5309.00    1.95073   1.84256    0.059
 5310.00    1.98316   1.83529    0.059
 5311.00    1.99111   1.82804    0.060
 5312.00    1.98239   1.82067    0.060
 5313.00    1.95983   1.80670    0.059
 5314.00    1.92902   1.79555    0.059
 5315.00    1.90893   1.79011    0.059
 5316.00    1.89443   1.77802    0.058
 5317.00    1.88543   1.76296    0.058
 5318.00    1.87893   1.75429    0.059
 5319.00    1.88701   1.74983    0.059
 5320.00    1.90075   1.74607    0.059
 5321.00    1.90996   1.73781    0.059
 5322.00    1.91768   1.73118    0.059
 5323.00    1.86462   1.73629    0.059
 5324.00    1.79470   1.73972    0.059
 5325.00    1.76651   1.73669    0.059
 5326.00    1.74783   1.73955    0.059
 5327.00    1.70575   1.74837    0.059
 5328.00    1.65940   1.75761    0.060
 5329.00    1.71155   1.75963    0.059
 5330.00    1.77751   1.76143    0.058
 5331.00    1.79868   1.77115    0.059
 5332.00    1.81534   1.77846    0.060
 5333.00    1.83274   1.78318    0.060
 5334.00    1.85019   1.78441    0.060
 5335.00    1.85072   1.78794    0.060
 5336.00    1.85063   1.79837    0.061
 5337.00    1.80355   1.79965    0.060
 5338.00    1.75944   1.80137    0.060
 5339.00    1.80022   1.81032    0.060
 5340.00    1.83898   1.81632    0.060
 5341.00    1.84895   1.82505    0.060
 5342.00    1.85904   1.82980    0.060
 5343.00    1.87034   1.83434    0.060
 5344.00    1.88166   1.84736    0.059
 5345.00    1.89303   1.85460    0.059
 5346.00    1.89731   1.85991    0.058
 5347.00    1.86416   1.86775    0.059
 5348.00    1.83575   1.87386    0.059
 5349.00    1.82751   1.88106    0.059
 5350.00    1.83000   1.88250    0.058
 5351.00    1.87011   1.88154    0.058
 5352.00    1.91933   1.88450    0.058
 5353.00    1.99535   1.88233    0.058
 5354.00    2.04618   1.87757    0.059
 5355.00    2.03366   1.87322    0.059
 5356.00    2.02866   1.86561    0.059
 5357.00    2.03992   1.85955    0.059
 5358.00    2.04881   1.85250    0.058
 5359.00    2.05320   1.84255    0.058
 5360.00    2.02850   1.83596    0.057
 5361.00    1.95608   1.83091    0.057
 5362.00    1.91569   1.82611    0.057
 5363.00    1.92139   1.82280    0.057
 5364.00    1.92164   1.82050    0.057
 5365.00    1.91499   1.81946    0.057
 5366.00    1.90148   1.82064    0.057
 5367.00    1.88032   1.82404    0.057
 5368.00    1.85550   1.82614   -2.000
 5369.00    1.82709   1.82985   -2.000
 5370.00    1.80133   1.83664   -2.000
 5371.00    1.77789   1.84035   -2.000
 5372.00    1.79991   1.84340   -2.000
 5373.00    1.85666   1.84741   -2.000
 5374.00    1.90826   1.84878   -2.000
 5375.00    1.95639   1.85001   -2.000
 5376.00    1.97886   1.85117   -2.000
 5377.00    1.98625   1.84841   -2.000
 5378.00    1.95923   1.84576   -2.000
 5379.00    1.91458   1.84372   -2.000
 5380.00    1.91274   1.83732   -2.000
 5381.00    1.92993   1.83239   -2.000
 5382.00    1.92864   1.82714   -2.000
 5383.00    1.92029   1.81700    0.059
 5384.00    1.89740   1.81167    0.058
 5385.00    1.86980   1.80541    0.058
 5386.00    1.87782   1.79409    0.058
 5387.00    1.89551   1.78833    0.058
 5388.00    1.87570   1.78222    0.058
 5389.00    1.84754   1.77487    0.058
 5390.00    1.84097   1.76916    0.058
 5391.00    1.83823   1.75994    0.057
 5392.00    1.82775   1.75628    0.058
 5393.00    1.81622   1.75518    0.059
 5394.00    1.80573   1.74707    0.058
 5395.00    1.79534   1.74356    0.057
 5396.00    1.78858   1.74534    0.058
 5397.00    1.78203   1.74418    0.058
 5398.00    1.77130   1.74261    0.058
 5399.00    1.76066   1.74322    0.057
 5400.00    1.78152   1.74642    0.057
 5401.00    1.80076   1.75131    0.057
 5402.00    1.77794   1.75647    0.057
 5403.00    1.75704   1.76146    0.056
 5404.00    1.76198   1.76879    0.056
 5405.00    1.76626   1.77997    0.056
 5406.00    1.76467   1.78752    0.055
 5407.00    1.76200   1.79366    0.055
 5408.00    1.75216   1.80497    0.055
 5409.00    1.74718   1.81267    0.055
 5410.00    1.76718   1.81858    0.055
 5411.00    1.78988   1.82709    0.054
 5412.00    1.82373   1.83018    0.054
 5413.00    1.85664   1.83506    0.055
 5414.00    1.88636   1.83991    0.055
 5415.00    1.91166   1.83544    0.055
 5416.00    1.92418   1.83773    0.055
 5417.00    1.91970   1.84022    0.054
 5418.00    1.87326   1.83179    0.054
 5419.00    1.84196   1.83182    0.054
 5420.00    1.84288   1.83058    0.054
 5421.00    1.84893   1.82391    0.054
 5422.00    1.86445   1.82506    0.054
 5423.00    1.86835   1.81889    0.054
 5424.00    1.85349   1.81590    0.055
 5425.00    1.84037   1.82201    0.055
 5426.00    1.82974   1.81679    0.054
 5427.00    1.81236   1.81626    0.054
 5428.00    1.78655   1.82309    0.054
 5429.00    1.78225   1.82342    0.054
 5430.00    1.80159   1.82690    0.054
 5431.00    1.80210   1.83107    0.055
 5432.00    1.78434   1.83268    0.055
 5433.00    1.80756   1.83711    0.056
 5434.00    1.86581   1.84088    0.056
 5435.00    1.88353   1.84163    0.056
 5436.00    1.87071   1.84341    0.056
 5437.00    1.87465   1.84473    0.056
 5438.00    1.88968   1.84189    0.056
 5439.00    1.90549   1.84116    0.057
 5440.00    1.92175   1.83871    0.058
 5441.00    1.90224   1.83136    0.057
 5442.00    1.86466   1.83159    0.056
 5443.00    1.85616   1.83033    0.056
 5444.00    1.86037   1.82405    0.057
 5445.00    1.85401   1.82414    0.056
 5446.00    1.84368   1.82106    0.055
 5447.00    1.86215   1.81855    0.055
 5448.00    1.88977   1.81943    0.055
 5449.00    1.89726   1.81303    0.055
 5450.00    1.89941   1.81377    0.055
 5451.00    1.89134   1.81853    0.055
 5452.00    1.88103   1.81447    0.056
 5453.00    1.86914   1.81578    0.055
 5454.00    1.85697   1.81856    0.055
 5455.00    1.86933   1.81822    0.055
 5456.00    1.88490   1.81915    0.056
 5457.00    1.86849   1.81642    0.055
 5458.00    1.84913   1.81788    0.054
 5459.00    1.86085   1.81930    0.053
 5460.00    1.87432   1.81451    0.052
 5461.00    1.87294   1.81462    0.053
 5462.00    1.87128   1.81380    0.054
 5463.00    1.87544   1.80982    0.053
 5464.00    1.88018   1.80707    0.052
 5465.00    1.89857   1.80400    0.053
 5466.00    1.91358   1.80311    0.053
 5467.00    1.88515   1.79737    0.053
 5468.00    1.85779   1.79331    0.053
 5469.00    1.83976   1.79666    0.053
 5470.00    1.82490   1.79195    0.053
 5471.00    1.83047   1.78883    0.053
 5472.00    1.83843   1.79404    0.054
 5473.00    1.85838   1.79428    0.054
 5474.00    1.87535   1.79518    0.054
 5475.00    1.88020   1.79815    0.054
 5476.00    1.88223   1.80093    0.053
 5477.00    1.87480   1.80707    0.054
 5478.00    1.86064   1.81011   -2.000
 5479.00    1.82736   1.81339   -2.000
 5480.00    1.81491   1.82030   -2.000
 5481.00    1.85304   1.82219   -2.000
 5482.00    1.87495   1.82495   -2.000
 5483.00    1.86288   1.83088   -2.000
 5484.00    1.81608   1.83140   -2.000
 5485.00    1.70602   1.83372   -2.000
 5486.00    1.64820   1.83768   -2.000
 5487.00    1.67353   1.83610   -2.000
 5488.00    1.72820   1.83596   -2.000
 5489.00    1.82388   1.83756   -2.000
 5490.00    1.89901   1.83732   -2.000
 5491.00    1.94888   1.83493   -2.000
 5492.00    1.94465   1.83134   -2.000
 5493.00    1.88180   1.83277   -2.000
 5494.00    1.85457   1.83179   -2.000
 5495.00    1.86138   1.82497   -2.000
 5496.00    1.88741   1.82490   -2.000
 5497.00    1.92962   1.82385   -2.000
 5498.00    1.93239   1.81947   -2.000
 5499.00    1.90589   1.82005   -2.000
 5500.00    1.87255   1.81582   -2.000
 5501.00    1.83474   1.81466   -2.000
 5502.00    1.83080   1.81885    0.052
 5503.00    1.84619   1.81458    0.053
 5504.00    1.85240   1.81603    0.052
 5505.00    1.85406   1.82116    0.052
 5506.00    1.84800   1.81883    0.052
 5507.00    1.83864   1.82253    0.052
 5508.00    1.82348   1.82673    0.052
 5509.00    1.80619   1.82894    0.051
 5510.00    1.80707   1.83477    0.051
 5511.00    1.81362   1.83584    0.051
 5512.00    1.81265   1.83986    0.051
 5513.00    1.80973   1.84610    0.051
 5514.00    1.79360   1.84550    0.051
 5515.00    1.77465   1.84793    0.051
 5516.00    1.79797   1.85091    0.051
 5517.00    1.82839   1.85020    0.052
 5518.00    1.83715   1.85127    0.052
 5519.00    1.84315   1.85084    0.053
 5520.00    1.88426   1.85100    0.053
 5521.00    1.92846   1.85179    0.053
 5522.00    1.93939   1.84905    0.053
 5523.00    1.94858   1.84986    0.053
 5524.00    1.89489   1.85389    0.052
 5525.00    1.84041   1.85379    0.051
 5526.00    1.81467   1.85316    0.052
 5527.00    1.78983   1.85747    0.052
 5528.00    1.78423   1.86093    0.052
 5529.00    1.78197   1.86045    0.052
 5530.00    1.82050   1.86531    0.053
 5531.00    1.85497   1.87091    0.054
 5532.00    1.85550   1.87186    0.054
 5533.00    1.85974   1.87633    0.054
 5534.00    1.88708   1.88071    0.054
 5535.00    1.91112   1.88420    0.055
 5536.00    1.91905   1.88902    0.054
 5537.00    1.92135   1.88909    0.054
 5538.00    1.90124   1.89212    0.053
 5539.00    1.88777   1.89796    0.053
 5540.00    1.89626   1.89636    0.053
 5541.00    1.90075   1.89776    0.061
 5542.00    1.89411   1.90244    0.147
 5543.00    1.89230   1.90085   -1.000
 5544.00    1.90199   1.90076   -1.000
 5545.00    1.90590   1.90127   -1.000
 5546.00    1.89787   1.89908 3868.733
 5547.00    1.89300   1.89868   -1.000
 5548.00    1.89378   1.89501 3868.733
 5549.00    1.89135   1.89131    0.251
 5550.00    1.88391   1.89158    0.070
 5551.00    1.87371   1.88684    0.050
 5552.00    1.85973   1.88151    0.050
 5553.00    1.86180   1.88015    0.050
 5554.00    1.88332   1.87597    0.050
 5555.00    1.88862   1.87148    0.050
 5556.00    1.87657   1.86809    0.050
 5557.00    1.86325   1.86381    0.050
 5558.00    1.84874   1.86137    0.050
 5559.00    1.83132   1.85934    0.050
 5560.00    1.81149   1.85535    0.050
 5561.00    1.79950   1.85321    0.050
 5562.00    1.79326   1.85518    0.050
 5563.00    1.79323   1.85218    0.050
 5564.00    1.79720   1.84838    0.050
 5565.00    1.79032   1.85456    0.050
 5566.00    1.77736   1.85307    0.049
 5567.00    1.77915   1.84667    0.050
 5568.00    1.78817   1.85361    0.051
 5569.00    1.80657   1.85319    0.051
 5570.00    1.82894   1.84634    0.051
 5571.00    1.84740   1.85059    0.051
 5572.00    1.86443   1.84751    0.052
 5573.00    1.85925   1.84133    0.053
 5574.00    1.84728   1.84240    0.053
 5575.00    1.83534   1.83568    0.053
 5576.00    1.82341   1.83031    0.052
 5577.00    1.84336   1.82808    0.053
 5578.00    1.86993   1.81942    0.054
 5579.00    1.86747   1.81614    0.053
 5580.00    1.86027   1.81209    0.052
 5581.00    1.85133   1.80410    0.052
 5582.00    1.84218   1.80303    0.052
 5583.00    1.79873   1.79980    0.052
 5584.00    1.75239   1.79722    0.052
 5585.00    1.70117   1.79842    0.051
 5586.00    1.64972   1.79636    0.049
 5587.00    1.65968   1.79951    0.050
 5588.00    1.67042   1.80146    0.050
 5589.00    1.67242   1.80048    0.050
 5590.00    1.67562   1.80885    0.050
 5591.00    1.70287   1.81304    0.050
 5592.00    1.72914   1.81283    0.050
 5593.00    1.74397   1.82139    0.050
 5594.00    1.75338   1.82715    0.050
 5595.00    1.71915   1.83083    0.051
 5596.00    1.69193   1.83858    0.051
 5597.00    1.70698   1.84336    0.051
 5598.00    1.72290   1.84945    0.051
 5599.00    1.74297   1.85631    0.051
 5600.00    1.75902   1.85903    0.051
 5601.00    1.75940   1.86351    0.051
 5602.00    1.76426   1.86794    0.050
 5603.00    1.78358   1.86740    0.051
 5604.00    1.80374   1.86872    0.051
 5605.00    1.82616   1.87079    0.050
 5606.00    1.84634   1.86659    0.050
 5607.00    1.86124   1.86548    0.051
 5608.00    1.87991   1.86669    0.051
 5609.00    1.90621   1.85988    0.051
 5610.00    1.90387   1.85703    0.051
 5611.00    1.85098   1.85929    0.050
 5612.00    1.80797   1.85480    0.050
 5613.00    1.78022   1.85260    0.051
 5614.00    1.77444   1.85431    0.052
 5615.00    1.79844   1.85152    0.051
 5616.00    1.80505   1.85195    0.050
 5617.00    1.79087   1.85551    0.050
 5618.00    1.78054   1.85404    0.050
 5619.00    1.77425   1.85526    0.051
 5620.00    1.77459   1.86014    0.051
 5621.00    1.78109   1.86068    0.050
 5622.00    1.79086   1.86241    0.050
 5623.00    1.80330   1.86628    0.051
 5624.00    1.80476   1.86684    0.051
 5625.00    1.79831   1.86797    0.051
 5626.00    1.80449   1.86947    0.050
 5627.00    1.81866   1.86951    0.050
 5628.00    1.83263   1.86982    0.049
 5629.00    1.84648   1.86879    0.049
 5630.00    1.86008   1.86893    0.050
 5631.00    1.87357   1.86916    0.050
 5632.00    1.86100   1.86644    0.050
 5633.00    1.83761   1.86753    0.049
 5634.00    1.81771   1.86834    0.049
 5635.00    1.79905   1.86518    0.048
 5636.00    1.78658   1.86698    0.048
 5637.00    1.77597   1.86788    0.049
 5638.00    1.78157   1.86579    0.049
 5639.00    1.79120   1.86785    0.049
 5640.00    1.78799   1.86736    0.049
 5641.00    1.78218   1.86609    0.049
 5642.00    1.80251   1.86762    0.048
 5643.00    1.82697   1.86496    0.047
 5644.00    1.85080   1.86413    0.048
 5645.00    1.87455   1.86437    0.048
 5646.00    1.83186   1.85848    0.049
 5647.00    1.78388   1.85830    0.049
 5648.00    1.78217   1.85888    0.049
 5649.00    1.78251   1.85003    0.049
 5650.00    1.81256   1.84919    0.049
 5651.00    1.84221   1.85267    0.049
 5652.00    1.83635   1.84595    0.050
 5653.00    1.82910   1.84414    0.051
 5654.00    1.79611   1.84873    0.050
 5655.00    1.76387   1.84752    0.050
 5656.00    1.73985   1.84815    0.050
 5657.00    1.71975   1.85258    0.050
 5658.00    1.72997   1.85488    0.050
 5659.00    1.73863   1.85866    0.050
 5660.00    1.73815   1.86362    0.049
 5661.00    1.73876   1.86787    0.049
 5662.00    1.74442   1.87323    0.049
 5663.00    1.75045   1.87792    0.050
 5664.00    1.75790   1.88275    0.049
 5665.00    1.77022   1.88829    0.049
 5666.00    1.79803   1.89130    0.049
 5667.00    1.81346   1.89432    0.049
 5668.00    1.79561   1.89879    0.048
 5669.00    1.78191   1.90009    0.048
 5670.00    1.77778   1.90000    0.048
 5671.00    1.78785   1.90207    0.048
 5672.00    1.82628   1.90252    0.048
 5673.00    1.85429   1.89999    0.048
 5674.00    1.86419   1.89933    0.048
 5675.00    1.87533   1.89949    0.048
 5676.00    1.88837   1.89721    0.049
 5677.00    1.89553   1.89565    0.049
 5678.00    1.89484   1.89522    0.050
 5679.00    1.88169   1.89364    0.049
 5680.00    1.85387   1.89302    0.049
 5681.00    1.83587   1.89340    0.048
 5682.00    1.82807   1.89245    0.048
 5683.00    1.81708   1.89228    0.048
 5684.00    1.80316   1.89317    0.048
 5685.00    1.78615   1.89210    0.048
 5686.00    1.76664   1.89037    0.047
 5687.00    1.76068   1.89087    0.048
 5688.00    1.76436   1.88947    0.048
 5689.00    1.77959   1.88471    0.049
 5690.00    1.80203   1.88336    0.049
 5691.00    1.83362   1.88094    0.049
 5692.00    1.87021   1.87459    0.049
 5693.00    1.88437   1.87119    0.049
 5694.00    1.88790   1.86671    0.049
 5695.00    1.85711   1.86224    0.049
 5696.00    1.81229   1.85875    0.050
 5697.00    1.80266   1.85165    0.050
 5698.00    1.80529   1.85071    0.050
 5699.00    1.82120   1.84931    0.050
 5700.00    1.84101   1.84203    0.051
 5701.00    1.82160   1.84652    0.050
 5702.00    1.79264   1.84867    0.049
 5703.00    1.76517   1.84393    0.049
 5704.00    1.73799   1.85360    0.049
 5705.00    1.72431   1.85934    0.048
 5706.00    1.71270   1.85884    0.048
 5707.00    1.72346   1.87132    0.048
 5708.00    1.73676   1.87847    0.047
 5709.00    1.76109   1.88168    0.047
 5710.00    1.78626   1.89491    0.048
 5711.00    1.80489   1.90174    0.047
 5712.00    1.82325   1.90641    0.047
 5713.00    1.82927   1.91789    0.047
 5714.00    1.83500   1.92309    0.047
 5715.00    1.83287   1.92665    0.047
 5716.00    1.83234   1.93457    0.048
 5717.00    1.85945   1.93809    0.047
 5718.00    1.88592   1.93973    0.047
 5719.00    1.90564   1.94343    0.048
 5720.00    1.92653   1.94610    0.048
 5721.00    1.95613   1.94745    0.048
 5722.00    1.98100   1.94763    0.048
 5723.00    1.97889   1.94883    0.048
 5724.00    1.96771   1.95039    0.048
 5725.00    1.91528   1.94978    0.048
 5726.00    1.87306   1.95062    0.048
 5727.00    1.86883   1.95159    0.048
 5728.00    1.86858   1.95082    0.049
 5729.00    1.88067   1.95189    0.049
 5730.00    1.89001   1.95220    0.049
 5731.00    1.89206   1.95158    0.049
 5732.00    1.89256   1.95268    0.049
 5733.00    1.88954   1.95199    0.050
 5734.00    1.88433   1.95152    0.051
 5735.00    1.87479   1.95212    0.050
 5736.00    1.87521   1.94997    0.050
 5737.00    1.89269   1.94989    0.049
 5738.00    1.89548   1.95012    0.048
 5739.00    1.87627   1.94631    0.048
 5740.00    1.87357   1.94604    0.000
 5741.00    1.89266   1.94602    0.000
 5742.00    1.90033   1.94180    0.000
 5743.00    1.89474   1.94182    0.000
 5744.00    1.89822   1.94135    0.000
 5745.00    1.91099   1.93712    0.000
 5746.00    1.92298   1.93828    0.000
 5747.00    1.93428   1.93813    0.000
 5748.00    1.93055   1.93455    0.000
 5749.00    1.91484   1.93688    0.000
 5750.00    1.90487   1.93677    0.000
 5751.00    1.89891   1.93391    0.000
 5752.00    1.89968   1.93797    0.000
 5753.00    1.90459   1.93862    0.000
 5754.00    1.88487   1.93645    0.000
 5755.00    1.85195   1.94147    0.000
 5756.00    1.83165   1.94267    0.000
 5757.00    1.81724   1.94088    0.000
 5758.00    1.81201   1.94567    0.000
 5759.00    1.81047   1.94651    0.000
 5760.00    1.82209   1.94431    0.000
 5761.00    1.83821   1.94796    0.000
 5762.00    1.85577   1.94733    0.000
 5763.00    1.87375   1.94377    0.000
 5764.00    1.89520   1.94555    0.000
 5765.00    1.91748   1.94292    0.000
 5766.00    1.93522   1.93746    0.000
 5767.00    1.95208   1.93668    0.000
 5768.00    1.95935   1.93227    0.000
 5769.00    1.96519   1.92506    0.000
 5770.00    1.97449   1.92176    0.000
 5771.00    1.98418   1.91772    0.000
 5772.00    1.97018   1.91127    0.000
 5773.00    1.95449   1.90607    0.000
 5774.00    1.93781   1.90386    0.000
 5775.00    1.92109   1.90061    0.000
 5776.00    1.90043   1.89594    0.000
 5777.00    1.87960   1.89710    0.000
 5778.00    1.85355   1.89745    0.000
 5779.00    1.82853   1.89456    0.000
 5780.00    1.82003   1.89952    0.000
 5781.00    1.81341   1.90373    0.000
 5782.00    1.82583   1.90369    0.000
 5783.00    1.83757   1.91096    0.000
 5784.00    1.84428   1.91770    0.000
 5785.00    1.84913   1.91979    0.000
 5786.00    1.84363   1.92693    0.000
 5787.00    1.84180   1.93472    0.000
 5788.00    1.85625   1.93857    0.000
 5789.00    1.86766   1.94420    0.000
 5790.00    1.86795   1.95111    0.000
 5791.00    1.87240   1.95497   -2.000
 5792.00    1.88958   1.95849   -2.000
 5793.00    1.90469   1.96369   -2.000
 5794.00    1.91444   1.96655   -2.000
 5795.00    1.91209   1.96863   -2.000
 5796.00    1.88275   1.97225   -2.000
 5797.00    1.86708   1.97347   -2.000
 5798.00    1.87787   1.97448   -2.000
 5799.00    1.88762   1.97701   -2.000
 5800.00    1.89562   1.97706   -2.000
 5801.00    1.91381   1.97738   -2.000
 5802.00    1.94708   1.97931   -2.000
 5803.00    1.96424   1.97926   -2.000
 5804.00    1.96046   1.97939   -2.000
 5805.00    1.95082   1.98113   -2.000
 5806.00    1.93448   1.98195   -2.000
 5807.00    1.91987   1.98247   -2.000
 5808.00    1.90700   1.98418   -2.000
 5809.00    1.89826   1.98591   -2.000
 5810.00    1.89321   1.98707   -2.000
 5811.00    1.89639   1.98900    0.000
 5812.00    1.90604   1.99143    0.000
 5813.00    1.92096   1.99295    0.000
 5814.00    1.93950   1.99500    0.000
 5815.00    1.94282   1.99770    0.000
 5816.00    1.93693   1.99897    0.000
 5817.00    1.92811   2.00069    0.000
 5818.00    1.91775   2.00336    0.000
 5819.00    1.92524   2.00397    0.000
 5820.00    1.94092   2.00470    0.000
 5821.00    1.94642   2.00711    0.000
 5822.00    1.94790   2.00720    0.000
 5823.00    1.94886   2.00668    0.000
 5824.00    1.94963   2.00845    0.000
 5825.00    1.95607   2.00827    0.000
 5826.00    1.96411   2.00690    0.000
 5827.00    1.97418   2.00796    0.000
 5828.00    1.98473   2.00748    0.000
 5829.00    1.97093   2.00532    0.000
 5830.00    1.95259   2.00555    0.000
 5831.00    1.93191   2.00461    0.000
 5832.00    1.91088   2.00147    0.000
 5833.00    1.90638   2.00058    0.000
 5834.00    1.90359   1.99878    0.000
 5835.00    1.90203   1.99434    0.000
 5836.00    1.90054   1.99191    0.000
 5837.00    1.90136   1.98889    0.000
 5838.00    1.90226   1.98282    0.000
 5839.00    1.92340   1.97851    0.000
 5840.00    1.94409   1.97449    0.000
 5841.00    1.94999   1.96743    0.000
 5842.00    1.95517   1.96154    0.000
 5843.00    1.94938   1.95708    0.000
 5844.00    1.94173   1.95011    0.000
 5845.00    1.91598   1.94381    0.000
 5846.00    1.89246   1.94020    0.000
 5847.00    1.88452   1.93471    0.000
 5848.00    1.87993   1.92920    0.000
 5849.00    1.89344   1.92743    0.000
 5850.00    1.89932   1.92464    0.000
 5851.00    1.87213   1.92117    0.000
 5852.00    1.84749   1.92165    0.000
 5853.00    1.83199   1.92180    0.000
 5854.00    1.81815   1.92069    0.000
 5855.00    1.80924   1.92299    0.000
 5856.00    1.80300   1.92536    0.000
 5857.00    1.80357   1.92611    0.000
 5858.00    1.80913   1.92913    0.000
 5859.00    1.82565   1.93220    0.000
 5860.00    1.83654   1.93354    0.000
 5861.00    1.83673   1.93597    0.000
 5862.00    1.83304   1.93788    0.000
 5863.00    1.82291   1.93819    0.000
 5864.00    1.82114   1.93890    0.000
 5865.00    1.83156   1.93793    0.000
 5866.00    1.84454   1.93549    0.000
 5867.00    1.86080   1.93358    0.000
 5868.00    1.86789   1.92811    0.000
 5869.00    1.86462   1.92125    0.000
 5870.00    1.86294   1.91641    0.000
 5871.00    1.86284   1.90543    0.000
 5872.00    1.85506   1.89292    0.000
 5873.00    1.84055   1.88540    0.000
 5874.00    1.83337   1.86882    0.000
 5875.00    1.83188   1.85042    0.000
 5876.00    1.81993   1.84155    0.000
 5877.00    1.80085   1.82105    0.000
 5878.00    1.78658   1.79867    0.000
 5879.00    1.77517   1.79104    0.000
 5880.00    1.76528   1.77010    0.000
 5881.00    1.75616   1.74776    0.000
 5882.00    1.73541   1.74509    0.000
 5883.00    1.70941   1.72842    0.000
 5884.00    1.68182   1.71121    0.000
 5885.00    1.65363   1.71658    0.000
 5886.00    1.62021   1.70824    0.000
 5887.00    1.58508   1.70012    0.000
 5888.00    1.54160   1.71425    0.000
 5889.00    1.49582   1.71555    0.000
 5890.00    1.47491   1.71730    0.000
 5891.00    1.45965   1.73790    0.000
 5892.00    1.46272   1.74680    0.000
 5893.00    1.46911   1.75586    0.000
 5894.00    1.48972   1.77846    0.000
 5895.00    1.51232   1.79074    0.000
 5896.00    1.52686   1.80277    0.000
 5897.00    1.54059   1.82297    0.000
 5898.00    1.56806   1.83440    0.000
 5899.00    1.59640   1.84549    0.000
 5900.00    1.65156   1.86064    0.000
 5901.00    1.70743   1.86871    0.045
 5902.00    1.74151   1.87694    0.046
 5903.00    1.77368   1.88665    0.046
 5904.00    1.75192   1.89097    0.046
 5905.00    1.73253   1.89649    0.045
 5906.00    1.74682   1.90200    0.046
 5907.00    1.75981   1.90363    0.046
 5908.00    1.76067   1.90761    0.046
 5909.00    1.76194   1.91056    0.046
 5910.00    1.76594   1.91093    0.045
 5911.00    1.77072   1.91445    0.044
 5912.00    1.77955   1.91606    0.045
 5913.00    1.78606   1.91619    0.045
 5914.00    1.78279   1.91960    0.044
 5915.00    1.78254   1.92048    0.044
 5916.00    1.79290   1.92071    0.045
 5917.00    1.80685   1.92378    0.045
 5918.00    1.83136   1.92422    0.045
 5919.00    1.84617   1.92450    0.044
 5920.00    1.83667   1.92688    0.044
 5921.00    1.82844   1.92722    0.044
 5922.00    1.82294   1.92739    0.043
 5923.00    1.82209   1.92896    0.043
 5924.00    1.82995   1.92964    0.043
 5925.00    1.83035   1.92961    0.043
 5926.00    1.81852   1.93045    0.043
 5927.00    1.80819   1.93175    0.043
 5928.00    1.80002   1.93144    0.044
 5929.00    1.79481   1.93173    0.044
 5930.00    1.79334   1.93358    0.044
 5931.00    1.79828   1.93287    0.045
 5932.00    1.81038   1.93274    0.044
 5933.00    1.81437   1.93475    0.044
 5934.00    1.81042   1.93355    0.044
 5935.00    1.80450   1.93308    0.044
 5936.00    1.79689   1.93491    0.044
 5937.00    1.79917   1.93324    0.044
 5938.00    1.80899   1.93253    0.045
 5939.00    1.81943   1.93413    0.044
 5940.00    1.83027   1.93229    0.044
 5941.00    1.83245   1.93158    0.044
 5942.00    1.82955   1.93323    0.045
 5943.00    1.82285   1.93179    0.045
 5944.00    1.81421   1.93140    0.044
 5945.00    1.81510   1.93354    0.044
 5946.00    1.82022   1.93320    0.044
 5947.00    1.81480   1.93339    0.044
 5948.00    1.80536   1.93627    0.043
 5949.00    1.81256   1.93746    0.043
 5950.00    1.82514   1.93833    0.043
 5951.00    1.82868   1.94174    0.043
 5952.00    1.82977   1.94440    0.044
 5953.00    1.82275   1.94567    0.043
 5954.00    1.81393   1.94899    0.043
 5955.00    1.81736   1.95249    0.043
 5956.00    1.82296   1.95364    0.044
 5957.00    1.82590   1.95609    0.044
 5958.00    1.82847   1.95950    0.043
 5959.00    1.82575   1.95997    0.043
 5960.00    1.82252   1.96087    0.043
 5961.00    1.81887   1.96336    0.044
 5962.00    1.81520   1.96279    0.044
 5963.00    1.80745   1.96185    0.044
 5964.00    1.79968   1.96298    0.044
 5965.00    1.80624   1.96140    0.044
 5966.00    1.81301   1.95881    0.044
 5967.00    1.82512   1.95876    0.044
 5968.00    1.83698   1.95661    0.044
 5969.00    1.84537   1.95299    0.044
 5970.00    1.85395   1.95242    0.044
 5971.00    1.86420   1.95042    0.045
 5972.00    1.86949   1.94667    0.045
 5973.00    1.84216   1.94636    0.045
 5974.00    1.81747   1.94527    0.045
 5975.00    1.80632   1.94222    0.044
 5976.00    1.79727   1.94264    0.044
 5977.00    1.79695   1.94289    0.043
 5978.00    1.79930   1.94103    0.043
 5979.00    1.81084   1.94213    0.044
 5980.00    1.82135   1.94361    0.044
 5981.00    1.82886   1.94284    0.044
 5982.00    1.83111   1.94407    0.043
 5983.00    1.82037   1.94616    0.043
 5984.00    1.81563   1.94589    0.043
 5985.00    1.82366   1.94659    0.043
 5986.00    1.83462   1.94846    0.042
 5987.00    1.85103   1.94785    0.042
 5988.00    1.85241   1.94760    0.043
 5989.00    1.82956   1.94868    0.043
 5990.00    1.81443   1.94709    0.043
 5991.00    1.81023   1.94595    0.042
 5992.00    1.80851   1.94612    0.042
 5993.00    1.80987   1.94346    0.043
 5994.00    1.80813   1.94188    0.043
 5995.00    1.80298   1.94137    0.043
 5996.00    1.80777   1.93808    0.043
 5997.00    1.82220   1.93663    0.043
 5998.00    1.83508   1.93577    0.044
 5999.00    1.84665   1.93259    0.044
 6000.00    1.84944   1.93173    0.045
 6001.00    1.84563   1.93073    0.045
 6002.00    1.83495   1.92830    0.045
 6003.00    1.81974   1.92829    0.044
 6004.00    1.81267   1.92729    0.044
 6005.00    1.81032   1.92593    0.044
 6006.00    1.81699   1.92693    0.044
 6007.00    1.82820   1.92625    0.044
 6008.00    1.82150   1.92602    0.044
 6009.00    1.80700   1.92805    0.044
 6010.00    1.78798   1.92838    0.044
 6011.00    1.76728   1.92921    0.043
 6012.00    1.76504   1.93227    0.043
 6013.00    1.76865   1.93433    0.042
 6014.00    1.77759   1.93626    0.043
 6015.00    1.78794   1.94011    0.043
 6016.00    1.77862   1.94425    0.043
 6017.00    1.76504   1.94725    0.043
 6018.00    1.74722   1.95142    0.042
 6019.00    1.72867   1.95721    0.042
 6020.00    1.74590   1.96106    0.042
 6021.00    1.76781   1.96495    0.043
 6022.00    1.79411   1.97137    0.044
 6023.00    1.82082   1.97555    0.044
 6024.00    1.81888   1.97867    0.043
 6025.00    1.81534   1.98463    0.043
 6026.00    1.81711   1.98855    0.043
 6027.00    1.81897   1.99065    0.044
 6028.00    1.81778   1.99553    0.043
 6029.00    1.81728   1.99878    0.043
 6030.00    1.83270   1.99988    0.043
 6031.00    1.84778   2.00357    0.043
 6032.00    1.85848   2.00607    0.044
 6033.00    1.86846   2.00634    0.045
 6034.00    1.87225   2.00894    0.044
 6035.00    1.87316   2.01080    0.044
 6036.00    1.85565   2.01041    0.044
 6037.00    1.84157   2.01192    0.044
 6038.00    1.84465   2.01313    0.043
 6039.00    1.84703   2.01222    0.043
 6040.00    1.84657   2.01246    0.043
 6041.00    1.84577   2.01288    0.043
 6042.00    1.84384   2.01166    0.042
 6043.00    1.84397   2.01055    0.042
 6044.00    1.84998   2.01005    0.042
 6045.00    1.85551   2.00886    0.043
 6046.00    1.85990   2.00671    0.042
 6047.00    1.86827   2.00534    0.042
 6048.00    1.88499   2.00473    0.042
 6049.00    1.89279   2.00224    0.043
 6050.00    1.88441   2.00034    0.043
 6051.00    1.86835   2.00084    0.043
 6052.00    1.84008   1.99894    0.042
 6053.00    1.82523   1.99699    0.042
 6054.00    1.82909   1.99884    0.043
 6055.00    1.82896   1.99829    0.043
 6056.00    1.82394   1.99667    0.043
 6057.00    1.82279   1.99955    0.043
 6058.00    1.82584   2.00053    0.043
 6059.00    1.82929   1.99933    0.044
 6060.00    1.83314   2.00223    0.044
 6061.00    1.83441   2.00421    0.044
 6062.00    1.83352   2.00317    0.044
 6063.00    1.82331   2.00472    0.044
 6064.00    1.80621   2.00665    0.044
 6065.00    1.79889   2.00535    0.044
 6066.00    1.79794   2.00454    0.044
 6067.00    1.80698   2.00538    0.043
 6068.00    1.82172   2.00365    0.043
 6069.00    1.83766   2.00038    0.043
 6070.00    1.85419   1.99974    0.043
 6071.00    1.85945   1.99777    0.043
 6072.00    1.85986   1.99299    0.042
 6073.00    1.85611   1.99133    0.042
 6074.00    1.85085   1.98947    0.042
 6075.00    1.84556   1.98457    0.042
 6076.00    1.84026   1.98292    0.041
 6077.00    1.84021   1.98139    0.042
 6078.00    1.84152   1.97736    0.042
 6079.00    1.84035   1.97679    0.042
 6080.00    1.83864   1.97553    0.041
 6081.00    1.83098   1.97242    0.042
 6082.00    1.82233   1.97352    0.042
 6083.00    1.80435   1.97237    0.042
 6084.00    1.78519   1.96946    0.042
 6085.00    1.78135   1.97218    0.042
 6086.00    1.77886   1.97105    0.043
 6087.00    1.78677   1.96752    0.043
 6088.00    1.79522   1.97134    0.042
 6089.00    1.79202   1.97044    0.043
 6090.00    1.78860   1.96598    0.044
 6091.00    1.78548   1.97031    0.043
 6092.00    1.78186   1.97003    0.043
 6093.00    1.76763   1.96513    0.043
 6094.00    1.75474   1.96954    0.042
 6095.00    1.75819   1.97029    0.042
 6096.00    1.76226   1.96591    0.043
 6097.00    1.77159   1.96999    0.043
 6098.00    1.77985   1.97177    0.042
 6099.00    1.78150   1.96871    0.042
 6100.00    1.78204   1.97182    0.041
 6101.00    1.77712   1.97397    0.041
 6102.00    1.77180   1.97251    0.041
 6103.00    1.76487   1.97384    0.041
 6104.00    1.75751   1.97517    0.041
 6105.00    1.74871   1.97516    0.041
 6106.00    1.74325   1.97413    0.041
 6107.00    1.74704   1.97356    0.042
 6108.00    1.75215   1.97474    0.042
 6109.00    1.76037   1.97160    0.041
 6110.00    1.76949   1.96867    0.041
 6111.00    1.78048   1.97094    0.041
 6112.00    1.79104   1.96677    0.041
 6113.00    1.80084   1.96183    0.042
 6114.00    1.80814   1.96497    0.042
 6115.00    1.81154   1.96111    0.043
 6116.00    1.81258   1.95495    0.043
 6117.00    1.81039   1.95844    0.043
 6118.00    1.80035   1.95565    0.043
 6119.00    1.78084   1.94907    0.043
 6120.00    1.76795   1.95213    0.044
 6121.00    1.76211   1.95036    0.044
 6122.00    1.75978   1.94397    0.043
 6123.00    1.76072   1.94609    0.043
 6124.00    1.76466   1.94506    0.042
 6125.00    1.77108   1.93941    0.042
 6126.00    1.77395   1.94068    0.042
 6127.00    1.77423   1.94057    0.042
 6128.00    1.77469   1.93637    0.042
 6129.00    1.77526   1.93732    0.041
 6130.00    1.76917   1.93856    0.041
 6131.00    1.75933   1.93657    0.040
 6132.00    1.74062   1.93753    0.040
 6133.00    1.71758   1.94005    0.041
 6134.00    1.70203   1.94050    0.041
 6135.00    1.68964   1.94124    0.041
 6136.00    1.69454   1.94376    0.041
 6137.00    1.70567   1.94589    0.042
 6138.00    1.72318   1.94572    0.042
 6139.00    1.74264   1.94627    0.043
 6140.00    1.76256   1.94844    0.042
 6141.00    1.78259   1.94665    0.042
 6142.00    1.80168   1.94353    0.042
 6143.00    1.82058   1.94391    0.043
 6144.00    1.82775   1.94017    0.043
 6145.00    1.83302   1.93296    0.043
 6146.00    1.83209   1.93047    0.043
 6147.00    1.83042   1.92496    0.042
 6148.00    1.81753   1.91476    0.042
 6149.00    1.80370   1.90980    0.042
 6150.00    1.79242   1.90331    0.043
 6151.00    1.78127   1.89223    0.043
 6152.00    1.76022   1.88662    0.043
 6153.00    1.73898   1.88048    0.043
 6154.00    1.71444   1.87067    0.042
 6155.00    1.69123   1.86689    0.041
 6156.00    1.69395   1.86294    0.041
 6157.00    1.69599   1.85577    0.041
 6158.00    1.69012   1.85540    0.041
 6159.00    1.68210   1.85536    0.041
 6160.00    1.65691   1.85130    0.041
 6161.00    1.63265   1.85403    0.041
 6162.00    1.61396   1.85858    0.041
 6163.00    1.59931   1.85753    0.041
 6164.00    1.60391   1.86144    0.041
 6165.00    1.60631   1.86954    0.041
 6166.00    1.60018   1.87111    0.040
 6167.00    1.60065   1.87403    0.040
 6168.00    1.62244   1.88321    0.041
 6169.00    1.64358   1.88641    0.042
 6170.00    1.66297   1.88717    0.042
 6171.00    1.67862   1.89491    0.042
 6172.00    1.68550   1.89814    0.042
 6173.00    1.68832   1.89668    0.042
 6174.00    1.68292   1.90174    0.042
 6175.00    1.67647   1.90367    0.042
 6176.00    1.66818   1.90071    0.042
 6177.00    1.65901   1.90332    0.041
 6178.00    1.64847   1.90335    0.041
 6179.00    1.63809   1.89991    0.041
 6180.00    1.62793   1.90149    0.041
 6181.00    1.62891   1.90030    0.041
 6182.00    1.64316   1.89722    0.040
 6183.00    1.66029   1.89937    0.040
 6184.00    1.68045   1.89861    0.040
 6185.00    1.68636   1.89643    0.040
 6186.00    1.67904   1.89951    0.040
 6187.00    1.66735   1.90038    0.040
 6188.00    1.65206   1.89937    0.040
 6189.00    1.64609   1.90288    0.040
 6190.00    1.64683   1.90536    0.040
 6191.00    1.64705   1.90506    0.040
 6192.00    1.64695   1.90808    0.040
 6193.00    1.63909   1.91121    0.041
 6194.00    1.62694   1.91045    0.041
 6195.00    1.61191   1.91195    0.043
 6196.00    1.59549   1.91459   -2.000
 6197.00    1.62235   1.91215   -2.000
 6198.00    1.66716   1.91139   -2.000
 6199.00    1.71166   1.91278   -2.000
 6200.00    1.75607   1.90812   -2.000
 6201.00    1.78817   1.90503   -2.000
 6202.00    1.81659   1.90509   -2.000
 6203.00    1.77963   1.89870   -2.000
 6204.00    1.72644   1.89359   -2.000
 6205.00    1.70149   1.89250   -2.000
 6206.00    1.68224   1.88615   -2.000
 6207.00    1.69607   1.88044   -2.000
 6208.00    1.71512   1.87833    0.043
 6209.00    1.70234   1.87345    0.043
 6210.00    1.68583   1.86864    0.043
 6211.00    1.66431   1.86570    0.041
 6212.00    1.64238   1.86309    0.040
 6213.00    1.62417   1.86039    0.040
 6214.00    1.60611   1.85627    0.040
 6215.00    1.60818   1.85521    0.040
 6216.00    1.61060   1.85556    0.039
 6217.00    1.61894   1.85075    0.039
 6218.00    1.62745   1.85008    0.039
 6219.00    1.63900   1.85330    0.040
 6220.00    1.65017   1.84842    0.040
 6221.00    1.65724   1.84646    0.040
 6222.00    1.66383   1.85179    0.041
 6223.00    1.66669   1.84802    0.041
 6224.00    1.66970   1.84356    0.041
 6225.00    1.67353   1.84997    0.041
 6226.00    1.67358   1.84856    0.041
 6227.00    1.65609   1.84111    0.041
 6228.00    1.64184   1.84715    0.042
 6229.00    1.63988   1.84881    0.042
 6230.00    1.64153   1.83891    0.042
 6231.00    1.65464   1.84315    0.042
 6232.00    1.66218   1.84768    0.042
 6233.00    1.65481   1.83680    0.041
 6234.00    1.64897   1.83834    0.041
 6235.00    1.64663   1.84478    0.041
 6236.00    1.64576   1.83443    0.040
 6237.00    1.64782   1.83308    0.040
 6238.00    1.64373   1.84019    0.040
 6239.00    1.62896   1.83149    0.039
 6240.00    1.61699   1.82778    0.039
 6241.00    1.60931   1.83480    0.040
 6242.00    1.60390   1.82857    0.040
 6243.00    1.60154   1.82369    0.039
 6244.00    1.60364   1.83058    0.039
 6245.00    1.61099   1.82662    0.039
 6246.00    1.62017   1.82161    0.039
 6247.00    1.63126   1.82960    0.039
 6248.00    1.62964   1.82845    0.039
 6249.00    1.61639   1.82378    0.039
 6250.00    1.60308   1.83298    0.040
 6251.00    1.58972   1.83542    0.040
 6252.00    1.57760   1.83125    0.041
 6253.00    1.56634   1.84060    0.041
 6254.00    1.56161   1.84697    0.041
 6255.00    1.56094   1.84423    0.041
 6256.00    1.56697   1.85231    0.041
 6257.00    1.57665   1.86100    0.041
 6258.00    1.57403   1.85966    0.042
 6259.00    1.56561   1.86579    0.043
 6260.00    1.58597   1.87528    0.045
 6261.00    1.61807   1.87483    0.047
 6262.00    1.65160   1.87850    0.049
 6263.00    1.68561   1.88709    0.050
 6264.00    1.68803   1.88723    0.048
 6265.00    1.68118   1.88913    0.047
 6266.00    1.67579   1.89589    0.044
 6267.00    1.67075   1.89601    0.042
 6268.00    1.67149   1.89701    0.041
 6269.00    1.67336   1.90205    0.041
 6270.00    1.66982   1.90253    0.040
 6271.00    1.66546   1.90351    0.039
 6272.00    1.67393   1.90688    0.039
 6273.00    1.68384   1.90778    0.039
 6274.00    1.69152   1.90890    0.039
 6275.00    1.69904   1.91120    0.040
 6276.00    1.69096   1.91262    0.040
 6277.00    1.68226   1.91320    0.040
 6278.00    1.67286   1.91444    0.040
 6279.00    1.66344   1.91607    0.040
 6280.00    1.65335   1.91559    0.000
 6281.00    1.64416   1.91577    0.000
 6282.00    1.65027   1.91720    0.000
 6283.00    1.65699   1.91550    0.000
 6284.00    1.67013   1.91446    0.000
 6285.00    1.68310   1.91527    0.000
 6286.00    1.69475   1.91309    0.000
 6287.00    1.70620   1.91144    0.000
 6288.00    1.71649   1.91148    0.000
 6289.00    1.72332   1.90920    0.000
 6290.00    1.71451   1.90811    0.000
 6291.00    1.70623   1.90859    0.000
 6292.00    1.69992   1.90622    0.000
 6293.00    1.69442   1.90554    0.000
 6294.00    1.69140   1.90793    0.000
 6295.00    1.68618   1.90618    0.000
 6296.00    1.67516   1.90493    0.000
 6297.00    1.66747   1.90910    0.000
 6298.00    1.66731   1.90821    0.000
 6299.00    1.66982   1.90548    0.000
 6300.00    1.67754   1.91088    0.000
 6301.00    1.67670   1.91107    0.000
 6302.00    1.66120   1.90574    0.000
 6303.00    1.65161   1.91160    0.000
 6304.00    1.65085   1.91413    0.000
 6305.00    1.65365   1.90631    0.000
 6306.00    1.66115   1.91071    0.000
 6307.00    1.66725   1.91655    0.000
 6308.00    1.67171   1.90893    0.000
 6309.00    1.67448   1.91048    0.000
 6310.00    1.67552   1.91870    0.000
 6311.00    1.67125   1.91450    0.000
 6312.00    1.66220   1.91375    0.000
 6313.00    1.65747   1.92210    0.000
 6314.00    1.65617   1.92163    0.000
 6315.00    1.65748   1.92029    0.000
 6316.00    1.66060   1.92762    0.000
 6317.00    1.65790   1.92905    0.000
 6318.00    1.65163   1.92794    0.000
 6319.00    1.64799   1.93343    0.000
 6320.00    1.64575   1.93521    0.000
 6321.00    1.64579   1.93465    0.038
 6322.00    1.64689   1.93742    0.038
 6323.00    1.64844   1.93854    0.038
 6324.00    1.65017   1.93906    0.039
 6325.00    1.66234   1.93913    0.039
 6326.00    1.67809   1.93794    0.039
 6327.00    1.69960   1.93948    0.039
 6328.00    1.72278   1.93977    0.039
 6329.00    1.73523   1.93755    0.039
 6330.00    1.74513   1.93869    0.039
 6331.00    1.73710   1.93914    0.040
 6332.00    1.72564   1.93754    0.040
 6333.00    1.70110   1.93804    0.040
 6334.00    1.67462   1.93759    0.040
 6335.00    1.66773   1.93714    0.039
 6336.00    1.66297   1.93808    0.039
 6337.00    1.66709   1.93735    0.039
 6338.00    1.67183   1.93676    0.040
 6339.00    1.67357   1.93710    0.039
 6340.00    1.67521   1.93638    0.039
 6341.00    1.67209   1.93489    0.039
 6342.00    1.66906   1.93342    0.039
 6343.00    1.66969   1.93292    0.039
 6344.00    1.67049   1.93078    0.039
 6345.00    1.67385   1.92650    0.039
 6346.00    1.67735   1.92587    0.039
 6347.00    1.68224   1.92525    0.039
 6348.00    1.68669   1.91954    0.039
 6349.00    1.68797   1.91729    0.039
 6350.00    1.68941   1.91870    0.039
 6351.00    1.69174   1.91507    0.039
 6352.00    1.69325   1.91224    0.039
 6353.00    1.69111   1.91477    0.039
 6354.00    1.68552   1.91486    0.040
 6355.00    1.66745   1.91383    0.040
 6356.00    1.64965   1.91720    0.040
 6357.00    1.63271   1.92048    0.040
 6358.00    1.61737   1.92206    0.040
 6359.00    1.60617   1.92614    0.040
 6360.00    1.59815   1.93116    0.040
 6361.00    1.59720   1.93430    0.040
 6362.00    1.60325   1.93853    0.040
 6363.00    1.62280   1.94447    0.040
 6364.00    1.64179   1.94800    0.040
 6365.00    1.65985   1.95079    0.041
 6366.00    1.67417   1.95630    0.040
 6367.00    1.68297   1.95980    0.040
 6368.00    1.69254   1.96025    0.040
 6369.00    1.70311   1.96402    0.039
 6370.00    1.71225   1.96722    0.039
 6371.00    1.71974   1.96576    0.039
 6372.00    1.72058   1.96765    0.039
 6373.00    1.71472   1.97027    0.039
 6374.00    1.70484   1.96744    0.039
 6375.00    1.69140   1.96766    0.039
 6376.00    1.68067   1.96974    0.039
 6377.00    1.67205   1.96628    0.038
 6378.00    1.67435   1.96543    0.039
 6379.00    1.68419   1.96708    0.039
 6380.00    1.70254   1.96284    0.040
 6381.00    1.72604   1.96169    0.040
 6382.00    1.73438   1.96412    0.040
 6383.00    1.73472   1.95863    0.039
 6384.00    1.72444   1.95643    0.039
 6385.00    1.70931   1.96137    0.039
 6386.00    1.70507   1.95673    0.039
 6387.00    1.70513   1.95225    0.040
 6388.00    1.70239   1.95905    0.040
 6389.00    1.69871   1.95765    0.040
 6390.00    1.68481   1.95063    0.040
 6391.00    1.66803   1.95684    0.039
 6392.00    1.66326   1.95964    0.039
 6393.00    1.66128   1.95289    0.038
 6394.00    1.66601   1.95620    0.039
 6395.00    1.67200   1.96079    0.039
 6396.00    1.67133   1.95807    0.040
 6397.00    1.66971   1.95859    0.040
 6398.00    1.66857   1.95993    0.039
 6399.00    1.66748   1.96123    0.039
 6400.00    1.66855   1.96245    0.039
 6401.00    1.66977   1.95940    0.040
 6402.00    1.68496   1.96154    0.040
 6403.00    1.70060   1.96579    0.040
 6404.00    1.69698   1.96100    0.040
 6405.00    1.69301   1.96079    0.040
 6406.00    1.67811   1.96718    0.040
 6407.00    1.66416   1.96397    0.040
 6408.00    1.66445   1.96102    0.040
 6409.00    1.66484   1.96760    0.041
 6410.00    1.66640   1.96740    0.040
 6411.00    1.66729   1.96262    0.039
 6412.00    1.66355   1.96804    0.039
 6413.00    1.66316   1.97136    0.039
 6414.00    1.68076   1.96609    0.039
 6415.00    1.69485   1.96885    0.039
 6416.00    1.69378   1.97500    0.039
 6417.00    1.69131   1.97169    0.039
 6418.00    1.68389   1.97133    0.039
 6419.00    1.67781   1.97718    0.039
 6420.00    1.67577   1.97617    0.039
 6421.00    1.67528   1.97429    0.039
 6422.00    1.67874   1.97879    0.039
 6423.00    1.68382   1.97934    0.039
 6424.00    1.69245   1.97748    0.039
 6425.00    1.69442   1.98025    0.039
 6426.00    1.68373   1.98163    0.039
 6427.00    1.67388   1.98205    0.040
 6428.00    1.66541   1.98317    0.040
 6429.00    1.66176   1.98255    0.040
 6430.00    1.66513   1.98500    0.040
 6431.00    1.66861   1.98671    0.040
 6432.00    1.67222   1.98345    0.041
 6433.00    1.67158   1.98505    0.040
 6434.00    1.66617   1.98916    0.039
 6435.00    1.66398   1.98674    0.039
 6436.00    1.66499   1.98433    0.039
 6437.00    1.66947   1.98759    0.039
 6438.00    1.67697   1.98837    0.039
 6439.00    1.68974   1.98236    0.039
 6440.00    1.70658   1.98259    0.040
 6441.00    1.72001   1.98796    0.039
 6442.00    1.73113   1.98086    0.039
 6443.00    1.72736   1.97634    0.038
 6444.00    1.71473   1.98500    0.038
 6445.00    1.70375   1.98171    0.038
 6446.00    1.69362   1.97493    0.039
 6447.00    1.67813   1.98325    0.039
 6448.00    1.66022   1.98328    0.039
 6449.00    1.65028   1.97435    0.040
 6450.00    1.64342   1.98110    0.041
 6451.00    1.65309   1.98704    0.042
 6452.00    1.66821   1.97787    0.041
 6453.00    1.67283   1.98034    0.041
 6454.00    1.67455   1.99027    0.041
 6455.00    1.67164   1.98188    0.040
 6456.00    1.66768   1.97912    0.040
 6457.00    1.66288   1.99137    0.039
 6458.00    1.65793   1.98790    0.039
 6459.00    1.65477   1.98198    0.039
 6460.00    1.65187   1.99158    0.039
 6461.00    1.64837   1.99125    0.039
 6462.00    1.64481   1.98347    0.039
 6463.00    1.65176   1.98994    0.038
 6464.00    1.65937   1.99160    0.038
 6465.00    1.68135   1.98283    0.038
 6466.00    1.70370   1.98622    0.038
 6467.00    1.71707   1.98993    0.038
 6468.00    1.72994   1.98073    0.038
 6469.00    1.72916   1.97895    0.039
 6470.00    1.72827   1.98343    0.039
 6471.00    1.72574   1.97601    0.039
 6472.00    1.72428   1.96981    0.039
 6473.00    1.73259   1.97209    0.039
 6474.00    1.73968   1.96605    0.040
 6475.00    1.73845   1.95680    0.040
 6476.00    1.73499   1.95530    0.040
 6477.00    1.71977   1.95087    0.040
 6478.00    1.70357   1.94240    0.039
 6479.00    1.68324   1.93775    0.040
 6480.00    1.66414   1.93240    0.040
 6481.00    1.64930   1.92451    0.039
 6482.00    1.64214   1.91940    0.039
 6483.00    1.65748   1.91411    0.039
 6484.00    1.67362   1.90649    0.039
 6485.00    1.69179   1.90321    0.039
 6486.00    1.69968   1.90044    0.039
 6487.00    1.68541   1.89401    0.038
 6488.00    1.66574   1.89263    0.038
 6489.00    1.63597   1.89327    0.037
 6490.00    1.61128   1.89271    0.037
 6491.00    1.59491   1.89573    0.037
 6492.00    1.58156   1.89792    0.038
 6493.00    1.57252   1.90156    0.038
 6494.00    1.56797   1.90786    0.038
 6495.00    1.56905   1.91185    0.038
 6496.00    1.56702   1.91752    0.038
 6497.00    1.56151   1.92484    0.038
 6498.00    1.56288   1.92953    0.038
 6499.00    1.57099   1.93492    0.038
 6500.00    1.58850   1.94241    0.038
 6501.00    1.61413   1.94675    0.038
 6502.00    1.63390   1.94949    0.039
 6503.00    1.64919   1.95597    0.039
 6504.00    1.65826   1.96077    0.039
 6505.00    1.66317   1.96100    0.038
 6506.00    1.66324   1.96454    0.038
 6507.00    1.66049   1.96919    0.039
 6508.00    1.66843   1.96850    0.039
 6509.00    1.68182   1.96910    0.039
 6510.00    1.68832   1.97334    0.038
 6511.00    1.69176   1.97337    0.038
 6512.00    1.68149   1.97230    0.038
 6513.00    1.66602   1.97540    0.038
 6514.00    1.66130   1.97700    0.038
 6515.00    1.66005   1.97653    0.038
 6516.00    1.66557   1.97746    0.038
 6517.00    1.67293   1.97900    0.038
 6518.00    1.67736   1.98026    0.038
 6519.00    1.68113   1.98022    0.038
 6520.00    1.68656   1.98032    0.039
 6521.00    1.69227   1.98211    0.039
 6522.00    1.68898   1.98266    0.039
 6523.00    1.68449   1.98204    0.039
 6524.00    1.67439   1.98294    0.039
 6525.00    1.66376   1.98327    0.039
 6526.00    1.66632   1.98144    0.039
 6527.00    1.66966   1.98112    0.039
 6528.00    1.67484   1.98166    0.000
 6529.00    1.68011   1.97903    0.000
 6530.00    1.69237   1.97644    0.000
 6531.00    1.70455   1.97556    0.000
 6532.00    1.71465   1.97206    0.000
 6533.00    1.72360   1.96759    0.000
 6534.00    1.71720   1.96490    0.000
 6535.00    1.71111   1.95955    0.000
 6536.00    1.70769   1.95205    0.000
 6537.00    1.70607   1.94820    0.000
 6538.00    1.71621   1.94178    0.000
 6539.00    1.72685   1.92971    0.000
 6540.00    1.74006   1.92384    0.000
 6541.00    1.74769   1.91850    0.000
 6542.00    1.73228   1.90296    0.000
 6543.00    1.71705   1.89222    0.000
 6544.00    1.70243   1.88836    0.000
 6545.00    1.69505   1.87218    0.000
 6546.00    1.70854   1.85555    0.000
 6547.00    1.72021   1.85370    0.000
 6548.00    1.72735   1.84231    0.000
 6549.00    1.72535   1.82129    0.000
 6550.00    1.70395   1.81948    0.000
 6551.00    1.68206   1.81778    0.000
 6552.00    1.65928   1.79619    0.000
 6553.00    1.63740   1.79108    0.000
 6554.00    1.61698   1.80186    0.000
 6555.00    1.60074   1.78638    0.000
 6556.00    1.59039   1.77429    0.000
 6557.00    1.57870   1.79415    0.000
 6558.00    1.56534   1.79650    0.000
 6559.00    1.56563   1.78489    0.000
 6560.00    1.58086   1.80240    0.000
 6561.00    1.58492   1.81779    0.000
 6562.00    1.57820   1.81279    0.000
 6563.00    1.56943   1.82347    0.000
 6564.00    1.55891   1.84318    0.000
 6565.00    1.55870   1.84606    0.000
 6566.00    1.56623   1.85183    0.000
 6567.00    1.57834   1.86978    0.000
 6568.00    1.59347   1.87764    0.000
 6569.00    1.59272   1.88100    0.000
 6570.00    1.58281   1.89435    0.000
 6571.00    1.58494   1.90467    0.000
 6572.00    1.59314   1.90802    0.000
 6573.00    1.61059   1.91469    0.000
 6574.00    1.63207   1.92237    0.000
 6575.00    1.64594   1.92550    0.000
 6576.00    1.65697   1.92710    0.000
 6577.00    1.67554   1.93219    0.000
 6578.00    1.69649   1.93612    0.000
 6579.00    1.72313   1.93480    0.000
 6580.00    1.75127   1.93699    0.000
 6581.00    1.77945   1.94101    0.000
 6582.00    1.80764   1.93853    0.000
 6583.00    1.81299   1.93815    0.000
 6584.00    1.81443   1.94268    0.000
 6585.00    1.80195   1.94124    0.000
 6586.00    1.78766   1.93737    0.000
 6587.00    1.76700   1.94084    0.000
 6588.00    1.74577   1.94288    0.000
 6589.00    1.71667   1.93901    0.000
 6590.00    1.68713   1.94110    0.000
 6591.00    1.66008   1.94477    0.000
 6592.00    1.63327   1.94182    0.000
 6593.00    1.62380   1.94300    0.000
 6594.00    1.61464   1.94771    0.000
 6595.00    1.61250   1.94672    0.000
 6596.00    1.61147   1.94635    0.000
 6597.00    1.62461   1.95022    0.000
 6598.00    1.63643   1.95162    0.000
 6599.00    1.63685   1.95062    0.000
 6600.00    1.63599   1.95326    0.000
 6601.00    1.62697   1.95637    0.000
 6602.00    1.62066   1.95580    0.000
 6603.00    1.62781   1.95737    0.000
 6604.00    1.63523   1.96111    0.000
 6605.00    1.64375   1.96170    0.000
 6606.00    1.65007   1.96184    0.000
 6607.00    1.64905   1.96375    0.000
 6608.00    1.64490   1.96576    0.000
 6609.00    1.63190   1.96609    0.038
 6610.00    1.62490   1.96524    0.038
 6611.00    1.63241   1.96631    0.038
 6612.00    1.64198   1.96727    0.039
 6613.00    1.65587   1.96548    0.039
 6614.00    1.66119   1.96441    0.039
 6615.00    1.65097   1.96479    0.039
 6616.00    1.64662   1.96284    0.039
 6617.00    1.65158   1.95965    0.039
 6618.00    1.65490   1.95943    0.039
 6619.00    1.65592   1.95862    0.039
 6620.00    1.65917   1.95439    0.039
 6621.00    1.66516   1.95331    0.039
 6622.00    1.65754   1.95357    0.039
 6623.00    1.63521   1.94951    0.038
 6624.00    1.61618   1.94841    0.038
 6625.00    1.60029   1.94982    0.038
 6626.00    1.59408   1.94542    0.038
 6627.00    1.59601   1.94329    0.038
 6628.00    1.60133   1.94708    0.038
 6629.00    1.60914   1.94481    0.038
 6630.00    1.60412   1.94079    0.038
 6631.00    1.59075   1.94496    0.038
 6632.00    1.58438   1.94630    0.038
 6633.00    1.58199   1.94151    0.038
 6634.00    1.59175   1.94400    0.038
 6635.00    1.60753   1.94801    0.038
 6636.00    1.61641   1.94289    0.038
 6637.00    1.62232   1.94222    0.038
 6638.00    1.61346   1.94839    0.038
 6639.00    1.59919   1.94571    0.039
 6640.00    1.59998   1.94141    0.039
 6641.00    1.60545   1.94620    0.040
 6642.00    1.60273   1.94749    0.039
 6643.00    1.59789   1.94245    0.039
 6644.00    1.59060   1.94342    0.039
 6645.00    1.58280   1.94598    0.039
 6646.00    1.59236   1.94127    0.038
 6647.00    1.60482   1.93960    0.037
 6648.00    1.61232   1.94293    0.038
 6649.00    1.61919   1.93932    0.038
 6650.00    1.61187   1.93530    0.038
 6651.00    1.60331   1.93820    0.038
 6652.00    1.58826   1.93749    0.038
 6653.00    1.57287   1.93263    0.038
 6654.00    1.56503   1.93323    0.038
 6655.00    1.55756   1.93498    0.038
 6656.00    1.56710   1.93089    0.038
 6657.00    1.57603   1.92934    0.038
 6658.00    1.57232   1.93239    0.039
 6659.00    1.56779   1.93081    0.039
 6660.00    1.55329   1.92748    0.038
 6661.00    1.53944   1.92886    0.038
 6662.00    1.53093   1.93130    0.038
 6663.00    1.52384   1.92905    0.038
 6664.00    1.52550   1.92618    0.039
 6665.00    1.53007   1.92940    0.039
 6666.00    1.54882   1.93109    0.038
 6667.00    1.56644   1.92706    0.038
 6668.00    1.57964   1.92734    0.038
 6669.00    1.58863   1.93139    0.038
 6670.00    1.58380   1.92896    0.038
 6671.00    1.58017   1.92548    0.038
 6672.00    1.57983   1.93036    0.038
 6673.00    1.57673   1.93192    0.038
 6674.00    1.56706   1.92617    0.038
 6675.00    1.55644   1.92837    0.038
 6676.00    1.54389   1.93376    0.038
 6677.00    1.53984   1.93108    0.038
 6678.00    1.55098   1.92925    0.038
 6679.00    1.56390   1.93300    0.038
 6680.00    1.57961   1.93382    0.039
 6681.00    1.58813   1.93098    0.039
 6682.00    1.58677   1.93195    0.039
 6683.00    1.58443   1.93419    0.039
 6684.00    1.58090   1.93227    0.039
 6685.00    1.58238   1.93132    0.039
 6686.00    1.58919   1.93303    0.039
 6687.00    1.58386   1.93297    0.039
 6688.00    1.56713   1.93124    0.038
 6689.00    1.55421   1.93016    0.038
 6690.00    1.54443   1.93032    0.038
 6691.00    1.54123   1.92962    0.038
 6692.00    1.54281   1.92770    0.038
 6693.00    1.54362   1.92670    0.038
 6694.00    1.54394   1.92633    0.038
 6695.00    1.54283   1.92561    0.038
 6696.00    1.54093   1.92325    0.000
 6697.00    1.54597   1.92151    0.000
 6698.00    1.55441   1.92160    0.000
 6699.00    1.56114   1.91909    0.000
 6700.00    1.56717   1.91528    0.000
 6701.00    1.56479   1.91485    0.000
 6702.00    1.55940   1.91453    0.000
 6703.00    1.55241   1.90993    0.000
 6704.00    1.54495   1.90746    0.000
 6705.00    1.54806   1.90936    0.000
 6706.00    1.55385   1.90671    0.000
 6707.00    1.55459   1.90278    0.000
 6708.00    1.55430   1.90380    0.000
 6709.00    1.55048   1.90407    0.000
 6710.00    1.54609   1.90111    0.000
 6711.00    1.55925   1.90054    0.000
 6712.00    1.57453   1.90288    0.000
 6713.00    1.58668   1.90233    0.000
 6714.00    1.59858   1.90122    0.000
 6715.00    1.59624   1.90386    0.000
 6716.00    1.59323   1.90622    0.000
 6717.00    1.59548   1.90636    0.000
 6718.00    1.59753   1.90655    0.000
 6719.00    1.58439   1.90841    0.000
 6720.00    1.57126   1.91058    0.000
 6721.00    1.55853   1.91058    0.000
 6722.00    1.54734   1.91066    0.000
 6723.00    1.55389   1.91282    0.000
 6724.00    1.56144   1.91348    0.000
 6725.00    1.57695   1.91187    0.000
 6726.00    1.59000   1.91245    0.000
 6727.00    1.58832   1.91464    0.000
 6728.00    1.58814   1.91250    0.000
 6729.00    1.59503   1.90956    0.000
 6730.00    1.60039   1.91176    0.000
 6731.00    1.59981   1.91180    0.000
 6732.00    1.59834   1.90757    0.000
 6733.00    1.59401   1.90771    0.000
 6734.00    1.58869   1.90971    0.000
 6735.00    1.58065   1.90593    0.000
 6736.00    1.56633   1.90309    0.000
 6737.00    1.53736   1.90748    0.000
 6738.00    1.51156   1.90712    0.000
 6739.00    1.49219   1.90176    0.000
 6740.00    1.48650   1.90515    0.000
 6741.00    1.50488   1.90886    0.000
 6742.00    1.51944   1.90523    0.000
 6743.00    1.52813   1.90561    0.000
 6744.00    1.53047   1.91105    0.000
 6745.00    1.52425   1.91084    0.000
 6746.00    1.51876   1.90875    0.000
 6747.00    1.51417   1.91401    0.000
 6748.00    1.50727   1.91701    0.000
 6749.00    1.49796   1.91470    0.000
 6750.00    1.49122   1.91755    0.000
 6751.00    1.48686   1.92185    0.000
 6752.00    1.49004   1.92157    0.000
 6753.00    1.49938   1.92111    0.040
 6754.00    1.49636   1.92410    0.041
 6755.00    1.48447   1.92652    0.042
 6756.00    1.47542   1.92549    0.042
 6757.00    1.46816   1.92581    0.042
 6758.00    1.48038   1.92829    0.042
 6759.00    1.50334   1.92880    0.042
 6760.00    1.56565   1.92784    0.043
 6761.00    1.64683   1.92930    0.044
 6762.00    1.70410   1.93130    0.045
 6763.00    1.75148   1.92943    0.046
 6764.00    1.76346   1.92884    0.046
 6765.00    1.76292   1.93207    0.046
 6766.00    1.75768   1.93190    0.045
 6767.00    1.75104   1.92994    0.045
 6768.00    1.75119   1.93113    0.045
 6769.00    1.75303   1.93150    0.045
 6770.00    1.72532   1.92980    0.044
 6771.00    1.69167   1.92999    0.043
 6772.00    1.65907   1.93009    0.042
 6773.00    1.62664   1.92810    0.042
 6774.00    1.61698   1.92806    0.042
 6775.00    1.60997   1.92806    0.042
 6776.00    1.58014   1.92566    0.041
 6777.00    1.54851   1.92564    0.040
 6778.00    1.57599   1.92606    0.041
 6779.00    1.60604   1.92284    0.042
 6780.00    1.59262   1.92187    0.042
 6781.00    1.57856   1.92432    0.042
 6782.00    1.55655   1.92250    0.042
 6783.00    1.53676   1.92064    0.041
 6784.00    1.55711   1.92395    0.041
 6785.00    1.57692   1.92416    0.041
 6786.00    1.59072   1.92114    0.041
 6787.00    1.60347   1.92343    0.042
 6788.00    1.60806   1.92654    0.042
 6789.00    1.61397   1.92377    0.042
 6790.00    1.62750   1.92348    0.043
 6791.00    1.63301   1.92812    0.043
 6792.00    1.60147   1.92765    0.042
 6793.00    1.57582   1.92547    0.042
 6794.00    1.57243   1.92906    0.041
 6795.00    1.56931   1.93102    0.041
 6796.00    1.56701   1.92815    0.041
 6797.00    1.57138   1.92931    0.040
 6798.00    1.59362   1.93306    0.040
 6799.00    1.60771   1.93153    0.040
 6800.00    1.60306   1.92967    0.041
 6801.00    1.60263   1.93294    0.041
 6802.00    1.61057   1.93429    0.041
 6803.00    1.60964   1.93193    0.041
 6804.00    1.59335   1.93340    0.041
 6805.00    1.58018   1.93604    0.041
 6806.00    1.57176   1.93467    0.041
 6807.00    1.56126   1.93424    0.041
 6808.00    1.54800   1.93674    0.041
 6809.00    1.54289   1.93792    0.041
 6810.00    1.54736   1.93690    0.041
 6811.00    1.55332   1.93733    0.041
 6812.00    1.56080   1.93954    0.042
 6813.00    1.57743   1.93994    0.042
 6814.00    1.60239   1.93941    0.043
 6815.00    1.60602   1.94033    0.043
 6816.00    1.59249   1.94095    0.042
 6817.00    1.57916   1.94031    0.041
 6818.00    1.56598   1.94010    0.040
 6819.00    1.56673   1.94104    0.040
 6820.00    1.57614   1.94094    0.040
 6821.00    1.59653   1.93928    0.040
 6822.00    1.62288   1.93884    0.040
 6823.00    1.62905   1.93897    0.040
 6824.00    1.62570   1.93726    0.040
 6825.00    1.61252   1.93520    0.040
 6826.00    1.59535   1.93499    0.040
 6827.00    1.58982   1.93463    0.041
 6828.00    1.58834   1.93211    0.041
 6829.00    1.58535   1.93023    0.042
 6830.00    1.58193   1.92995    0.042
 6831.00    1.58942   1.92910    0.042
 6832.00    1.59956   1.92738    0.042
 6833.00    1.58867   1.92632    0.042
 6834.00    1.57367   1.92576    0.041
 6835.00    1.56737   1.92471    0.041
 6836.00    1.56239   1.92365    0.041
 6837.00    1.58156   1.92240    0.042
 6838.00    1.60343   1.92239    0.043
 6839.00    1.58151   1.92276    0.043
 6840.00    1.55631   1.92098    0.043
 6841.00    1.53821   1.92029    0.042
 6842.00    1.52039   1.92207    0.041
 6843.00    1.50777   1.92079    0.040
 6844.00    1.49597   1.91737    0.040
 6845.00    1.51519   1.91908    0.039
 6846.00    1.53387   1.92068    0.039
 6847.00    1.54325   1.91588    0.040
 6848.00    1.55197   1.91519    0.040
 6849.00    1.55376   1.92013    0.040
 6850.00    1.55453   1.91714    0.041
 6851.00    1.54761   1.91146    0.040
 6852.00    1.53918   1.91621    0.040
 6853.00    1.52212   1.91913    0.040
 6854.00    1.50747   1.91262    0.040
 6855.00    1.50372   1.91363    0.040
 6856.00    1.49885   1.92001    0.040
 6857.00    1.48988   1.91568    0.040
 6858.00    1.48205   1.91159    0.040
 6859.00    1.47779   1.91918    0.040
 6860.00    1.48001   1.92210    0.040
 6861.00    1.49932   1.91577    0.040
 6862.00    1.51391   1.91821    0.040
 6863.00    1.51787   1.92506    0.040
 6864.00    1.52375   1.92135    0.040
 6865.00    1.53339   1.91905    0.040
 6866.00    1.54293   1.92726    0.041
 6867.00    1.55227   1.92989    0.041
 6868.00    1.54841   1.92438    0.042
 6869.00    1.52481   1.92769    0.041
 6870.00    1.51312   1.93514    0.041
 6871.00    1.51708   1.93257    0.041
 6872.00    1.52307   1.93047    0.041
 6873.00    1.53139   1.93831    0.041
 6874.00    1.53026   1.94195    0.040
 6875.00    1.51946   1.93762    0.040
 6876.00    1.51957   1.94105    0.040
 6877.00    1.52949   1.94839    0.040
 6878.00    1.52700   1.94643    0.040
 6879.00    1.51466   1.94468    0.040
 6880.00    1.50912   1.95240    0.040
 6881.00    1.50831   1.95605    0.041
 6882.00    1.51059   1.95196    0.040
 6883.00    1.51475   1.95515    0.040
 6884.00    1.52224   1.96190    0.039
 6885.00    1.53149   1.96040    0.039
 6886.00    1.54092   1.95890    0.040
 6887.00    1.55044   1.96490    0.040
 6888.00    1.54328   1.96757    0.040
 6889.00    1.52947   1.96416    0.040
 6890.00    1.52462   1.96611    0.040
 6891.00    1.52281   1.97100    0.041
 6892.00    1.51536   1.96993    0.041
 6893.00    1.50629   1.96815    0.041
 6894.00    1.50915   1.97162    0.041
 6895.00    1.51484   1.97355    0.041
 6896.00    1.51518   1.97059    0.040
 6897.00    1.51451   1.97077    0.040
 6898.00    1.51686   1.97413    0.040
 6899.00    1.51965   1.97298    0.040
 6900.00    1.51944   1.97033    0.040
 6901.00    1.51891   1.97197    0.041
 6902.00    1.51502   1.97285    0.040
 6903.00    1.51090   1.96947    0.040
 6904.00    1.51568   1.96920    0.040
 6905.00    1.52079   1.97136    0.040
 6906.00    1.51652   1.96895    0.040
 6907.00    1.51204   1.96657    0.040
 6908.00    1.50102   1.96812    0.040
 6909.00    1.49026   1.96827    0.040
 6910.00    1.48370   1.96502    0.040
 6911.00    1.47815   1.96537    0.040
 6912.00    1.48276   1.96707    0.040
 6913.00    1.48767   1.96473    0.041
 6914.00    1.49477   1.96368    0.041
 6915.00    1.50143   1.96468    0.041
 6916.00    1.50570   1.96538    0.041
 6917.00    1.50680   1.96512    0.040
 6918.00    1.49393   1.96530    0.041
 6919.00    1.48351   1.96587    0.041
 6920.00    1.48191   1.96563    0.040
 6921.00    1.47889   1.96600    0.040
 6922.00    1.47153   1.96555    0.040
 6923.00    1.46695   1.96661    0.040
 6924.00    1.46958   1.96880    0.040
 6925.00    1.47075   1.96876    0.040
 6926.00    1.46871   1.96803    0.040
 6927.00    1.46843   1.96861    0.040
 6928.00    1.47156   1.97018    0.040
 6929.00    1.47725   1.96958    0.041
 6930.00    1.48725   1.96922    0.041
 6931.00    1.48963   1.97128    0.041
 6932.00    1.48081   1.97220    0.041
 6933.00    1.47654   1.97034    0.041
 6934.00    1.47817   1.96915    0.042
 6935.00    1.48441   1.97186    0.042
 6936.00    1.49591   1.97281    0.042
 6937.00    1.50506   1.97077    0.042
 6938.00    1.51182   1.97234    0.041
 6939.00    1.51455   1.97496    0.041
 6940.00    1.51369   1.97263    0.041
 6941.00    1.50493   1.97120    0.041
 6942.00    1.48999   1.97527    0.040
 6943.00    1.48310   1.97690    0.041
 6944.00    1.48174   1.97507    0.041
 6945.00    1.47065   1.97787    0.041
 6946.00    1.45370   1.98151    0.041
 6947.00    1.44351   1.97989    0.041
 6948.00    1.43688   1.98004    0.041
 6949.00    1.44726   1.98417    0.041
 6950.00    1.46539   1.98561    0.042
 6951.00    1.46715   1.98504    0.042
 6952.00    1.46249   1.98779    0.041
 6953.00    1.47029   1.99005    0.042
 6954.00    1.48225   1.98893    0.042
 6955.00    1.49234   1.98970    0.042
 6956.00    1.50191   1.99163    0.042
 6957.00    1.50012   1.99127    0.042
 6958.00    1.49570   1.99112    0.041
 6959.00    1.49499   1.99225    0.041
 6960.00    1.49497   1.98989    0.041
 6961.00    1.48827   1.98756    0.041
 6962.00    1.48060   1.99002    0.041
 6963.00    1.48782   1.98949    0.041
 6964.00    1.49658   1.98519    0.041
 6965.00    1.49347   1.98587    0.041
 6966.00    1.48958   1.98787    0.041
 6967.00    1.51086   1.98196    0.042
 6968.00    1.53294   1.97858    0.042
 6969.00    1.51193   1.98463    0.042
 6970.00    1.49115   1.98504    0.042
 6971.00    1.47772   1.97957    0.042
 6972.00    1.46531   1.98211    0.042
 6973.00    1.46808   1.98695    0.042
 6974.00    1.46832   1.98291    0.043
 6975.00    1.44425   1.98087    0.042
 6976.00    1.42237   1.98772    0.042
 6977.00    1.41566   1.98999    0.042
 6978.00    1.41124   1.98646    0.042
 6979.00    1.41907   1.98898    0.041
 6980.00    1.42849   1.99405    0.041
 6981.00    1.44475   1.99261    0.041
 6982.00    1.45901   1.99083    0.041
 6983.00    1.46614   1.99443    0.041
 6984.00    1.47427   1.99660    0.041
 6985.00    1.48536   1.99427    0.042
 6986.00    1.48990   1.99383    0.042
 6987.00    1.47777   1.99633    0.042
 6988.00    1.46920   1.99550    0.041
 6989.00    1.46844   1.99255    0.042
 6990.00    1.46620   1.99275    0.042
 6991.00    1.46117   1.99425    0.042
 6992.00    1.46092   1.99253    0.043
 6993.00    1.46856   1.98975    0.043
 6994.00    1.47502   1.99005    0.043
 6995.00    1.47973   1.99014    0.043
 6996.00    1.48442   1.98814    0.043
 6997.00    1.48907   1.98663    0.043
 6998.00    1.48758   1.98638    0.043
 6999.00    1.47918   1.98631    0.042
 7000.00    1.46481   1.98523    0.042
 7001.00    1.44451   1.98383    0.042
 7002.00    1.44990   1.98389    0.042
 7003.00    1.47778   1.98555    0.043
 7004.00    1.48167   1.98472    0.043
 7005.00    1.46705   1.98098    0.043
 7006.00    1.46182   1.98178    0.045
 7007.00    1.46294   1.98568    0.046
 7008.00    1.46123   1.98445    0.047
 7009.00    1.45782   1.98247    0.046
 7010.00    1.45783   1.98682    0.046
 7011.00    1.45959   1.98959    0.046
 7012.00    1.43554   1.98489    0.047
 7013.00    1.39990   1.98439    0.047
 7014.00    1.40600   1.99149    0.046
 7015.00    1.42823   1.99375    0.046
 7016.00    1.43838   1.99075    0.046
 7017.00    1.44458   1.99406    0.046
 7018.00    1.43905   2.00076    0.046
 7019.00    1.43030   1.99952    0.045
 7020.00    1.41665   1.99671    0.045
 7021.00    1.40190   2.00299    0.045
 7022.00    1.40516   2.00981    0.045
 7023.00    1.41167   2.00776    0.045
 7024.00    1.42809   2.00817    0.045
 7025.00    1.44589   2.01704    0.045
 7026.00    1.44214   2.01984    0.045
 7027.00    1.43624   2.01483    0.045
 7028.00    1.42935   2.01871    0.046
 7029.00    1.42239   2.02821    0.046
 7030.00    1.44094   2.02696    0.047
 7031.00    1.46011   2.02439    0.048
 7032.00    1.45415   2.03219    0.048
 7033.00    1.44881   2.03585    0.048
 7034.00    1.46071   2.02866    0.047
 7035.00    1.47180   2.02845    0.047
 7036.00    1.47131   2.03558    0.047
 7037.00    1.47069   2.03283    0.048
 7038.00    1.46883   2.02649    0.047
 7039.00    1.46626   2.02885    0.047
 7040.00    1.45895   2.02934    0.047
 7041.00    1.45781   2.01983    0.046
 7042.00    1.48889   2.01414    0.046
 7043.00    1.51771   2.01530    0.046
 7044.00    1.53705   2.00997    0.046
 7045.00    1.54334   2.00103    0.047
 7046.00    1.50419   1.99852    0.047
 7047.00    1.47368   1.99624    0.047
 7048.00    1.46844   1.98692    0.048
 7049.00    1.46096   1.97961    0.048
 7050.00    1.44789   1.97775   -2.000
 7051.00    1.45023   1.97305   -2.000
 7052.00    1.48571   1.96662   -2.000
 7053.00    1.50208   1.96448   -2.000
 7054.00    1.48274   1.96278   -2.000
 7055.00    1.48631   1.95770   -2.000
 7056.00    1.52725   1.95443   -2.000
 7057.00    1.54777   1.95315   -2.000
 7058.00    1.53907   1.95107   -2.000
 7059.00    1.53362   1.95013   -2.000
 7060.00    1.53224   1.95068   -2.000
 7061.00    1.53714   1.94953   -2.000
 7062.00    1.54897   1.94781   -2.000
 7063.00    1.57635   1.94845   -2.000
 7064.00    1.61894   1.94753   -2.000
 7065.00    1.61518   1.94512   -2.000
 7066.00    1.57143   1.94500   -2.000
 7067.00    1.53263   1.94560   -2.000
 7068.00    1.49758   1.94295   -2.000
 7069.00    1.50468   1.93918   -2.000
 7070.00    1.53992   1.93811   -2.000
 7071.00    1.56897   1.93603   -2.000
 7072.00    1.59441   1.93079   -2.000
 7073.00    1.60926   1.92583   -2.000
 7074.00    1.61872   1.92364   -2.000
 7075.00    1.64564   1.92000   -2.000
 7076.00    1.68028   1.91337   -2.000
 7077.00    1.64492   1.90898   -2.000
 7078.00    1.58302   1.90627   -2.000
 7079.00    1.56811   1.90095   -2.000
 7080.00    1.56832   1.89438   -2.000
 7081.00    1.56640   1.89198   -2.000
 7082.00    1.56390   1.88986   -2.000
 7083.00    1.55695   1.88561   -2.000
 7084.00    1.54903   1.88300   -2.000
 7085.00    1.51504   1.88173   -2.000
 7086.00    1.47647   1.87981   -2.000
 7087.00    1.46336   1.87785   -2.000
 7088.00    1.45365   1.87857   -2.000
 7089.00    1.46364   1.87813   -2.000
 7090.00    1.47549   1.87852   -2.000
 7091.00    1.47349   1.88022   -2.000
 7092.00    1.47067   1.87997   -2.000
 7093.00    1.46588   1.88004   -2.000
 7094.00    1.46101   1.88290   -2.000
 7095.00    1.45247   1.88565   -2.000
 7096.00    1.44403   1.88420   -2.000
 7097.00    1.43826   1.88595   -2.000
 7098.00    1.43232   1.89033   -2.000
 7099.00    1.42407   1.88987   -2.000
 7100.00    1.41049   1.88792   -2.000
 7101.00    1.34962   1.89172   -2.000
 7102.00    1.29962   1.89547   -2.000
 7103.00    1.32060   1.89231   -2.000
 7104.00    1.34007   1.89103   -2.000
 7105.00    1.35186   1.89565   -2.000
 7106.00    1.35804   1.89631   -2.000
 7107.00    1.34107   1.89119   -2.000
 7108.00    1.33216   1.89154   -2.000
 7109.00    1.35071   1.89560   -2.000
 7110.00    1.36465   1.89306   -2.000
 7111.00    1.36534   1.88764   -2.000
 7112.00    1.36761   1.88939   -2.000
 7113.00    1.37373   1.89167   -2.000
 7114.00    1.37083   1.88625   -2.000
 7115.00    1.34883   1.88245   -2.000
 7116.00    1.34752   1.88473   -2.000
 7117.00    1.38424   1.88449   -2.000
 7118.00    1.41176   1.87894   -2.000
 7119.00    1.42450   1.87801   -2.000
 7120.00    1.44561   1.88037   -2.000
 7121.00    1.47852   1.87794   -2.000
 7122.00    1.49458   1.87471   -2.000
 7123.00    1.48974   1.87582   -2.000
 7124.00    1.46471   1.87742   -2.000
 7125.00    1.41763   1.87538   -2.000
 7126.00    1.39765   1.87509   -2.000
 7127.00    1.40380   1.87721   -2.000
 7128.00    1.40581   1.87783   -2.000
 7129.00    1.40430   1.87730   -2.000
 7130.00    1.40807   1.87885   -2.000
 7131.00    1.41580   1.88189   -2.000
 7132.00    1.41674   1.88226   -2.000
 7133.00    1.41321   1.88175   -2.000
 7134.00    1.36124   1.88424   -2.000
 7135.00    1.28139   1.88803   -2.000
 7136.00    1.28574   1.88767   -2.000
 7137.00    1.33235   1.88727   -2.000
 7138.00    1.36648   1.89219   -2.000
 7139.00    1.39518   1.89520   -2.000
 7140.00    1.40538   1.89261   -2.000
 7141.00    1.40869   1.89379   -2.000
 7142.00    1.38910   1.90046   -2.000
 7143.00    1.36228   1.90046   -2.000
 7144.00    1.36700   1.89701   -2.000
 7145.00    1.38004   1.90128   -2.000
 7146.00    1.36898   1.90659   -2.000
 7147.00    1.35272   1.90414   -2.000
 7148.00    1.34686   1.90278   -2.000
 7149.00    1.34278   1.90772   -2.000
 7150.00    1.33866   1.90842   -2.000
 7151.00    1.33454   1.90560   -2.000
 7152.00    1.34529   1.90718   -2.000
 7153.00    1.35739   1.91052   -2.000
 7154.00    1.35783   1.90895   -2.000
 7155.00    1.35764   1.90765   -2.000
 7156.00    1.35253   1.90996   -2.000
 7157.00    1.34725   1.91015   -2.000
 7158.00    1.33682   1.90897   -2.000
 7159.00    1.33014   1.90944   -2.000
 7160.00    1.40881   1.91065   -2.000
 7161.00    1.48146   1.90900   -2.000
 7162.00    1.47833   1.90847   -2.000
 7163.00    1.47202   1.91074   -2.000
 7164.00    1.43852   1.91107   -2.000
 7165.00    1.40653   1.90846   -2.000
 7166.00    1.38415   1.90722   -2.000
 7167.00    1.37908   1.90875   -2.000
 7168.00    1.45998   1.90802   -2.000
 7169.00    1.51927   1.90607   -2.000
 7170.00    1.49162   1.90645   -2.000
 7171.00    1.46007   1.90702   -2.000
 7172.00    1.41549   1.90380   -2.000
 7173.00    1.38006   1.90115   -2.000
 7174.00    1.37046   1.90223   -2.000
 7175.00    1.37763   1.90256   -2.000
 7176.00    1.42523   1.90065   -2.000
 7177.00    1.45178   1.89905   -2.000
 7178.00    1.43450   1.89868   -2.000
 7179.00    1.42664   1.89773   -2.000
 7180.00    1.43585   1.89768   -2.000
 7181.00    1.42172   1.89800   -2.000
 7182.00    1.37066   1.89724   -2.000
 7183.00    1.33426   1.89723   -2.000
 7184.00    1.31824   1.89775   -2.000
 7185.00    1.30410   1.89699   -2.000
 7186.00    1.29226   1.89672   -2.000
 7187.00    1.30781   1.89890   -2.000
 7188.00    1.35289   1.90008   -2.000
 7189.00    1.37974   1.89943   -2.000
 7190.00    1.38928   1.90013   -2.000
 7191.00    1.38554   1.90164   -2.000
 7192.00    1.37068   1.90110   -2.000
 7193.00    1.35332   1.90117   -2.000
 7194.00    1.33411   1.90317   -2.000
 7195.00    1.32036   1.90467   -2.000
 7196.00    1.31016   1.90614   -2.000
 7197.00    1.29770   1.90732   -2.000
 7198.00    1.28396   1.90738   -2.000
 7199.00    1.29781   1.90789   -2.000
 7200.00    1.32528   1.91080   -2.000
 7201.00    1.36670   1.91267   -2.000
 7202.00    1.41408   1.91370   -2.000
 7203.00    1.39976   1.91712   -2.000
 7204.00    1.36287   1.91984   -2.000
 7205.00    1.29236   1.92005   -2.000
 7206.00    1.21144   1.92233   -2.000
 7207.00    1.21424   1.92799   -2.000
 7208.00    1.23865   1.93034   -2.000
 7209.00    1.24054   1.93131   -2.000
 7210.00    1.23768   1.93566   -2.000
 7211.00    1.25561   1.93986   -2.000
 7212.00    1.27700   1.94192   -2.000
 7213.00    1.26118   1.94468   -2.000
 7214.00    1.24071   1.94946   -2.000
 7215.00    1.25712   1.95261   -2.000
 7216.00    1.27673   1.95517   -2.000
 7217.00    1.26118   1.95849   -2.000
 7218.00    1.24385   1.96133   -2.000
