###################################################################
## OUTPUT of StarlightChains_v04.for    [Cid@UFSC - 01/Apr/2007] ##
###################################################################

## Some input info
KUG0210-078._32_35.txt                   [arq_obs]
Base.CB07.vall.4m                        [arq_base]
Masks.EmLines.NEW.gm                     [arq_masks]
StCv04.C11.config                        [arq_config]
   66                                    [N_base]
    0                                    [N_YAV_components = # of components with extra extinction!]
    0                                    [i_FitPowerLaw (1/0 = Yes/No)]
-9.99                                    [alpha_PowerLaw]
CCM                                      [red_law_option]
 1.458241                                [q_norm = A(l_norm)/A(V)]

## (Re)Sampling Parameters
 3741.00                                 [l_ini (A)]
 7218.00                                 [l_fin (A)]
    1.00                                 [dl    (A)]     (OBS: dl_cushion =    50.00 A)

## Normalization info
 4020.00                                 [l_norm (A) - for base]
 4010.00                                 [llow_norm (A) - window for f_obs]
 4060.00                                 [lupp_norm (A) - window for f_obs]
7.560533E-17                             [fobs_norm (in input units)]

## S/N
 3691.00                                 [llow_SN (A) - window for S/N]
 7268.00                                 [lupp_SN (A) - window for S/N]
   5.071                                 [S/N in S/N window]
   3.963                                 [S/N in norm. window]
   0.143                                 [S/N_err in S/N window]
   0.112                                 [S/N_err in norm. window]
  1.0000                                 [fscale_chi2]

## etc...
    -2007483                             [idum_orig]
  2432                                   [NOl_eff]
  2424                                   [Nl_eff]
     8    NSIGMA                         [Ntot_cliped & clip_method]
 10217830                                [Nglobal_steps]
   7                                     [N_chains]
  26                                     [NEX0s_base = N_base in EX0s-fits]
 0   1   1        8   2.0   8.769E+03    [Clip-Bug, RC-Crash & Burn-In warning-flags, n_censored_weights, wei_nsig_threshold & wei_limit]
   240    238.037    236.272      1.765  [idt_all, wdt_TotTime, wdt_UsrTime & wdt_SysTime (sec)]

## Synthesis Results - Best model ##

 6.68427E-05                             [chi2/Nl_eff]
     4.32256                             [adev (%)]

   114.62269                             [sum-of-x (%)]
 5.60552E-17                             [Flux_tot (units of input spectrum!)]
 5.34550E-12                             [Mini_tot (???)]
 2.69337E-12                             [Mcor_tot (???)]

 -74.17                                  [v0_min  (km/s)]
 224.45                                  [vd_min  (km/s)]
-0.3244                                  [AV_min  (mag)]
 0.0000                                  [YAV_min (mag)]

# j     x_j(%)      Mini_j(%)     Mcor_j(%)     age_j(yr)     Z_j      (L/M)_j    YAV?  Mstars   component_j        a/Fe...       SSP_chi2r SSP_adev(%)   SSP_AV   SSP_x(%)
  1      0.0000     0.0000E+00    0.0000E+00    1.000000E+06  0.00400  1.094E-02    0   1.0000   age020_m42            0.0000     5.3591E-04    10.7907   3.7200    93.3906
  2      0.0000     0.0000E+00    0.0000E+00    3.160000E+06  0.00400  4.007E-02    0   0.9999   age045_m42            0.0000     4.1033E-04     9.3803   2.9823   100.2101
  3      0.0000     0.0000E+00    0.0000E+00    5.010000E+06  0.00400  2.539E-02    0   0.9488   age055_m42            0.0000     4.6685E-04    10.0098   3.3089    97.5279
  4      0.0000     0.0000E+00    0.0000E+00    6.610000E+06  0.00400  2.620E-02    0   0.9220   age061_m42            0.0000     4.1182E-04     9.3427   2.9092   100.3803
  5      0.0000     0.0000E+00    0.0000E+00    1.000000E+07  0.00400  1.322E-02    0   0.8862   age070_m42            0.0000     4.7837E-04    10.3880   2.6401   101.8110
  6      0.0000     0.0000E+00    0.0000E+00    1.445000E+07  0.00400  7.883E-03    0   0.8571   age078_m42            0.0000     5.0499E-04    10.6179   2.9681    99.2175
  7      0.0000     0.0000E+00    0.0000E+00    2.512000E+07  0.00400  5.251E-03    0   0.8174   age090_m42            0.0000     4.8569E-04    10.5845   2.5114   102.3016
  8      0.0000     0.0000E+00    0.0000E+00    4.000000E+07  0.00400  3.649E-03    0   0.7851   age104_m42            0.0000     4.5257E-04    10.2185   2.2802   103.3447
  9      0.0000     0.0000E+00    0.0000E+00    5.500000E+07  0.00400  3.098E-03    0   0.7629   age110_m42            0.0000     4.0723E-04     9.4578   2.4264   103.7149
 10      0.0000     0.0000E+00    0.0000E+00    1.015200E+08  0.00400  2.228E-03    0   0.7207   age116_m42            0.0000     3.7905E-04     8.9440   2.4405   104.1925
 11      0.0000     0.0000E+00    0.0000E+00    2.861200E+08  0.00400  1.093E-03    0   0.6648   age125_m42            0.0000     3.7282E-04     8.8614   1.8640   107.3172
 12      0.0000     0.0000E+00    0.0000E+00    5.088000E+08  0.00400  6.597E-04    0   0.6365   age130_m42            0.0000     3.1853E-04     8.0285   1.8471   108.6553
 13      0.0000     0.0000E+00    0.0000E+00    1.434000E+09  0.00400  2.132E-04    0   0.5798   age139_m42            0.0000     2.1874E-04     7.0743   0.8732   111.1570
 14      0.0000     0.0000E+00    0.0000E+00    4.250000E+09  0.00400  5.895E-05    0   0.5377   age158_m42            0.0000     1.7515E-04     6.3330   0.4259   107.3877
 15      0.0000     0.0000E+00    0.0000E+00    7.500000E+09  0.00400  3.510E-05    0   0.5212   age171_m42            0.0000     1.5526E-04     5.9796   0.2321   106.9439
 16      0.0000     0.0000E+00    0.0000E+00    1.300000E+10  0.00400  2.005E-05    0   0.5034   age193_m42            0.0000     1.4442E-04     5.7225   0.0615   106.5877
 17      0.0000     0.0000E+00    0.0000E+00    1.800000E+10  0.00400  1.525E-05    0   0.4967   age213_m42            0.0000     1.5014E-04     5.8573   0.0398   106.0568
 18      0.0000     0.0000E+00    0.0000E+00    1.000000E+06  0.00800  1.238E-02    0   1.0000   age020_m52            0.0000     5.3568E-04    10.7808   3.7154    93.6047
 19      0.0000     0.0000E+00    0.0000E+00    3.160000E+06  0.00800  3.074E-02    0   0.9966   age045_m52            0.0000     5.2410E-04    10.6750   3.6393    94.4513
 20      0.0000     0.0000E+00    0.0000E+00    5.010000E+06  0.00800  2.668E-02    0   0.9443   age055_m52            0.0000     4.8418E-04    10.2096   3.3925    96.6221
 21      0.0000     0.0000E+00    0.0000E+00    6.610000E+06  0.00800  2.136E-02    0   0.9177   age061_m52            0.0000     4.4175E-04    10.1423   2.1404   103.0967
 22      0.0000     0.0000E+00    0.0000E+00    1.000000E+07  0.00800  1.215E-02    0   0.8827   age070_m52            0.0000     5.2066E-04    10.9123   2.8197   101.4456
 23      0.0000     0.0000E+00    0.0000E+00    1.445000E+07  0.00800  8.717E-03    0   0.8552   age078_m52            0.0000     4.9381E-04    10.5270   2.9320   100.6496
 24      0.0000     0.0000E+00    0.0000E+00    2.512000E+07  0.00800  5.592E-03    0   0.8162   age090_m52            0.0000     4.8223E-04    10.5782   2.5721   103.5746
 25      0.0000     0.0000E+00    0.0000E+00    4.000000E+07  0.00800  3.896E-03    0   0.7841   age104_m52            0.0000     4.4130E-04    10.0316   2.4789   104.6159
 26      0.0000     0.0000E+00    0.0000E+00    1.015200E+08  0.00800  2.148E-03    0   0.7226   age116_m52            0.0000     3.8597E-04     9.1649   2.4095   104.8881
 27      0.0000     0.0000E+00    0.0000E+00    2.861200E+08  0.00800  9.925E-04    0   0.6683   age125_m52            0.0000     3.1461E-04     8.0340   1.9106   109.7183
 28      6.4640     1.8828E-01    2.2936E-01    9.047900E+08  0.00800  3.141E-04    0   0.6138   age135_m52            0.0000     1.8825E-04     6.3888   1.0967   115.1111
 29      0.0000     0.0000E+00    0.0000E+00    1.434000E+09  0.00800  1.719E-04    0   0.5853   age139_m52            0.0000     1.6678E-04     6.1134   0.5157   112.8272
 30      0.0000     0.0000E+00    0.0000E+00    2.500000E+09  0.00800  7.872E-05    0   0.5600   age150_m52            0.0000     1.2647E-04     5.4299   0.2419   110.3575
 31      0.0000     0.0000E+00    0.0000E+00    4.250000E+09  0.00800  4.336E-05    0   0.5426   age158_m52            0.0000     1.2902E-04     5.4834   0.2271   109.3297
 32      0.0000     0.0000E+00    0.0000E+00    6.250000E+09  0.00800  3.159E-05    0   0.5319   age166_m52            0.0000     1.0604E-04     5.0648   0.0149   109.8149
 33      0.0000     0.0000E+00    0.0000E+00    1.300000E+10  0.00800  1.361E-05    0   0.5073   age193_m52            0.0000     8.8556E-05     4.7371  -0.4647   109.6775
 34      0.0000     0.0000E+00    0.0000E+00    1.800000E+10  0.00800  9.886E-06    0   0.4990   age213_m52            0.0000     8.2459E-05     4.6499  -0.5840   109.6688
 35      0.0000     0.0000E+00    0.0000E+00    1.000000E+06  0.02000  1.544E-02    0   1.0000   age020_m62            0.0000     5.3954E-04    10.8177   3.7118    93.8159
 36      0.0000     0.0000E+00    0.0000E+00    3.160000E+06  0.02000  3.762E-02    0   0.9858   age045_m62            0.0000     5.3713E-04    10.7903   3.6517    94.6201
 37      0.0000     0.0000E+00    0.0000E+00    5.010000E+06  0.02000  3.296E-02    0   0.9342   age055_m62            0.0000     4.3882E-04     9.6471   3.2646    98.9246
 38      0.0000     0.0000E+00    0.0000E+00    8.710000E+06  0.02000  1.154E-02    0   0.8861   age067_m62            0.0000     7.7901E-04    14.4136   2.2898   102.9084
 39      0.0000     0.0000E+00    0.0000E+00    1.445000E+07  0.02000  7.663E-03    0   0.8472   age078_m62            0.0000     5.7092E-04    11.6858   2.4679   103.4241
 40      0.0000     0.0000E+00    0.0000E+00    2.512000E+07  0.02000  4.532E-03    0   0.8099   age090_m62            0.0000     5.8146E-04    11.8004   2.4583   103.1288
 41      0.0000     0.0000E+00    0.0000E+00    5.500000E+07  0.02000  2.733E-03    0   0.7595   age110_m62            0.0000     4.4726E-04    10.0487   2.4620   103.8596
 42      0.0000     0.0000E+00    0.0000E+00    1.609000E+08  0.02000  1.369E-03    0   0.6985   age120_m62            0.0000     3.6420E-04     8.7208   2.2861   107.4292
 43      0.0000     0.0000E+00    0.0000E+00    2.861200E+08  0.02000  9.013E-04    0   0.6714   age125_m62            0.0000     3.1537E-04     8.0276   2.0267   110.9885
 44      0.0000     0.0000E+00    0.0000E+00    5.088000E+08  0.02000  5.028E-04    0   0.6449   age130_m62            0.0000     2.2767E-04     6.7588   1.6343   114.7257
 45      0.0000     0.0000E+00    0.0000E+00    9.047900E+08  0.02000  2.428E-04    0   0.6179   age135_m62            0.0000     1.5134E-04     5.7737   1.0391   114.5591
 46      0.0000     0.0000E+00    0.0000E+00    1.434000E+09  0.02000  1.263E-04    0   0.5908   age139_m62            0.0000     1.2973E-04     5.4914   0.5928   113.0802
 47      0.0000     0.0000E+00    0.0000E+00    2.500000E+09  0.02000  5.985E-05    0   0.5673   age150_m62            0.0000     1.0580E-04     5.1285   0.2171   112.0969
 48      0.0000     0.0000E+00    0.0000E+00    4.250000E+09  0.02000  3.271E-05    0   0.5468   age158_m62            0.0000     8.4506E-05     4.7907  -0.1017   111.8494
 49      0.0000     0.0000E+00    0.0000E+00    1.000000E+10  0.02000  1.360E-05    0   0.5167   age181_m62            0.0000     7.7706E-05     4.7370  -0.4700   112.3288
 50     41.2858     5.3019E+01    5.2750E+01    1.800000E+10  0.02000  7.124E-06    0   0.5013   age213_m62            0.0000     8.9742E-05     5.2083  -0.6967   112.1863
 51      0.0000     0.0000E+00    0.0000E+00    1.000000E+06  0.05000  2.592E-02    0   0.9998   age020_m72            0.0000     5.5370E-04    10.9880   3.7055    93.7770
 52      0.0000     0.0000E+00    0.0000E+00    3.160000E+06  0.05000  4.845E-02    0   0.9577   age045_m72            0.0000     4.9568E-04    10.3228   3.5300    96.0658
 53      0.0000     0.0000E+00    0.0000E+00    5.010000E+06  0.05000  3.072E-02    0   0.9147   age055_m72            0.0000     5.5819E-04    11.0036   3.0451    99.8480
 54      0.0000     0.0000E+00    0.0000E+00    6.610000E+06  0.05000  1.455E-02    0   0.8877   age061_m72            0.0000     1.0082E-03    16.9190   2.3081   103.6978
 55      0.0000     0.0000E+00    0.0000E+00    1.000000E+07  0.05000  9.074E-03    0   0.8524   age070_m72            0.0000     6.0698E-04    11.3521   3.2041    99.8976
 56      0.0000     0.0000E+00    0.0000E+00    2.512000E+07  0.05000  4.250E-03    0   0.7902   age090_m72            0.0000     5.3188E-04    10.6911   2.9142   101.7548
 57      0.0000     0.0000E+00    0.0000E+00    4.000000E+07  0.05000  3.087E-03    0   0.7618   age104_m72            0.0000     5.2583E-04    10.7286   2.6858   103.4423
 58      0.0000     0.0000E+00    0.0000E+00    1.015200E+08  0.05000  1.700E-03    0   0.7096   age116_m72            0.0000     4.0408E-04     9.2475   2.4287   106.8112
 59      0.0000     0.0000E+00    0.0000E+00    2.861200E+08  0.05000  7.384E-04    0   0.6633   age125_m72            0.0000     2.6409E-04     7.3008   1.8855   112.9997
 60     14.6909     3.5193E-01    4.4507E-01    5.088000E+08  0.05000  3.819E-04    0   0.6372   age130_m72            0.0000     1.7413E-04     6.0863   1.3827   115.5475
 61     18.7958     1.0260E+00    1.2442E+00    9.047900E+08  0.05000  1.676E-04    0   0.6110   age135_m72            0.0000     1.1026E-04     5.2973   0.6746   114.3271
 62      0.0000     0.0000E+00    0.0000E+00    1.434000E+09  0.05000  8.837E-05    0   0.5874   age139_m72            0.0000     9.8019E-05     4.9984   0.2096   114.0455
 63      1.9710     4.2598E-01    4.7328E-01    2.500000E+09  0.05000  4.233E-05    0   0.5598   age150_m72            0.0000     8.0045E-05     4.7428  -0.1104   113.2046
 64      3.0573     1.9491E+00    2.0305E+00    6.250000E+09  0.05000  1.435E-05    0   0.5249   age166_m72            0.0000     8.0141E-05     4.8858  -0.5744   112.2078
 65     23.1557     3.2526E+01    3.2510E+01    1.300000E+10  0.05000  6.513E-06    0   0.5036   age193_m72            0.0000     1.0573E-04     5.7104  -0.8735   114.0922
 66      5.2023     1.0513E+01    1.0318E+01    1.800000E+10  0.05000  4.527E-06    0   0.4945   age213_m72            0.0000     1.3263E-04     6.3207  -1.0000   112.6983


## Synthesis Results - Average & Chains ##

# j      x_j: min, <> & last-chain-values for 1 ...  7 chains
  1      0.0000      1.5806      5.2469      2.0273      5.9453      5.5000      5.3135      5.3777      8.4082
  2      0.0000      1.9402      0.0316      0.0000      0.0223      0.3732      0.0205      0.0355      0.1164
  3      0.0000      1.5320      0.2352      0.7130      0.1974      0.0639      0.0230      0.2363      0.0000
  4      0.0000      1.2092      2.0646      0.3309      0.0000      1.2145      1.1626      1.9134      0.3050
  5      0.0000      1.2548      1.4683      0.8848      1.2026      1.7027      1.2658      1.2066      0.3288
  6      0.0000      1.1459      1.6483      0.4250      1.3277      1.6629      1.1563      1.4314      2.1142
  7      0.0000      1.3214      0.0421      0.5562      0.0863      0.0000      0.2565      0.0000      0.0000
  8      0.0000      1.1690      0.2251      6.2736      0.0000      0.2099      0.0483      0.3055      0.1824
  9      0.0000      1.6933      0.1253      0.0000      0.0558      0.0000      0.1568      0.0028      0.0296
 10      0.0000      1.2007      0.3954      0.8504      1.2484      0.4634      0.2265      0.3322      0.0954
 11      0.0000      1.0048      0.1347      0.8166      0.0602      0.0358      0.1662      0.2075      0.0366
 12      0.0000      1.1788      0.4153      0.2876      0.4186      0.3171      0.9580      0.0000      0.1430
 13      0.0000      1.5723      0.0185      0.7695      0.0000      0.0000      0.0000      0.0027      0.0552
 14      0.0000      1.5760      0.0115      0.2201      0.0000      0.1115      0.8077      0.0000      0.1641
 15      0.0000      1.5076      0.0020      1.7740      3.1754      0.0000      0.0000      0.0000      0.0476
 16      0.0000      1.3831      0.0403      0.0000      0.0000      0.0309      0.2850      0.0540      0.0000
 17      0.0000      1.1716      0.0449      0.0000      0.3668      0.5227      0.3464      0.1117      0.0839
 18      0.0000      1.1988      0.2491      0.2444      1.6624      0.3247      0.0287      0.2581      0.1863
 19      0.0000      0.8948      0.0596      0.0000      0.0000      0.0000      0.0000      0.0925      0.1374
 20      0.0000      1.1380      0.1845      0.1550      0.0000      0.1080      0.2871      0.1799      0.0000
 21      0.0000      1.4735      0.0393      0.9150      0.0279      0.1010      0.6766      1.0306      0.0004
 22      0.0000      0.8525      0.1407      0.9134      0.1561      0.0000      0.0000      0.2010      0.0147
 23      0.0000      1.1062      0.1196      0.6470      0.0000      0.1189      0.1145      0.0595      0.1691
 24      0.0000      1.0514      0.0258      0.6945      1.0768      0.1887      0.0039      0.0043      0.0000
 25      0.0000      0.8952      0.0252      0.1841      0.0909      0.0000      0.0732      0.0354      0.0113
 26      0.0000      1.0624      0.0000      0.0000      0.0000      0.0000      0.2973      0.0477      0.0766
 27      0.0000      1.2847      0.0427      3.8357      0.1076      0.2083      0.2978      0.0471      0.0950
 28      6.4640      1.4103      1.8140      5.3720      1.5539      1.1957      2.7487      1.8399      0.1914
 29      0.0000      1.4106      0.0024      0.0000      3.1437      0.0056      0.0306      0.1057      0.1861
 30      0.0000      1.3732      0.0085      1.8151      0.0275      0.0000      0.1818      0.0531      0.1275
 31      0.0000      1.2528      0.0602      9.4317      0.0000      0.0000      0.6296      0.0498      0.0000
 32      0.0000      1.1845      0.0727      9.4239      0.0677      0.1923      0.0721      0.1457      0.0158
 33      0.0000      1.3564      0.6973      2.3058      0.3306      0.5173      0.7505      0.5500      0.1367
 34      0.0000      1.5088      0.7436      1.6038      3.3982      0.9585      0.9335      0.7003      0.0442
 35      0.0000      1.0143      0.0302      1.9641      0.0000      0.0000      0.1061      0.1912      0.1470
 36      0.0000      1.3661      0.1574      0.0000      0.0177      0.1331      0.6457      0.0763      0.0648
 37      0.0000      1.6345      0.0538      0.6052      0.0193      0.1432      0.1480      0.0525      0.0150
 38      0.0000      1.2482      0.0925      3.0743      0.0000      0.0000      0.0073      0.0204      0.0163
 39      0.0000      1.0763      0.0532      0.0000      0.0610      0.2829      0.0420      0.0480      0.1252
 40      0.0000      2.8463      9.5360      0.8319      7.8647      9.4690      8.2986      9.7518     17.8733
 41      0.0000      1.2752      0.0160      0.0000      0.0000      0.1403      0.3467      0.0253      0.0832
 42      0.0000      1.2420      0.0125      1.0161      0.0000      0.1551      0.0000      0.0394      0.0266
 43      0.0000      1.2242      0.2583      0.7369      0.1071      0.3720      0.2339      0.1305      0.0000
 44      0.0000      1.2220      0.0032      0.0000      0.0000      0.1405      0.0000      0.0208      0.0923
 45      0.0000      1.6673      0.0000      0.0000      0.0260      0.3323      0.3535      0.0459      0.1957
 46      0.0000      1.4879      0.0854      0.6757      0.0035      0.2921      0.0000      0.0750      0.0811
 47      0.0000      1.2014      0.0392      0.0000      0.1085      0.2316      0.5592      0.0000      0.0314
 48      0.0000      1.2239      0.0652      5.1921      0.0412      0.0934      0.3646      0.0286      0.0000
 49      0.0000      1.4276      4.4489      1.0341      3.4814      4.8474      4.3435      4.4648      0.0342
 50     41.2858      1.2667      0.9754      0.6170      0.7190      0.3203      1.1102      0.8811      0.4329
 51      0.0000      1.1064      0.2536      0.0000      0.2986      0.2443      0.4361      0.0000      0.3592
 52      0.0000      1.1427      0.0000      0.1510      0.0258      0.0661      0.4595      0.0000      0.0907
 53      0.0000      1.0772      0.0437      0.0000      0.1167      0.0967      0.0463      0.1137      0.1550
 54      0.0000      1.3430      1.0986      0.1765      1.0062      1.1989      1.0919      1.2709      0.0179
 55      0.0000      1.3861      0.0009      0.5875      0.0176      0.1878      0.2539      0.0608      0.0135
 56      0.0000      1.5238      1.3322      1.7841      0.6153      0.9604      1.0410      1.1022      0.2193
 57      0.0000      1.0950      0.5132      0.0000      0.7298      0.4396      0.0306      0.5598      0.1034
 58      0.0000      1.3664      0.1085      0.8925      0.1089      0.0000      0.0223      0.1668      0.2150
 59      0.0000      1.2730      0.1178      0.0000      1.3409      0.2155      0.0000      0.0000      0.0000
 60     14.6909      1.2155      0.0980      2.7173      0.0711      0.0206      0.1912      0.0228      0.1861
 61     18.7958      6.3443     26.3708      4.1663     21.4706     26.3455     24.9632     26.8871     40.1662
 62      0.0000      1.4657      4.6812      0.0000      3.7433      3.8406      4.2443      4.6795      1.6735
 63      1.9710      2.8171      7.4055      2.8044      9.8872      7.5160      7.7440      7.5237      7.2621
 64      3.0573      3.9186     11.9218      5.1776     10.9655     14.4528     11.8347     12.1303     15.6248
 65     23.1557      2.2057      6.1835      6.5080      5.0084      4.9966      5.1240      5.5917      2.5126
 66      5.2023      1.9989      4.9853      1.1682      3.7837      3.8481      3.8852      4.7873      0.7581

# j      m_j: min, <> & last-chain-values for 1 ...  7 chains
  1  0.0000E+00  1.3173E-02  2.3985E-02  1.1915E-02  2.8852E-02  2.6948E-02  2.6225E-02  2.5441E-02  6.6543E-02
  2  0.0000E+00  4.4144E-03  3.9456E-05  0.0000E+00  2.9564E-05  4.9915E-04  2.7603E-05  4.5823E-05  2.5150E-04
  3  0.0000E+00  5.2198E-03  4.3952E-04  1.7131E-03  3.9166E-04  1.2806E-04  4.6444E-05  4.5692E-04  0.0000E+00
  4  0.0000E+00  3.8798E-03  3.6335E-03  7.4876E-04  0.0000E+00  2.2910E-03  2.2091E-03  3.4850E-03  9.2922E-04
  5  0.0000E+00  7.6693E-03  4.9225E-03  3.8137E-03  4.2799E-03  6.1180E-03  4.5817E-03  4.1862E-03  1.9086E-03
  6  0.0000E+00  1.1360E-02  8.9627E-03  2.9714E-03  7.6639E-03  9.6916E-03  6.7884E-03  8.0546E-03  1.9902E-02
  7  0.0000E+00  1.8755E-02  3.2799E-04  5.5672E-03  7.1356E-04  0.0000E+00  2.1560E-03  0.0000E+00  0.0000E+00
  8  0.0000E+00  2.2931E-02  2.4218E-03  8.6790E-02  0.0000E+00  2.4211E-03  5.6141E-04  3.4015E-03  3.3974E-03
  9  0.0000E+00  3.8020E-02  1.5435E-03  0.0000E+00  7.2926E-04  0.0000E+00  2.0855E-03  3.5186E-05  6.3056E-04
 10  0.0000E+00  3.5411E-02  6.3962E-03  1.7687E-02  2.1440E-02  8.0345E-03  3.9566E-03  5.5610E-03  2.6708E-03
 11  0.0000E+00  5.5723E-02  4.0985E-03  3.1937E-02  1.9429E-03  1.1677E-03  5.4588E-03  6.5315E-03  1.9264E-03
 12  0.0000E+00  1.0370E-01  2.0041E-02  1.7844E-02  2.1443E-02  1.6399E-02  4.9906E-02  0.0000E+00  1.1941E-02
 13  0.0000E+00  3.8986E-01  2.5204E-03  1.3456E-01  0.0000E+00  0.0000E+00  0.0000E+00  3.8269E-04  1.3006E-02
 14  0.0000E+00  1.3106E+00  5.2549E-03  1.2909E-01  0.0000E+00  5.4524E-02  3.9778E-01  0.0000E+00  1.2960E-01
 15  0.0000E+00  2.0411E+00  1.4532E-03  1.6938E+00  2.5033E+00  0.0000E+00  0.0000E+00  0.0000E+00  6.1193E-02
 16  0.0000E+00  3.1662E+00  5.0553E-02  0.0000E+00  0.0000E+00  4.1531E-02  3.8640E-01  7.0110E-02  0.0000E+00
 17  0.0000E+00  3.4793E+00  7.3060E-02  0.0000E+00  6.3422E-01  9.1255E-01  6.0914E-01  1.8821E-01  2.3673E-01
 18  0.0000E+00  8.8290E-03  1.0063E-03  1.2694E-03  7.1293E-03  1.4060E-03  1.2536E-04  1.0791E-03  1.3028E-03
 19  0.0000E+00  2.6450E-03  9.6627E-05  0.0000E+00  0.0000E+00  0.0000E+00  0.0000E+00  1.5527E-04  3.8561E-04
 20  0.0000E+00  3.6723E-03  3.2655E-04  3.5268E-04  0.0000E+00  2.0483E-04  5.4858E-04  3.2961E-04  0.0000E+00
 21  0.0000E+00  5.7720E-03  8.4403E-05  2.5276E-03  6.3724E-05  2.3264E-04  1.5697E-03  2.2917E-03  1.3872E-06
 22  0.0000E+00  5.6471E-03  5.1115E-04  4.2670E-03  6.0207E-04  0.0000E+00  0.0000E+00  7.5579E-04  9.2587E-05
 23  0.0000E+00  9.8951E-03  5.8704E-04  4.0814E-03  0.0000E+00  6.2549E-04  6.0631E-04  3.0217E-04  1.4362E-03
 24  0.0000E+00  1.3991E-02  1.8819E-04  6.5181E-03  8.3439E-03  1.4763E-03  3.0853E-05  3.2370E-05  0.0000E+00
 25  0.0000E+00  1.6427E-02  2.5396E-04  2.3823E-03  9.7109E-04  0.0000E+00  7.9512E-04  3.6858E-04  1.9635E-04
 26  0.0000E+00  3.2587E-02  0.0000E+00  0.0000E+00  0.0000E+00  0.0000E+00  5.4000E-03  8.2989E-04  2.2316E-03
 27  0.0000E+00  7.8870E-02  1.4378E-03  1.6607E-01  3.8455E-03  7.5189E-03  1.0828E-02  1.6400E-03  5.5398E-03
 28  2.2936E-01  2.5128E-01  1.7728E-01  6.7499E-01  1.6121E-01  1.2524E-01  2.9002E-01  1.8609E-01  3.2376E-02
 29  0.0000E+00  4.3790E-01  4.0603E-04  0.0000E+00  5.6830E-01  1.0261E-03  5.6172E-03  1.8634E-02  5.4870E-02
 30  0.0000E+00  8.9069E-01  3.0287E-03  8.3024E-01  1.0376E-02  0.0000E+00  6.9836E-02  1.9534E-02  7.8549E-02
 31  0.0000E+00  1.4294E+00  3.7696E-02  7.5890E+00  0.0000E+00  0.0000E+00  4.2544E-01  3.2251E-02  0.0000E+00
 32  0.0000E+00  1.8184E+00  6.1231E-02  1.0203E+01  6.0517E-02  1.7358E-01  6.5547E-02  1.2693E-01  2.3085E-02
 33  0.0000E+00  4.6099E+00  1.2999E+00  5.5262E+00  6.5416E-01  1.0335E+00  1.5104E+00  1.0610E+00  4.4122E-01
 34  0.0000E+00  6.9439E+00  1.8771E+00  5.2051E+00  9.1065E+00  2.5934E+00  2.5441E+00  1.8295E+00  1.9302E-01
 35  0.0000E+00  5.9898E-03  9.7961E-05  8.1795E-03  0.0000E+00  0.0000E+00  3.7107E-04  6.4082E-04  8.2437E-04
 36  0.0000E+00  3.2640E-03  2.0629E-04  0.0000E+00  2.4689E-05  1.8697E-04  9.1363E-04  1.0349E-04  1.4709E-04
 37  0.0000E+00  4.2240E-03  7.6264E-05  1.1030E-03  2.8984E-05  2.1755E-04  2.2651E-04  7.6941E-05  3.6765E-05
 38  0.0000E+00  8.7388E-03  3.5537E-04  1.5179E-02  0.0000E+00  0.0000E+00  3.0453E-05  8.1239E-05  1.0818E-04
 39  0.0000E+00  1.0849E-02  2.9437E-04  0.0000E+00  3.5804E-04  1.6766E-03  2.5059E-04  2.7475E-04  1.1989E-03
 40  0.0000E+00  4.6377E-02  8.5225E-02  9.5591E-03  7.4619E-02  9.0705E-02  8.0075E-02  9.0195E-02  2.7654E-01
 41  0.0000E+00  3.2311E-02  2.2229E-04  0.0000E+00  0.0000E+00  2.0899E-03  5.2024E-03  3.6417E-04  2.0023E-03
 42  0.0000E+00  5.7778E-02  3.1894E-04  3.3335E-02  0.0000E+00  4.2419E-03  0.0000E+00  1.0409E-03  1.1741E-03
 43  0.0000E+00  8.3149E-02  9.6226E-03  3.5296E-02  4.2348E-03  1.4854E-02  9.4067E-03  5.0305E-03  0.0000E+00
 44  0.0000E+00  1.4291E-01  2.0602E-04  0.0000E+00  0.0000E+00  9.6579E-03  0.0000E+00  1.3784E-03  1.0251E-02
 45  0.0000E+00  3.8686E-01  0.0000E+00  0.0000E+00  3.5071E-03  4.5332E-02  4.8577E-02  6.0484E-03  4.3127E-02
 46  0.0000E+00  6.3458E-01  1.9985E-02  2.0325E-01  8.7489E-04  7.3247E-02  0.0000E+00  1.8166E-02  3.2849E-02
 47  0.0000E+00  1.0383E+00  1.8564E-02  0.0000E+00  5.4619E-02  1.1769E-01  2.8620E-01  0.0000E+00  2.5806E-02
 48  0.0000E+00  1.8653E+00  5.4486E-02  5.5808E+00  3.6561E-02  8.3665E-02  3.2908E-01  2.4774E-02  0.0000E+00
 49  0.0000E+00  4.9452E+00  8.4531E+00  2.5262E+00  7.0223E+00  9.8718E+00  8.9102E+00  8.7792E+00  1.1260E-01
 50  5.2750E+01  8.1267E+00  3.4324E+00  2.7917E+00  2.6862E+00  1.2080E+00  4.2180E+00  3.2090E+00  2.6375E+00
 51  0.0000E+00  3.8910E-03  4.8925E-04  0.0000E+00  6.1151E-04  5.0520E-04  9.0830E-04  0.0000E+00  1.1996E-03
 52  0.0000E+00  2.0594E-03  0.0000E+00  1.9190E-04  2.7038E-05  7.0041E-05  4.9048E-04  0.0000E+00  1.5516E-04
 53  0.0000E+00  2.9245E-03  6.5027E-05  0.0000E+00  1.8454E-04  1.5427E-04  7.4482E-05  1.7520E-04  3.9969E-04
 54  0.0000E+00  7.4707E-03  3.3520E-03  6.9239E-04  3.2592E-03  3.9208E-03  3.5969E-03  4.0129E-03  9.4737E-05
 55  0.0000E+00  1.1872E-02  4.2777E-06  3.5486E-03  8.7663E-05  9.4557E-04  1.2877E-03  2.9539E-04  1.0955E-04
 56  0.0000E+00  2.5831E-02  1.2387E-02  2.1330E-02  6.0735E-03  9.5716E-03  1.0451E-02  1.0607E-02  3.5307E-03
 57  0.0000E+00  2.4638E-02  6.3339E-03  0.0000E+00  9.5614E-03  5.8154E-03  4.0740E-04  7.1494E-03  2.2091E-03
 58  0.0000E+00  5.2002E-02  2.2656E-03  2.3953E-02  2.4138E-03  0.0000E+00  5.0351E-04  3.6030E-03  7.7704E-03
 59  0.0000E+00  1.0426E-01  5.2907E-03  0.0000E+00  6.3952E-02  1.0378E-02  0.0000E+00  0.0000E+00  0.0000E+00
 60  4.4507E-01  1.8491E-01  8.1770E-03  2.9152E-01  6.2946E-03  1.8464E-03  1.7222E-02  1.9674E-03  2.6887E-02
 61  1.2442E+00  2.1088E+00  4.8079E+00  9.7661E-01  4.1556E+00  5.1482E+00  4.9138E+00  5.0730E+00  1.2678E+01
 62  0.0000E+00  8.8830E-01  1.5561E+00  0.0000E+00  1.3210E+00  1.3684E+00  1.5233E+00  1.6098E+00  9.6307E-01
 63  4.7328E-01  3.3967E+00  4.8978E+00  2.3847E+00  6.9420E+00  5.3279E+00  5.5296E+00  5.1496E+00  8.3150E+00
 64  2.0305E+00  1.3069E+01  2.1809E+01  1.2178E+01  2.1295E+01  2.8338E+01  2.3374E+01  2.2964E+01  4.9482E+01
 65  3.2510E+01  1.5550E+01  2.3911E+01  3.2356E+01  2.0560E+01  2.0709E+01  2.1393E+01  2.2377E+01  1.6820E+01
 66  1.0318E+01  1.9908E+01  2.7234E+01  8.2050E+00  2.1943E+01  2.2531E+01  2.2915E+01  2.7065E+01  7.1700E+00

# AV, chi2 & Mass for <> & i_chain = 1 ...  7 solutions
AV      -0.3244      0.7595      0.6597      0.8375      0.6555      0.6697      0.6825      0.6743      0.8552
chi2 6.6843E-05  1.0998E-03  3.0730E-04  3.6552E-04  3.0381E-04  3.0375E-04  3.0791E-04  3.0855E-04  2.6141E-04
Mass 2.6934E-12  2.2996E-12  3.6670E-12  3.6211E-12  3.4348E-12  3.4675E-12  3.5021E-12  3.6135E-12  2.7540E-12
 -74.17                                  [v0_min (km/s) before EX0s...]
 224.45                                  [vd_min (km/s) before EX0s...]


## Synthetic spectrum (Best Model) ##l_obs f_obs f_syn wei
 3478    [Nl_obs]
 3741.00    0.44097   0.48360    0.000
 3742.00    0.41972   0.46800    0.000
 3743.00    0.35874   0.44531    0.000
 3744.00    0.33559   0.42045    0.000
 3745.00    0.33448   0.39847    0.192
 3746.00    0.38277   0.38328    0.197
 3747.00    0.45615   0.37857    0.203
 3748.00    0.46285   0.38803    0.212
 3749.00    0.44022   0.41223    0.224
 3750.00    0.49011   0.44689    0.216
 3751.00    0.56738   0.48530    0.202
 3752.00    0.56464   0.52105    0.194
 3753.00    0.53626   0.54801    0.188
 3754.00    0.51901   0.56093    0.186
 3755.00    0.50474   0.55843    0.184
 3756.00    0.52558   0.54532    0.185
 3757.00    0.55412   0.53006    0.186
 3758.00    0.53871   0.51875    0.188
 3759.00    0.51564   0.51263    0.192
 3760.00    0.48596   0.51029    0.262
 3761.00    0.45541   0.51000    0.443
 3762.00    0.47661   0.51091    0.271
 3763.00    0.50267   0.51289    0.185
 3764.00    0.49988   0.51512    0.176
 3765.00    0.49541   0.51788    0.171
 3766.00    0.46302   0.52405    0.176
 3767.00    0.43020   0.53522    0.181
 3768.00    0.42598   0.54984    0.179
 3769.00    0.42201   0.56674    0.177
 3770.00    0.42420   0.58571    0.174
 3771.00    0.42831   0.60501    0.171
 3772.00    0.45753   0.62220    0.170
 3773.00    0.48566   0.63687    0.169
 3774.00    0.50420   0.65058    0.168
 3775.00    0.51640   0.66470    0.167
 3776.00    0.48759   0.67942    0.170
 3777.00    0.46181   0.69473    0.173
 3778.00    0.45142   0.70985    0.172
 3779.00    0.44400   0.72212    0.173
 3780.00    0.44872   0.72868    0.175
 3781.00    0.46280   0.72810    0.177
 3782.00    0.50859   0.71945    0.176
 3783.00    0.54003   0.70134    0.176
 3784.00    0.53043   0.67400    0.183
 3785.00    0.51769   0.64196    0.186
 3786.00    0.49727   0.61120    0.180
 3787.00    0.47957   0.58518    0.176
 3788.00    0.46762   0.56534    0.178
 3789.00    0.45557   0.55150    0.179
 3790.00    0.44333   0.54077    0.178
 3791.00    0.44501   0.52903    0.179
 3792.00    0.46897   0.51465    0.182
 3793.00    0.47512   0.49909    0.182
 3794.00    0.45626   0.48488    0.176
 3795.00    0.46502   0.47401    0.175
 3796.00    0.50792   0.46853    0.181
 3797.00    0.52235   0.47196    0.186
 3798.00    0.50577   0.48680    0.190
 3799.00    0.49405   0.51142    0.189
 3800.00    0.48700   0.54113    0.185
 3801.00    0.48064   0.57121    0.182
 3802.00    0.47487   0.59765    0.178
 3803.00    0.47790   0.61735    0.177
 3804.00    0.48751   0.62945    0.176
 3805.00    0.52169   0.63593    0.176
 3806.00    0.57199   0.64040    0.176
 3807.00    0.60513   0.64469    0.175
 3808.00    0.62843   0.64698    0.174
 3809.00    0.61228   0.64420    0.177
 3810.00    0.57640   0.63416    0.182
 3811.00    0.53262   0.61658    0.182
 3812.00    0.48541   0.59402    0.179
 3813.00    0.45571   0.57059    0.172
 3814.00    0.43251   0.54964    0.165
 3815.00    0.41357   0.53322    0.163
 3816.00    0.39596   0.52083    0.162
 3817.00    0.40972   0.50947    0.173
 3818.00    0.43170   0.49753    0.189
 3819.00    0.46156   0.48633    0.185
 3820.00    0.49311   0.47719    0.177
 3821.00    0.47225   0.46836    0.174
 3822.00    0.44251   0.45710    0.171
 3823.00    0.42019   0.44374    0.166
 3824.00    0.39881   0.43119    0.162
 3825.00    0.37543   0.42109    0.166
 3826.00    0.35186   0.41320    0.173
 3827.00    0.36739   0.40662    0.175
 3828.00    0.38501   0.40029    0.177
 3829.00    0.40470   0.39293    0.174
 3830.00    0.42372   0.38362    0.172
 3831.00    0.38383   0.37333    0.173
 3832.00    0.34687   0.36462    0.173
 3833.00    0.37491   0.35954    0.173
 3834.00    0.40179   0.35879    0.172
 3835.00    0.41410   0.36183    0.173
 3836.00    0.42641   0.36810    0.174
 3837.00    0.43878   0.37839    0.180
 3838.00    0.45450   0.39395    0.185
 3839.00    0.49127   0.41526    0.186
 3840.00    0.51520   0.44182    0.186
 3841.00    0.47570   0.47104    0.185
 3842.00    0.44061   0.49869    0.184
 3843.00    0.42317   0.52193    0.181
 3844.00    0.41641   0.53980    0.179
 3845.00    0.44516   0.55255    0.178
 3846.00    0.47101   0.56076    0.178
 3847.00    0.48871   0.56441    0.000
 3848.00    0.49898   0.56465    0.000
 3849.00    0.49143   0.56465    0.000
 3850.00    0.47883   0.56569    0.000
 3851.00    0.45579   0.56535    0.000
 3852.00    0.44268   0.56158    0.000
 3853.00    0.44747   0.55484    0.000
 3854.00    0.44274   0.54615    0.000
 3855.00    0.42301   0.53709    0.000
 3856.00    0.41631   0.52956    0.000
 3857.00    0.42766   0.52459    0.000
 3858.00    0.44449   0.52414    0.000
 3859.00    0.46801   0.53078    0.000
 3860.00    0.47947   0.54394    0.000
 3861.00    0.47796   0.55959    0.000
 3862.00    0.47273   0.57316    0.000
 3863.00    0.46399   0.58217    0.000
 3864.00    0.45650   0.58627    0.000
 3865.00    0.45005   0.58612    0.000
 3866.00    0.44847   0.58241    0.000
 3867.00    0.45046   0.57576    0.000
 3868.00    0.44860   0.56740    0.000
 3869.00    0.44426   0.55912    0.000
 3870.00    0.44796   0.55312    0.000
 3871.00    0.45620   0.55127    0.000
 3872.00    0.46099   0.55427    0.000
 3873.00    0.46410   0.55985    0.000
 3874.00    0.46620   0.56330    0.000
 3875.00    0.46787   0.56144    0.000
 3876.00    0.48093   0.55463    0.000
 3877.00    0.49815   0.54623    0.000
 3878.00    0.50580   0.53963    0.000
 3879.00    0.51050   0.53414    0.000
 3880.00    0.49815   0.52765    0.000
 3881.00    0.48143   0.52144    0.176
 3882.00    0.49619   0.51692    0.175
 3883.00    0.51754   0.51156    0.173
 3884.00    0.53548   0.50347    0.177
 3885.00    0.55286   0.49707    0.181
 3886.00    0.56138   0.49798    0.180
 3887.00    0.56881   0.50740    0.178
 3888.00    0.60890   0.52493    0.177
 3889.00    0.65178   0.54955    0.177
 3890.00    0.65133   0.57734    0.176
 3891.00    0.64873   0.60322    0.176
 3892.00    0.59549   0.62372    0.174
 3893.00    0.54254   0.63806    0.171
 3894.00    0.56219   0.64770    0.173
 3895.00    0.58127   0.65529    0.174
 3896.00    0.58860   0.66118    0.172
 3897.00    0.59538   0.66416    0.170
 3898.00    0.59568   0.66591    0.167
 3899.00    0.59473   0.66903    0.164
 3900.00    0.58362   0.67291    0.162
 3901.00    0.57145   0.67472    0.160
 3902.00    0.55287   0.67548    0.157
 3903.00    0.53549   0.67838    0.155
 3904.00    0.52391   0.68431    0.154
 3905.00    0.51565   0.69576    0.152
 3906.00    0.52042   0.71454    0.149
 3907.00    0.53112   0.73736    0.148
 3908.00    0.56113   0.75951    0.155
 3909.00    0.59140   0.77831    0.161
 3910.00    0.62238   0.79243    0.163
 3911.00    0.64288   0.80009    0.164
 3912.00    0.63863   0.79996    0.166
 3913.00    0.65183   0.79286    0.169
 3914.00    0.70065   0.77998    0.173
 3915.00    0.72657   0.76203    0.177
 3916.00    0.71181   0.74132    0.179
 3917.00    0.70050   0.71955    0.180
 3918.00    0.69456   0.69739    0.180
 3919.00    0.68421   0.67685    0.179
 3920.00    0.66787   0.65995    0.175
 3921.00    0.65067   0.64621    0.176
 3922.00    0.63245   0.63297    0.182
 3923.00    0.61090   0.61690    0.186
 3924.00    0.58584   0.59424    0.188
 3925.00    0.55632   0.56373    0.186
 3926.00    0.52262   0.52634    0.179
 3927.00    0.51310   0.48393    0.180
 3928.00    0.52348   0.43987    0.187
 3929.00    0.52638   0.39778    0.189
 3930.00    0.52385   0.36136    0.186
 3931.00    0.47601   0.33446    0.181
 3932.00    0.39934   0.32034    0.175
 3933.00    0.39203   0.32110    0.173
 3934.00    0.42331   0.33687    0.174
 3935.00    0.47395   0.36538    0.174
 3936.00    0.53397   0.40221    0.175
 3937.00    0.54569   0.44270    0.176
 3938.00    0.53721   0.48291    0.177
 3939.00    0.55539   0.51925    0.177
 3940.00    0.58311   0.54983    0.176
 3941.00    0.60610   0.57554    0.175
 3942.00    0.62766   0.59818    0.174
 3943.00    0.59906   0.62089    0.175
 3944.00    0.55786   0.64650    0.176
 3945.00    0.59585   0.67271    0.175
 3946.00    0.65000   0.69537    0.174
 3947.00    0.68676   0.71514    0.178
 3948.00    0.72074   0.73433    0.183
 3949.00    0.75278   0.75165    0.182
 3950.00    0.78460   0.76371    0.181
 3951.00    0.80316   0.76966    0.180
 3952.00    0.82065   0.77271    0.179
 3953.00    0.78125   0.77317    0.180
 3954.00    0.73924   0.76615    0.180
 3955.00    0.73783   0.75066    0.181
 3956.00    0.73712   0.73056    0.182
 3957.00    0.74611   0.70670    0.181
 3958.00    0.75241   0.67619    0.180
 3959.00    0.70768   0.63647    0.182
 3960.00    0.66737   0.58950    0.000
 3961.00    0.67685   0.54135    0.000
 3962.00    0.68137   0.49528    0.000
 3963.00    0.64689   0.45059    0.000
 3964.00    0.61119   0.40764    0.000
 3965.00    0.56823   0.36943    0.000
 3966.00    0.52551   0.34031    0.000
 3967.00    0.48392   0.32410    0.000
 3968.00    0.45671   0.32310    0.000
 3969.00    0.48462   0.33782    0.000
 3970.00    0.51184   0.36702    0.000
 3971.00    0.53684   0.40798    0.000
 3972.00    0.57152   0.45748    0.000
 3973.00    0.63240   0.51259    0.000
 3974.00    0.68315   0.56981    0.000
 3975.00    0.71039   0.62508    0.000
 3976.00    0.74489   0.67640    0.000
 3977.00    0.79398   0.72286    0.000
 3978.00    0.83040   0.76289    0.000
 3979.00    0.84465   0.79498    0.000
 3980.00    0.87118   0.81858    0.000
 3981.00    0.91652   0.83645    0.199
 3982.00    0.93759   0.85240    0.199
 3983.00    0.92604   0.86813    0.198
 3984.00    0.92306   0.88404    0.197
 3985.00    0.93024   0.89922    0.195
 3986.00    0.94459   0.91401    0.193
 3987.00    0.96642   0.92831    0.193
 3988.00    0.94414   0.93898    0.192
 3989.00    0.88125   0.94650    0.191
 3990.00    0.93010   0.95334    0.191
 3991.00    1.06967   0.95848    0.194
 3992.00    1.10754   0.96088    0.192
 3993.00    1.07274   0.96058    0.188
 3994.00    1.02257   0.95924    0.187
 3995.00    0.96277   0.95945    0.187
 3996.00    0.91791   0.96319    0.187
 3997.00    0.88125   0.97202    0.187
 3998.00    0.91877   0.98498    0.186
 3999.00    0.99163   0.99651    0.185
 4000.00    1.02376   1.00269    0.186
 4001.00    1.03915   1.00466    0.186
 4002.00    0.99209   1.00226    0.188
 4003.00    0.92310   0.99378    0.189
 4004.00    0.90785   0.98359    0.187
 4005.00    0.90851   0.98126    0.183
 4006.00    0.95395   0.98958    0.184
 4007.00    1.01039   1.00341    0.186
 4008.00    1.04023   1.01853    0.187
 4009.00    1.06478   1.03383    0.189
 4010.00    1.05973   1.04848    0.186
 4011.00    1.05008   1.06162    0.184
 4012.00    1.02419   1.07289    0.185
 4013.00    0.99644   1.08173    0.187
 4014.00    0.99117   1.08889    0.184
 4015.00    0.98765   1.09366    0.180
 4016.00    1.02866   1.09536    0.184
 4017.00    1.07154   1.09726    0.188
 4018.00    1.09997   1.09992    0.189
 4019.00    1.12743   1.09952    0.191
 4020.00    1.11751   1.09616    0.190
 4021.00    1.10548   1.09291    0.189
 4022.00    1.05617   1.09016    0.189
 4023.00    1.01259   1.08624    0.189
 4024.00    1.03055   1.08189    0.188
 4025.00    1.04713   1.07703    0.188
 4026.00    1.05316   1.06775    0.195
 4027.00    1.04479   1.05113    0.201
 4028.00    0.95340   1.02585    0.200
 4029.00    0.88520   0.99476    0.200
 4030.00    0.92329   0.96843    0.204
 4031.00    0.95340   0.95430    0.207
 4032.00    0.95356   0.95245    0.199
 4033.00    0.95397   0.96365    0.195
 4034.00    0.95513   0.98694    0.202
 4035.00    0.96542   1.01791    0.209
 4036.00    1.00000   1.04890    0.215
 4037.00    1.01080   1.07054    0.215
 4038.00    0.96731   1.07741    0.200
 4039.00    0.95388   1.06985    0.192
 4040.00    0.99988   1.05271    0.195
 4041.00    1.01687   1.03063    0.195
 4042.00    0.98392   1.00321    0.191
 4043.00    0.94093   0.97271    0.188
 4044.00    0.88281   0.94956    0.186
 4045.00    0.87733   0.94523    0.186
 4046.00    0.94162   0.96118    0.190
 4047.00    1.00184   0.98595    0.192
 4048.00    1.05730   1.00955    0.192
 4049.00    1.07721   1.02992    0.193
 4050.00    1.06053   1.04381    0.194
 4051.00    1.02845   1.04754    0.192
 4052.00    0.98239   1.04211    0.189
 4053.00    0.96436   1.03048    0.190
 4054.00    0.96876   1.01715    0.194
 4055.00    0.96947   1.00519    0.193
 4056.00    0.96757   0.99226    0.189
 4057.00    0.98714   0.97956    0.188
 4058.00    1.01997   0.97140    0.189
 4059.00    1.02077   0.96576    0.189
 4060.00    1.00429   0.95670    0.189
 4061.00    0.97378   0.94228    0.188
 4062.00    0.93670   0.92915    0.188
 4063.00    0.92692   0.92761    0.185
 4064.00    0.92818   0.93749    0.182
 4065.00    0.92420   0.94806    0.182
 4066.00    0.91841   0.95690    0.183
 4067.00    0.93089   0.96919    0.183
 4068.00    0.94869   0.98201    0.183
 4069.00    0.93194   0.98566    0.180
 4070.00    0.90690   0.97823    0.177
 4071.00    0.94576   0.97014    0.180
 4072.00    0.99700   0.96808    0.183
 4073.00    1.07867   0.96585    0.184
 4074.00    1.16493   0.95938    0.186
 4075.00    1.11238   0.95286    0.183
 4076.00    1.04449   0.95324    0.180
 4077.00    1.01857   0.96521    0.180
 4078.00    0.99573   0.98612    0.180
 4079.00    1.00953   1.01008    0.184
 4080.00    1.02473   1.03283    0.190
 4081.00    1.04426   1.05085    0.189
 4082.00    1.06460   1.06458    0.189
 4083.00    1.11496   1.07718    0.190
 4084.00    1.16094   1.08964    0.190
 4085.00    1.13470   1.10252    0.191
 4086.00    1.10882   1.11576    0.192
 4087.00    1.08654   1.12669    0.192
 4088.00    1.07306   1.13133    0.193
 4089.00    1.12410   1.12740    0.193
 4090.00    1.17150   1.11581    0.193
 4091.00    1.19837   1.09796    0.198
 4092.00    1.20746   1.07598    0.000
 4093.00    1.13698   1.04910    0.000
 4094.00    1.07019   1.01461    0.000
 4095.00    1.01692   0.97729    0.000
 4096.00    0.97109   0.94382    0.000
 4097.00    0.94815   0.91565    0.000
 4098.00    0.94235   0.89172    0.000
 4099.00    0.98131   0.87197    0.000
 4100.00    1.00170   0.86066    0.000
 4101.00    0.98037   0.86382    0.000
 4102.00    0.97510   0.87995    0.000
 4103.00    1.00111   0.90214    0.000
 4104.00    1.02764   0.92666    0.000
 4105.00    1.05507   0.95126    0.000
 4106.00    1.05484   0.97201    0.000
 4107.00    1.01351   0.98753    0.000
 4108.00    1.00294   0.99844    0.000
 4109.00    1.03257   1.00677    0.000
 4110.00    1.05292   1.01546    0.000
 4111.00    1.06261   1.02553    0.000
 4112.00    1.06881   1.03626    0.000
 4113.00    1.07147   1.04552    0.189
 4114.00    1.07794   1.05217    0.187
 4115.00    1.08783   1.05599    0.186
 4116.00    1.06063   1.05511    0.184
 4117.00    1.00417   1.04888    0.181
 4118.00    1.00408   1.04264    0.182
 4119.00    1.04311   1.04131    0.184
 4120.00    1.08101   1.04163    0.184
 4121.00    1.11823   1.04062    0.182
 4122.00    1.08732   1.04000    0.181
 4123.00    1.02020   1.04161    0.181
 4124.00    1.02123   1.04216    0.180
 4125.00    1.05368   1.03610    0.180
 4126.00    1.07238   1.02354    0.180
 4127.00    1.08563   1.00874    0.180
 4128.00    1.05941   0.99487    0.182
 4129.00    1.01983   0.98285    0.184
 4130.00    1.00341   0.97302    0.183
 4131.00    0.99357   0.96741    0.180
 4132.00    0.99400   0.97114    0.181
 4133.00    0.99684   0.98451    0.183
 4134.00    1.00878   1.00440    0.182
 4135.00    1.02245   1.02492    0.180
 4136.00    1.02480   1.03826    0.177
 4137.00    1.02551   1.04365    0.174
 4138.00    1.02770   1.04235    0.176
 4139.00    1.03005   1.03428    0.178
 4140.00    1.03313   1.01907    0.182
 4141.00    1.03627   0.99749    0.185
 4142.00    1.03523   0.97675    0.184
 4143.00    1.03405   0.96660    0.183
 4144.00    1.05315   0.96825    0.182
 4145.00    1.07240   0.97428    0.180
 4146.00    1.09552   0.97941    0.181
 4147.00    1.11391   0.98300    0.182
 4148.00    1.05941   0.98432    0.182
 4149.00    1.00804   0.98353    0.181
 4150.00    0.98747   0.98131    0.178
 4151.00    0.97461   0.97777    0.176
 4152.00    1.01640   0.97494    0.181
 4153.00    1.05220   0.97457    0.186
 4154.00    1.05527   0.97861    0.187
 4155.00    1.05337   0.98711    0.188
 4156.00    1.02977   1.00014    0.184
 4157.00    1.00339   1.01813    0.180
 4158.00    0.96703   1.03702    0.178
 4159.00    0.94678   1.05284    0.176
 4160.00    0.97515   1.06468    0.177
 4161.00    1.00521   1.07359    0.177
 4162.00    1.03964   1.07787    0.176
 4163.00    1.05881   1.07529    0.177
 4164.00    1.04427   1.06826    0.179
 4165.00    1.02754   1.05791    0.181
 4166.00    1.00659   1.04362    0.181
 4167.00    0.98084   1.02869    0.181
 4168.00    0.94705   1.01522    0.181
 4169.00    0.94358   1.00057    0.182
 4170.00    0.98453   0.98241    0.182
 4171.00    1.01656   0.96248    0.182
 4172.00    1.03709   0.94781    0.182
 4173.00    1.03288   0.94218    0.183
 4174.00    1.00060   0.94218    0.183
 4175.00    0.99835   0.94410    0.186
 4176.00    1.02614   0.94717    0.190
 4177.00    1.04412   0.95400    0.188
 4178.00    1.05344   0.96579    0.182
 4179.00    1.04501   0.97885    0.180
 4180.00    1.02278   0.98860    0.181
 4181.00    1.02348   0.99496    0.181
 4182.00    1.03985   1.00193    0.181
 4183.00    1.02097   1.01104    0.180
 4184.00    0.98098   1.01921    0.179
 4185.00    0.98322   1.02117    0.179
 4186.00    1.00754   1.01916    0.181
 4187.00    1.04274   1.02307    0.181
 4188.00    1.08288   1.03314    0.180
 4189.00    1.11094   1.03999    0.182
 4190.00    1.13428   1.03998    0.186
 4191.00    1.12404   1.03856    0.184
 4192.00    1.10265   1.03687    0.180
 4193.00    1.06439   1.02766    0.179
 4194.00    1.02142   1.00937    0.179
 4195.00    1.07820   0.98864    0.182
 4196.00    1.15787   0.97080    0.185
 4197.00    1.10666   0.95695    0.184
 4198.00    1.03140   0.94940    0.183
 4199.00    1.01374   0.94992    0.181
 4200.00    1.00422   0.95569    0.179
 4201.00    1.04508   0.96697    0.178
 4202.00    1.09108   0.98621    0.178
 4203.00    1.07392   1.00948    0.177
 4204.00    1.05265   1.03158    0.176
 4205.00    1.04295   1.05167    0.179
 4206.00    1.03375   1.06988    0.182
 4207.00    1.11101   1.08413    0.179
 4208.00    1.18490   1.09022    0.177
 4209.00    1.15941   1.08848    0.176
 4210.00    1.13436   1.08476    0.175
 4211.00    1.11562   1.08221    0.175
 4212.00    1.10109   1.07950    0.174
 4213.00    1.12639   1.07576    0.174
 4214.00    1.14639   1.07425    0.173
 4215.00    1.12987   1.08205    0.172
 4216.00    1.11164   1.09859    0.170
 4217.00    1.08428   1.11202    0.171
 4218.00    1.06283   1.11453    0.171
 4219.00    1.06661   1.10597    0.171
 4220.00    1.06588   1.08572    0.170
 4221.00    1.04932   1.05157    0.168
 4222.00    1.02073   1.00851    0.166
 4223.00    0.95653   0.96674    0.164
 4224.00    0.91362   0.93217    0.163
 4225.00    0.92442   0.90941    0.164
 4226.00    0.94299   0.90620    0.164
 4227.00    0.97842   0.92558    0.164
 4228.00    1.00487   0.95746    0.163
 4229.00    1.01442   0.98992    0.163
 4230.00    1.02887   1.01764    0.162
 4231.00    1.05139   1.03660    0.161
 4232.00    1.04834   1.04698    0.161
 4233.00    1.00840   1.05300    0.163
 4234.00    0.99382   1.05558    0.164
 4235.00    1.01145   1.05700    0.165
 4236.00    1.04262   1.06351    0.166
 4237.00    1.08893   1.07592    0.167
 4238.00    1.10047   1.09242    0.166
 4239.00    1.07771   1.11325    0.164
 4240.00    1.07727   1.13608    0.163
 4241.00    1.09626   1.15422    0.162
 4242.00    1.11958   1.16499    0.162
 4243.00    1.14623   1.17076    0.164
 4244.00    1.15161   1.16757    0.165
 4245.00    1.14265   1.15115    0.166
 4246.00    1.12029   1.12737    0.168
 4247.00    1.09004   1.10454    0.172
 4248.00    1.09583   1.08269    0.173
 4249.00    1.12018   1.05998    0.173
 4250.00    1.11190   1.04514    0.173
 4251.00    1.08906   1.04367    0.172
 4252.00    1.08444   1.04601    0.173
 4253.00    1.08681   1.04476    0.175
 4254.00    1.07961   1.04558    0.172
 4255.00    1.06929   1.05378    0.169
 4256.00    1.05808   1.06386    0.168
 4257.00    1.04661   1.06910    0.167
 4258.00    1.06730   1.07271    0.170
 4259.00    1.09518   1.08148    0.174
 4260.00    1.10688   1.09909    0.174
 4261.00    1.11568   1.12393    0.173
 4262.00    1.13552   1.14734    0.175
 4263.00    1.15688   1.16266    0.178
 4264.00    1.21986   1.16871    0.180
 4265.00    1.28690   1.16282    0.182
 4266.00    1.23787   1.14062    0.178
 4267.00    1.18174   1.10633    0.174
 4268.00    1.07209   1.06829    0.169
 4269.00    0.96142   1.02867    0.165
 4270.00    0.93338   0.99209    0.166
 4271.00    0.90745   0.97117    0.168
 4272.00    0.93691   0.97149    0.169
 4273.00    0.96858   0.98389    0.170
 4274.00    1.03066   1.00295    0.174
 4275.00    1.08858   1.03086    0.177
 4276.00    1.10876   1.06365    0.178
 4277.00    1.12671   1.09136    0.178
 4278.00    1.12992   1.10736    0.175
 4279.00    1.13403   1.11296    0.172
 4280.00    1.14286   1.11337    0.174
 4281.00    1.14881   1.10998    0.175
 4282.00    1.14270   1.10225   -2.000
 4283.00    1.12583   1.08946   -2.000
 4284.00    1.07180   1.07029   -2.000
 4285.00    1.04010   1.05027   -2.000
 4286.00    1.07327   1.03498   -2.000
 4287.00    1.11452   1.02195   -2.000
 4288.00    1.17582   1.00720   -2.000
 4289.00    1.21870   0.99547   -2.000
 4290.00    1.22219   0.99486   -2.000
 4291.00    1.21977   1.00174   -2.000
 4292.00    1.20637   1.00455   -2.000
 4293.00    1.16852   0.99716   -2.000
 4294.00    1.09100   0.98388   -2.000
 4295.00    1.04711   0.96776   -2.000
 4296.00    1.05104   0.94577   -2.000
 4297.00    1.04575   0.91639   -2.000
 4298.00    1.02893   0.88411    0.172
 4299.00    1.00231   0.85836    0.170
 4300.00    0.96490   0.84188    0.167
 4301.00    0.93756   0.82868    0.165
 4302.00    0.92002   0.81663    0.164
 4303.00    0.91080   0.80867    0.165
 4304.00    0.90872   0.80490    0.168
 4305.00    0.88962   0.80388    0.168
 4306.00    0.85766   0.80636    0.166
 4307.00    0.88950   0.81581    0.167
 4308.00    0.96369   0.83702    0.171
 4309.00    1.00222   0.87056    0.171
 4310.00    1.02002   0.91567    0.170
 4311.00    1.03497   0.97112    0.168
 4312.00    1.04847   1.03157    0.167
 4313.00    1.09584   1.09103    0.165
 4314.00    1.15807   1.14841    0.164
 4315.00    1.20667   1.20128    0.166
 4316.00    1.25014   1.23906    0.168
 4317.00    1.25962   1.25601    0.170
 4318.00    1.25823   1.25400    0.173
 4319.00    1.27431   1.23534    0.172
 4320.00    1.29505   1.20261    0.169
 4321.00    1.26262   1.16413    0.168
 4322.00    1.21856   1.12815    0.168
 4323.00    1.18714   1.09921    0.169
 4324.00    1.15792   1.08144    0.172
 4325.00    1.15838   1.08108    0.171
 4326.00    1.16277   1.10276    0.170
 4327.00    1.18665   1.13828    0.169
 4328.00    1.21234   1.17299    0.167
 4329.00    1.22745   1.20096    0.165
 4330.00    1.24196   1.22485    0.000
 4331.00    1.25756   1.24051    0.000
 4332.00    1.27307   1.23816    0.000
 4333.00    1.27616   1.21979    0.000
 4334.00    1.27872   1.19253    0.000
 4335.00    1.26842   1.15527    0.000
 4336.00    1.25296   1.11039    0.000
 4337.00    1.17039   1.07152    0.000
 4338.00    1.09873   1.04525    0.000
 4339.00    1.12240   1.03019    0.000
 4340.00    1.14937   1.03252    0.000
 4341.00    1.19764   1.05407    0.000
 4342.00    1.24015   1.08354    0.000
 4343.00    1.25359   1.11515    0.000
 4344.00    1.26706   1.15128    0.000
 4345.00    1.28070   1.18247    0.000
 4346.00    1.28447   1.19740    0.000
 4347.00    1.25487   1.20311    0.000
 4348.00    1.24140   1.20857    0.000
 4349.00    1.27396   1.20603    0.000
 4350.00    1.29395   1.19133    0.000
 4351.00    1.28326   1.18089    0.160
 4352.00    1.26287   1.18639    0.158
 4353.00    1.22207   1.19739    0.160
 4354.00    1.20738   1.20577    0.161
 4355.00    1.24045   1.22034    0.160
 4356.00    1.26745   1.24377    0.159
 4357.00    1.28473   1.26404    0.160
 4358.00    1.30338   1.27722    0.161
 4359.00    1.32395   1.29408    0.162
 4360.00    1.32789   1.31646    0.162
 4361.00    1.31131   1.33232    0.159
 4362.00    1.30613   1.33741    0.158
 4363.00    1.31336   1.34050    0.160
 4364.00    1.32950   1.34322    0.161
 4365.00    1.35418   1.33604    0.163
 4366.00    1.36089   1.31831    0.165
 4367.00    1.35239   1.30013    0.166
 4368.00    1.32982   1.28458    0.165
 4369.00    1.29674   1.26593    0.162
 4370.00    1.27852   1.24553    0.160
 4371.00    1.27000   1.23051    0.160
 4372.00    1.26865   1.22073    0.161
 4373.00    1.27139   1.21098    0.163
 4374.00    1.26433   1.20204    0.163
 4375.00    1.25238   1.19848    0.162
 4376.00    1.23988   1.19803    0.161
 4377.00    1.22715   1.18963    0.159
 4378.00    1.23402   1.16645    0.161
 4379.00    1.24814   1.13527    0.164
 4380.00    1.23185   1.10578    0.163
 4381.00    1.20602   1.07679    0.161
 4382.00    1.16989   1.04571    0.159
 4383.00    1.13105   1.02471    0.157
 4384.00    1.14319   1.02599    0.156
 4385.00    1.16621   1.04324    0.155
 4386.00    1.16993   1.06385    0.157
 4387.00    1.17038   1.08697    0.158
 4388.00    1.18277   1.11430    0.156
 4389.00    1.19668   1.13960    0.153
 4390.00    1.22523   1.15997    0.154
 4391.00    1.25509   1.18067    0.157
 4392.00    1.26600   1.20215    0.158
 4393.00    1.27590   1.21858    0.158
 4394.00    1.29606   1.22985    0.159
 4395.00    1.31605   1.24015    0.160
 4396.00    1.30600   1.24866    0.160
 4397.00    1.29770   1.25030    0.161
 4398.00    1.32778   1.24051    0.163
 4399.00    1.35138   1.21880    0.164
 4400.00    1.29488   1.19521    0.161
 4401.00    1.24392   1.17887    0.159
 4402.00    1.23961   1.16146    0.159
 4403.00    1.23734   1.13772    0.159
 4404.00    1.24786   1.12547    0.161
 4405.00    1.25534   1.13634    0.162
 4406.00    1.24795   1.15549    0.161
 4407.00    1.24820   1.17317    0.160
 4408.00    1.27897   1.19769    0.161
 4409.00    1.29725   1.22662    0.161
 4410.00    1.27412   1.24626    0.160
 4411.00    1.26887   1.25703    0.159
 4412.00    1.31372   1.26453    0.160
 4413.00    1.34842   1.26490    0.162
 4414.00    1.35881   1.26087    0.162
 4415.00    1.36365   1.26395    0.162
 4416.00    1.35700   1.27293    0.163
 4417.00    1.34705   1.27960    0.163
 4418.00    1.33118   1.28631    0.161
 4419.00    1.32614   1.29569    0.160
 4420.00    1.33814   1.30049    0.160
 4421.00    1.33531   1.29707    0.161
 4422.00    1.31201   1.29316    0.161
 4423.00    1.31482   1.29400    0.162
 4424.00    1.34941   1.29382    0.163
 4425.00    1.35186   1.28835    0.163
 4426.00    1.31986   1.28392    0.163
 4427.00    1.32525   1.28501    0.164
 4428.00    1.36599   1.28366    0.165
 4429.00    1.37360   1.27355    0.163
 4430.00    1.35357   1.26344    0.160
 4431.00    1.34995   1.26070    0.160
 4432.00    1.35837   1.25990    0.161
 4433.00    1.35764   1.25767    0.162
 4434.00    1.35101   1.26033    0.163
 4435.00    1.38513   1.27159    0.164
 4436.00    1.44223   1.28594    0.165
 4437.00    1.43695   1.29728    0.167
 4438.00    1.40103   1.30504    0.168
 4439.00    1.41364   1.31042    0.168
 4440.00    1.44685   1.31419    0.168
 4441.00    1.43613   1.31689    0.166
 4442.00    1.40945   1.32017    0.164
 4443.00    1.41337   1.32874    0.164
 4444.00    1.42670   1.34350    0.166
 4445.00    1.44796   1.35609    0.166
 4446.00    1.47124   1.36178    0.165
 4447.00    1.44090   1.36600    0.164
 4448.00    1.39937   1.36649    0.163
 4449.00    1.38706   1.35384    0.164
 4450.00    1.37955   1.33138    0.164
 4451.00    1.35640   1.30865    0.162
 4452.00    1.33133   1.28436    0.160
 4453.00    1.32992   1.25427    0.160
 4454.00    1.33052   1.22484    0.161
 4455.00    1.31495   1.20520    0.159
 4456.00    1.29858   1.19251    0.158
 4457.00    1.29720   1.18129    0.156
 4458.00    1.29586   1.17740    0.154
 4459.00    1.28210   1.18502    0.156
 4460.00    1.27009   1.19556    0.158
 4461.00    1.29347   1.20653    0.000
 4462.00    1.31744   1.22532    0.000
 4463.00    1.34834   1.24722    0.000
 4464.00    1.37430   1.26213    0.000
 4465.00    1.36021   1.27420    0.000
 4466.00    1.35405   1.29027    0.000
 4467.00    1.39610   1.30613    0.000
 4468.00    1.42964   1.31940    0.000
 4469.00    1.42244   1.33619    0.000
 4470.00    1.41459   1.35730    0.000
 4471.00    1.40424   1.37848    0.000
 4472.00    1.40515   1.39941    0.000
 4473.00    1.44264   1.41845    0.000
 4474.00    1.47199   1.42925    0.000
 4475.00    1.47896   1.43133    0.000
 4476.00    1.49100   1.42899    0.000
 4477.00    1.51496   1.42142    0.000
 4478.00    1.51666   1.40810    0.000
 4479.00    1.47303   1.39500    0.000
 4480.00    1.44664   1.38745    0.000
 4481.00    1.45080   1.38630    0.000
 4482.00    1.44750   1.39140    0.158
 4483.00    1.43263   1.39920    0.159
 4484.00    1.42622   1.40494    0.160
 4485.00    1.43130   1.40746    0.158
 4486.00    1.44500   1.40667    0.157
 4487.00    1.46902   1.40075    0.157
 4488.00    1.45909   1.38987    0.156
 4489.00    1.41326   1.37742    0.155
 4490.00    1.38673   1.36750    0.155
 4491.00    1.37821   1.36192    0.157
 4492.00    1.38790   1.35870    0.158
 4493.00    1.41254   1.35692    0.158
 4494.00    1.41933   1.36166    0.159
 4495.00    1.41320   1.37458    0.159
 4496.00    1.41671   1.39046    0.158
 4497.00    1.42634   1.40806    0.158
 4498.00    1.45788   1.43142    0.159
 4499.00    1.50158   1.45756    0.161
 4500.00    1.51068   1.47925    0.160
 4501.00    1.50307   1.49922    0.159
 4502.00    1.49717   1.52103    0.158
 4503.00    1.49197   1.53791    0.157
 4504.00    1.49330   1.54571    0.157
 4505.00    1.49695   1.54932    0.157
 4506.00    1.49893   1.55041    0.157
 4507.00    1.50041   1.54568    0.156
 4508.00    1.51002   1.53622    0.156
 4509.00    1.52166   1.52518    0.155
 4510.00    1.51962   1.51247    0.155
 4511.00    1.51480   1.49848    0.155
 4512.00    1.49767   1.48530    0.155
 4513.00    1.47858   1.47344    0.155
 4514.00    1.48319   1.46449    0.156
 4515.00    1.49062   1.46070    0.157
 4516.00    1.47617   1.45941    0.155
 4517.00    1.45995   1.45687    0.152
 4518.00    1.48004   1.45372    0.153
 4519.00    1.50178   1.45028    0.154
 4520.00    1.50298   1.44224    0.154
 4521.00    1.50336   1.42415    0.154
 4522.00    1.47475   1.39902    0.154
 4523.00    1.44641   1.37284    0.154
 4524.00    1.42312   1.34502    0.153
 4525.00    1.39769   1.31499    0.151
 4526.00    1.34834   1.28860    0.150
 4527.00    1.30719   1.27069    0.150
 4528.00    1.33029   1.26118    0.150
 4529.00    1.34573   1.25820    0.150
 4530.00    1.31585   1.26051    0.148
 4531.00    1.29605   1.27029    0.146
 4532.00    1.32338   1.28720    0.148
 4533.00    1.35076   1.30639    0.149
 4534.00    1.37828   1.32480    0.151
 4535.00    1.39669   1.34618    0.152
 4536.00    1.38603   1.36963    0.152
 4537.00    1.38691   1.38766    0.152
 4538.00    1.41895   1.39935    0.152
 4539.00    1.44526   1.40754    0.153
 4540.00    1.45824   1.41112    0.153
 4541.00    1.46418   1.41054    0.153
 4542.00    1.45599   1.40933    0.151
 4543.00    1.45096   1.40494    0.151
 4544.00    1.45148   1.39584    0.153
 4545.00    1.43587   1.38839    0.154
 4546.00    1.39562   1.38524    0.152
 4547.00    1.38024   1.38045    0.151
 4548.00    1.39824   1.37202    0.151
 4549.00    1.42179   1.36813    0.151
 4550.00    1.45189   1.37061    0.000
 4551.00    1.46917   1.37319    0.000
 4552.00    1.47308   1.37743    0.000
 4553.00    1.47260   1.38854    0.000
 4554.00    1.46809   1.40401    0.000
 4555.00    1.48062   1.42050    0.000
 4556.00    1.50695   1.43873    0.000
 4557.00    1.52794   1.45588    0.000
 4558.00    1.54513   1.46798    0.000
 4559.00    1.51993   1.47368    0.000
 4560.00    1.46819   1.47482    0.000
 4561.00    1.47287   1.47325    0.000
 4562.00    1.50840   1.46942    0.000
 4563.00    1.51830   1.46448    0.000
 4564.00    1.51601   1.46194    0.000
 4565.00    1.48811   1.46504    0.000
 4566.00    1.44971   1.47046    0.000
 4567.00    1.48128   1.47283    0.000
 4568.00    1.53738   1.47610    0.000
 4569.00    1.54840   1.48297    0.000
 4570.00    1.54609   1.48468    0.000
 4571.00    1.54219   1.48179    0.000
 4572.00    1.53789   1.48347    0.000
 4573.00    1.52833   1.48387    0.000
 4574.00    1.51772   1.47509    0.000
 4575.00    1.51906   1.46371    0.000
 4576.00    1.52224   1.45359    0.000
 4577.00    1.51062   1.44026    0.000
 4578.00    1.49731   1.42404    0.000
 4579.00    1.46244   1.40947    0.000
 4580.00    1.42593   1.40004    0.000
 4581.00    1.42551   1.39668    0.000
 4582.00    1.42661   1.39650    0.000
 4583.00    1.44658   1.40006    0.000
 4584.00    1.46649   1.40891    0.000
 4585.00    1.47698   1.41978    0.000
 4586.00    1.48728   1.42925    0.000
 4587.00    1.49422   1.43637    0.000
 4588.00    1.50025   1.44042    0.000
 4589.00    1.49641   1.43996    0.000
 4590.00    1.49029   1.43462    0.000
 4591.00    1.46689   1.42629    0.000
 4592.00    1.44775   1.41830    0.000
 4593.00    1.45302   1.41067    0.000
 4594.00    1.45280   1.40358    0.000
 4595.00    1.42751   1.39994    0.000
 4596.00    1.41370   1.39860    0.000
 4597.00    1.44287   1.39903    0.000
 4598.00    1.47155   1.40281    0.000
 4599.00    1.49866   1.40664    0.000
 4600.00    1.50963   1.41075    0.000
 4601.00    1.47778   1.41879    0.000
 4602.00    1.45760   1.43014    0.000
 4603.00    1.46402   1.44252    0.000
 4604.00    1.48292   1.45802    0.000
 4605.00    1.52648   1.47645    0.000
 4606.00    1.55705   1.49387    0.000
 4607.00    1.56530   1.51018    0.000
 4608.00    1.56602   1.52365    0.000
 4609.00    1.55539   1.53146    0.000
 4610.00    1.55062   1.53593    0.000
 4611.00    1.55360   1.53915    0.000
 4612.00    1.55627   1.53887    0.000
 4613.00    1.55858   1.53867    0.000
 4614.00    1.55393   1.54005    0.000
 4615.00    1.54215   1.53902    0.000
 4616.00    1.54970   1.53987    0.000
 4617.00    1.57478   1.54410    0.000
 4618.00    1.56778   1.54394    0.000
 4619.00    1.53515   1.54263    0.000
 4620.00    1.53877   1.54629    0.000
 4621.00    1.56788   1.54594    0.000
 4622.00    1.55969   1.54119    0.000
 4623.00    1.52850   1.54139    0.000
 4624.00    1.51608   1.54118    0.000
 4625.00    1.51377   1.53454    0.000
 4626.00    1.53671   1.53086    0.000
 4627.00    1.57144   1.53145    0.000
 4628.00    1.55664   1.52574    0.000
 4629.00    1.52187   1.51637    0.000
 4630.00    1.51450   1.51160    0.000
 4631.00    1.51654   1.50509    0.000
 4632.00    1.51509   1.49109    0.000
 4633.00    1.51262   1.47679    0.000
 4634.00    1.51003   1.46645    0.000
 4635.00    1.50742   1.45463    0.000
 4636.00    1.53399   1.44053    0.000
 4637.00    1.56620   1.43147    0.000
 4638.00    1.51072   1.42563    0.000
 4639.00    1.44209   1.41689    0.000
 4640.00    1.41835   1.40898    0.000
 4641.00    1.39954   1.40277    0.000
 4642.00    1.40060   1.39179    0.000
 4643.00    1.40309   1.37925    0.000
 4644.00    1.42501   1.37173    0.000
 4645.00    1.44767   1.36616    0.000
 4646.00    1.44127   1.36282    0.000
 4647.00    1.43486   1.36664    0.000
 4648.00    1.43372   1.37669    0.000
 4649.00    1.43375   1.38903    0.000
 4650.00    1.45295   1.40129    0.000
 4651.00    1.47000   1.41432    0.000
 4652.00    1.46508   1.42783    0.000
 4653.00    1.46175   1.43928    0.000
 4654.00    1.47003   1.45031    0.000
 4655.00    1.47946   1.46269    0.000
 4656.00    1.49537   1.47422    0.000
 4657.00    1.50489   1.48256    0.000
 4658.00    1.48590   1.48670    0.000
 4659.00    1.47197   1.48329    0.000
 4660.00    1.47659   1.47222    0.000
 4661.00    1.48139   1.45499    0.000
 4662.00    1.48675   1.42937    0.000
 4663.00    1.47930   1.39994    0.000
 4664.00    1.43845   1.37573    0.000
 4665.00    1.40379   1.35697    0.000
 4666.00    1.38301   1.34283    0.000
 4667.00    1.37788   1.34016    0.000
 4668.00    1.40317   1.34925    0.000
 4669.00    1.43125   1.36268    0.000
 4670.00    1.46407   1.37838    0.000
 4671.00    1.47724   1.39672    0.000
 4672.00    1.46122   1.41457    0.000
 4673.00    1.47285   1.42660    0.000
 4674.00    1.52053   1.43238    0.000
 4675.00    1.52959   1.43546    0.000
 4676.00    1.49428   1.43504    0.000
 4677.00    1.47761   1.42934    0.000
 4678.00    1.47981   1.42348    0.000
 4679.00    1.45944   1.42178    0.000
 4680.00    1.41888   1.41979    0.000
 4681.00    1.41142   1.41788    0.000
 4682.00    1.43001   1.42107    0.000
 4683.00    1.46567   1.42485    0.000
 4684.00    1.51313   1.42598    0.000
 4685.00    1.49826   1.42873    0.000
 4686.00    1.44551   1.43102    0.000
 4687.00    1.42164   1.42962    0.000
 4688.00    1.41306   1.42978    0.000
 4689.00    1.42313   1.43209    0.000
 4690.00    1.44176   1.43229    0.000
 4691.00    1.44270   1.43345    0.000
 4692.00    1.43663   1.43694    0.000
 4693.00    1.43992   1.43701    0.000
 4694.00    1.44636   1.43192    0.000
 4695.00    1.44854   1.42605    0.000
 4696.00    1.44949   1.41901    0.000
 4697.00    1.44331   1.40692    0.000
 4698.00    1.43545   1.39315    0.000
 4699.00    1.43934   1.38253    0.000
 4700.00    1.44543   1.37528    0.000
 4701.00    1.45891   1.36915    0.000
 4702.00    1.47346   1.36464    0.000
 4703.00    1.45492   1.36446    0.000
 4704.00    1.43288   1.36776    0.000
 4705.00    1.43768   1.37042    0.000
 4706.00    1.44433   1.37366    0.000
 4707.00    1.43098   1.38114    0.000
 4708.00    1.41695   1.38913    0.000
 4709.00    1.42745   1.39622    0.000
 4710.00    1.43869   1.40464    0.000
 4711.00    1.47272   1.41555    0.000
 4712.00    1.50382   1.42918    0.000
 4713.00    1.48983   1.44282    0.000
 4714.00    1.47806   1.45736    0.000
 4715.00    1.48800   1.47597    0.000
 4716.00    1.49926   1.49502    0.000
 4717.00    1.51987   1.51011    0.000
 4718.00    1.53921   1.52284    0.000
 4719.00    1.55165   1.53348    0.000
 4720.00    1.55722   1.53820    0.000
 4721.00    1.53283   1.53603    0.000
 4722.00    1.51282   1.52783    0.000
 4723.00    1.50858   1.51285    0.000
 4724.00    1.50476   1.49388    0.000
 4725.00    1.50224   1.47400    0.000
 4726.00    1.50019   1.45242    0.000
 4727.00    1.49937   1.43280    0.000
 4728.00    1.49789   1.42113    0.000
 4729.00    1.49492   1.41454    0.000
 4730.00    1.48453   1.41173    0.000
 4731.00    1.45994   1.41791    0.000
 4732.00    1.45603   1.42656    0.000
 4733.00    1.48660   1.43394    0.000
 4734.00    1.49701   1.44714    0.000
 4735.00    1.47795   1.46005    0.000
 4736.00    1.47581   1.46640    0.000
 4737.00    1.49543   1.47466    0.000
 4738.00    1.51808   1.48591    0.000
 4739.00    1.54417   1.49315    0.000
 4740.00    1.56421   1.49812    0.000
 4741.00    1.57823   1.50498    0.000
 4742.00    1.56587   1.51341    0.000
 4743.00    1.53026   1.51996    0.000
 4744.00    1.52363   1.52327    0.000
 4745.00    1.53949   1.52724    0.000
 4746.00    1.55362   1.53166    0.000
 4747.00    1.56657   1.53075    0.000
 4748.00    1.56408   1.52553    0.000
 4749.00    1.55236   1.52087    0.000
 4750.00    1.53539   1.51378    0.000
 4751.00    1.51570   1.50342    0.000
 4752.00    1.50789   1.49422    0.000
 4753.00    1.50547   1.48695    0.000
 4754.00    1.51324   1.47964    0.000
 4755.00    1.52498   1.47339    0.000
 4756.00    1.52633   1.46951    0.000
 4757.00    1.52424   1.46358    0.000
 4758.00    1.52953   1.45443    0.000
 4759.00    1.53688   1.44602    0.000
 4760.00    1.53854   1.43633    0.000
 4761.00    1.53889   1.42271    0.133
 4762.00    1.50084   1.41144    0.132
 4763.00    1.45575   1.40630    0.131
 4764.00    1.44411   1.40302    0.131
 4765.00    1.43718   1.40403    0.131
 4766.00    1.42313   1.41338    0.129
 4767.00    1.40836   1.42542    0.127
 4768.00    1.43960   1.43806    0.129
 4769.00    1.47382   1.45432    0.131
 4770.00    1.49237   1.47197    0.131
 4771.00    1.51042   1.48617    0.131
 4772.00    1.51521   1.49799    0.130
 4773.00    1.52011   1.51114    0.129
 4774.00    1.52779   1.52132    0.130
 4775.00    1.53466   1.52437    0.131
 4776.00    1.52965   1.52510    0.131
 4777.00    1.52528   1.52541    0.131
 4778.00    1.52697   1.51904    0.131
 4779.00    1.52303   1.50623    0.130
 4780.00    1.48060   1.49643    0.128
 4781.00    1.44209   1.48755    0.126
 4782.00    1.42437   1.47256    0.126
 4783.00    1.40482   1.46175    0.125
 4784.00    1.37754   1.45939    0.125
 4785.00    1.35885   1.45481    0.124
 4786.00    1.37034   1.45277    0.125
 4787.00    1.39437   1.46105    0.126
 4788.00    1.45542   1.47090    0.127
 4789.00    1.49521   1.48065    0.129
 4790.00    1.48149   1.49674    0.130
 4791.00    1.47899   1.51308    0.131
 4792.00    1.50080   1.52425    0.130
 4793.00    1.51416   1.53440    0.130
 4794.00    1.51159   1.54156    0.128
 4795.00    1.50725   1.54192    0.128
 4796.00    1.49999   1.53936    0.129
 4797.00    1.50129   1.53644    0.130
 4798.00    1.51493   1.53205    0.129
 4799.00    1.53098   1.52772    0.130
 4800.00    1.55009   1.52422    0.131
 4801.00    1.54922   1.52040    0.132
 4802.00    1.52605   1.51752    0.132
 4803.00    1.51511   1.51352    0.132
 4804.00    1.51622   1.50712    0.131
 4805.00    1.51595   1.50299    0.130
 4806.00    1.51449   1.50098    0.130
 4807.00    1.50859   1.49830    0.131
 4808.00    1.49929   1.49866    0.133
 4809.00    1.50437   1.50370    0.133
 4810.00    1.51914   1.50964    0.132
 4811.00    1.51389   1.51641    0.132
 4812.00    1.49685   1.52602    0.131
 4813.00    1.50033   1.53578    0.132
 4814.00    1.51435   1.54399    0.133
 4815.00    1.52905   1.55172    0.133
 4816.00    1.54406   1.55614    0.132
 4817.00    1.54027   1.55661    0.133
 4818.00    1.52930   1.55493    0.134
 4819.00    1.53778   1.54776    0.134
 4820.00    1.55259   1.53694    0.133
 4821.00    1.55121   1.52776    0.133
 4822.00    1.54542   1.51755    0.133
 4823.00    1.54089   1.50684    0.134
 4824.00    1.53665   1.49997    0.135
 4825.00    1.52386   1.49514    0.135
 4826.00    1.50955   1.49144    0.136
 4827.00    1.50959   1.48887    0.135
 4828.00    1.51158   1.48576    0.135
 4829.00    1.50572   1.48465    0.135
 4830.00    1.49910   1.48543    0.134
 4831.00    1.50550   1.48393    0.134
 4832.00    1.51269   1.48269    0.133
 4833.00    1.51124   1.48437    0.133
 4834.00    1.50945   1.48424    0.134
 4835.00    1.48711   1.48045    0.134
 4836.00    1.46665   1.47666    0.133
 4837.00    1.49548   1.47411    0.134
 4838.00    1.52023   1.47006    0.135
 4839.00    1.48924   1.46459    0.134
 4840.00    1.45744   1.46278    0.133
 4841.00    1.41837   1.46383    0.131
 4842.00    1.39159   1.46351    0.130
 4843.00    1.44636   1.46463    0.131
 4844.00    1.49179   1.46666    0.132
 4845.00    1.48900   1.46602    0.132
 4846.00    1.48709   1.46495    0.132
 4847.00    1.48881   1.46115    0.132
 4848.00    1.48929   1.45213    0.000
 4849.00    1.48553   1.44347    0.000
 4850.00    1.48542   1.43218    0.000
 4851.00    1.49592   1.41245    0.000
 4852.00    1.49227   1.39191    0.000
 4853.00    1.45358   1.37133    0.000
 4854.00    1.41889   1.34280    0.000
 4855.00    1.39276   1.31328    0.000
 4856.00    1.37200   1.28819    0.000
 4857.00    1.36117   1.26076    0.000
 4858.00    1.35404   1.23720    0.000
 4859.00    1.35286   1.22512    0.000
 4860.00    1.35375   1.21746    0.000
 4861.00    1.35756   1.21700    0.000
 4862.00    1.35688   1.23005    0.000
 4863.00    1.35059   1.24601    0.000
 4864.00    1.35076   1.25989    0.000
 4865.00    1.35804   1.27826    0.000
 4866.00    1.37329   1.29467    0.000
 4867.00    1.39628   1.30088    0.000
 4868.00    1.40190   1.30567    0.000
 4869.00    1.39263   1.31384    0.000
 4870.00    1.39641   1.31810    0.000
 4871.00    1.41002   1.32204    0.000
 4872.00    1.42931   1.33573    0.000
 4873.00    1.45236   1.35293    0.000
 4874.00    1.45565   1.36653    0.000
 4875.00    1.44747   1.38471    0.129
 4876.00    1.44997   1.40527    0.128
 4877.00    1.45787   1.41613    0.127
 4878.00    1.45686   1.42254    0.127
 4879.00    1.45193   1.42907    0.127
 4880.00    1.46764   1.42622    0.128
 4881.00    1.49109   1.41586    0.129
 4882.00    1.49057   1.40696    0.129
 4883.00    1.48241   1.39588    0.129
 4884.00    1.45882   1.38075    0.128
 4885.00    1.43111   1.37027    0.127
 4886.00    1.41949   1.36529    0.127
 4887.00    1.41137   1.36166    0.127
 4888.00    1.40777   1.36653    0.127
 4889.00    1.40496   1.38163    0.127
 4890.00    1.42173   1.39965    0.126
 4891.00    1.44107   1.42448    0.126
 4892.00    1.45735   1.45547    0.127
 4893.00    1.47334   1.48255    0.127
 4894.00    1.49786   1.50705    0.127
 4895.00    1.52286   1.52790    0.127
 4896.00    1.54090   1.53822    0.128
 4897.00    1.55846   1.54305    0.129
 4898.00    1.54116   1.54451    0.129
 4899.00    1.52389   1.53879    0.129
 4900.00    1.50720   1.53224    0.127
 4901.00    1.49244   1.52859    0.125
 4902.00    1.50262   1.52309    0.126
 4903.00    1.51299   1.51648    0.126
 4904.00    1.52494   1.51203    0.127
 4905.00    1.53198   1.50714    0.127
 4906.00    1.50739   1.49904    0.126
 4907.00    1.48651   1.49091    0.126
 4908.00    1.48427   1.48519    0.126
 4909.00    1.48592   1.47907    0.127
 4910.00    1.50341   1.47291    0.127
 4911.00    1.51499   1.46894    0.127
 4912.00    1.50662   1.46350    0.128
 4913.00    1.49451   1.45328    0.128
 4914.00    1.47172   1.43938    0.128
 4915.00    1.45784   1.42189    0.127
 4916.00    1.46561   1.40060    0.127
 4917.00    1.46344   1.37892    0.127
 4918.00    1.44040   1.36224    0.126
 4919.00    1.42203   1.35302    0.125
 4920.00    1.41219   1.35121    0.125
 4921.00    1.40688   1.35979    0.125
 4922.00    1.40881   1.37943    0.124
 4923.00    1.41032   1.40308    0.124
 4924.00    1.41123   1.42872    0.125
 4925.00    1.42744   1.45838    0.125
 4926.00    1.46246   1.48343    0.125
 4927.00    1.48989   1.49998    0.126
 4928.00    1.50907   1.51387    0.126
 4929.00    1.51440   1.51900    0.126
 4930.00    1.50645   1.51284    0.126
 4931.00    1.49647   1.50492    0.125
 4932.00    1.48478   1.49241    0.124
 4933.00    1.47456   1.47438    0.124
 4934.00    1.46543   1.46065    0.126
 4935.00    1.44823   1.45025    0.125
 4936.00    1.42576   1.44272    0.123
 4937.00    1.42842   1.44402    0.124
 4938.00    1.44545   1.45108    0.127
 4939.00    1.46016   1.46283    0.128
 4940.00    1.47370   1.48168    0.000
 4941.00    1.49693   1.50086    0.000
 4942.00    1.52432   1.51817    0.000
 4943.00    1.54317   1.53709    0.000
 4944.00    1.55887   1.55269    0.000
 4945.00    1.55760   1.56221    0.000
 4946.00    1.55103   1.56999    0.000
 4947.00    1.56545   1.57482    0.000
 4948.00    1.58536   1.57339    0.000
 4949.00    1.55129   1.56726    0.000
 4950.00    1.50574   1.55652    0.000
 4951.00    1.52776   1.54054    0.000
 4952.00    1.56117   1.52175    0.000
 4953.00    1.51250   1.49986    0.000
 4954.00    1.45338   1.47823    0.000
 4955.00    1.43710   1.46381    0.000
 4956.00    1.42461   1.45337    0.000
 4957.00    1.45411   1.44685    0.000
 4958.00    1.48582   1.44993    0.000
 4959.00    1.48324   1.45695    0.000
 4960.00    1.47988   1.46277    0.000
 4961.00    1.46733   1.46808    0.000
 4962.00    1.45591   1.47187    0.000
 4963.00    1.46928   1.47301    0.000
 4964.00    1.48192   1.47066    0.000
 4965.00    1.48559   1.46839    0.000
 4966.00    1.49010   1.46916    0.000
 4967.00    1.50170   1.47090    0.000
 4968.00    1.50860   1.47539    0.000
 4969.00    1.48608   1.48278    0.000
 4970.00    1.46689   1.49010    0.000
 4971.00    1.46405   1.49649    0.000
 4972.00    1.46624   1.49903    0.000
 4973.00    1.48846   1.49709    0.000
 4974.00    1.50211   1.49001    0.000
 4975.00    1.48742   1.47532    0.000
 4976.00    1.47559   1.45655    0.000
 4977.00    1.47175   1.43524    0.000
 4978.00    1.45801   1.41029    0.000
 4979.00    1.42061   1.38700    0.000
 4980.00    1.39025   1.36966    0.000
 4981.00    1.37445   1.35646    0.000
 4982.00    1.36919   1.34935    0.000
 4983.00    1.38287   1.35254    0.000
 4984.00    1.38633   1.36141    0.000
 4985.00    1.37372   1.37278    0.000
 4986.00    1.37580   1.38901    0.000
 4987.00    1.39814   1.40447    0.000
 4988.00    1.42026   1.41692    0.000
 4989.00    1.44212   1.42905    0.000
 4990.00    1.44930   1.43587    0.000
 4991.00    1.44076   1.43986    0.000
 4992.00    1.43278   1.44321    0.000
 4993.00    1.42531   1.44007    0.000
 4994.00    1.42188   1.43516    0.000
 4995.00    1.42180   1.42900    0.000
 4996.00    1.42748   1.41634    0.000
 4997.00    1.43739   1.40284    0.000
 4998.00    1.42253   1.38870    0.000
 4999.00    1.39173   1.37130    0.000
 5000.00    1.37890   1.35616    0.000
 5001.00    1.37619   1.34363    0.000
 5002.00    1.39956   1.33184    0.000
 5003.00    1.43570   1.32408    0.000
 5004.00    1.44549   1.32096    0.000
 5005.00    1.44412   1.31879    0.000
 5006.00    1.45730   1.31753    0.000
 5007.00    1.47574   1.31848    0.000
 5008.00    1.48674   1.31690    0.000
 5009.00    1.49544   1.31230    0.000
 5010.00    1.47091   1.30779    0.000
 5011.00    1.43789   1.30094    0.000
 5012.00    1.40872   1.29410    0.000
 5013.00    1.38036   1.29003    0.000
 5014.00    1.35715   1.28697    0.000
 5015.00    1.33478   1.28774    0.000
 5016.00    1.31001   1.29211    0.000
 5017.00    1.28494   1.29765    0.000
 5018.00    1.31278   1.30536    0.000
 5019.00    1.34508   1.31478    0.000
 5020.00    1.37200   1.32497    0.000
 5021.00    1.39865   1.33438    0.000
 5022.00    1.38746   1.34478    0.000
 5023.00    1.37585   1.35673    0.000
 5024.00    1.37490   1.36638    0.000
 5025.00    1.37529   1.37800    0.000
 5026.00    1.40261   1.39124    0.000
 5027.00    1.42616   1.40154    0.000
 5028.00    1.40561   1.41314    0.000
 5029.00    1.39023   1.42292    0.122
 5030.00    1.41651   1.42728    0.122
 5031.00    1.43784   1.42862    0.122
 5032.00    1.42907   1.42281    0.123
 5033.00    1.42179   1.41126    0.124
 5034.00    1.42161   1.39612    0.124
 5035.00    1.41803   1.37534    0.124
 5036.00    1.40121   1.35650    0.123
 5037.00    1.38772   1.34095    0.122
 5038.00    1.38503   1.32776    0.123
 5039.00    1.37838   1.32541    0.124
 5040.00    1.36084   1.33031    0.121
 5041.00    1.34766   1.33939    0.120
 5042.00    1.34469   1.35620    0.120
 5043.00    1.34858   1.37318    0.121
 5044.00    1.36640   1.38657    0.122
 5045.00    1.38339   1.39796    0.123
 5046.00    1.39890   1.40440    0.123
 5047.00    1.40705   1.40627    0.123
 5048.00    1.40378   1.40667    0.123
 5049.00    1.40151   1.40804    0.123
 5050.00    1.40057   1.41164    0.124
 5051.00    1.40929   1.41828    0.125
 5052.00    1.42956   1.42904    0.125
 5053.00    1.43489   1.44213    0.125
 5054.00    1.42445   1.45626    0.124
 5055.00    1.41729   1.46994    0.124
 5056.00    1.41318   1.48072    0.123
 5057.00    1.42001   1.48874    0.123
 5058.00    1.43580   1.49148    0.122
 5059.00    1.44756   1.48862    0.122
 5060.00    1.45640   1.48253    0.123
 5061.00    1.45470   1.47064    0.123
 5062.00    1.44632   1.45600    0.123
 5063.00    1.42386   1.44225    0.123
 5064.00    1.39358   1.42722    0.121
 5065.00    1.39338   1.41451    0.121
 5066.00    1.40767   1.40609    0.122
 5067.00    1.41000   1.39974    0.122
 5068.00    1.40735   1.39562    0.123
 5069.00    1.40335   1.39357    0.123
 5070.00    1.39888   1.39242    0.122
 5071.00    1.38442   1.38989    0.121
 5072.00    1.36694   1.38559    0.120
 5073.00    1.36548   1.37983    0.121
 5074.00    1.36801   1.37149    0.121
 5075.00    1.37103   1.36073    0.120
 5076.00    1.37415   1.34890    0.120
 5077.00    1.37986   1.33830    0.119
 5078.00    1.38599   1.32945    0.119
 5079.00    1.35990   1.32360    0.118
 5080.00    1.33000   1.32368    0.117
 5081.00    1.32595   1.32879    0.116
 5082.00    1.32398   1.33775    0.115
 5083.00    1.33539   1.35123    0.115
 5084.00    1.34741   1.36719    0.116
 5085.00    1.34534   1.38318    0.114
 5086.00    1.34341   1.39915    0.113
 5087.00    1.35711   1.41367    0.113
 5088.00    1.37109   1.42515    0.114
 5089.00    1.39018   1.43362    0.115
 5090.00    1.40785   1.43795    0.115
 5091.00    1.40982   1.43783    0.115
 5092.00    1.41247   1.43342    0.115
 5093.00    1.42036   1.42454    0.116
 5094.00    1.42269   1.41338    0.117
 5095.00    1.39225   1.40081    0.117
 5096.00    1.36297   1.38820    0.116
 5097.00    1.33915   1.37866    0.116
 5098.00    1.31922   1.37118    0.115
 5099.00    1.31409   1.36682    0.115
 5100.00    1.31271   1.36575    0.116
 5101.00    1.32322   1.36419    0.116
 5102.00    1.32759   1.36380    0.115
 5103.00    1.31539   1.36339    0.115
 5104.00    1.31132   1.36000    0.115
 5105.00    1.32605   1.35866    0.117
 5106.00    1.33701   1.35804    0.118
 5107.00    1.34041   1.35707    0.118
 5108.00    1.34615   1.36220    0.118
 5109.00    1.35597   1.36918    0.118
 5110.00    1.36490   1.37742    0.119
 5111.00    1.37247   1.39126    0.119
 5112.00    1.38296   1.40352    0.120
 5113.00    1.39738   1.41437    0.121
 5114.00    1.40705   1.42509    0.122
 5115.00    1.41113   1.42943    0.123
 5116.00    1.41901   1.42933    0.124
 5117.00    1.43086   1.42420    0.124
 5118.00    1.43087   1.41229    0.124
 5119.00    1.42001   1.39749    0.124
 5120.00    1.39944   1.37902    0.123
 5121.00    1.37101   1.35946    0.121
 5122.00    1.35360   1.34255    0.120
 5123.00    1.34402   1.32721    0.121
 5124.00    1.32220   1.31652    0.120
 5125.00    1.29272   1.31164    0.120
 5126.00    1.28269   1.31045    0.120
 5127.00    1.28327   1.31379    0.120
 5128.00    1.29482   1.32104    0.120
 5129.00    1.31158   1.33009    0.120
 5130.00    1.33464   1.33867    0.121
 5131.00    1.36028   1.34724    0.122
 5132.00    1.36811   1.35460    0.121
 5133.00    1.36971   1.35599    0.120
 5134.00    1.36134   1.35650    0.119
 5135.00    1.35003   1.35516    0.119
 5136.00    1.32830   1.34648    0.118
 5137.00    1.30403   1.34082    0.118
 5138.00    1.30955   1.33530    0.118
 5139.00    1.32095   1.32490    0.119
 5140.00    1.32321   1.32059    0.119
 5141.00    1.32406   1.31652    0.119
 5142.00    1.31860   1.30991    0.118
 5143.00    1.31241   1.30913    0.117
 5144.00    1.30383   1.30671    0.118
 5145.00    1.29508   1.30308    0.118
 5146.00    1.28666   1.30435    0.117
 5147.00    1.27827   1.30386    0.116
 5148.00    1.28726   1.30380    0.116
 5149.00    1.29639   1.30811    0.116
 5150.00    1.30509   1.31233    0.115
 5151.00    1.31362   1.31925    0.114
 5152.00    1.31925   1.32970    0.115
 5153.00    1.32793   1.33953    0.116
 5154.00    1.36914   1.35154    0.117
 5155.00    1.40435   1.36281    0.117
 5156.00    1.39445   1.36799    0.117
 5157.00    1.38647   1.37031    0.117
 5158.00    1.38943   1.36512    0.117
 5159.00    1.38790   1.34899    0.116
 5160.00    1.36588   1.32674    0.115
 5161.00    1.34054   1.29501    0.114
 5162.00    1.30279   1.25563    0.114
 5163.00    1.26709   1.21480    0.114
 5164.00    1.23780   1.17211    0.113
 5165.00    1.20706   1.13204    0.113
 5166.00    1.17247   1.09855    0.114
 5167.00    1.14134   1.07340    0.114
 5168.00    1.11810   1.05919    0.113
 5169.00    1.10248   1.05474    0.113
 5170.00    1.10187   1.06043    0.113
 5171.00    1.11562   1.07645    0.114
 5172.00    1.15400   1.09885    0.115
 5173.00    1.18421   1.12416    0.115
 5174.00    1.20211   1.14937    0.116
 5175.00    1.21959   1.17129    0.116
 5176.00    1.23648   1.18685    0.116
 5177.00    1.24705   1.19256    0.116
 5178.00    1.25027   1.19087    0.115
 5179.00    1.23414   1.18528    0.115
 5180.00    1.19818   1.17582    0.114
 5181.00    1.16602   1.16883    0.113
 5182.00    1.13730   1.16735    0.112
 5183.00    1.13347   1.17219    0.113
 5184.00    1.14947   1.18699    0.114
 5185.00    1.18159   1.20377    0.115
 5186.00    1.22500   1.22185    0.115
 5187.00    1.25696   1.24466    0.116
 5188.00    1.28186   1.26079    0.117
 5189.00    1.29729   1.27125    0.118
 5190.00    1.30762   1.28265    0.000
 5191.00    1.32117   1.28990    0.000
 5192.00    1.33621   1.29576    0.000
 5193.00    1.34082   1.30441    0.000
 5194.00    1.34123   1.31242    0.000
 5195.00    1.34311   1.32144    0.000
 5196.00    1.34549   1.33094    0.000
 5197.00    1.36012   1.33630    0.000
 5198.00    1.37829   1.33749    0.000
 5199.00    1.37105   1.33322    0.000
 5200.00    1.35774   1.32366    0.000
 5201.00    1.36236   1.30936    0.000
 5202.00    1.37044   1.28989    0.000
 5203.00    1.34403   1.27214    0.000
 5204.00    1.31247   1.25739    0.000
 5205.00    1.28335   1.24543    0.000
 5206.00    1.25450   1.24315    0.000
 5207.00    1.27039   1.24772    0.000
 5208.00    1.28950   1.25845    0.000
 5209.00    1.29276   1.27691    0.000
 5210.00    1.29542   1.29667    0.000
 5211.00    1.32123   1.31788    0.117
 5212.00    1.34685   1.33969    0.117
 5213.00    1.36186   1.35771    0.117
 5214.00    1.37661   1.37267    0.117
 5215.00    1.38707   1.38537    0.117
 5216.00    1.39603   1.39428    0.116
 5217.00    1.38966   1.39815    0.116
 5218.00    1.38396   1.39798    0.116
 5219.00    1.38312   1.39361    0.117
 5220.00    1.38076   1.38319    0.117
 5221.00    1.36993   1.36840    0.116
 5222.00    1.36297   1.35427    0.115
 5223.00    1.37318   1.33936    0.115
 5224.00    1.37420   1.32504    0.115
 5225.00    1.34158   1.31964    0.114
 5226.00    1.31779   1.31777    0.114
 5227.00    1.32100   1.32003    0.114
 5228.00    1.32296   1.33160    0.114
 5229.00    1.32166   1.34273    0.115
 5230.00    1.32729   1.35672    0.115
 5231.00    1.34839   1.37445    0.114
 5232.00    1.37460   1.38786    0.114
 5233.00    1.41072   1.40379    0.114
 5234.00    1.42894   1.42040    0.114
 5235.00    1.41690   1.43371    0.114
 5236.00    1.41414   1.44768    0.114
 5237.00    1.42511   1.45891    0.114
 5238.00    1.43776   1.46775    0.115
 5239.00    1.45259   1.47435    0.116
 5240.00    1.45217   1.47484    0.116
 5241.00    1.43427   1.47150    0.115
 5242.00    1.42277   1.46668    0.115
 5243.00    1.41776   1.45723    0.116
 5244.00    1.40876   1.44308    0.116
 5245.00    1.39620   1.43058    0.116
 5246.00    1.39724   1.41893    0.116
 5247.00    1.40895   1.40718    0.117
 5248.00    1.39311   1.39931    0.117
 5249.00    1.35821   1.39400    0.117
 5250.00    1.35265   1.39475    0.118
 5251.00    1.36486   1.39996    0.118
 5252.00    1.36865   1.40380    0.118
 5253.00    1.36797   1.41201    0.118
 5254.00    1.38513   1.42035    0.118
 5255.00    1.41050   1.42285    0.119
 5256.00    1.42288   1.42149    0.119
 5257.00    1.43012   1.41243    0.119
 5258.00    1.40397   1.39647    0.118
 5259.00    1.36658   1.37334    0.117
 5260.00    1.35120   1.34180    0.117
 5261.00    1.34207   1.31011    0.117
 5262.00    1.32116   1.27805    0.118
 5263.00    1.29751   1.24373    0.120
 5264.00    1.28059   1.21830    0.119
 5265.00    1.26494   1.20247    0.119
 5266.00    1.24801   1.19021    0.119
 5267.00    1.23089   1.18799    0.119
 5268.00    1.23750   1.19752    0.120
 5269.00    1.24660   1.21259    0.120
 5270.00    1.27106   1.23461    0.120
 5271.00    1.29658   1.26210    0.119
 5272.00    1.31645   1.28952    0.120
 5273.00    1.33613   1.32017    0.120
 5274.00    1.35444   1.34929    0.120
 5275.00    1.37281   1.37146    0.119
 5276.00    1.39334   1.39296    0.118
 5277.00    1.41360   1.40926    0.116
 5278.00    1.42989   1.41888    0.117
 5279.00    1.44197   1.42961    0.117
 5280.00    1.41294   1.43794    0.116
 5281.00    1.38809   1.44480    0.115
 5282.00    1.39269   1.45630    0.114
 5283.00    1.40000   1.46965    0.114
 5284.00    1.42202   1.48413    0.114
 5285.00    1.43920   1.49929    0.114
 5286.00    1.43531   1.51267    0.114
 5287.00    1.43783   1.52438    0.113
 5288.00    1.46330   1.53190    0.114
 5289.00    1.48561   1.53263    0.115
 5290.00    1.49844   1.52717    0.115
 5291.00    1.50271   1.51675    0.115
 5292.00    1.48509   1.50209    0.114
 5293.00    1.46614   1.48506    0.114
 5294.00    1.44429   1.46690    0.115
 5295.00    1.42787   1.44982    0.115
 5296.00    1.42182   1.43972    0.115
 5297.00    1.41774   1.43536    0.115
 5298.00    1.41696   1.43533    0.115
 5299.00    1.42327   1.44285    0.114
 5300.00    1.43991   1.45595    0.115
 5301.00    1.46218   1.47310    0.115
 5302.00    1.49168   1.49246    0.116
 5303.00    1.50054   1.51053    0.116
 5304.00    1.48606   1.52716    0.115
 5305.00    1.49993   1.54227    0.116
 5306.00    1.54208   1.55379    0.118
 5307.00    1.63133   1.56078    0.120
 5308.00    1.76202   1.56472    0.122
 5309.00    1.75200   1.56545    0.128
 5310.00    1.63294   1.56235    0.137
 5311.00    1.54252   1.55788    0.140
 5312.00    1.47160   1.55172    0.138
 5313.00    1.44097   1.54257    0.138
 5314.00    1.43440   1.53367    0.138
 5315.00    1.42234   1.52455    0.137
 5316.00    1.40742   1.51332    0.135
 5317.00    1.42205   1.50156    0.127
 5318.00    1.45004   1.48731    0.117
 5319.00    1.46846   1.47166    0.115
 5320.00    1.48318   1.45460    0.115
 5321.00    1.45314   1.43241    0.115
 5322.00    1.40830   1.40997    0.113
 5323.00    1.38402   1.39086    0.113
 5324.00    1.36544   1.37182    0.112
 5325.00    1.34400   1.35468    0.112
 5326.00    1.32192   1.34656    0.112
 5327.00    1.32048   1.34746    0.112
 5328.00    1.32282   1.35554    0.112
 5329.00    1.33338   1.36868    0.112
 5330.00    1.34509   1.38462    0.112
 5331.00    1.37388   1.40606    0.112
 5332.00    1.40439   1.42740    0.112
 5333.00    1.41038   1.44257    0.112
 5334.00    1.41479   1.45309    0.111
 5335.00    1.41968   1.46048    0.111
 5336.00    1.42455   1.46407    0.110
 5337.00    1.41153   1.46125    0.110
 5338.00    1.39918   1.45772    0.109
 5339.00    1.40574   1.45613    0.109
 5340.00    1.41155   1.45353    0.109
 5341.00    1.40652   1.45361    0.109
 5342.00    1.40062   1.45330    0.109
 5343.00    1.38658   1.45408    0.109
 5344.00    1.37627   1.46078    0.108
 5345.00    1.39142   1.46571    0.108
 5346.00    1.40648   1.47150    0.108
 5347.00    1.42110   1.48196    0.108
 5348.00    1.43247   1.49399    0.108
 5349.00    1.43007   1.50909    0.108
 5350.00    1.43082   1.52434    0.109
 5351.00    1.44261   1.54031    0.109
 5352.00    1.45944   1.55790    0.110
 5353.00    1.49110   1.57240    0.110
 5354.00    1.51219   1.58370    0.111
 5355.00    1.50671   1.59070    0.111
 5356.00    1.50706   1.59297    0.111
 5357.00    1.52004   1.59154    0.112
 5358.00    1.51894   1.58387    0.112
 5359.00    1.49136   1.57129    0.111
 5360.00    1.46974   1.55766    0.111
 5361.00    1.45787   1.54058    0.111
 5362.00    1.44661   1.52109    0.111
 5363.00    1.43620   1.50261    0.112
 5364.00    1.42163   1.48292    0.112
 5365.00    1.40180   1.46570    0.111
 5366.00    1.39584   1.45168    0.111
 5367.00    1.40531   1.43922    0.113
 5368.00    1.41016   1.43211   -2.000
 5369.00    1.41045   1.43198   -2.000
 5370.00    1.40900   1.43839   -2.000
 5371.00    1.40605   1.44819   -2.000
 5372.00    1.41782   1.46180   -2.000
 5373.00    1.44084   1.47717   -2.000
 5374.00    1.46471   1.49182   -2.000
 5375.00    1.48915   1.50694   -2.000
 5376.00    1.49122   1.51793   -2.000
 5377.00    1.48013   1.52415   -2.000
 5378.00    1.46972   1.52830   -2.000
 5379.00    1.45966   1.52919   -2.000
 5380.00    1.45542   1.52692   -2.000
 5381.00    1.45376   1.52440   -2.000
 5382.00    1.45566   1.52064   -2.000
 5383.00    1.45892   1.51438    0.111
 5384.00    1.46927   1.50806    0.111
 5385.00    1.48191   1.49989    0.110
 5386.00    1.46071   1.48954    0.109
 5387.00    1.43032   1.47909    0.108
 5388.00    1.42055   1.46672    0.107
 5389.00    1.41536   1.45351    0.107
 5390.00    1.40861   1.44123    0.107
 5391.00    1.40157   1.42827    0.106
 5392.00    1.38525   1.41806    0.106
 5393.00    1.36766   1.40917    0.106
 5394.00    1.36518   1.39941    0.106
 5395.00    1.36415   1.39566    0.106
 5396.00    1.37464   1.39385    0.105
 5397.00    1.38583   1.39003    0.105
 5398.00    1.36798   1.38698    0.105
 5399.00    1.34950   1.38339    0.105
 5400.00    1.35187   1.37915    0.104
 5401.00    1.35435   1.37330    0.104
 5402.00    1.35933   1.36495    0.105
 5403.00    1.36330   1.35821    0.106
 5404.00    1.35368   1.35646    0.106
 5405.00    1.34472   1.35733    0.106
 5406.00    1.34163   1.35967    0.106
 5407.00    1.34044   1.36649    0.107
 5408.00    1.35183   1.38045    0.106
 5409.00    1.36297   1.39837    0.106
 5410.00    1.37279   1.41713    0.107
 5411.00    1.38113   1.43553    0.108
 5412.00    1.38327   1.45250    0.108
 5413.00    1.39003   1.47028    0.107
 5414.00    1.41265   1.48551    0.109
 5415.00    1.43321   1.49495    0.109
 5416.00    1.44783   1.50145    0.110
 5417.00    1.45832   1.50420    0.110
 5418.00    1.45861   1.50435    0.109
 5419.00    1.45195   1.50466    0.109
 5420.00    1.43052   1.50101    0.108
 5421.00    1.42106   1.49373    0.108
 5422.00    1.43376   1.48898    0.108
 5423.00    1.44001   1.48350    0.109
 5424.00    1.43584   1.47707    0.108
 5425.00    1.43528   1.46995    0.108
 5426.00    1.43983   1.45638    0.107
 5427.00    1.43728   1.44630    0.107
 5428.00    1.42589   1.44134    0.107
 5429.00    1.41697   1.43229    0.107
 5430.00    1.41077   1.42618    0.106
 5431.00    1.40790   1.42293    0.106
 5432.00    1.40827   1.42425    0.105
 5433.00    1.41065   1.43368    0.105
 5434.00    1.41475   1.44437    0.106
 5435.00    1.42546   1.45844    0.106
 5436.00    1.44115   1.47478    0.104
 5437.00    1.44469   1.48998    0.104
 5438.00    1.44020   1.50253    0.105
 5439.00    1.44802   1.51062    0.104
 5440.00    1.46297   1.51484    0.104
 5441.00    1.46082   1.51293    0.103
 5442.00    1.45003   1.50633    0.102
 5443.00    1.43955   1.49570    0.102
 5444.00    1.42920   1.48369    0.102
 5445.00    1.41118   1.47639    0.102
 5446.00    1.39028   1.46923    0.101
 5447.00    1.38822   1.46228    0.101
 5448.00    1.39215   1.45772    0.102
 5449.00    1.40273   1.45406    0.102
 5450.00    1.41509   1.45312    0.102
 5451.00    1.41061   1.45203    0.103
 5452.00    1.40247   1.44759    0.103
 5453.00    1.39205   1.44599    0.103
 5454.00    1.38124   1.44772    0.104
 5455.00    1.39066   1.44854    0.105
 5456.00    1.40274   1.45076    0.106
 5457.00    1.41086   1.45163    0.105
 5458.00    1.41862   1.45361    0.104
 5459.00    1.42672   1.45733    0.104
 5460.00    1.43483   1.45775    0.105
 5461.00    1.42406   1.45977    0.104
 5462.00    1.41285   1.46185    0.104
 5463.00    1.40061   1.46144    0.104
 5464.00    1.38910   1.46203    0.104
 5465.00    1.39494   1.46160    0.105
 5466.00    1.40009   1.46035    0.106
 5467.00    1.39641   1.45752    0.105
 5468.00    1.39300   1.45157    0.105
 5469.00    1.39198   1.44527    0.104
 5470.00    1.39193   1.43621    0.104
 5471.00    1.39809   1.42663    0.105
 5472.00    1.40159   1.41829    0.106
 5473.00    1.39179   1.40697    0.107
 5474.00    1.38256   1.39882    0.107
 5475.00    1.37564   1.39618    0.105
 5476.00    1.37058   1.39580    0.103
 5477.00    1.37173   1.39779    0.104
 5478.00    1.37113   1.39915   -2.000
 5479.00    1.36556   1.40446   -2.000
 5480.00    1.36303   1.41449   -2.000
 5481.00    1.36784   1.42417   -2.000
 5482.00    1.37688   1.43317   -2.000
 5483.00    1.39477   1.44005   -2.000
 5484.00    1.40272   1.44538   -2.000
 5485.00    1.39253   1.45108   -2.000
 5486.00    1.40284   1.45678   -2.000
 5487.00    1.44575   1.45979   -2.000
 5488.00    1.45799   1.46210   -2.000
 5489.00    1.42737   1.46361   -2.000
 5490.00    1.43506   1.46361   -2.000
 5491.00    1.48984   1.46529   -2.000
 5492.00    1.50776   1.46680   -2.000
 5493.00    1.48575   1.46668   -2.000
 5494.00    1.45814   1.46524   -2.000
 5495.00    1.42517   1.46391   -2.000
 5496.00    1.41352   1.46405   -2.000
 5497.00    1.41985   1.46235   -2.000
 5498.00    1.42190   1.45736   -2.000
 5499.00    1.42077   1.45255   -2.000
 5500.00    1.42184   1.44897   -2.000
 5501.00    1.42433   1.44545   -2.000
 5502.00    1.41558   1.44134    0.101
 5503.00    1.40041   1.43446    0.101
 5504.00    1.38954   1.42980    0.102
 5505.00    1.38081   1.42866    0.102
 5506.00    1.39119   1.42537    0.102
 5507.00    1.40977   1.42268    0.103
 5508.00    1.39298   1.42016    0.103
 5509.00    1.36315   1.41732    0.102
 5510.00    1.35752   1.41891    0.102
 5511.00    1.35945   1.42123    0.102
 5512.00    1.36247   1.42465    0.102
 5513.00    1.36578   1.43141    0.101
 5514.00    1.37677   1.43872    0.102
 5515.00    1.38939   1.44934    0.104
 5516.00    1.40603   1.46046    0.104
 5517.00    1.42335   1.46903    0.104
 5518.00    1.42785   1.47679    0.104
 5519.00    1.43072   1.48144    0.104
 5520.00    1.43697   1.48318    0.104
 5521.00    1.44351   1.48267    0.104
 5522.00    1.43015   1.47840    0.103
 5523.00    1.41576   1.47254    0.103
 5524.00    1.40452   1.46576    0.102
 5525.00    1.39328   1.45812    0.101
 5526.00    1.37805   1.45370    0.100
 5527.00    1.36343   1.45143    0.100
 5528.00    1.36216   1.45010    0.099
 5529.00    1.36245   1.45029    0.099
 5530.00    1.38183   1.45137    0.100
 5531.00    1.39940   1.45521    0.100
 5532.00    1.40183   1.45951    0.099
 5533.00    1.40564   1.46439    0.098
 5534.00    1.41808   1.46919    0.098
 5535.00    1.42769   1.47271    0.098
 5536.00    1.42342   1.47826    0.099
 5537.00    1.41799   1.48324    0.099
 5538.00    1.40794   1.48787    0.099
 5539.00    1.40140   1.49231    0.099
 5540.00    1.40643   1.49483    0.105
 5541.00    1.40968   1.49852    0.126
 5542.00    1.40793   1.50260    0.304
 5543.00    1.40564   1.50530   -1.000
 5544.00    1.40207   1.50851   -1.000
 5545.00    1.40532   1.51217   -1.000
 5546.00    1.42267   1.51525   -1.000
 5547.00    1.43797   1.51835   -1.000
 5548.00    1.44962   1.52009   -1.000
 5549.00    1.45529   1.52026   -1.000
 5550.00    1.45158   1.51956   -1.000
 5551.00    1.44427   1.51713    0.480
 5552.00    1.43197   1.51371    0.142
 5553.00    1.42352   1.51016    0.102
 5554.00    1.41971   1.50514    0.102
 5555.00    1.41735   1.49951    0.101
 5556.00    1.41655   1.49488    0.101
 5557.00    1.41637   1.48944    0.101
 5558.00    1.41679   1.48404    0.102
 5559.00    1.41134   1.47800    0.102
 5560.00    1.40102   1.47118    0.101
 5561.00    1.39349   1.46600    0.101
 5562.00    1.38800   1.46014    0.101
 5563.00    1.38437   1.45450    0.100
 5564.00    1.38193   1.44982    0.100
 5565.00    1.38487   1.44601    0.099
 5566.00    1.39084   1.44429    0.099
 5567.00    1.39331   1.44310    0.099
 5568.00    1.39406   1.44402    0.099
 5569.00    1.40039   1.44528    0.099
 5570.00    1.40906   1.44690    0.098
 5571.00    1.41191   1.45176    0.098
 5572.00    1.41265   1.45625    0.098
 5573.00    1.41079   1.46039    0.098
 5574.00    1.40814   1.46466    0.098
 5575.00    1.40034   1.46722    0.097
 5576.00    1.39123   1.46935    0.097
 5577.00    1.39234   1.47029    0.097
 5578.00    1.39556   1.46671    0.097
 5579.00    1.40148   1.46044    0.097
 5580.00    1.40783   1.45273    0.097
 5581.00    1.39577   1.44121    0.097
 5582.00    1.38145   1.42846    0.097
 5583.00    1.37378   1.41423    0.097
 5584.00    1.36667   1.39884    0.097
 5585.00    1.34881   1.38727    0.097
 5586.00    1.33042   1.37784    0.097
 5587.00    1.31959   1.37194    0.097
 5588.00    1.30902   1.37073    0.098
 5589.00    1.30704   1.37105    0.098
 5590.00    1.30586   1.37553    0.098
 5591.00    1.32064   1.38198    0.099
 5592.00    1.33483   1.38935    0.100
 5593.00    1.34229   1.39788    0.100
 5594.00    1.34958   1.40304    0.101
 5595.00    1.35553   1.40581    0.102
 5596.00    1.36237   1.40893    0.103
 5597.00    1.37453   1.41190    0.104
 5598.00    1.38281   1.41512    0.104
 5599.00    1.37264   1.41910    0.104
 5600.00    1.36500   1.42349    0.104
 5601.00    1.36722   1.43276    0.103
 5602.00    1.37270   1.44457    0.102
 5603.00    1.38868   1.45651    0.102
 5604.00    1.40192   1.46915    0.102
 5605.00    1.40764   1.47982    0.101
 5606.00    1.41131   1.48949    0.101
 5607.00    1.41016   1.49525    0.100
 5608.00    1.41264   1.49674    0.100
 5609.00    1.42248   1.49440    0.099
 5610.00    1.42864   1.48726    0.099
 5611.00    1.42829   1.47731    0.098
 5612.00    1.41949   1.46451    0.098
 5613.00    1.39762   1.45335    0.097
 5614.00    1.38215   1.44498    0.097
 5615.00    1.37535   1.43647    0.096
 5616.00    1.36949   1.42926    0.097
 5617.00    1.36476   1.42352    0.097
 5618.00    1.36407   1.42197    0.097
 5619.00    1.36762   1.42348    0.096
 5620.00    1.36373   1.42389    0.095
 5621.00    1.35294   1.42368    0.094
 5622.00    1.34837   1.42493    0.094
 5623.00    1.34888   1.42950    0.095
 5624.00    1.35774   1.43519    0.095
 5625.00    1.37262   1.44056    0.095
 5626.00    1.38311   1.44645    0.095
 5627.00    1.39083   1.45290    0.096
 5628.00    1.39339   1.46004    0.096
 5629.00    1.39309   1.46528    0.095
 5630.00    1.38368   1.46757    0.095
 5631.00    1.36989   1.46784    0.095
 5632.00    1.36922   1.46594    0.095
 5633.00    1.37401   1.46200    0.096
 5634.00    1.36801   1.45666    0.096
 5635.00    1.35818   1.45129    0.097
 5636.00    1.35814   1.44620    0.097
 5637.00    1.36104   1.44212    0.098
 5638.00    1.36046   1.43861    0.099
 5639.00    1.35901   1.43677    0.100
 5640.00    1.35657   1.43751    0.100
 5641.00    1.35393   1.43908    0.099
 5642.00    1.35685   1.44206    0.099
 5643.00    1.36065   1.44493    0.098
 5644.00    1.36790   1.44841    0.098
 5645.00    1.37555   1.45268    0.098
 5646.00    1.36784   1.45537    0.097
 5647.00    1.35889   1.45758    0.096
 5648.00    1.35777   1.45876    0.096
 5649.00    1.35701   1.45810    0.096
 5650.00    1.35811   1.45544    0.096
 5651.00    1.35888   1.45037    0.095
 5652.00    1.34236   1.44382    0.095
 5653.00    1.32665   1.43695    0.094
 5654.00    1.32583   1.42945    0.094
 5655.00    1.32733   1.42040    0.093
 5656.00    1.35445   1.41305    0.093
 5657.00    1.37647   1.40879    0.094
 5658.00    1.35893   1.40678    0.093
 5659.00    1.34491   1.40652    0.093
 5660.00    1.35159   1.40716    0.093
 5661.00    1.35730   1.41182    0.094
 5662.00    1.35853   1.41947    0.093
 5663.00    1.35860   1.42677    0.093
 5664.00    1.35421   1.43293    0.094
 5665.00    1.35347   1.44020    0.095
 5666.00    1.36434   1.44894    0.095
 5667.00    1.37289   1.45741    0.094
 5668.00    1.37519   1.46544    0.094
 5669.00    1.37697   1.47276    0.095
 5670.00    1.37753   1.48038    0.095
 5671.00    1.38174   1.48756    0.095
 5672.00    1.39321   1.49297    0.095
 5673.00    1.39892   1.49692    0.096
 5674.00    1.39462   1.49933    0.097
 5675.00    1.39541   1.49955    0.098
 5676.00    1.40395   1.49705    0.099
 5677.00    1.40864   1.49209    0.099
 5678.00    1.40816   1.48640    0.100
 5679.00    1.39543   1.47974    0.100
 5680.00    1.36826   1.47263    0.100
 5681.00    1.36141   1.46621    0.099
 5682.00    1.37567   1.46106    0.098
 5683.00    1.38291   1.45725    0.097
 5684.00    1.38373   1.45422    0.096
 5685.00    1.38429   1.45413    0.096
 5686.00    1.38462   1.45675    0.095
 5687.00    1.38681   1.46145    0.095
 5688.00    1.39031   1.46578    0.095
 5689.00    1.39053   1.47032    0.095
 5690.00    1.38870   1.47499    0.094
 5691.00    1.39087   1.47829    0.094
 5692.00    1.39522   1.48057    0.094
 5693.00    1.40090   1.47947    0.094
 5694.00    1.40721   1.47682    0.094
 5695.00    1.40422   1.47117    0.094
 5696.00    1.39744   1.46334    0.094
 5697.00    1.38763   1.45511    0.094
 5698.00    1.37677   1.44548    0.094
 5699.00    1.37137   1.43627    0.094
 5700.00    1.36758   1.42654    0.094
 5701.00    1.36418   1.41719    0.094
 5702.00    1.36089   1.40890    0.093
 5703.00    1.35884   1.39998    0.093
 5704.00    1.35705   1.39224    0.093
 5705.00    1.35287   1.38734    0.093
 5706.00    1.34833   1.38350    0.092
 5707.00    1.34974   1.38265    0.093
 5708.00    1.35182   1.38448    0.093
 5709.00    1.35248   1.38904    0.094
 5710.00    1.35304   1.39848    0.095
 5711.00    1.35067   1.40967    0.094
 5712.00    1.34818   1.42354    0.094
 5713.00    1.36452   1.43888    0.095
 5714.00    1.38076   1.45348    0.095
 5715.00    1.38682   1.46897    0.096
 5716.00    1.39329   1.48324    0.096
 5717.00    1.40670   1.49493    0.097
 5718.00    1.42027   1.50510    0.097
 5719.00    1.43561   1.51314    0.096
 5720.00    1.45033   1.51858    0.095
 5721.00    1.46040   1.52190    0.096
 5722.00    1.46848   1.52283    0.097
 5723.00    1.46525   1.52231    0.096
 5724.00    1.46358   1.52066    0.096
 5725.00    1.46903   1.51843    0.096
 5726.00    1.47170   1.51571    0.096
 5727.00    1.46396   1.51305    0.095
 5728.00    1.45525   1.51083    0.094
 5729.00    1.44348   1.50906    0.095
 5730.00    1.43496   1.50957    0.095
 5731.00    1.43503   1.51092    0.094
 5732.00    1.43594   1.51185    0.094
 5733.00    1.43879   1.51220    0.093
 5734.00    1.44375   1.51287    0.093
 5735.00    1.45286   1.51456    0.093
 5736.00    1.45924   1.51553    0.093
 5737.00    1.46096   1.51551    0.093
 5738.00    1.46014   1.51494    0.092
 5739.00    1.45551   1.51428    0.093
 5740.00    1.45209   1.51375    0.000
 5741.00    1.45025   1.51324    0.000
 5742.00    1.45333   1.51215    0.000
 5743.00    1.46210   1.51000    0.000
 5744.00    1.46212   1.50754    0.000
 5745.00    1.45317   1.50432    0.000
 5746.00    1.44918   1.50162    0.000
 5747.00    1.44965   1.49866    0.000
 5748.00    1.44350   1.49463    0.000
 5749.00    1.43206   1.49006    0.000
 5750.00    1.42377   1.48583    0.000
 5751.00    1.41769   1.48378    0.000
 5752.00    1.41864   1.48318    0.000
 5753.00    1.42391   1.48317    0.000
 5754.00    1.42729   1.48258    0.000
 5755.00    1.42966   1.48227    0.000
 5756.00    1.43232   1.48211    0.000
 5757.00    1.43512   1.48279    0.000
 5758.00    1.43580   1.48411    0.000
 5759.00    1.43562   1.48583    0.000
 5760.00    1.43783   1.48810    0.000
 5761.00    1.44085   1.49152    0.000
 5762.00    1.44394   1.49572    0.000
 5763.00    1.44705   1.50040    0.000
 5764.00    1.45398   1.50570    0.000
 5765.00    1.46181   1.51058    0.000
 5766.00    1.46029   1.51572    0.000
 5767.00    1.45697   1.51873    0.000
 5768.00    1.44808   1.51988    0.000
 5769.00    1.43836   1.51888    0.000
 5770.00    1.44193   1.51639    0.000
 5771.00    1.44696   1.51249    0.000
 5772.00    1.44248   1.50677    0.000
 5773.00    1.43732   1.50034    0.000
 5774.00    1.44183   1.49162    0.000
 5775.00    1.44669   1.48158    0.000
 5776.00    1.45726   1.46980    0.000
 5777.00    1.46694   1.45744    0.000
 5778.00    1.44438   1.44536    0.000
 5779.00    1.42205   1.43411    0.000
 5780.00    1.40352   1.42401    0.000
 5781.00    1.38627   1.41657    0.000
 5782.00    1.38194   1.41225    0.000
 5783.00    1.37826   1.41086    0.000
 5784.00    1.37927   1.41453    0.000
 5785.00    1.38197   1.42067    0.000
 5786.00    1.39414   1.42861    0.000
 5787.00    1.40652   1.43789    0.000
 5788.00    1.41982   1.44789    0.000
 5789.00    1.42938   1.45953    0.000
 5790.00    1.42529   1.46996    0.000
 5791.00    1.42188   1.47937   -2.000
 5792.00    1.42051   1.48750   -2.000
 5793.00    1.42008   1.49371   -2.000
 5794.00    1.42210   1.50060   -2.000
 5795.00    1.42880   1.50669   -2.000
 5796.00    1.44595   1.51188   -2.000
 5797.00    1.45933   1.51672   -2.000
 5798.00    1.46546   1.51959   -2.000
 5799.00    1.46981   1.52096   -2.000
 5800.00    1.47117   1.52146   -2.000
 5801.00    1.47018   1.52190   -2.000
 5802.00    1.46572   1.52200   -2.000
 5803.00    1.46326   1.52091   -2.000
 5804.00    1.46338   1.51967   -2.000
 5805.00    1.46424   1.51835   -2.000
 5806.00    1.46594   1.51692   -2.000
 5807.00    1.46282   1.51606   -2.000
 5808.00    1.45486   1.51615   -2.000
 5809.00    1.45194   1.51608   -2.000
 5810.00    1.45351   1.51601   -2.000
 5811.00    1.45460   1.51578    0.000
 5812.00    1.45532   1.51612    0.000
 5813.00    1.45273   1.51757    0.000
 5814.00    1.44784   1.51916    0.000
 5815.00    1.45061   1.52200    0.000
 5816.00    1.45802   1.52510    0.000
 5817.00    1.46897   1.52848    0.000
 5818.00    1.48181   1.53214    0.000
 5819.00    1.47883   1.53601    0.000
 5820.00    1.46861   1.54042    0.000
 5821.00    1.47301   1.54351    0.000
 5822.00    1.48318   1.54598    0.000
 5823.00    1.49007   1.54751    0.000
 5824.00    1.49586   1.54846    0.000
 5825.00    1.48744   1.54881    0.000
 5826.00    1.47501   1.54850    0.000
 5827.00    1.48022   1.54811    0.000
 5828.00    1.48954   1.54690    0.000
 5829.00    1.48803   1.54514    0.000
 5830.00    1.48450   1.54310    0.000
 5831.00    1.48447   1.54150    0.000
 5832.00    1.48495   1.53993    0.000
 5833.00    1.47965   1.53818    0.000
 5834.00    1.47374   1.53739    0.000
 5835.00    1.46570   1.53722    0.000
 5836.00    1.45752   1.53752    0.000
 5837.00    1.46008   1.53816    0.000
 5838.00    1.46299   1.53919    0.000
 5839.00    1.45669   1.53971    0.000
 5840.00    1.45063   1.53885    0.000
 5841.00    1.45202   1.53718    0.000
 5842.00    1.45387   1.53429    0.000
 5843.00    1.46278   1.53011    0.000
 5844.00    1.47026   1.52464    0.000
 5845.00    1.46383   1.51797    0.000
 5846.00    1.45781   1.51031    0.000
 5847.00    1.45469   1.50152    0.000
 5848.00    1.45202   1.49215    0.000
 5849.00    1.45181   1.48294    0.000
 5850.00    1.44740   1.47414    0.000
 5851.00    1.42481   1.46567    0.000
 5852.00    1.40604   1.45731    0.000
 5853.00    1.40090   1.45003    0.000
 5854.00    1.39892   1.44461    0.000
 5855.00    1.40641   1.44053    0.000
 5856.00    1.41233   1.43939    0.000
 5857.00    1.41423   1.43950    0.000
 5858.00    1.41718   1.44141    0.000
 5859.00    1.42243   1.44449    0.000
 5860.00    1.42343   1.44879    0.000
 5861.00    1.41635   1.45422    0.000
 5862.00    1.40919   1.45956    0.000
 5863.00    1.40190   1.46593    0.000
 5864.00    1.40000   1.47134    0.000
 5865.00    1.40594   1.47679    0.000
 5866.00    1.41320   1.48166    0.000
 5867.00    1.42213   1.48598    0.000
 5868.00    1.43011   1.48889    0.000
 5869.00    1.43703   1.49124    0.000
 5870.00    1.43849   1.49304    0.000
 5871.00    1.43449   1.49296    0.000
 5872.00    1.43064   1.49161    0.000
 5873.00    1.42690   1.48833    0.000
 5874.00    1.42311   1.48381    0.000
 5875.00    1.41928   1.47715    0.000
 5876.00    1.41235   1.46985    0.000
 5877.00    1.40329   1.46133    0.000
 5878.00    1.40034   1.45033    0.000
 5879.00    1.40104   1.43731    0.000
 5880.00    1.39540   1.42188    0.000
 5881.00    1.38646   1.40363    0.000
 5882.00    1.36874   1.38150    0.000
 5883.00    1.34706   1.35547    0.000
 5884.00    1.32536   1.32524    0.000
 5885.00    1.30366   1.29256    0.000
 5886.00    1.27500   1.26248    0.000
 5887.00    1.24404   1.23466    0.000
 5888.00    1.21295   1.20975    0.000
 5889.00    1.18183   1.19023    0.000
 5890.00    1.16986   1.17460    0.000
 5891.00    1.16224   1.16537    0.000
 5892.00    1.15980   1.16641    0.000
 5893.00    1.15830   1.17705    0.000
 5894.00    1.17021   1.19384    0.000
 5895.00    1.18399   1.21528    0.000
 5896.00    1.20018   1.24080    0.000
 5897.00    1.21662   1.26747    0.000
 5898.00    1.24801   1.29456    0.000
 5899.00    1.28037   1.32353    0.000
 5900.00    1.30714   1.35062    0.000
 5901.00    1.33370   1.37424    0.090
 5902.00    1.34189   1.39490    0.090
 5903.00    1.34999   1.41172    0.089
 5904.00    1.35563   1.42451    0.089
 5905.00    1.36164   1.43402    0.088
 5906.00    1.37277   1.44102    0.088
 5907.00    1.38355   1.44534    0.088
 5908.00    1.39101   1.44731    0.088
 5909.00    1.39733   1.44734    0.088
 5910.00    1.39595   1.44700    0.088
 5911.00    1.39389   1.44561    0.088
 5912.00    1.38826   1.44460    0.087
 5913.00    1.38345   1.44401    0.086
 5914.00    1.38214   1.44370    0.087
 5915.00    1.38066   1.44462    0.087
 5916.00    1.37859   1.44571    0.088
 5917.00    1.37852   1.44800    0.088
 5918.00    1.38435   1.45076    0.089
 5919.00    1.39030   1.45420    0.089
 5920.00    1.39655   1.45726    0.090
 5921.00    1.39878   1.45991    0.090
 5922.00    1.39230   1.46167    0.090
 5923.00    1.38648   1.46237    0.090
 5924.00    1.38187   1.46230    0.091
 5925.00    1.37959   1.46132    0.091
 5926.00    1.38111   1.46106    0.091
 5927.00    1.38488   1.46016    0.091
 5928.00    1.39189   1.45940    0.091
 5929.00    1.39762   1.45820    0.091
 5930.00    1.40173   1.45719    0.090
 5931.00    1.40233   1.45762    0.089
 5932.00    1.39903   1.45780    0.089
 5933.00    1.39530   1.45892    0.089
 5934.00    1.39115   1.46035    0.089
 5935.00    1.38993   1.46140    0.089
 5936.00    1.39124   1.46193    0.089
 5937.00    1.39638   1.46250    0.088
 5938.00    1.40443   1.46360    0.087
 5939.00    1.40807   1.46431    0.087
 5940.00    1.40876   1.46491    0.088
 5941.00    1.41077   1.46518    0.087
 5942.00    1.41355   1.46486    0.087
 5943.00    1.41435   1.46367    0.087
 5944.00    1.41414   1.46232    0.087
 5945.00    1.41196   1.46114    0.088
 5946.00    1.40890   1.45970    0.088
 5947.00    1.41118   1.45771    0.089
 5948.00    1.41549   1.45523    0.090
 5949.00    1.41055   1.45341    0.089
 5950.00    1.40261   1.45180    0.088
 5951.00    1.39669   1.45026    0.088
 5952.00    1.39132   1.44985    0.089
 5953.00    1.39326   1.45057    0.089
 5954.00    1.39682   1.45223    0.089
 5955.00    1.39913   1.45477    0.089
 5956.00    1.40121   1.45832    0.090
 5957.00    1.40832   1.46257    0.090
 5958.00    1.41611   1.46675    0.090
 5959.00    1.42284   1.47129    0.091
 5960.00    1.42947   1.47569    0.091
 5961.00    1.42740   1.47962    0.091
 5962.00    1.42482   1.48392    0.090
 5963.00    1.43298   1.48733    0.090
 5964.00    1.44135   1.49038    0.090
 5965.00    1.43729   1.49265    0.089
 5966.00    1.43320   1.49444    0.089
 5967.00    1.42830   1.49537    0.088
 5968.00    1.42370   1.49522    0.087
 5969.00    1.42290   1.49442    0.087
 5970.00    1.42245   1.49215    0.087
 5971.00    1.42504   1.48880    0.087
 5972.00    1.42788   1.48466    0.087
 5973.00    1.43234   1.47997    0.087
 5974.00    1.43500   1.47480    0.087
 5975.00    1.42835   1.46993    0.088
 5976.00    1.42098   1.46490    0.088
 5977.00    1.41062   1.46006    0.087
 5978.00    1.40108   1.45567    0.086
 5979.00    1.39431   1.45176    0.086
 5980.00    1.38828   1.44910    0.086
 5981.00    1.38435   1.44754    0.087
 5982.00    1.38150   1.44677    0.087
 5983.00    1.38130   1.44698    0.087
 5984.00    1.38132   1.44791    0.087
 5985.00    1.38179   1.44991    0.088
 5986.00    1.38335   1.45222    0.089
 5987.00    1.38693   1.45536    0.089
 5988.00    1.39269   1.45929    0.090
 5989.00    1.40197   1.46254    0.090
 5990.00    1.40797   1.46537    0.089
 5991.00    1.40932   1.46697    0.089
 5992.00    1.41335   1.46750    0.088
 5993.00    1.42073   1.46704    0.088
 5994.00    1.42483   1.46579    0.089
 5995.00    1.42534   1.46396    0.089
 5996.00    1.42140   1.46144    0.089
 5997.00    1.41316   1.45857    0.088
 5998.00    1.40470   1.45518    0.088
 5999.00    1.39605   1.45195    0.087
 6000.00    1.39230   1.44864    0.087
 6001.00    1.39223   1.44523    0.087
 6002.00    1.38968   1.44228    0.086
 6003.00    1.38549   1.43943    0.085
 6004.00    1.37801   1.43720    0.085
 6005.00    1.36862   1.43532    0.085
 6006.00    1.36460   1.43371    0.085
 6007.00    1.36328   1.43245    0.085
 6008.00    1.36674   1.43125    0.086
 6009.00    1.37228   1.43052    0.087
 6010.00    1.37406   1.42970    0.087
 6011.00    1.37443   1.42888    0.087
 6012.00    1.38121   1.42821    0.087
 6013.00    1.39002   1.42719    0.088
 6014.00    1.39410   1.42639    0.089
 6015.00    1.39694   1.42507    0.090
 6016.00    1.39059   1.42467    0.089
 6017.00    1.38225   1.42477    0.089
 6018.00    1.38107   1.42608    0.090
 6019.00    1.38112   1.42822    0.091
 6020.00    1.38217   1.43157    0.091
 6021.00    1.38334   1.43620    0.090
 6022.00    1.39060   1.44128    0.090
 6023.00    1.39842   1.44800    0.090
 6024.00    1.40484   1.45448    0.089
 6025.00    1.41117   1.46207    0.088
 6026.00    1.41810   1.46901    0.088
 6027.00    1.42499   1.47616    0.087
 6028.00    1.42787   1.48265    0.087
 6029.00    1.43062   1.48821    0.086
 6030.00    1.43058   1.49337    0.086
 6031.00    1.43110   1.49724    0.086
 6032.00    1.43879   1.50054    0.086
 6033.00    1.44595   1.50267    0.086
 6034.00    1.44865   1.50437    0.086
 6035.00    1.44996   1.50508    0.086
 6036.00    1.44245   1.50591    0.086
 6037.00    1.43555   1.50631    0.086
 6038.00    1.43173   1.50693    0.085
 6039.00    1.42930   1.50772    0.085
 6040.00    1.43250   1.50871    0.085
 6041.00    1.43590   1.51011    0.086
 6042.00    1.43997   1.51134    0.087
 6043.00    1.44269   1.51299    0.088
 6044.00    1.44160   1.51395    0.088
 6045.00    1.44279   1.51482    0.088
 6046.00    1.44954   1.51477    0.089
 6047.00    1.45392   1.51377    0.090
 6048.00    1.45334   1.51206    0.090
 6049.00    1.45263   1.50905    0.090
 6050.00    1.45168   1.50586    0.090
 6051.00    1.45269   1.50177    0.089
 6052.00    1.45682   1.49811    0.088
 6053.00    1.45604   1.49419    0.088
 6054.00    1.44840   1.49075    0.088
 6055.00    1.44100   1.48765    0.088
 6056.00    1.43387   1.48461    0.088
 6057.00    1.42767   1.48243    0.088
 6058.00    1.42246   1.47985    0.087
 6059.00    1.42171   1.47871    0.086
 6060.00    1.42523   1.47779    0.086
 6061.00    1.43024   1.47809    0.086
 6062.00    1.43651   1.47941    0.086
 6063.00    1.43763   1.48167    0.086
 6064.00    1.43494   1.48528    0.086
 6065.00    1.43119   1.48958    0.086
 6066.00    1.42675   1.49495    0.085
 6067.00    1.42988   1.50024    0.085
 6068.00    1.43732   1.50552    0.086
 6069.00    1.45249   1.50979    0.086
 6070.00    1.47149   1.51258    0.087
 6071.00    1.48062   1.51354    0.087
 6072.00    1.48552   1.51224    0.088
 6073.00    1.47541   1.50910    0.088
 6074.00    1.45978   1.50403    0.088
 6075.00    1.44772   1.49777    0.088
 6076.00    1.43678   1.49084    0.088
 6077.00    1.43239   1.48377    0.088
 6078.00    1.42970   1.47677    0.088
 6079.00    1.41968   1.47051    0.088
 6080.00    1.40810   1.46515    0.088
 6081.00    1.40457   1.46087    0.088
 6082.00    1.40238   1.45764    0.088
 6083.00    1.40912   1.45500    0.088
 6084.00    1.41697   1.45348    0.089
 6085.00    1.41896   1.45252    0.088
 6086.00    1.42042   1.45186    0.087
 6087.00    1.41970   1.45181    0.086
 6088.00    1.41887   1.45250    0.086
 6089.00    1.41511   1.45309    0.086
 6090.00    1.41136   1.45398    0.085
 6091.00    1.41203   1.45507    0.085
 6092.00    1.41279   1.45616    0.084
 6093.00    1.41540   1.45694    0.084
 6094.00    1.41785   1.45689    0.084
 6095.00    1.41848   1.45561    0.084
 6096.00    1.41901   1.45346    0.084
 6097.00    1.41867   1.45152    0.085
 6098.00    1.41801   1.44857    0.086
 6099.00    1.41541   1.44609    0.086
 6100.00    1.41212   1.44345    0.086
 6101.00    1.40550   1.44192    0.087
 6102.00    1.40025   1.44201    0.087
 6103.00    1.40042   1.44360    0.087
 6104.00    1.40189   1.44627    0.087
 6105.00    1.40765   1.44988    0.089
 6106.00    1.41423   1.45461    0.090
 6107.00    1.42307   1.45930    0.089
 6108.00    1.43195   1.46437    0.089
 6109.00    1.44091   1.46808    0.089
 6110.00    1.44569   1.47036    0.089
 6111.00    1.44186   1.47134    0.089
 6112.00    1.43868   1.47048    0.089
 6113.00    1.43666   1.46793    0.088
 6114.00    1.43314   1.46408    0.088
 6115.00    1.42728   1.45831    0.087
 6116.00    1.42087   1.45244    0.086
 6117.00    1.41372   1.44668    0.085
 6118.00    1.40678   1.44081    0.085
 6119.00    1.40009   1.43571    0.084
 6120.00    1.39460   1.43164    0.084
 6121.00    1.39037   1.42927    0.084
 6122.00    1.39188   1.42852    0.085
 6123.00    1.39877   1.42926    0.085
 6124.00    1.40444   1.43059    0.085
 6125.00    1.40910   1.43251    0.085
 6126.00    1.41131   1.43420    0.085
 6127.00    1.41174   1.43492    0.085
 6128.00    1.41614   1.43449    0.085
 6129.00    1.42308   1.43162    0.086
 6130.00    1.42372   1.42665    0.086
 6131.00    1.42082   1.42119    0.087
 6132.00    1.40569   1.41507    0.087
 6133.00    1.38460   1.40912    0.087
 6134.00    1.37008   1.40386    0.088
 6135.00    1.35833   1.40023    0.089
 6136.00    1.36208   1.39932    0.090
 6137.00    1.37144   1.40075    0.091
 6138.00    1.37722   1.40488    0.091
 6139.00    1.38191   1.41049    0.090
 6140.00    1.38944   1.41767    0.089
 6141.00    1.39770   1.42502    0.087
 6142.00    1.40791   1.43247    0.087
 6143.00    1.41853   1.43918    0.088
 6144.00    1.42701   1.44381    0.087
 6145.00    1.43515   1.44625    0.086
 6146.00    1.43645   1.44697    0.086
 6147.00    1.43693   1.44642    0.086
 6148.00    1.42397   1.44451    0.085
 6149.00    1.40989   1.44112    0.085
 6150.00    1.40453   1.43643    0.084
 6151.00    1.39959   1.43062    0.083
 6152.00    1.40051   1.42320    0.084
 6153.00    1.40133   1.41445    0.085
 6154.00    1.39077   1.40375    0.085
 6155.00    1.38003   1.39205    0.085
 6156.00    1.36570   1.37938    0.086
 6157.00    1.35126   1.36643    0.086
 6158.00    1.33552   1.35372    0.086
 6159.00    1.32032   1.34183    0.086
 6160.00    1.30941   1.33222    0.087
 6161.00    1.30027   1.32486    0.087
 6162.00    1.30178   1.32008    0.087
 6163.00    1.30267   1.31819    0.087
 6164.00    1.30065   1.31908    0.087
 6165.00    1.29962   1.32203    0.088
 6166.00    1.30247   1.32664    0.088
 6167.00    1.30608   1.33322    0.088
 6168.00    1.31214   1.34063    0.087
 6169.00    1.31918   1.34860    0.086
 6170.00    1.32891   1.35649    0.086
 6171.00    1.33704   1.36454    0.086
 6172.00    1.34142   1.37270    0.086
 6173.00    1.34254   1.38005    0.085
 6174.00    1.33705   1.38734    0.084
 6175.00    1.33255   1.39428    0.083
 6176.00    1.32982   1.40047    0.084
 6177.00    1.32755   1.40484    0.084
 6178.00    1.32599   1.40814    0.084
 6179.00    1.32455   1.40981    0.084
 6180.00    1.32329   1.40986    0.083
 6181.00    1.32312   1.40820    0.083
 6182.00    1.32425   1.40479    0.084
 6183.00    1.32763   1.40024    0.084
 6184.00    1.33336   1.39424    0.084
 6185.00    1.33566   1.38809    0.084
 6186.00    1.33477   1.38219    0.086
 6187.00    1.33007   1.37694    0.087
 6188.00    1.32224   1.37306    0.087
 6189.00    1.31738   1.37086    0.087
 6190.00    1.31465   1.37050    0.088
 6191.00    1.31286   1.37178    0.087
 6192.00    1.31167   1.37484    0.086
 6193.00    1.31131   1.37899    0.086
 6194.00    1.31139   1.38380    0.087
 6195.00    1.31151   1.38873    0.088
 6196.00    1.31165   1.39344   -2.000
 6197.00    1.32814   1.39849   -2.000
 6198.00    1.35140   1.40269   -2.000
 6199.00    1.38471   1.40645   -2.000
 6200.00    1.42157   1.40964   -2.000
 6201.00    1.43646   1.41224   -2.000
 6202.00    1.44478   1.41394   -2.000
 6203.00    1.43250   1.41453   -2.000
 6204.00    1.41510   1.41357   -2.000
 6205.00    1.40330   1.41123   -2.000
 6206.00    1.39262   1.40703   -2.000
 6207.00    1.39156   1.40090   -2.000
 6208.00    1.39201   1.39324    0.086
 6209.00    1.37913   1.38422    0.085
 6210.00    1.36468   1.37457    0.085
 6211.00    1.34547   1.36469    0.085
 6212.00    1.32588   1.35551    0.084
 6213.00    1.30910   1.34736    0.084
 6214.00    1.29245   1.34086    0.084
 6215.00    1.29253   1.33585    0.085
 6216.00    1.29310   1.33289    0.085
 6217.00    1.30807   1.33138    0.086
 6218.00    1.32259   1.33125    0.086
 6219.00    1.32899   1.33217    0.087
 6220.00    1.33489   1.33343    0.087
 6221.00    1.33543   1.33459    0.086
 6222.00    1.33547   1.33525    0.086
 6223.00    1.33162   1.33542    0.086
 6224.00    1.32783   1.33454    0.086
 6225.00    1.32435   1.33363    0.085
 6226.00    1.32184   1.33205    0.085
 6227.00    1.32381   1.33082    0.084
 6228.00    1.32456   1.32962    0.083
 6229.00    1.32067   1.32923    0.084
 6230.00    1.31698   1.32972    0.084
 6231.00    1.31393   1.33056    0.083
 6232.00    1.31182   1.33224    0.083
 6233.00    1.31227   1.33343    0.082
 6234.00    1.31127   1.33425    0.082
 6235.00    1.30694   1.33402    0.082
 6236.00    1.30405   1.33323    0.082
 6237.00    1.30406   1.33109    0.082
 6238.00    1.30458   1.32846    0.082
 6239.00    1.30598   1.32551    0.083
 6240.00    1.30687   1.32248    0.084
 6241.00    1.30700   1.31997    0.084
 6242.00    1.30599   1.31822    0.084
 6243.00    1.30344   1.31711    0.085
 6244.00    1.30392   1.31676    0.085
 6245.00    1.30794   1.31652    0.085
 6246.00    1.31024   1.31629    0.085
 6247.00    1.31075   1.31500    0.085
 6248.00    1.30799   1.31292    0.085
 6249.00    1.30225   1.30985    0.085
 6250.00    1.29811   1.30573    0.085
 6251.00    1.29526   1.30162    0.085
 6252.00    1.29361   1.29724    0.084
 6253.00    1.29282   1.29399    0.084
 6254.00    1.28996   1.29170    0.084
 6255.00    1.28581   1.29164    0.083
 6256.00    1.28445   1.29316    0.083
 6257.00    1.28460   1.29718    0.083
 6258.00    1.28759   1.30296    0.084
 6259.00    1.29192   1.31008    0.085
 6260.00    1.30485   1.31818    0.089
 6261.00    1.32129   1.32618    0.095
 6262.00    1.34497   1.33430    0.098
 6263.00    1.37117   1.34133    0.101
 6264.00    1.38331   1.34803    0.100
 6265.00    1.39132   1.35331    0.097
 6266.00    1.37983   1.35802    0.093
 6267.00    1.36360   1.36172    0.089
 6268.00    1.35401   1.36480    0.087
 6269.00    1.34571   1.36721    0.085
 6270.00    1.34537   1.36920    0.085
 6271.00    1.34625   1.37074    0.086
 6272.00    1.34538   1.37178    0.086
 6273.00    1.34431   1.37260    0.086
 6274.00    1.35358   1.37281    0.087
 6275.00    1.36362   1.37308    0.087
 6276.00    1.36604   1.37304    0.086
 6277.00    1.36815   1.37359    0.086
 6278.00    1.36173   1.37425    0.086
 6279.00    1.35548   1.37577    0.086
 6280.00    1.35845   1.37777    0.000
 6281.00    1.36181   1.38048    0.000
 6282.00    1.37171   1.38362    0.000
 6283.00    1.38189   1.38686    0.000
 6284.00    1.39501   1.39000    0.000
 6285.00    1.40702   1.39230    0.000
 6286.00    1.41068   1.39393    0.000
 6287.00    1.41313   1.39408    0.000
 6288.00    1.40865   1.39329    0.000
 6289.00    1.40342   1.39087    0.000
 6290.00    1.39476   1.38744    0.000
 6291.00    1.38646   1.38293    0.000
 6292.00    1.37949   1.37790    0.000
 6293.00    1.37351   1.37265    0.000
 6294.00    1.37057   1.36751    0.000
 6295.00    1.36903   1.36283    0.000
 6296.00    1.37117   1.35906    0.000
 6297.00    1.37140   1.35633    0.000
 6298.00    1.36731   1.35497    0.000
 6299.00    1.36498   1.35493    0.000
 6300.00    1.36609   1.35620    0.000
 6301.00    1.36681   1.35857    0.000
 6302.00    1.36686   1.36177    0.000
 6303.00    1.36647   1.36531    0.000
 6304.00    1.36541   1.36879    0.000
 6305.00    1.36567   1.37179    0.000
 6306.00    1.36767   1.37364    0.000
 6307.00    1.37192   1.37421    0.000
 6308.00    1.37876   1.37324    0.000
 6309.00    1.38283   1.37113    0.000
 6310.00    1.38407   1.36773    0.000
 6311.00    1.38066   1.36361    0.000
 6312.00    1.37306   1.35915    0.000
 6313.00    1.36047   1.35515    0.000
 6314.00    1.34393   1.35191    0.000
 6315.00    1.32993   1.34996    0.000
 6316.00    1.31771   1.34947    0.000
 6317.00    1.31712   1.35084    0.000
 6318.00    1.32366   1.35371    0.000
 6319.00    1.33611   1.35821    0.000
 6320.00    1.35172   1.36354    0.000
 6321.00    1.36086   1.36952    0.084
 6322.00    1.36699   1.37564    0.085
 6323.00    1.36825   1.38140    0.086
 6324.00    1.36756   1.38636    0.087
 6325.00    1.37115   1.39008    0.086
 6326.00    1.37619   1.39285    0.085
 6327.00    1.38032   1.39389    0.085
 6328.00    1.38419   1.39365    0.085
 6329.00    1.38701   1.39203    0.085
 6330.00    1.38959   1.38948    0.084
 6331.00    1.39069   1.38611    0.084
 6332.00    1.39150   1.38235    0.084
 6333.00    1.38492   1.37856    0.084
 6334.00    1.37726   1.37517    0.083
 6335.00    1.37137   1.37231    0.083
 6336.00    1.36568   1.37032    0.082
 6337.00    1.36693   1.36895    0.082
 6338.00    1.36867   1.36873    0.082
 6339.00    1.36956   1.36900    0.082
 6340.00    1.37042   1.37009    0.083
 6341.00    1.36647   1.37155    0.083
 6342.00    1.36255   1.37350    0.084
 6343.00    1.36014   1.37585    0.083
 6344.00    1.35865   1.37819    0.083
 6345.00    1.37169   1.38041    0.084
 6346.00    1.38470   1.38205    0.085
 6347.00    1.39739   1.38307    0.086
 6348.00    1.40826   1.38284    0.087
 6349.00    1.40591   1.38130    0.086
 6350.00    1.40199   1.37823    0.086
 6351.00    1.38927   1.37365    0.086
 6352.00    1.37760   1.36775    0.086
 6353.00    1.37055   1.36060    0.085
 6354.00    1.36457   1.35287    0.085
 6355.00    1.36250   1.34497    0.084
 6356.00    1.35783   1.33756    0.084
 6357.00    1.34525   1.33122    0.083
 6358.00    1.33471   1.32654    0.082
 6359.00    1.32945   1.32396    0.081
 6360.00    1.32700   1.32369    0.081
 6361.00    1.33080   1.32593    0.083
 6362.00    1.33542   1.33048    0.084
 6363.00    1.34164   1.33714    0.084
 6364.00    1.35003   1.34530    0.085
 6365.00    1.36211   1.35451    0.084
 6366.00    1.37534   1.36422    0.084
 6367.00    1.39026   1.37377    0.084
 6368.00    1.40045   1.38276    0.085
 6369.00    1.40448   1.39069    0.085
 6370.00    1.40465   1.39743    0.085
 6371.00    1.40042   1.40266    0.085
 6372.00    1.39923   1.40647    0.085
 6373.00    1.40112   1.40888    0.086
 6374.00    1.40012   1.41009    0.086
 6375.00    1.39656   1.41037    0.086
 6376.00    1.39307   1.40991    0.086
 6377.00    1.38963   1.40916    0.085
 6378.00    1.38722   1.40823    0.085
 6379.00    1.38552   1.40744    0.084
 6380.00    1.38832   1.40679    0.084
 6381.00    1.39385   1.40636    0.084
 6382.00    1.40122   1.40602    0.084
 6383.00    1.40956   1.40564    0.083
 6384.00    1.41271   1.40501    0.082
 6385.00    1.41347   1.40395    0.081
 6386.00    1.41097   1.40238    0.082
 6387.00    1.40718   1.40018    0.083
 6388.00    1.40225   1.39756    0.083
 6389.00    1.39694   1.39446    0.083
 6390.00    1.38752   1.39137    0.083
 6391.00    1.37693   1.38821    0.083
 6392.00    1.37339   1.38561    0.084
 6393.00    1.37149   1.38335    0.084
 6394.00    1.37027   1.38198    0.086
 6395.00    1.36918   1.38122    0.087
 6396.00    1.36500   1.38126    0.087
 6397.00    1.36037   1.38199    0.087
 6398.00    1.36639   1.38320    0.087
 6399.00    1.37351   1.38491    0.087
 6400.00    1.38760   1.38662    0.087
 6401.00    1.40216   1.38839    0.087
 6402.00    1.40302   1.38976    0.087
 6403.00    1.40343   1.39078    0.086
 6404.00    1.40388   1.39115    0.086
 6405.00    1.40424   1.39094    0.085
 6406.00    1.40167   1.39024    0.084
 6407.00    1.39923   1.38923    0.083
 6408.00    1.39871   1.38804    0.083
 6409.00    1.39803   1.38692    0.083
 6410.00    1.39579   1.38597    0.082
 6411.00    1.39267   1.38514    0.082
 6412.00    1.38351   1.38453    0.081
 6413.00    1.37477   1.38413    0.082
 6414.00    1.36824   1.38403    0.083
 6415.00    1.36385   1.38413    0.084
 6416.00    1.36872   1.38468    0.084
 6417.00    1.37306   1.38561    0.084
 6418.00    1.37549   1.38713    0.085
 6419.00    1.37722   1.38906    0.086
 6420.00    1.37687   1.39142    0.086
 6421.00    1.37945   1.39406    0.086
 6422.00    1.38951   1.39656    0.086
 6423.00    1.39894   1.39885    0.086
 6424.00    1.40700   1.40040    0.085
 6425.00    1.41468   1.40137    0.085
 6426.00    1.42165   1.40139    0.086
 6427.00    1.42541   1.40091    0.087
 6428.00    1.42383   1.39985    0.087
 6429.00    1.41720   1.39872    0.086
 6430.00    1.40323   1.39766    0.085
 6431.00    1.39507   1.39697    0.084
 6432.00    1.39433   1.39679    0.083
 6433.00    1.39408   1.39719    0.083
 6434.00    1.39439   1.39826    0.082
 6435.00    1.39591   1.39990    0.082
 6436.00    1.39864   1.40205    0.082
 6437.00    1.40101   1.40451    0.082
 6438.00    1.40309   1.40703    0.083
 6439.00    1.40394   1.40931    0.083
 6440.00    1.40387   1.41098    0.083
 6441.00    1.40905   1.41171    0.084
 6442.00    1.41780   1.41117    0.084
 6443.00    1.42224   1.40932    0.085
 6444.00    1.42411   1.40614    0.086
 6445.00    1.41385   1.40204    0.087
 6446.00    1.39729   1.39735    0.087
 6447.00    1.38546   1.39281    0.087
 6448.00    1.37574   1.38881    0.086
 6449.00    1.37461   1.38607    0.087
 6450.00    1.37680   1.38452    0.088
 6451.00    1.37270   1.38461    0.087
 6452.00    1.36652   1.38574    0.085
 6453.00    1.36476   1.38796    0.084
 6454.00    1.36422   1.39050    0.083
 6455.00    1.36510   1.39324    0.083
 6456.00    1.36629   1.39557    0.083
 6457.00    1.36941   1.39748    0.083
 6458.00    1.37287   1.39878    0.083
 6459.00    1.37688   1.39966    0.083
 6460.00    1.38096   1.40028    0.083
 6461.00    1.38071   1.40083    0.083
 6462.00    1.38002   1.40160    0.083
 6463.00    1.37764   1.40243    0.083
 6464.00    1.37516   1.40368    0.083
 6465.00    1.38564   1.40488    0.084
 6466.00    1.39646   1.40637    0.085
 6467.00    1.40145   1.40751    0.084
 6468.00    1.40630   1.40868    0.084
 6469.00    1.40740   1.40927    0.085
 6470.00    1.40926   1.40966    0.085
 6471.00    1.42201   1.40950    0.086
 6472.00    1.43454   1.40895    0.087
 6473.00    1.44519   1.40795    0.087
 6474.00    1.45330   1.40645    0.087
 6475.00    1.44431   1.40461    0.086
 6476.00    1.43453   1.40223    0.085
 6477.00    1.42064   1.39968    0.085
 6478.00    1.40847   1.39680    0.085
 6479.00    1.40360   1.39390    0.084
 6480.00    1.39982   1.39086    0.084
 6481.00    1.39985   1.38776    0.083
 6482.00    1.40069   1.38438    0.082
 6483.00    1.40391   1.38042    0.082
 6484.00    1.40692   1.37558    0.082
 6485.00    1.40940   1.36940    0.082
 6486.00    1.41063   1.36169    0.082
 6487.00    1.40912   1.35225    0.082
 6488.00    1.40231   1.34129    0.083
 6489.00    1.38560   1.32921    0.084
 6490.00    1.36738   1.31675    0.084
 6491.00    1.34673   1.30485    0.084
 6492.00    1.32972   1.29447    0.085
 6493.00    1.31793   1.28661    0.085
 6494.00    1.31029   1.28201    0.085
 6495.00    1.30788   1.28103    0.084
 6496.00    1.31154   1.28391    0.084
 6497.00    1.32194   1.29011    0.085
 6498.00    1.33414   1.29931    0.085
 6499.00    1.34809   1.31037    0.085
 6500.00    1.35899   1.32269    0.085
 6501.00    1.36724   1.33510    0.084
 6502.00    1.37339   1.34707    0.084
 6503.00    1.37794   1.35784    0.083
 6504.00    1.38579   1.36707    0.083
 6505.00    1.39585   1.37460    0.083
 6506.00    1.40711   1.38030    0.083
 6507.00    1.41906   1.38438    0.082
 6508.00    1.42360   1.38685    0.083
 6509.00    1.42436   1.38813    0.083
 6510.00    1.41984   1.38825    0.083
 6511.00    1.41299   1.38772    0.083
 6512.00    1.40727   1.38663    0.084
 6513.00    1.40199   1.38544    0.085
 6514.00    1.39869   1.38429    0.085
 6515.00    1.39604   1.38350    0.085
 6516.00    1.40457   1.38318    0.086
 6517.00    1.41612   1.38338    0.086
 6518.00    1.42596   1.38412    0.086
 6519.00    1.43541   1.38519    0.086
 6520.00    1.43442   1.38651    0.086
 6521.00    1.43158   1.38778    0.086
 6522.00    1.42852   1.38894    0.086
 6523.00    1.42543   1.38974    0.086
 6524.00    1.42266   1.39025    0.085
 6525.00    1.41992   1.39040    0.083
 6526.00    1.41865   1.39036    0.083
 6527.00    1.41746   1.39020    0.083
 6528.00    1.41981   1.39011    0.000
 6529.00    1.42229   1.39019    0.000
 6530.00    1.43094   1.39052    0.000
 6531.00    1.43950   1.39112    0.000
 6532.00    1.44594   1.39191    0.000
 6533.00    1.45147   1.39275    0.000
 6534.00    1.44496   1.39346    0.000
 6535.00    1.43902   1.39376    0.000
 6536.00    1.43826   1.39350    0.000
 6537.00    1.43895   1.39237    0.000
 6538.00    1.44921   1.39036    0.000
 6539.00    1.45855   1.38732    0.000
 6540.00    1.46317   1.38342    0.000
 6541.00    1.46479   1.37871    0.000
 6542.00    1.45409   1.37345    0.000
 6543.00    1.44578   1.36783    0.000
 6544.00    1.44561   1.36199    0.000
 6545.00    1.44601   1.35609    0.000
 6546.00    1.44804   1.35005    0.000
 6547.00    1.45098   1.34383    0.000
 6548.00    1.45618   1.33721    0.000
 6549.00    1.46023   1.32996    0.000
 6550.00    1.46186   1.32183    0.000
 6551.00    1.45766   1.31256    0.000
 6552.00    1.44275   1.30204    0.000
 6553.00    1.42543   1.29017    0.000
 6554.00    1.40424   1.27716    0.000
 6555.00    1.38256   1.26325    0.000
 6556.00    1.36021   1.24912    0.000
 6557.00    1.34492   1.23540    0.000
 6558.00    1.33841   1.22319    0.000
 6559.00    1.33827   1.21323    0.000
 6560.00    1.34512   1.20664    0.000
 6561.00    1.35435   1.20367    0.000
 6562.00    1.36587   1.20498    0.000
 6563.00    1.37099   1.20990    0.000
 6564.00    1.37066   1.21833    0.000
 6565.00    1.36725   1.22889    0.000
 6566.00    1.36153   1.24108    0.000
 6567.00    1.36145   1.25349    0.000
 6568.00    1.36509   1.26574    0.000
 6569.00    1.36841   1.27690    0.000
 6570.00    1.37153   1.28713    0.000
 6571.00    1.36961   1.29606    0.000
 6572.00    1.36514   1.30419    0.000
 6573.00    1.36130   1.31136    0.000
 6574.00    1.35773   1.31812    0.000
 6575.00    1.36838   1.32422    0.000
 6576.00    1.38434   1.33009    0.000
 6577.00    1.40510   1.33532    0.000
 6578.00    1.42737   1.34022    0.000
 6579.00    1.45289   1.34436    0.000
 6580.00    1.47928   1.34798    0.000
 6581.00    1.50636   1.35071    0.000
 6582.00    1.53360   1.35270    0.000
 6583.00    1.54357   1.35370    0.000
 6584.00    1.55059   1.35381    0.000
 6585.00    1.53507   1.35290    0.000
 6586.00    1.51663   1.35114    0.000
 6587.00    1.48872   1.34856    0.000
 6588.00    1.45994   1.34552    0.000
 6589.00    1.43757   1.34225    0.000
 6590.00    1.41555   1.33923    0.000
 6591.00    1.39918   1.33673    0.000
 6592.00    1.38305   1.33515    0.000
 6593.00    1.37869   1.33459    0.000
 6594.00    1.37471   1.33514    0.000
 6595.00    1.37968   1.33660    0.000
 6596.00    1.38477   1.33879    0.000
 6597.00    1.39143   1.34123    0.000
 6598.00    1.39897   1.34366    0.000
 6599.00    1.41406   1.34560    0.000
 6600.00    1.42745   1.34696    0.000
 6601.00    1.43006   1.34751    0.000
 6602.00    1.43079   1.34747    0.000
 6603.00    1.42216   1.34687    0.000
 6604.00    1.41221   1.34618    0.000
 6605.00    1.39692   1.34558    0.000
 6606.00    1.38374   1.34553    0.000
 6607.00    1.37759   1.34615    0.000
 6608.00    1.37359   1.34765    0.000
 6609.00    1.37567   1.34998    0.085
 6610.00    1.38111   1.35297    0.085
 6611.00    1.39467   1.35645    0.085
 6612.00    1.40542   1.36002    0.085
 6613.00    1.41032   1.36348    0.085
 6614.00    1.41381   1.36638    0.085
 6615.00    1.41476   1.36860    0.085
 6616.00    1.41793   1.36987    0.084
 6617.00    1.42464   1.37015    0.084
 6618.00    1.43053   1.36941    0.084
 6619.00    1.43529   1.36769    0.084
 6620.00    1.43487   1.36520    0.084
 6621.00    1.42809   1.36199    0.084
 6622.00    1.41950   1.35837    0.084
 6623.00    1.40896   1.35439    0.085
 6624.00    1.39960   1.35035    0.085
 6625.00    1.39135   1.34628    0.085
 6626.00    1.39212   1.34239    0.085
 6627.00    1.40047   1.33877    0.086
 6628.00    1.40216   1.33551    0.086
 6629.00    1.39894   1.33277    0.086
 6630.00    1.39145   1.33058    0.087
 6631.00    1.38120   1.32912    0.086
 6632.00    1.37262   1.32828    0.086
 6633.00    1.36500   1.32818    0.086
 6634.00    1.36545   1.32856    0.086
 6635.00    1.36988   1.32946    0.086
 6636.00    1.37478   1.33054    0.085
 6637.00    1.37988   1.33179    0.085
 6638.00    1.38190   1.33294    0.085
 6639.00    1.38278   1.33403    0.084
 6640.00    1.38546   1.33493    0.084
 6641.00    1.38869   1.33575    0.084
 6642.00    1.38492   1.33646    0.084
 6643.00    1.37933   1.33719    0.083
 6644.00    1.38249   1.33788    0.084
 6645.00    1.38749   1.33864    0.084
 6646.00    1.38767   1.33933    0.085
 6647.00    1.38704   1.34000    0.085
 6648.00    1.38537   1.34047    0.085
 6649.00    1.38357   1.34074    0.084
 6650.00    1.38952   1.34065    0.086
 6651.00    1.39616   1.34018    0.087
 6652.00    1.39558   1.33921    0.087
 6653.00    1.39463   1.33774    0.086
 6654.00    1.39454   1.33575    0.087
 6655.00    1.39445   1.33323    0.087
 6656.00    1.39313   1.33034    0.086
 6657.00    1.39130   1.32709    0.086
 6658.00    1.37859   1.32383    0.085
 6659.00    1.36629   1.32062    0.085
 6660.00    1.35884   1.31789    0.084
 6661.00    1.35179   1.31569    0.084
 6662.00    1.34803   1.31437    0.084
 6663.00    1.34572   1.31388    0.084
 6664.00    1.35244   1.31435    0.083
 6665.00    1.35888   1.31551    0.083
 6666.00    1.36400   1.31726    0.083
 6667.00    1.36917   1.31920    0.084
 6668.00    1.37451   1.32106    0.085
 6669.00    1.37862   1.32251    0.086
 6670.00    1.37867   1.32330    0.086
 6671.00    1.37703   1.32337    0.086
 6672.00    1.37068   1.32268    0.086
 6673.00    1.36766   1.32146    0.087
 6674.00    1.37260   1.31991    0.088
 6675.00    1.37287   1.31842    0.088
 6676.00    1.36356   1.31722    0.087
 6677.00    1.35496   1.31665    0.087
 6678.00    1.34765   1.31680    0.087
 6679.00    1.34542   1.31773    0.086
 6680.00    1.35111   1.31934    0.086
 6681.00    1.35639   1.32144    0.085
 6682.00    1.36108   1.32377    0.085
 6683.00    1.36840   1.32610    0.085
 6684.00    1.37889   1.32810    0.085
 6685.00    1.38844   1.32968    0.085
 6686.00    1.39700   1.33055    0.084
 6687.00    1.39977   1.33082    0.084
 6688.00    1.39711   1.33029    0.084
 6689.00    1.39169   1.32923    0.085
 6690.00    1.38398   1.32755    0.085
 6691.00    1.38079   1.32560    0.086
 6692.00    1.38088   1.32339    0.087
 6693.00    1.37492   1.32124    0.087
 6694.00    1.36507   1.31924    0.088
 6695.00    1.35694   1.31754    0.088
 6696.00    1.34975   1.31622    0.000
 6697.00    1.34574   1.31525    0.000
 6698.00    1.34327   1.31466    0.000
 6699.00    1.34612   1.31426    0.000
 6700.00    1.35120   1.31400    0.000
 6701.00    1.35873   1.31372    0.000
 6702.00    1.36715   1.31326    0.000
 6703.00    1.36735   1.31253    0.000
 6704.00    1.36505   1.31139    0.000
 6705.00    1.36331   1.30978    0.000
 6706.00    1.36170   1.30762    0.000
 6707.00    1.36321   1.30494    0.000
 6708.00    1.36537   1.30176    0.000
 6709.00    1.36522   1.29824    0.000
 6710.00    1.36469   1.29449    0.000
 6711.00    1.36828   1.29086    0.000
 6712.00    1.37237   1.28745    0.000
 6713.00    1.38405   1.28478    0.000
 6714.00    1.39637   1.28277    0.000
 6715.00    1.40960   1.28197    0.000
 6716.00    1.42289   1.28198    0.000
 6717.00    1.41792   1.28328    0.000
 6718.00    1.41245   1.28519    0.000
 6719.00    1.39311   1.28805    0.000
 6720.00    1.37427   1.29109    0.000
 6721.00    1.36534   1.29454    0.000
 6722.00    1.35720   1.29778    0.000
 6723.00    1.35816   1.30094    0.000
 6724.00    1.36052   1.30370    0.000
 6725.00    1.37409   1.30606    0.000
 6726.00    1.38697   1.30800    0.000
 6727.00    1.39569   1.30937    0.000
 6728.00    1.40299   1.31034    0.000
 6729.00    1.40358   1.31066    0.000
 6730.00    1.40561   1.31060    0.000
 6731.00    1.41318   1.30989    0.000
 6732.00    1.41570   1.30882    0.000
 6733.00    1.40198   1.30722    0.000
 6734.00    1.38996   1.30532    0.000
 6735.00    1.38259   1.30314    0.000
 6736.00    1.37380   1.30078    0.000
 6737.00    1.36172   1.29843    0.000
 6738.00    1.35353   1.29600    0.000
 6739.00    1.35323   1.29382    0.000
 6740.00    1.35198   1.29164    0.000
 6741.00    1.34907   1.28983    0.000
 6742.00    1.34419   1.28807    0.000
 6743.00    1.33628   1.28674    0.000
 6744.00    1.32978   1.28558    0.000
 6745.00    1.32519   1.28485    0.000
 6746.00    1.32087   1.28455    0.000
 6747.00    1.31687   1.28470    0.000
 6748.00    1.31303   1.28558    0.000
 6749.00    1.30936   1.28691    0.000
 6750.00    1.30471   1.28913    0.000
 6751.00    1.29917   1.29169    0.000
 6752.00    1.29996   1.29502    0.000
 6753.00    1.30592   1.29846    0.091
 6754.00    1.31044   1.30219    0.093
 6755.00    1.31393   1.30569    0.095
 6756.00    1.32092   1.30886    0.096
 6757.00    1.33012   1.31143    0.097
 6758.00    1.34840   1.31317    0.098
 6759.00    1.37168   1.31415    0.098
 6760.00    1.41335   1.31414    0.100
 6761.00    1.46383   1.31348    0.103
 6762.00    1.51355   1.31208    0.106
 6763.00    1.56296   1.31046    0.108
 6764.00    1.57441   1.30863    0.107
 6765.00    1.57245   1.30712    0.105
 6766.00    1.57154   1.30598    0.104
 6767.00    1.57096   1.30556    0.102
 6768.00    1.55477   1.30581    0.101
 6769.00    1.53472   1.30684    0.099
 6770.00    1.51299   1.30844    0.097
 6771.00    1.49094   1.31047    0.095
 6772.00    1.47723   1.31256    0.094
 6773.00    1.46484   1.31450    0.093
 6774.00    1.44497   1.31587    0.092
 6775.00    1.42422   1.31657    0.091
 6776.00    1.40233   1.31627    0.091
 6777.00    1.38035   1.31512    0.091
 6778.00    1.41043   1.31303    0.094
 6779.00    1.44277   1.31033    0.097
 6780.00    1.43846   1.30721    0.098
 6781.00    1.43331   1.30401    0.100
 6782.00    1.40681   1.30106    0.098
 6783.00    1.38244   1.29849    0.096
 6784.00    1.39654   1.29664    0.096
 6785.00    1.40965   1.29532    0.097
 6786.00    1.41182   1.29477    0.096
 6787.00    1.41318   1.29462    0.095
 6788.00    1.40841   1.29498    0.095
 6789.00    1.40590   1.29550    0.095
 6790.00    1.41658   1.29623    0.095
 6791.00    1.42270   1.29699    0.095
 6792.00    1.40776   1.29780    0.094
 6793.00    1.39936   1.29864    0.093
 6794.00    1.41572   1.29952    0.093
 6795.00    1.42504   1.30043    0.093
 6796.00    1.41208   1.30136    0.093
 6797.00    1.40434   1.30226    0.092
 6798.00    1.41058   1.30312    0.093
 6799.00    1.41310   1.30382    0.094
 6800.00    1.40707   1.30439    0.094
 6801.00    1.40408   1.30471    0.095
 6802.00    1.40713   1.30487    0.096
 6803.00    1.40704   1.30477    0.096
 6804.00    1.40151   1.30456    0.096
 6805.00    1.39588   1.30421    0.096
 6806.00    1.39011   1.30385    0.095
 6807.00    1.38267   1.30350    0.094
 6808.00    1.37302   1.30323    0.092
 6809.00    1.36916   1.30312    0.091
 6810.00    1.37212   1.30316    0.092
 6811.00    1.37463   1.30347    0.092
 6812.00    1.37670   1.30393    0.093
 6813.00    1.38744   1.30473    0.093
 6814.00    1.40611   1.30561    0.094
 6815.00    1.40977   1.30682    0.094
 6816.00    1.40135   1.30798    0.094
 6817.00    1.39886   1.30940    0.094
 6818.00    1.40056   1.31055    0.093
 6819.00    1.40741   1.31187    0.093
 6820.00    1.41746   1.31273    0.093
 6821.00    1.42592   1.31365    0.093
 6822.00    1.43351   1.31401    0.094
 6823.00    1.43322   1.31437    0.094
 6824.00    1.42922   1.31421    0.094
 6825.00    1.42276   1.31404    0.094
 6826.00    1.41529   1.31345    0.094
 6827.00    1.41372   1.31281    0.095
 6828.00    1.41420   1.31185    0.095
 6829.00    1.41916   1.31066    0.095
 6830.00    1.42543   1.30916    0.095
 6831.00    1.43689   1.30717    0.095
 6832.00    1.44962   1.30489    0.094
 6833.00    1.44159   1.30199    0.093
 6834.00    1.42950   1.29896    0.092
 6835.00    1.41441   1.29550    0.092
 6836.00    1.39886   1.29229    0.092
 6837.00    1.39785   1.28917    0.094
 6838.00    1.39848   1.28676    0.096
 6839.00    1.39921   1.28499    0.097
 6840.00    1.39995   1.28417    0.098
 6841.00    1.38553   1.28422    0.097
 6842.00    1.37051   1.28507    0.096
 6843.00    1.36342   1.28651    0.095
 6844.00    1.35669   1.28823    0.093
 6845.00    1.36234   1.28996    0.093
 6846.00    1.36794   1.29133    0.093
 6847.00    1.37259   1.29216    0.094
 6848.00    1.37789   1.29228    0.094
 6849.00    1.39009   1.29161    0.093
 6850.00    1.39993   1.29025    0.092
 6851.00    1.39229   1.28832    0.092
 6852.00    1.38417   1.28604    0.092
 6853.00    1.37339   1.28360    0.092
 6854.00    1.36440   1.28128    0.091
 6855.00    1.36353   1.27920    0.091
 6856.00    1.36007   1.27758    0.091
 6857.00    1.34703   1.27638    0.091
 6858.00    1.33371   1.27577    0.092
 6859.00    1.31951   1.27545    0.092
 6860.00    1.31233   1.27558    0.093
 6861.00    1.32364   1.27576    0.093
 6862.00    1.33563   1.27619    0.094
 6863.00    1.34916   1.27643    0.093
 6864.00    1.35730   1.27678    0.094
 6865.00    1.35490   1.27690    0.094
 6866.00    1.35502   1.27715    0.095
 6867.00    1.35945   1.27728    0.096
 6868.00    1.36343   1.27764    0.096
 6869.00    1.36672   1.27803    0.096
 6870.00    1.36748   1.27871    0.095
 6871.00    1.36491   1.27950    0.093
 6872.00    1.36641   1.28056    0.092
 6873.00    1.37261   1.28166    0.091
 6874.00    1.37392   1.28288    0.091
 6875.00    1.37024   1.28406    0.090
 6876.00    1.36541   1.28526    0.090
 6877.00    1.35957   1.28643    0.091
 6878.00    1.35509   1.28765    0.091
 6879.00    1.35170   1.28901    0.092
 6880.00    1.34628   1.29054    0.092
 6881.00    1.33947   1.29241    0.092
 6882.00    1.34814   1.29456    0.093
 6883.00    1.36629   1.29707    0.094
 6884.00    1.37936   1.29985    0.094
 6885.00    1.38972   1.30275    0.095
 6886.00    1.39346   1.30576    0.094
 6887.00    1.39414   1.30850    0.094
 6888.00    1.38889   1.31116    0.094
 6889.00    1.38128   1.31322    0.093
 6890.00    1.38247   1.31508    0.094
 6891.00    1.38667   1.31628    0.094
 6892.00    1.38014   1.31736    0.094
 6893.00    1.37053   1.31790    0.093
 6894.00    1.36899   1.31846    0.093
 6895.00    1.36937   1.31877    0.092
 6896.00    1.36861   1.31923    0.092
 6897.00    1.36764   1.31969    0.092
 6898.00    1.37521   1.32027    0.092
 6899.00    1.38403   1.32099    0.093
 6900.00    1.38558   1.32166    0.093
 6901.00    1.38634   1.32245    0.093
 6902.00    1.40111   1.32291    0.095
 6903.00    1.41687   1.32341    0.096
 6904.00    1.40237   1.32329    0.095
 6905.00    1.38677   1.32313    0.095
 6906.00    1.38349   1.32231    0.094
 6907.00    1.38034   1.32127    0.094
 6908.00    1.38050   1.31981    0.094
 6909.00    1.38000   1.31816    0.094
 6910.00    1.36913   1.31650    0.093
 6911.00    1.35902   1.31471    0.092
 6912.00    1.35661   1.31334    0.092
 6913.00    1.35430   1.31191    0.092
 6914.00    1.35261   1.31102    0.092
 6915.00    1.35192   1.31011    0.091
 6916.00    1.35675   1.30961    0.091
 6917.00    1.36083   1.30909    0.091
 6918.00    1.36160   1.30863    0.092
 6919.00    1.36076   1.30811    0.093
 6920.00    1.35412   1.30742    0.093
 6921.00    1.34736   1.30673    0.094
 6922.00    1.34023   1.30590    0.093
 6923.00    1.33809   1.30515    0.093
 6924.00    1.34888   1.30451    0.095
 6925.00    1.35446   1.30408    0.096
 6926.00    1.34845   1.30392    0.095
 6927.00    1.34625   1.30405    0.095
 6928.00    1.35139   1.30444    0.096
 6929.00    1.35697   1.30512    0.096
 6930.00    1.36327   1.30592    0.096
 6931.00    1.36960   1.30699    0.095
 6932.00    1.37598   1.30792    0.095
 6933.00    1.37606   1.30900    0.094
 6934.00    1.36797   1.30968    0.094
 6935.00    1.36140   1.31030    0.094
 6936.00    1.35657   1.31046    0.094
 6937.00    1.36217   1.31038    0.094
 6938.00    1.37827   1.30989    0.095
 6939.00    1.38508   1.30915    0.095
 6940.00    1.38366   1.30809    0.095
 6941.00    1.37757   1.30687    0.096
 6942.00    1.36784   1.30560    0.096
 6943.00    1.36256   1.30431    0.096
 6944.00    1.36034   1.30319    0.095
 6945.00    1.36294   1.30231    0.096
 6946.00    1.36845   1.30165    0.097
 6947.00    1.37005   1.30137    0.097
 6948.00    1.36958   1.30135    0.097
 6949.00    1.37227   1.30182    0.096
 6950.00    1.37639   1.30241    0.096
 6951.00    1.37329   1.30366    0.096
 6952.00    1.36735   1.30492    0.095
 6953.00    1.36143   1.30690    0.095
 6954.00    1.35550   1.30878    0.094
 6955.00    1.36022   1.31124    0.094
 6956.00    1.36792   1.31351    0.095
 6957.00    1.36928   1.31609    0.095
 6958.00    1.36916   1.31834    0.095
 6959.00    1.37435   1.32068    0.095
 6960.00    1.38053   1.32272    0.096
 6961.00    1.37381   1.32442    0.096
 6962.00    1.36523   1.32576    0.096
 6963.00    1.35847   1.32652    0.096
 6964.00    1.35190   1.32691    0.097
 6965.00    1.36246   1.32667    0.098
 6966.00    1.37415   1.32573    0.099
 6967.00    1.36623   1.32401    0.099
 6968.00    1.35767   1.32148    0.098
 6969.00    1.36409   1.31831    0.098
 6970.00    1.37019   1.31424    0.097
 6971.00    1.36696   1.30992    0.097
 6972.00    1.36444   1.30552    0.096
 6973.00    1.37263   1.30143    0.096
 6974.00    1.37751   1.29780    0.095
 6975.00    1.35051   1.29512    0.095
 6976.00    1.32625   1.29357    0.095
 6977.00    1.32111   1.29332    0.094
 6978.00    1.31965   1.29440    0.094
 6979.00    1.33794   1.29667    0.095
 6980.00    1.35113   1.29988    0.096
 6981.00    1.34232   1.30366    0.096
 6982.00    1.33846   1.30773    0.097
 6983.00    1.35220   1.31184    0.098
 6984.00    1.36029   1.31556    0.098
 6985.00    1.35152   1.31882    0.098
 6986.00    1.34665   1.32130    0.098
 6987.00    1.35166   1.32319    0.098
 6988.00    1.35538   1.32433    0.099
 6989.00    1.35630   1.32491    0.099
 6990.00    1.36096   1.32485    0.099
 6991.00    1.37272   1.32422    0.099
 6992.00    1.37818   1.32305    0.099
 6993.00    1.37322   1.32161    0.098
 6994.00    1.36853   1.31977    0.097
 6995.00    1.36423   1.31781    0.097
 6996.00    1.36350   1.31548    0.097
 6997.00    1.36732   1.31333    0.096
 6998.00    1.36835   1.31097    0.096
 6999.00    1.36626   1.30910    0.097
 7000.00    1.35782   1.30721    0.098
 7001.00    1.34308   1.30592    0.098
 7002.00    1.29956   1.30470    0.098
 7003.00    1.23086   1.30390    0.098
 7004.00    1.23039   1.30322    0.099
 7005.00    1.28250   1.30269    0.101
 7006.00    1.30651   1.30220    0.102
 7007.00    1.31148   1.30151    0.103
 7008.00    1.30091   1.30065    0.102
 7009.00    1.28111   1.29955    0.101
 7010.00    1.28524   1.29851    0.101
 7011.00    1.30176   1.29736    0.100
 7012.00    1.30299   1.29656    0.100
 7013.00    1.29736   1.29577    0.099
 7014.00    1.28917   1.29537    0.099
 7015.00    1.27998   1.29504    0.099
 7016.00    1.27651   1.29522    0.099
 7017.00    1.27492   1.29545    0.098
 7018.00    1.28293   1.29625    0.099
 7019.00    1.29357   1.29703    0.100
 7020.00    1.29146   1.29835    0.101
 7021.00    1.28645   1.29947    0.102
 7022.00    1.29604   1.30101    0.102
 7023.00    1.30827   1.30241    0.102
 7024.00    1.29381   1.30416    0.103
 7025.00    1.27565   1.30581    0.103
 7026.00    1.29331   1.30769    0.104
 7027.00    1.31454   1.30950    0.106
 7028.00    1.31729   1.31147    0.105
 7029.00    1.31889   1.31332    0.104
 7030.00    1.31282   1.31520    0.104
 7031.00    1.30656   1.31709    0.104
 7032.00    1.30804   1.31894    0.105
 7033.00    1.30926   1.32111    0.105
 7034.00    1.30362   1.32376    0.110
 7035.00    1.29853   1.32667    0.114
 7036.00    1.30106   1.32991    0.112
 7037.00    1.30437   1.33326    0.110
 7038.00    1.31491   1.33692    0.107
 7039.00    1.32406   1.34029    0.104
 7040.00    1.32384   1.34378    0.104
 7041.00    1.32535   1.34662    0.104
 7042.00    1.33595   1.34881    0.105
 7043.00    1.34634   1.34991    0.106
 7044.00    1.35590   1.34963    0.107
 7045.00    1.36300   1.34803    0.107
 7046.00    1.36157   1.34474    0.107
 7047.00    1.35742   1.34003    0.108
 7048.00    1.34526   1.33415    0.107
 7049.00    1.33466   1.32721    0.107
 7050.00    1.32794   1.31972   -2.000
 7051.00    1.33138   1.31162   -2.000
 7052.00    1.35664   1.30356   -2.000
 7053.00    1.37129   1.29537   -2.000
 7054.00    1.36610   1.28775   -2.000
 7055.00    1.36594   1.28071   -2.000
 7056.00    1.37399   1.27462   -2.000
 7057.00    1.37437   1.26916   -2.000
 7058.00    1.36376   1.26464   -2.000
 7059.00    1.36719   1.26085   -2.000
 7060.00    1.38827   1.25758   -2.000
 7061.00    1.39230   1.25509   -2.000
 7062.00    1.37744   1.25310   -2.000
 7063.00    1.37999   1.25210   -2.000
 7064.00    1.39958   1.25183   -2.000
 7065.00    1.40025   1.25248   -2.000
 7066.00    1.38459   1.25356   -2.000
 7067.00    1.37474   1.25540   -2.000
 7068.00    1.36928   1.25778   -2.000
 7069.00    1.37020   1.26045   -2.000
 7070.00    1.37538   1.26341   -2.000
 7071.00    1.40315   1.26612   -2.000
 7072.00    1.44414   1.26875   -2.000
 7073.00    1.47298   1.27050   -2.000
 7074.00    1.49561   1.27161   -2.000
 7075.00    1.47993   1.27153   -2.000
 7076.00    1.44734   1.27018   -2.000
 7077.00    1.45034   1.26734   -2.000
 7078.00    1.46685   1.26314   -2.000
 7079.00    1.47180   1.25777   -2.000
 7080.00    1.47304   1.25189   -2.000
 7081.00    1.45165   1.24503   -2.000
 7082.00    1.42416   1.23786   -2.000
 7083.00    1.41080   1.23051   -2.000
 7084.00    1.40056   1.22355   -2.000
 7085.00    1.36824   1.21697   -2.000
 7086.00    1.33204   1.21156   -2.000
 7087.00    1.35062   1.20662   -2.000
 7088.00    1.37653   1.20316   -2.000
 7089.00    1.35529   1.20048   -2.000
 7090.00    1.32957   1.19894   -2.000
 7091.00    1.31939   1.19856   -2.000
 7092.00    1.31012   1.19859   -2.000
 7093.00    1.30386   1.20014   -2.000
 7094.00    1.29786   1.20126   -2.000
 7095.00    1.31650   1.20365   -2.000
 7096.00    1.33268   1.20518   -2.000
 7097.00    1.28742   1.20761   -2.000
 7098.00    1.24501   1.20926   -2.000
 7099.00    1.24029   1.21129   -2.000
 7100.00    1.23577   1.21242   -2.000
 7101.00    1.23297   1.21335   -2.000
 7102.00    1.23132   1.21377   -2.000
 7103.00    1.23716   1.21399   -2.000
 7104.00    1.24073   1.21375   -2.000
 7105.00    1.23278   1.21315   -2.000
 7106.00    1.22449   1.21266   -2.000
 7107.00    1.21483   1.21204   -2.000
 7108.00    1.20783   1.21180   -2.000
 7109.00    1.20994   1.21135   -2.000
 7110.00    1.21130   1.21145   -2.000
 7111.00    1.21049   1.21135   -2.000
 7112.00    1.21172   1.21150   -2.000
 7113.00    1.21793   1.21160   -2.000
 7114.00    1.22401   1.21143   -2.000
 7115.00    1.22982   1.21139   -2.000
 7116.00    1.23510   1.21046   -2.000
 7117.00    1.23941   1.20973   -2.000
 7118.00    1.24871   1.20824   -2.000
 7119.00    1.26600   1.20642   -2.000
 7120.00    1.28557   1.20413   -2.000
 7121.00    1.30835   1.20137   -2.000
 7122.00    1.32719   1.19881   -2.000
 7123.00    1.34115   1.19573   -2.000
 7124.00    1.33789   1.19314   -2.000
 7125.00    1.31578   1.19031   -2.000
 7126.00    1.29379   1.18862   -2.000
 7127.00    1.27192   1.18705   -2.000
 7128.00    1.27048   1.18676   -2.000
 7129.00    1.28641   1.18688   -2.000
 7130.00    1.30281   1.18780   -2.000
 7131.00    1.31955   1.18946   -2.000
 7132.00    1.31872   1.19132   -2.000
 7133.00    1.30635   1.19364   -2.000
 7134.00    1.28642   1.19577   -2.000
 7135.00    1.26214   1.19823   -2.000
 7136.00    1.24274   1.20002   -2.000
 7137.00    1.22579   1.20179   -2.000
 7138.00    1.24218   1.20283   -2.000
 7139.00    1.27303   1.20350   -2.000
 7140.00    1.29710   1.20364   -2.000
 7141.00    1.31863   1.20350   -2.000
 7142.00    1.28762   1.20278   -2.000
 7143.00    1.24000   1.20242   -2.000
 7144.00    1.21962   1.20188   -2.000
 7145.00    1.20642   1.20192   -2.000
 7146.00    1.22084   1.20232   -2.000
 7147.00    1.24121   1.20334   -2.000
 7148.00    1.23728   1.20462   -2.000
 7149.00    1.22921   1.20637   -2.000
 7150.00    1.22920   1.20814   -2.000
 7151.00    1.23024   1.21044   -2.000
 7152.00    1.23185   1.21211   -2.000
 7153.00    1.23352   1.21412   -2.000
 7154.00    1.25466   1.21507   -2.000
 7155.00    1.27688   1.21597   -2.000
 7156.00    1.24912   1.21615   -2.000
 7157.00    1.22082   1.21599   -2.000
 7158.00    1.23886   1.21541   -2.000
 7159.00    1.25751   1.21447   -2.000
 7160.00    1.29016   1.21388   -2.000
 7161.00    1.32117   1.21330   -2.000
 7162.00    1.33151   1.21376   -2.000
 7163.00    1.34040   1.21436   -2.000
 7164.00    1.33702   1.21576   -2.000
 7165.00    1.33173   1.21739   -2.000
 7166.00    1.31435   1.21958   -2.000
 7167.00    1.30605   1.22191   -2.000
 7168.00    1.34288   1.22423   -2.000
 7169.00    1.36713   1.22628   -2.000
 7170.00    1.34080   1.22767   -2.000
 7171.00    1.31431   1.22866   -2.000
 7172.00    1.28732   1.22893   -2.000
 7173.00    1.26683   1.22854   -2.000
 7174.00    1.26468   1.22754   -2.000
 7175.00    1.26779   1.22581   -2.000
 7176.00    1.28358   1.22368   -2.000
 7177.00    1.29841   1.22136   -2.000
 7178.00    1.31121   1.21902   -2.000
 7179.00    1.31581   1.21674   -2.000
 7180.00    1.30558   1.21438   -2.000
 7181.00    1.28479   1.21180   -2.000
 7182.00    1.24727   1.20939   -2.000
 7183.00    1.22299   1.20709   -2.000
 7184.00    1.21710   1.20501   -2.000
 7185.00    1.19876   1.20370   -2.000
 7186.00    1.16519   1.20243   -2.000
 7187.00    1.16101   1.20203   -2.000
 7188.00    1.18854   1.20163   -2.000
 7189.00    1.21012   1.20194   -2.000
 7190.00    1.22604   1.20259   -2.000
 7191.00    1.23283   1.20377   -2.000
 7192.00    1.23197   1.20532   -2.000
 7193.00    1.22119   1.20677   -2.000
 7194.00    1.20308   1.20852   -2.000
 7195.00    1.19301   1.21018   -2.000
 7196.00    1.18813   1.21162   -2.000
 7197.00    1.19325   1.21282   -2.000
 7198.00    1.20403   1.21371   -2.000
 7199.00    1.22354   1.21434   -2.000
 7200.00    1.24734   1.21467   -2.000
 7201.00    1.25579   1.21429   -2.000
 7202.00    1.25768   1.21379   -2.000
 7203.00    1.25759   1.21289   -2.000
 7204.00    1.25678   1.21250   -2.000
 7205.00    1.20389   1.21268   -2.000
 7206.00    1.13487   1.21283   -2.000
 7207.00    1.13043   1.21387   -2.000
 7208.00    1.14265   1.21468   -2.000
 7209.00    1.15623   1.21620   -2.000
 7210.00    1.17008   1.21767   -2.000
 7211.00    1.16639   1.21991   -2.000
 7212.00    1.15978   1.22220   -2.000
 7213.00    1.18231   1.22473   -2.000
 7214.00    1.20849   1.22741   -2.000
 7215.00    1.21370   1.22965   -2.000
 7216.00    1.21710   1.23208   -2.000
 7217.00    1.20046   1.23424   -2.000
 7218.00    1.18281   1.23670   -2.000
