###################################################################
## OUTPUT of StarlightChains_v04.for    [Cid@UFSC - 01/Apr/2007] ##
###################################################################

## Some input info
KUG0210-078._33_31.txt                   [arq_obs]
Base.CB07.vall.4m                        [arq_base]
Masks.EmLines.NEW.gm                     [arq_masks]
StCv04.C11.config                        [arq_config]
   66                                    [N_base]
    0                                    [N_YAV_components = # of components with extra extinction!]
    0                                    [i_FitPowerLaw (1/0 = Yes/No)]
-9.99                                    [alpha_PowerLaw]
CCM                                      [red_law_option]
 1.458241                                [q_norm = A(l_norm)/A(V)]

## (Re)Sampling Parameters
 3741.00                                 [l_ini (A)]
 7218.00                                 [l_fin (A)]
    1.00                                 [dl    (A)]     (OBS: dl_cushion =    50.00 A)

## Normalization info
 4020.00                                 [l_norm (A) - for base]
 4010.00                                 [llow_norm (A) - window for f_obs]
 4060.00                                 [lupp_norm (A) - window for f_obs]
9.501396E-17                             [fobs_norm (in input units)]

## S/N
 3691.00                                 [llow_SN (A) - window for S/N]
 7268.00                                 [lupp_SN (A) - window for S/N]
   5.457                                 [S/N in S/N window]
   5.194                                 [S/N in norm. window]
   0.176                                 [S/N_err in S/N window]
   0.168                                 [S/N_err in norm. window]
  1.0000                                 [fscale_chi2]

## etc...
    -2007506                             [idum_orig]
  2432                                   [NOl_eff]
  2298                                   [Nl_eff]
   134    NSIGMA                         [Ntot_cliped & clip_method]
 15000790                                [Nglobal_steps]
   7                                     [N_chains]
  10                                     [NEX0s_base = N_base in EX0s-fits]
 0   0   1      134   2.0   4.784E+04    [Clip-Bug, RC-Crash & Burn-In warning-flags, n_censored_weights, wei_nsig_threshold & wei_limit]
   106    105.694    104.758      0.937  [idt_all, wdt_TotTime, wdt_UsrTime & wdt_SysTime (sec)]

## Synthesis Results - Best model ##

 4.89736E-05                             [chi2/Nl_eff]
     2.47748                             [adev (%)]

   111.37312                             [sum-of-x (%)]
 2.76607E-17                             [Flux_tot (units of input spectrum!)]
 2.57778E-12                             [Mini_tot (???)]
 1.31560E-12                             [Mcor_tot (???)]

 -41.99                                  [v0_min  (km/s)]
 209.12                                  [vd_min  (km/s)]
-0.9990                                  [AV_min  (mag)]
 0.0000                                  [YAV_min (mag)]

# j     x_j(%)      Mini_j(%)     Mcor_j(%)     age_j(yr)     Z_j      (L/M)_j    YAV?  Mstars   component_j        a/Fe...       SSP_chi2r SSP_adev(%)   SSP_AV   SSP_x(%)
  1      0.0000     0.0000E+00    0.0000E+00    1.000000E+06  0.00400  1.094E-02    0   1.0000   age020_m42            0.0000     8.8365E-04     9.3101   3.3030    90.3236
  2      0.0000     0.0000E+00    0.0000E+00    3.160000E+06  0.00400  4.007E-02    0   0.9999   age045_m42            0.0000     8.2759E-04     9.5585   2.6150    94.8737
  3      0.0000     0.0000E+00    0.0000E+00    5.010000E+06  0.00400  2.539E-02    0   0.9488   age055_m42            0.0000     8.8357E-04     9.6167   2.9298    92.8024
  4      0.0000     0.0000E+00    0.0000E+00    6.610000E+06  0.00400  2.620E-02    0   0.9220   age061_m42            0.0000     8.6314E-04     9.8337   2.5557    94.4835
  5      0.0000     0.0000E+00    0.0000E+00    1.000000E+07  0.00400  1.322E-02    0   0.8862   age070_m42            0.0000     1.0186E-03    11.3173   2.3016    95.3878
  6      0.0000     0.0000E+00    0.0000E+00    1.445000E+07  0.00400  7.883E-03    0   0.8571   age078_m42            0.0000     1.0241E-03    11.0829   2.6141    93.5599
  7      0.0000     0.0000E+00    0.0000E+00    2.512000E+07  0.00400  5.251E-03    0   0.8174   age090_m42            0.0000     1.0513E-03    11.6833   2.1788    95.6313
  8      0.0000     0.0000E+00    0.0000E+00    4.000000E+07  0.00400  3.649E-03    0   0.7851   age104_m42            0.0000     1.0017E-03    11.4852   1.9513    96.4437
  9      0.0000     0.0000E+00    0.0000E+00    5.500000E+07  0.00400  3.098E-03    0   0.7629   age110_m42            0.0000     9.3958E-04    10.9165   2.1020    96.5210
 10      0.0000     0.0000E+00    0.0000E+00    1.015200E+08  0.00400  2.228E-03    0   0.7207   age116_m42            0.0000     9.0103E-04    10.5737   2.1226    96.6521
 11      0.0000     0.0000E+00    0.0000E+00    2.861200E+08  0.00400  1.093E-03    0   0.6648   age125_m42            0.0000     8.9429E-04    11.0381   1.5521    99.4134
 12      0.0000     0.0000E+00    0.0000E+00    5.088000E+08  0.00400  6.597E-04    0   0.6365   age130_m42            0.0000     7.8519E-04    10.2228   1.5324   100.6861
 13      0.0000     0.0000E+00    0.0000E+00    1.434000E+09  0.00400  2.132E-04    0   0.5798   age139_m42            0.0000     5.2056E-04     8.9336   0.5251   104.5513
 14      0.0000     0.0000E+00    0.0000E+00    4.250000E+09  0.00400  5.895E-05    0   0.5377   age158_m42            0.0000     2.9117E-04     6.4963   0.0129   103.7094
 15      0.0000     0.0000E+00    0.0000E+00    7.500000E+09  0.00400  3.510E-05    0   0.5212   age171_m42            0.0000     2.2301E-04     5.6634  -0.1995   104.0522
 16      0.0000     0.0000E+00    0.0000E+00    1.300000E+10  0.00400  2.005E-05    0   0.5034   age193_m42            0.0000     1.7237E-04     5.0010  -0.3889   104.4933
 17      0.0000     0.0000E+00    0.0000E+00    1.800000E+10  0.00400  1.525E-05    0   0.4967   age213_m42            0.0000     1.7768E-04     5.0839  -0.4123   104.0642
 18      0.0000     0.0000E+00    0.0000E+00    1.000000E+06  0.00800  1.238E-02    0   1.0000   age020_m52            0.0000     8.8373E-04     9.2879   3.2993    90.4941
 19      0.0000     0.0000E+00    0.0000E+00    3.160000E+06  0.00800  3.074E-02    0   0.9966   age045_m52            0.0000     8.8132E-04     9.3044   3.2290    91.0811
 20      0.0000     0.0000E+00    0.0000E+00    5.010000E+06  0.00800  2.668E-02    0   0.9443   age055_m52            0.0000     8.9594E-04     9.6212   3.0097    92.0947
 21      0.0000     0.0000E+00    0.0000E+00    6.610000E+06  0.00800  2.136E-02    0   0.9177   age061_m52            0.0000     8.3119E-04    10.3449   1.7681    98.0507
 22      0.0000     0.0000E+00    0.0000E+00    1.000000E+07  0.00800  1.215E-02    0   0.8827   age070_m52            0.0000     1.0748E-03    11.6995   2.4775    95.2860
 23      0.0000     0.0000E+00    0.0000E+00    1.445000E+07  0.00800  8.717E-03    0   0.8552   age078_m52            0.0000     1.0181E-03    11.1473   2.5839    94.6785
 24      0.0000     0.0000E+00    0.0000E+00    2.512000E+07  0.00800  5.592E-03    0   0.8162   age090_m52            0.0000     1.0576E-03    11.8134   2.2455    96.6196
 25      0.0000     0.0000E+00    0.0000E+00    4.000000E+07  0.00800  3.896E-03    0   0.7841   age104_m52            0.0000     1.0019E-03    11.4945   2.1545    97.4297
 26      0.0000     0.0000E+00    0.0000E+00    1.015200E+08  0.00800  2.148E-03    0   0.7226   age116_m52            0.0000     9.0345E-04    10.7835   2.0888    97.4501
 27      0.0000     0.0000E+00    0.0000E+00    2.861200E+08  0.00800  9.925E-04    0   0.6683   age125_m52            0.0000     7.9343E-04    10.3055   1.6060   101.2418
 28      0.0000     0.0000E+00    0.0000E+00    9.047900E+08  0.00800  3.141E-04    0   0.6138   age135_m52            0.0000     4.4899E-04     8.3145   0.7408   108.5980
 29      0.0000     0.0000E+00    0.0000E+00    1.434000E+09  0.00800  1.719E-04    0   0.5853   age139_m52            0.0000     3.5379E-04     7.3814   0.1349   107.5856
 30      0.0000     0.0000E+00    0.0000E+00    2.500000E+09  0.00800  7.872E-05    0   0.5600   age150_m52            0.0000     2.0755E-04     5.5060  -0.1749   106.6754
 31      0.0000     0.0000E+00    0.0000E+00    4.250000E+09  0.00800  4.336E-05    0   0.5426   age158_m52            0.0000     1.8868E-04     5.2567  -0.2037   106.2998
 32     11.7174     3.5737E+00    3.7245E+00    6.250000E+09  0.00800  3.159E-05    0   0.5319   age166_m52            0.0000     1.2772E-04     4.4169  -0.4327   107.4517
 33      0.0000     0.0000E+00    0.0000E+00    1.300000E+10  0.00800  1.361E-05    0   0.5073   age193_m52            0.0000     7.9459E-05     3.4859  -0.9307   108.0297
 34      0.0000     0.0000E+00    0.0000E+00    1.800000E+10  0.00800  9.886E-06    0   0.4990   age213_m52            0.0000     7.0588E-05     3.5226  -1.0000   106.6469
 35      0.0000     0.0000E+00    0.0000E+00    1.000000E+06  0.02000  1.544E-02    0   1.0000   age020_m62            0.0000     8.8400E-04     9.2866   3.2956    90.7177
 36      0.0000     0.0000E+00    0.0000E+00    3.160000E+06  0.02000  3.762E-02    0   0.9858   age045_m62            0.0000     8.9153E-04     9.2999   3.2381    91.3674
 37      0.0000     0.0000E+00    0.0000E+00    5.010000E+06  0.02000  3.296E-02    0   0.9342   age055_m62            0.0000     8.7327E-04     9.5519   2.9010    93.4672
 38      0.0000     0.0000E+00    0.0000E+00    8.710000E+06  0.02000  1.154E-02    0   0.8861   age067_m62            0.0000     1.4862E-03    14.9033   1.9468    97.1128
 39      0.0000     0.0000E+00    0.0000E+00    1.445000E+07  0.02000  7.663E-03    0   0.8472   age078_m62            0.0000     1.1537E-03    12.5564   2.1258    97.2807
 40      0.0000     0.0000E+00    0.0000E+00    2.512000E+07  0.02000  4.532E-03    0   0.8099   age090_m62            0.0000     1.2178E-03    12.9767   2.1294    96.4384
 41      0.0000     0.0000E+00    0.0000E+00    5.500000E+07  0.02000  2.733E-03    0   0.7595   age110_m62            0.0000     1.0041E-03    11.4477   2.1390    96.6790
 42      0.0000     0.0000E+00    0.0000E+00    1.609000E+08  0.02000  1.369E-03    0   0.6985   age120_m62            0.0000     9.0053E-04    10.8146   1.9846    98.9856
 43      0.0000     0.0000E+00    0.0000E+00    2.861200E+08  0.02000  9.013E-04    0   0.6714   age125_m62            0.0000     8.1463E-04    10.4356   1.7330   101.8883
 44      0.0000     0.0000E+00    0.0000E+00    5.088000E+08  0.02000  5.028E-04    0   0.6449   age130_m62            0.0000     5.7194E-04     8.8840   1.3082   106.7605
 45      0.0000     0.0000E+00    0.0000E+00    9.047900E+08  0.02000  2.428E-04    0   0.6179   age135_m62            0.0000     3.3460E-04     7.0849   0.6610   109.0087
 46      0.0000     0.0000E+00    0.0000E+00    1.434000E+09  0.02000  1.263E-04    0   0.5908   age139_m62            0.0000     2.3660E-04     5.9630   0.1850   108.9264
 47      0.0000     0.0000E+00    0.0000E+00    2.500000E+09  0.02000  5.985E-05    0   0.5673   age150_m62            0.0000     1.4021E-04     4.5324  -0.2200   109.1901
 48      0.0000     0.0000E+00    0.0000E+00    4.250000E+09  0.02000  3.271E-05    0   0.5468   age158_m62            0.0000     7.3354E-05     3.3132  -0.5619   109.8686
 49      0.0000     0.0000E+00    0.0000E+00    1.000000E+10  0.02000  1.360E-05    0   0.5167   age181_m62            0.0000     5.3274E-05     2.4721  -0.9519   111.1830
 50     21.2341     2.8718E+01    2.8208E+01    1.800000E+10  0.02000  7.124E-06    0   0.5013   age213_m62            0.0000     1.2552E-04     4.4461  -1.0000   105.6350
 51      3.7240     1.3842E-03    2.7117E-03    1.000000E+06  0.05000  2.592E-02    0   0.9998   age020_m72            0.0000     8.8583E-04     9.2751   3.2824    90.9559
 52      0.0000     0.0000E+00    0.0000E+00    3.160000E+06  0.05000  4.845E-02    0   0.9577   age045_m72            0.0000     8.8969E-04     9.3693   3.1391    91.8254
 53      0.0000     0.0000E+00    0.0000E+00    5.010000E+06  0.05000  3.072E-02    0   0.9147   age055_m72            0.0000     1.0651E-03    11.3371   2.6799    94.7371
 54      0.0000     0.0000E+00    0.0000E+00    6.610000E+06  0.05000  1.455E-02    0   0.8877   age061_m72            0.0000     1.8528E-03    17.0365   1.9764    97.6833
 55      0.0000     0.0000E+00    0.0000E+00    1.000000E+07  0.05000  9.074E-03    0   0.8524   age070_m72            0.0000     1.1623E-03    11.7999   2.8507    94.4054
 56      0.0000     0.0000E+00    0.0000E+00    2.512000E+07  0.05000  4.250E-03    0   0.7902   age090_m72            0.0000     1.1383E-03    12.0058   2.5876    94.9641
 57      0.0000     0.0000E+00    0.0000E+00    4.000000E+07  0.05000  3.087E-03    0   0.7618   age104_m72            0.0000     1.1662E-03    12.4037   2.3725    96.0071
 58      0.0000     0.0000E+00    0.0000E+00    1.015200E+08  0.05000  1.700E-03    0   0.7096   age116_m72            0.0000     9.9376E-04    11.4078   2.1331    98.2061
 59      0.0000     0.0000E+00    0.0000E+00    2.861200E+08  0.05000  7.384E-04    0   0.6633   age125_m72            0.0000     6.9073E-04     9.6740   1.5809   104.2101
 60      0.0000     0.0000E+00    0.0000E+00    5.088000E+08  0.05000  3.819E-04    0   0.6372   age130_m72            0.0000     4.1459E-04     7.7736   1.0250   108.9707
 61      0.0000     0.0000E+00    0.0000E+00    9.047900E+08  0.05000  1.676E-04    0   0.6110   age135_m72            0.0000     1.7262E-04     5.0423   0.2498   110.7684
 62      0.0000     0.0000E+00    0.0000E+00    1.434000E+09  0.05000  8.837E-05    0   0.5874   age139_m72            0.0000     1.2530E-04     4.3752  -0.2355   111.4554
 63     12.0311     2.7384E+00    3.0037E+00    2.500000E+09  0.05000  4.233E-05    0   0.5598   age150_m72            0.0000     6.2472E-05     2.9908  -0.5784   111.5067
 64     34.7866     2.3356E+01    2.4021E+01    6.250000E+09  0.05000  1.435E-05    0   0.5249   age166_m72            0.0000     5.9786E-05     2.8624  -1.0000   109.4175
 65     27.3089     4.0398E+01    3.9863E+01    1.300000E+10  0.05000  6.513E-06    0   0.5036   age193_m72            0.0000     3.0536E-04     7.4248  -1.0000   101.8082
 66      0.5709     1.2151E+00    1.1773E+00    1.800000E+10  0.05000  4.527E-06    0   0.4945   age213_m72            0.0000     5.9594E-04    10.4173  -1.0000    96.4320


## Synthesis Results - Average & Chains ##

# j      x_j: min, <> & last-chain-values for 1 ...  7 chains
  1      0.0000      1.2216      0.9451      0.8806      1.5743      1.5597      1.2361      1.5094      1.2762
  2      0.0000      0.3206      0.0091      0.0025      0.0377      0.1898      0.0047      0.0232      0.0050
  3      0.0000      0.2430      0.0249      0.0026      0.0000      0.5263      0.0163      0.0748      0.0000
  4      0.0000      0.3125      0.0275      0.0031      0.0118      0.0130      0.0000      0.0260      0.0063
  5      0.0000      0.1983      0.0240      0.0013      0.0343      0.0000      0.0819      0.0080      0.0000
  6      0.0000      0.3117      0.0224      0.0016      0.1158      0.5224      0.0320      0.0753      0.0041
  7      0.0000      0.2444      0.0501      0.0040      0.0000      0.3129      0.0000      0.0569      0.0000
  8      0.0000      0.3014      0.0052      0.0015      0.0476      0.0000      0.0000      0.1300      0.0001
  9      0.0000      0.2858      0.0118      0.0007      0.0773      1.3783      0.0236      0.0285      0.0000
 10      0.0000      0.2417      0.0167      0.0024      0.0659      1.3843      0.0000      0.0420      0.0000
 11      0.0000      0.2860      0.0210      0.0013      0.0241      0.0000      0.0191      0.0533      0.0032
 12      0.0000      0.3047      0.0339      0.0031      0.0071      0.1030      0.0000      0.0000      0.0004
 13      0.0000      0.3272      0.0148      0.0016      0.0456      1.1939      0.0025      0.0121      0.0024
 14      0.0000      0.2432      0.0000      0.0017      0.0036      0.2481      0.0196      0.0176      0.0000
 15      0.0000      0.3596      0.0169      0.0027      0.0671      3.2765      0.0260      0.0505      0.0017
 16      0.0000      0.3234      0.0038      0.0037      0.0538      0.0000      0.0000      0.0315      0.0131
 17      0.0000      0.2285      0.0061      0.0026      0.0286      0.5180      0.0234      0.0079      0.0151
 18      0.0000      0.7106      0.0985      0.0138      0.7248      0.0000      0.7885      0.8433      1.8157
 19      0.0000      0.4574      0.0305      0.0073      0.2390      1.5083      0.8089      0.3385      0.1366
 20      0.0000      0.2782      0.0032      0.0019      0.0380      0.0938      0.0176      0.0494      0.0067
 21      0.0000      0.2418      0.0000      0.0022      0.0000      0.0000      0.0067      0.1084      0.0253
 22      0.0000      0.2030      0.0000      0.0018      0.0825      0.3511      0.0000      0.0000      0.0006
 23      0.0000      0.2354      0.0283      0.0021      0.0343      0.9058      0.0051      0.1014      0.0003
 24      0.0000      0.3391      0.0000      0.0006      0.0763      0.5403      0.0012      0.0005      0.0086
 25      0.0000      0.3134      0.0343      0.0025      0.0402      0.4715      0.0036      0.0000      0.0012
 26      0.0000      0.2134      0.0091      0.0005      0.0913      0.0000      0.0064      0.0319      0.0106
 27      0.0000      0.2280      0.0056      0.0038      0.0576      0.7751      0.0047      0.1200      0.0055
 28      0.0000      0.3178      0.0025      0.0010      0.0275      0.4561      0.0200      0.0693      0.0000
 29      0.0000      0.2437      0.0086      0.0031      0.0000      0.0000      0.0763      0.1481      0.0023
 30      0.0000      0.2065      0.0304      0.0033      0.0000      0.0000      0.0177      0.0007      0.0067
 31      0.0000      0.2675      0.0266      0.0112      0.1483      1.0301      0.1832      0.1358      0.2156
 32     11.7174     11.7239     13.5221     13.7809      9.4446     12.1372     21.0377      9.7720     13.0747
 33      0.0000      0.2813      0.0420      0.0087      0.1079      0.8384      0.0841      0.1569      0.0441
 34      0.0000      0.2751      0.0000      0.0106      0.1932      0.0000      0.0646      0.3140      0.0300
 35      0.0000      1.9322      2.3568      2.4227      1.9629      1.1670      1.5773      2.1182      1.6759
 36      0.0000      0.5231      0.0232      0.0032      0.6151      0.1960      0.0589      0.6084      0.5724
 37      0.0000      0.2074      0.0389      0.0030      0.1175      0.0000      0.0205      0.0148      0.0000
 38      0.0000      0.2196      0.0187      0.0048      0.0497      0.3386      0.0041      0.0000      0.0000
 39      0.0000      0.2592      0.0000      0.0017      0.0717      0.8783      0.0000      0.0836      0.0082
 40      0.0000      0.2858      0.0000      0.0014      0.0027      1.3763      0.0065      0.0000      0.0000
 41      0.0000      0.2469      0.0229      0.0022      0.0357      0.0000      0.0235      0.1025      0.0034
 42      0.0000      0.2671      0.0020      0.0019      0.2663      0.6504      0.0435      0.0000      0.0071
 43      0.0000      0.2866      0.0125      0.0023      0.0000      0.0000      0.0340      0.0337      0.0183
 44      0.0000      0.2971      0.0147      0.0019      0.0000      0.2970      0.0289      0.0000      0.0000
 45      0.0000      0.3384      0.0142      0.0026      0.0292      0.0000      0.0258      0.0751      0.0000
 46      0.0000      0.2381      0.0402      0.0039      0.0070      0.0000      0.0000      0.0000      0.0000
 47      0.0000      2.1468      3.8493      3.9206      2.3952      3.1847      0.1689      2.4193      0.5741
 48      0.0000      1.8257      0.3342      0.0689      4.2426      2.4642      0.0384      4.0439      0.0406
 49      0.0000      0.4483      0.0982      0.0243      0.5987      0.0189      0.0493      0.6518      0.0372
 50     21.2341      2.1247      2.1394      2.1394      1.6929      4.3865      0.5091      1.7001      5.6400
 51      3.7240      1.6955      1.2658      1.2542      2.5439      0.5880      1.4095      2.5439      1.8454
 52      0.0000      0.3063      0.0219      0.0018      0.0000      0.3263      0.0481      0.1218      0.0000
 53      0.0000      0.2241      0.0000      0.0016      0.0409      0.0556      0.0469      0.0861      0.0015
 54      0.0000      0.3417      0.0001      0.0013      0.0066      0.6999      0.0214      0.1107      0.0069
 55      0.0000      0.2957      0.0000      0.0025      0.0183      0.0000      0.0000      0.1801      0.0000
 56      0.0000      0.2278      0.0006      0.0020      0.0491      0.0000      0.0139      0.1333      0.0102
 57      0.0000      0.2838      0.0000      0.0008      0.0473      0.3629      0.0021      0.0023      0.0011
 58      0.0000      0.3159      0.0000      0.0026      0.0828      0.1179      0.0000      0.0612      0.0119
 59      0.0000      0.2827      0.0619      0.0033      0.0291      0.0000      0.0818      0.0000      0.0210
 60      0.0000      0.2921      0.0168      0.0034      0.0454      0.0000      0.0165      0.0379      0.0022
 61      0.0000      0.2363      0.0315      0.0037      0.0000      0.1015      0.0000      0.0716      0.0000
 62      0.0000      0.5310      1.0010      1.0107      0.2673      0.6885      0.0758      0.1536      0.0279
 63     12.0311     47.4553     60.7730     61.2045     54.8345     36.7771     52.6230     53.7046     62.7233
 64     34.7866      8.6771      7.8856      7.8346     10.6229      8.6135     14.0666     10.7001      6.9989
 65     27.3089      2.2162      3.6523      4.0219      2.2647      3.7623      2.3305      2.2215      0.0478
 66      0.5709      0.3990      0.8678      0.9067      0.3149      0.3644      0.0560      0.1544      0.0218

# j      m_j: min, <> & last-chain-values for 1 ...  7 chains
  1  0.0000E+00  6.8118E-03  4.5384E-03  4.1574E-03  8.2713E-03  7.7411E-03  6.2683E-03  8.0305E-03  6.7682E-03
  2  0.0000E+00  4.8810E-04  1.1983E-05  3.1585E-06  5.4117E-05  2.5723E-04  6.4858E-06  3.3728E-05  7.2045E-06
  3  0.0000E+00  5.5392E-04  4.8835E-05  5.0112E-06  0.0000E+00  1.0679E-03  3.3819E-05  1.6265E-04  0.0000E+00
  4  0.0000E+00  6.7096E-04  5.0758E-05  5.7114E-06  2.3928E-05  2.4894E-05  0.0000E+00  5.3270E-05  1.2864E-05
  5  0.0000E+00  8.1074E-04  8.4366E-05  4.4070E-06  1.3235E-04  0.0000E+00  3.0444E-04  3.1275E-05  0.0000E+00
  6  0.0000E+00  2.0676E-03  1.2813E-04  9.1891E-06  7.2385E-04  3.0841E-03  1.9278E-04  4.7679E-04  2.5678E-05
  7  0.0000E+00  2.3211E-03  4.0997E-04  3.2269E-05  0.0000E+00  2.6449E-03  0.0000E+00  5.1585E-04  0.0000E+00
  8  0.0000E+00  3.9565E-03  5.8578E-05  1.6963E-05  5.8829E-04  0.0000E+00  0.0000E+00  1.6285E-03  1.1751E-06
  9  0.0000E+00  4.2926E-03  1.5240E-04  8.8697E-06  1.0937E-03  1.8430E-02  3.2302E-04  4.0917E-04  0.0000E+00
 10  0.0000E+00  4.7686E-03  2.8457E-04  4.0320E-05  1.2249E-03  2.4314E-02  0.0000E+00  7.9038E-04  0.0000E+00
 11  0.0000E+00  1.0611E-02  6.7114E-04  4.0928E-05  8.4410E-04  0.0000E+00  6.4546E-04  1.8852E-03  1.1157E-04
 12  0.0000E+00  1.7935E-02  1.7160E-03  1.5226E-04  3.9634E-04  5.3970E-03  0.0000E+00  0.0000E+00  2.2723E-05
 13  0.0000E+00  5.4275E-02  2.1113E-03  2.2606E-04  7.1317E-03  1.7629E-01  3.7075E-04  1.9105E-03  3.8559E-04
 14  0.0000E+00  1.3532E-01  0.0000E+00  8.1737E-04  1.9062E-03  1.2289E-01  9.9413E-03  9.3454E-03  0.0000E+00
 15  0.0000E+00  3.2575E-01  1.3173E-02  2.0924E-03  5.7276E-02  2.6418E+00  2.1431E-02  4.3688E-02  1.4606E-03
 16  0.0000E+00  4.9531E-01  4.9875E-03  4.7534E-03  7.7686E-02  0.0000E+00  0.0000E+00  4.5961E-02  1.9094E-02
 17  0.0000E+00  4.5397E-01  1.0376E-02  4.4283E-03  5.3572E-02  9.1617E-01  4.2266E-02  1.4974E-02  2.8551E-02
 18  0.0000E+00  3.5015E-03  4.1810E-04  5.7769E-05  3.3654E-03  0.0000E+00  3.5335E-03  3.9645E-03  8.5091E-03
 19  0.0000E+00  9.0456E-04  5.1914E-05  1.2287E-05  4.4544E-04  2.6551E-03  1.4548E-03  6.3882E-04  2.5694E-04
 20  0.0000E+00  6.0055E-04  5.9054E-06  3.4962E-06  7.7265E-05  1.8023E-04  3.4586E-05  1.0168E-04  1.3748E-05
 21  0.0000E+00  6.3363E-04  0.0000E+00  4.8756E-06  0.0000E+00  0.0000E+00  1.6010E-05  2.7100E-04  6.3070E-05
 22  0.0000E+00  8.9950E-04  0.0000E+00  6.9053E-06  3.4464E-04  1.3849E-03  0.0000E+00  0.0000E+00  2.4915E-06
 23  0.0000E+00  1.4090E-03  1.4590E-04  1.0513E-05  1.9332E-04  4.8251E-03  2.7882E-05  5.7891E-04  1.7101E-06
 24  0.0000E+00  3.0196E-03  0.0000E+00  4.8523E-06  6.4017E-04  4.2824E-03  9.5124E-06  4.3248E-06  7.2436E-05
 25  0.0000E+00  3.8475E-03  3.6253E-04  2.6442E-05  4.6457E-04  5.1526E-03  3.9700E-05  0.0000E+00  1.4244E-05
 26  0.0000E+00  4.3793E-03  1.6137E-04  9.4267E-06  1.7661E-03  0.0000E+00  1.2017E-04  6.2402E-04  2.0682E-04
 27  0.0000E+00  9.3668E-03  1.9854E-04  1.3078E-04  2.2287E-03  2.8339E-02  1.7444E-04  4.7025E-03  2.1379E-04
 28  0.0000E+00  3.7890E-02  2.6155E-04  1.0099E-04  3.0838E-03  4.8396E-02  2.1638E-03  7.8790E-03  0.0000E+00
 29  0.0000E+00  5.0608E-02  1.5459E-03  5.4924E-04  0.0000E+00  0.0000E+00  1.4405E-02  2.9341E-02  4.5845E-04
 30  0.0000E+00  8.9634E-02  1.1361E-02  1.2289E-03  0.0000E+00  0.0000E+00  7.0013E-03  2.9011E-04  2.7577E-03
 31  0.0000E+00  2.0423E-01  1.7514E-02  7.2484E-03  1.0667E-01  6.9994E-01  1.2719E-01  9.8915E-02  1.5652E-01
 32  3.7245E+00  1.2042E+01  1.1960E+01  1.1984E+01  9.1407E+00  1.1096E+01  1.9651E+01  9.5766E+00  1.2772E+01
 33  0.0000E+00  6.3972E-01  8.2302E-02  1.6717E-02  2.3109E-01  1.6968E+00  1.7383E-01  3.4043E-01  9.5460E-02
 34  0.0000E+00  8.4712E-01  0.0000E+00  2.7581E-02  5.6044E-01  0.0000E+00  1.8078E-01  9.2247E-01  8.7832E-02
 35  0.0000E+00  7.6340E-03  8.0187E-03  8.1041E-03  7.3076E-03  4.1039E-03  5.6675E-03  7.9847E-03  6.2973E-03
 36  0.0000E+00  8.3611E-04  3.1885E-05  4.3740E-06  9.2641E-04  2.7887E-04  8.5688E-05  9.2798E-04  8.7016E-04
 37  0.0000E+00  3.5860E-04  5.7946E-05  4.4205E-06  1.9139E-04  0.0000E+00  3.2234E-05  2.4379E-05  0.0000E+00
 38  0.0000E+00  1.0285E-03  7.5413E-05  1.9142E-05  2.1924E-04  1.4117E-03  1.7487E-05  0.0000E+00  0.0000E+00
 39  0.0000E+00  1.7478E-03  0.0000E+00  9.4625E-06  4.5574E-04  5.2723E-03  0.0000E+00  5.3815E-04  5.2496E-05
 40  0.0000E+00  3.1155E-03  0.0000E+00  1.3062E-05  2.8028E-05  1.3354E-02  6.4706E-05  0.0000E+00  0.0000E+00
 41  0.0000E+00  4.1863E-03  3.3448E-04  3.1637E-05  5.6993E-04  0.0000E+00  3.6164E-04  1.6572E-03  5.5058E-05
 42  0.0000E+00  8.3141E-03  5.4719E-05  4.9221E-05  7.8114E-03  1.8018E-02  1.2305E-03  0.0000E+00  2.0907E-04
 43  0.0000E+00  1.3024E-02  4.8775E-04  8.6699E-05  0.0000E+00  0.0000E+00  1.4057E-03  1.4617E-03  7.9011E-04
 44  0.0000E+00  2.3246E-02  9.8774E-04  1.2803E-04  0.0000E+00  2.0683E-02  2.0576E-03  0.0000E+00  0.0000E+00
 45  0.0000E+00  5.2533E-02  1.8982E-03  3.3793E-04  4.2651E-03  0.0000E+00  3.6484E-03  1.1129E-02  0.0000E+00
 46  0.0000E+00  6.7954E-02  9.8779E-03  9.4962E-04  1.8894E-03  0.0000E+00  0.0000E+00  0.0000E+00  0.0000E+00
 47  0.0000E+00  1.2414E+00  1.9167E+00  1.9194E+00  1.3050E+00  1.6391E+00  8.8832E-02  1.3347E+00  3.1574E-01
 48  0.0000E+00  1.8618E+00  2.9348E-01  5.9522E-02  4.0766E+00  2.2367E+00  3.5634E-02  3.9346E+00  3.9373E-02
 49  0.0000E+00  1.0389E+00  1.9605E-01  4.7655E-02  1.3074E+00  3.8985E-02  1.0401E-01  1.4414E+00  8.2086E-02
 50  2.8208E+01  9.1204E+00  7.9082E+00  7.7753E+00  6.8475E+00  1.6760E+01  1.9874E+00  6.9628E+00  2.3026E+01
 51  2.7117E-03  3.9897E-03  2.5650E-03  2.4986E-03  5.6401E-03  1.2315E-03  3.0162E-03  5.7111E-03  4.1297E-03
 52  0.0000E+00  3.6933E-04  2.2738E-05  1.8038E-06  0.0000E+00  3.5022E-04  5.2711E-05  1.4015E-04  0.0000E+00
 53  0.0000E+00  4.0698E-04  0.0000E+00  2.5322E-06  7.0075E-05  8.9948E-05  7.7399E-05  1.4924E-04  2.5392E-06
 54  0.0000E+00  1.2716E-03  2.7970E-07  3.9869E-06  2.3091E-05  2.3186E-03  7.2394E-05  3.9310E-04  2.4287E-05
 55  0.0000E+00  1.6943E-03  0.0000E+00  1.1961E-05  9.8899E-05  0.0000E+00  0.0000E+00  9.8467E-04  0.0000E+00
 56  0.0000E+00  2.5838E-03  6.2365E-06  1.9371E-05  5.2460E-04  0.0000E+00  1.4319E-04  1.4427E-03  1.0973E-04
 57  0.0000E+00  4.2717E-03  0.0000E+00  9.7159E-06  6.7043E-04  4.8628E-03  2.8919E-05  3.2549E-05  1.5384E-05
 58  0.0000E+00  8.0441E-03  0.0000E+00  5.6302E-05  1.9874E-03  2.6717E-03  0.0000E+00  1.4877E-03  2.8746E-04
 59  0.0000E+00  1.5492E-02  2.9210E-03  1.5304E-04  1.5032E-03  0.0000E+00  4.0755E-03  0.0000E+00  1.0947E-03
 60  0.0000E+00  2.9731E-02  1.4698E-03  2.9282E-04  4.3552E-03  0.0000E+00  1.5287E-03  3.6851E-03  2.1163E-04
 61  0.0000E+00  5.2552E-02  6.0240E-03  7.0203E-04  0.0000E+00  2.0092E-02  0.0000E+00  1.5194E-02  0.0000E+00
 62  0.0000E+00  2.1532E-01  3.4953E-01  3.4699E-01  1.0212E-01  2.4849E-01  2.7946E-02  5.9418E-02  1.0740E-02
 63  3.0037E+00  3.8284E+01  4.2220E+01  4.1805E+01  4.1683E+01  2.6409E+01  3.8608E+01  4.1337E+01  4.8125E+01
 64  2.4021E+01  1.9362E+01  1.5153E+01  1.4801E+01  2.2335E+01  1.7108E+01  2.8545E+01  2.2780E+01  1.4853E+01
 65  3.9863E+01  1.0453E+01  1.4835E+01  1.6062E+01  1.0066E+01  1.5796E+01  9.9968E+00  9.9978E+00  2.1459E-01
 66  1.1773E+00  2.6588E+00  4.9797E+00  5.1155E+00  1.9773E+00  2.1613E+00  3.3958E-01  9.8185E-01  1.3813E-01

# AV, chi2 & Mass for <> & i_chain = 1 ...  7 solutions
AV      -0.9990     -0.1990     -0.3141     -0.3260     -0.1847     -0.0762     -0.2653     -0.1682     -0.2053
chi2 4.8974E-05  3.8309E-04  2.2645E-04  2.2506E-04  3.2145E-04  3.2066E-04  2.6956E-04  3.3265E-04  3.0739E-04
Mass 1.3156E-12  1.1922E-12  1.1862E-12  1.1874E-12  1.2898E-12  1.5797E-12  1.1992E-12  1.3024E-12  1.2430E-12
 -41.99                                  [v0_min (km/s) before EX0s...]
 209.12                                  [vd_min (km/s) before EX0s...]


## Synthetic spectrum (Best Model) ##l_obs f_obs f_syn wei
 3478    [Nl_obs]
 3741.00    0.41359   0.53409    0.000
 3742.00    0.40551   0.52031    0.000
 3743.00    0.39623   0.49549    0.000
 3744.00    0.37588   0.46613    0.000
 3745.00    0.34908   0.43893   -1.000
 3746.00    0.37795   0.41963   -1.000
 3747.00    0.43508   0.41271   -1.000
 3748.00    0.45848   0.42099   -1.000
 3749.00    0.46704   0.44504   -1.000
 3750.00    0.47003   0.48224   -1.000
 3751.00    0.47091   0.52653   -1.000
 3752.00    0.47674   0.56942   -1.000
 3753.00    0.48416   0.60208   -1.000
 3754.00    0.51833   0.61822   -1.000
 3755.00    0.55967   0.61631   -1.000
 3756.00    0.55118   0.60021   -1.000
 3757.00    0.53175   0.57755   -1.000
 3758.00    0.51043   0.55649   -1.000
 3759.00    0.48877   0.54242   -1.000
 3760.00    0.48576   0.53659   -1.000
 3761.00    0.48523   0.53685   -1.000
 3762.00    0.49972   0.54008   -1.000
 3763.00    0.51563   0.54420   -1.000
 3764.00    0.53054   0.54905   -1.000
 3765.00    0.54539   0.55600   -1.000
 3766.00    0.54548   0.56683   -1.000
 3767.00    0.54531   0.58263   -1.000
 3768.00    0.55720   0.60313   -1.000
 3769.00    0.56978   0.62667   -1.000
 3770.00    0.59923   0.65068   -1.000
 3771.00    0.62599   0.67241   -1.000
 3772.00    0.61765   0.68992   -1.000
 3773.00    0.60879   0.70260   -1.000
 3774.00    0.59544   0.71136   -1.000
 3775.00    0.58614   0.71816   -1.000
 3776.00    0.60307   0.72517   -1.000
 3777.00    0.61911   0.73382   -1.000
 3778.00    0.63064   0.74411   -1.000
 3779.00    0.64240   0.75454   -1.000
 3780.00    0.65507   0.76236   -1.000
 3781.00    0.66697   0.76431   -1.000
 3782.00    0.67623   0.75741   -1.000
 3783.00    0.67749   0.74004   -1.000
 3784.00    0.65583   0.71283   -1.000
 3785.00    0.63971   0.67901   -1.000
 3786.00    0.63711   0.64374   -1.000
 3787.00    0.63104   0.61246   -1.000
 3788.00    0.61767   0.58889   -1.000
 3789.00    0.58975   0.57374   -1.000
 3790.00    0.53519   0.56478   -1.000
 3791.00    0.49705   0.55830   -1.000
 3792.00    0.48520   0.55096   -1.000
 3793.00    0.48250   0.54126   -1.000
 3794.00    0.49263   0.52991   -1.000
 3795.00    0.49078   0.51945   -1.000
 3796.00    0.47414   0.51331   -1.000
 3797.00    0.46938   0.51473   -1.000
 3798.00    0.47757   0.52570   -1.000
 3799.00    0.49651   0.54604   -1.000
 3800.00    0.52580   0.57306   -1.000
 3801.00    0.55863   0.60202   -1.000
 3802.00    0.59445   0.62766   -1.000
 3803.00    0.62283   0.64608   -1.000
 3804.00    0.64568   0.65608   -1.000
 3805.00    0.66020   0.65931   -1.000
 3806.00    0.66926   0.65891   -1.000
 3807.00    0.67100   0.65744   -1.000
 3808.00    0.66856   0.65525   -1.000
 3809.00    0.63989   0.65036   -1.000
 3810.00    0.59811   0.63974   -1.000
 3811.00    0.55923   0.62152   -1.000
 3812.00    0.52160   0.59636   -1.000
 3813.00    0.50095   0.56740   -1.000
 3814.00    0.48659   0.53875   -1.000
 3815.00    0.46945   0.51357   -1.000
 3816.00    0.45142   0.49307   -1.000
 3817.00    0.46973   0.47672   -1.000
 3818.00    0.49757   0.46335   -1.000
 3819.00    0.48688   0.45193   -1.000
 3820.00    0.46794   0.44177   -1.000
 3821.00    0.45638   0.43228   -1.000
 3822.00    0.44606   0.42287   -1.000
 3823.00    0.46806   0.41328   -1.000
 3824.00    0.49420   0.40405   -1.000
 3825.00    0.43969   0.39633   -1.000
 3826.00    0.37793   0.39125   -1.000
 3827.00    0.39084   0.38897   -1.000
 3828.00    0.40776   0.38844   -1.000
 3829.00    0.40929   0.38799   -1.000
 3830.00    0.41040   0.38640   -1.000
 3831.00    0.40257   0.38364   -1.000
 3832.00    0.39613   0.38069   -1.000
 3833.00    0.42061   0.37876   -1.000
 3834.00    0.44142   0.37846   -1.000
 3835.00    0.41661   0.37977   -1.000
 3836.00    0.39238   0.38259   -1.000
 3837.00    0.37313   0.38758   -1.000
 3838.00    0.36032   0.39631   -1.000
 3839.00    0.38802   0.41044   -1.000
 3840.00    0.41112   0.43058   -1.000
 3841.00    0.41153   0.45542   -1.000
 3842.00    0.42016   0.48182   -1.000
 3843.00    0.46167   0.50598   -1.000
 3844.00    0.49787   0.52474   -1.000
 3845.00    0.51638   0.53649   -1.000
 3846.00    0.52962   0.54139   -1.000
 3847.00    0.52803   0.54103    0.000
 3848.00    0.52479   0.53764    0.000
 3849.00    0.51756   0.53313    0.000
 3850.00    0.50738   0.52848    0.000
 3851.00    0.49107   0.52350    0.000
 3852.00    0.48146   0.51711    0.000
 3853.00    0.48394   0.50817    0.000
 3854.00    0.50174   0.49624    0.000
 3855.00    0.54372   0.48210    0.000
 3856.00    0.55269   0.46790    0.000
 3857.00    0.51596   0.45671    0.000
 3858.00    0.49281   0.45167    0.000
 3859.00    0.48619   0.45475    0.000
 3860.00    0.49125   0.46580    0.000
 3861.00    0.50886   0.48232    0.000
 3862.00    0.52165   0.50019    0.000
 3863.00    0.52988   0.51506    0.000
 3864.00    0.54404   0.52382    0.000
 3865.00    0.56318   0.52525    0.000
 3866.00    0.58902   0.52006    0.000
 3867.00    0.61979   0.51039    0.000
 3868.00    0.61755   0.49921    0.000
 3869.00    0.59398   0.48984    0.000
 3870.00    0.57064   0.48519    0.000
 3871.00    0.54743   0.48693    0.000
 3872.00    0.55163   0.49457    0.000
 3873.00    0.56933   0.50540    0.000
 3874.00    0.56540   0.51549    0.000
 3875.00    0.55228   0.52129    0.000
 3876.00    0.54088   0.52141    0.000
 3877.00    0.53010   0.51709    0.000
 3878.00    0.52114   0.51119    0.000
 3879.00    0.51274   0.50658    0.000
 3880.00    0.51246   0.50499    0.000
 3881.00    0.51427   0.50635   -1.000
 3882.00    0.55619   0.50909   -1.000
 3883.00    0.60648   0.51146   -1.000
 3884.00    0.58539   0.51307   -1.000
 3885.00    0.55253   0.51539   -1.000
 3886.00    0.55027   0.52127   -1.000
 3887.00    0.55180   0.53360   -1.000
 3888.00    0.53469   0.55373   -1.000
 3889.00    0.51597   0.58037   -1.000
 3890.00    0.56127   0.60987   -1.000
 3891.00    0.60976   0.63758   -1.000
 3892.00    0.62675   0.65956   -1.000
 3893.00    0.64320   0.67392   -1.000
 3894.00    0.65840   0.68111   -1.000
 3895.00    0.67287   0.68315   -1.000
 3896.00    0.67235   0.68232   -1.000
 3897.00    0.67572   0.68038   -1.000
 3898.00    0.72503   0.67825   -1.000
 3899.00    0.76982   0.67571   -1.000
 3900.00    0.77775   0.67217   -1.000
 3901.00    0.77724   0.66754   -1.000
 3902.00    0.72518   0.66265   -1.000
 3903.00    0.67881   0.65927   -1.000
 3904.00    0.65991   0.65990   -1.000
 3905.00    0.65085   0.66684   -1.000
 3906.00    0.68032   0.68102   -1.000
 3907.00    0.69719   0.70122    2.779
 3908.00    0.67297   0.72457    0.528
 3909.00    0.67539   0.74746    0.336
 3910.00    0.75124   0.76642    0.356
 3911.00    0.79520   0.77894    0.366
 3912.00    0.76381   0.78383    0.351
 3913.00    0.74149   0.78080    0.341
 3914.00    0.73768   0.77005    0.338
 3915.00    0.73821   0.75232    0.346
 3916.00    0.74648   0.72891    0.376
 3917.00    0.73656   0.70175    0.385
 3918.00    0.69837   0.67336    0.357
 3919.00    0.64972   0.64648    0.337
 3920.00    0.58679   0.62315    0.327
 3921.00    0.57102   0.60400    0.329
 3922.00    0.61189   0.58765    0.348
 3923.00    0.64183   0.57120    0.354
 3924.00    0.66019   0.55118    0.344
 3925.00    0.63066   0.52497    0.342
 3926.00    0.55641   0.49183    0.347
 3927.00    0.52023   0.45319    0.342
 3928.00    0.51541   0.41212    0.330
 3929.00    0.47107   0.37243    0.320
 3930.00    0.39807   0.33786    0.312
 3931.00    0.33897   0.31157    0.310
 3932.00    0.28872   0.29588    0.313
 3933.00    0.30184   0.29223    0.319
 3934.00    0.35022   0.30100    0.327
 3935.00    0.36157   0.32125    0.326
 3936.00    0.35500   0.35061    0.321
 3937.00    0.31261   0.38548    0.310
 3938.00    0.25526   0.42165    0.298
 3939.00    0.35802   0.45564    0.311
 3940.00    0.51804   0.48585    0.337
 3941.00    0.61296   0.51252    0.349
 3942.00    0.68819   0.53710    0.357
 3943.00    0.65910   0.56170    0.344
 3944.00    0.60380   0.58812    0.327
 3945.00    0.60020   0.61679    0.324
 3946.00    0.60715   0.64653    0.323
 3947.00    0.68293   0.67534    0.329
 3948.00    0.76973   0.70152    0.336
 3949.00    0.75818   0.72397    0.340
 3950.00    0.73490   0.74169    0.345
 3951.00    0.74822   0.75406    0.346
 3952.00    0.76453   0.76111    0.348
 3953.00    0.78899   0.76317    0.341
 3954.00    0.81382   0.76026    0.335
 3955.00    0.80069   0.75167    0.325
 3956.00    0.78574   0.73627    0.316
 3957.00    0.70112   0.71329    0.320
 3958.00    0.62155   0.68259    0.323
 3959.00    0.63769   0.64464    0.316
 3960.00    0.65063   0.60080    0.000
 3961.00    0.62758   0.55343    0.000
 3962.00    0.60006   0.50528    0.000
 3963.00    0.53749   0.45874    0.000
 3964.00    0.47652   0.41591    0.000
 3965.00    0.42501   0.37890    0.000
 3966.00    0.37390   0.35018    0.000
 3967.00    0.32461   0.33238    0.000
 3968.00    0.30243   0.32768    0.000
 3969.00    0.38413   0.33744    0.000
 3970.00    0.45085   0.36170    0.000
 3971.00    0.46967   0.39874    0.000
 3972.00    0.47383   0.44569    0.000
 3973.00    0.43824   0.49927    0.000
 3974.00    0.44637   0.55621    0.000
 3975.00    0.55600   0.61348    0.000
 3976.00    0.65337   0.66808    0.000
 3977.00    0.72610   0.71732    0.000
 3978.00    0.79248   0.75920    0.000
 3979.00    0.84776   0.79265    0.000
 3980.00    0.85932   0.81792    0.000
 3981.00    0.80394   0.83635    0.322
 3982.00    0.82745   0.85043    0.322
 3983.00    0.95708   0.86303    0.330
 3984.00    1.01241   0.87568    0.332
 3985.00    0.97976   0.88880    0.325
 3986.00    0.93500   0.90227    0.317
 3987.00    0.87758   0.91533    0.306
 3988.00    0.90010   0.92705    0.310
 3989.00    0.99623   0.93653    0.327
 3990.00    1.00618   0.94327    0.330
 3991.00    0.94617   0.94685    0.320
 3992.00    0.94376   0.94718    0.318
 3993.00    0.98250   0.94494    0.320
 3994.00    0.99469   0.94205    0.317
 3995.00    0.99022   0.94110    0.310
 3996.00    0.97769   0.94413    0.304
 3997.00    0.96073   0.95226    0.298
 3998.00    0.95550   0.96498    0.296
 3999.00    0.95587   0.97905    0.296
 4000.00    0.96370   0.98952    0.300
 4001.00    0.97460   0.99279    0.306
 4002.00    0.94202   0.98837    0.298
 4003.00    0.89416   0.97857    0.287
 4004.00    0.91629   0.96752    0.296
 4005.00    0.95914   0.95990    0.311
 4006.00    0.96054   0.95934    0.308
 4007.00    0.95174   0.96698    0.299
 4008.00    0.93733   0.98118    0.297
 4009.00    0.92181   0.99884    0.296
 4010.00    0.96602   1.01705    0.296
 4011.00    1.01952   1.03352    0.296
 4012.00    1.02602   1.04648    0.292
 4013.00    1.02711   1.05566    0.286
 4014.00    1.01410   1.06235    0.286
 4015.00    1.00000   1.06747    0.286
 4016.00    0.99825   1.07100    0.295
 4017.00    0.99703   1.07295    0.306
 4018.00    1.00000   1.07341    0.306
 4019.00    1.00311   1.07215    0.305
 4020.00    1.01056   1.06913    0.298
 4021.00    1.01956   1.06528    0.292
 4022.00    1.05577   1.06215    0.292
 4023.00    1.09188   1.06074    0.293
 4024.00    1.12686   1.06038    0.304
 4025.00    1.15096   1.05834    0.313
 4026.00    1.09247   1.05092    0.305
 4027.00    1.03518   1.03553    0.300
 4028.00    0.98482   1.01136    0.318
 4029.00    0.94754   0.98053    0.332
 4030.00    0.97020   0.94870    0.322
 4031.00    0.97487   0.92338    0.312
 4032.00    0.91204   0.91158    0.296
 4033.00    0.88564   0.91698    0.288
 4034.00    0.97344   0.93831    0.297
 4035.00    1.04907   0.97017    0.307
 4036.00    1.09230   1.00468    0.314
 4037.00    1.09586   1.03409    0.316
 4038.00    1.00883   1.05263    0.306
 4039.00    0.96359   1.05584    0.301
 4040.00    1.00096   1.04150    0.305
 4041.00    1.03036   1.01185    0.307
 4042.00    1.04602   0.97410    0.307
 4043.00    1.02531   0.93794    0.301
 4044.00    0.94974   0.91160    0.286
 4045.00    0.90490   0.90079    0.281
 4046.00    0.90079   0.90781    0.288
 4047.00    0.90273   0.92975    0.292
 4048.00    0.91173   0.95989    0.294
 4049.00    0.95288   0.99031    0.298
 4050.00    1.02713   1.01352    0.307
 4051.00    1.05189   1.02464    0.304
 4052.00    1.03171   1.02273    0.293
 4053.00    1.00765   1.01013    0.285
 4054.00    0.98048   0.99201    0.280
 4055.00    0.96837   0.97410    0.281
 4056.00    0.96686   0.95975    0.286
 4057.00    0.92648   0.94898    0.282
 4058.00    0.86209   0.93892    0.272
 4059.00    0.86107   0.92695    0.276
 4060.00    0.89424   0.91366    0.288
 4061.00    0.90906   0.90111    0.287
 4062.00    0.91529   0.89092    0.281
 4063.00    0.89787   0.88562    0.278
 4064.00    0.87091   0.88834    0.275
 4065.00    0.92573   0.89940    0.283
 4066.00    1.00875   0.91496    0.295
 4067.00    0.98674   0.92992    0.295
 4068.00    0.93423   0.94203    0.291
 4069.00    0.89151   0.95068    0.279
 4070.00    0.85114   0.95431    0.266
 4071.00    0.84975   0.95274    0.265
 4072.00    0.85591   0.94717    0.266
 4073.00    0.86697   0.93890    0.262
 4074.00    0.87877   0.93078    0.257
 4075.00    0.87601   0.92670    0.261
 4076.00    0.87164   0.93023    0.267
 4077.00    0.89531   0.94242    0.271
 4078.00    0.92104   0.96099    0.276
 4079.00    0.93380   0.98335    0.281
 4080.00    0.94606   1.00722    0.285
 4081.00    0.98885   1.02977    0.288
 4082.00    1.03094   1.04933    0.290
 4083.00    1.04030   1.06631    0.280
 4084.00    1.05177   1.08215    0.271
 4085.00    1.09819   1.09784    0.281
 4086.00    1.14166   1.11331    0.291
 4087.00    1.15488   1.12747    0.296
 4088.00    1.15617   1.13797    0.299
 4089.00    1.06989   1.14271    0.282
 4090.00    1.00908   1.14002    0.270
 4091.00    1.09111   1.12803    0.277
 4092.00    1.13735   1.10746    0.000
 4093.00    1.02340   1.08128    0.000
 4094.00    0.93840   1.05229    0.000
 4095.00    0.95977   1.02223    0.000
 4096.00    0.96315   0.99138    0.000
 4097.00    0.91119   0.96068    0.000
 4098.00    0.88609   0.93332    0.000
 4099.00    0.93122   0.91286    0.000
 4100.00    0.95959   0.90213    0.000
 4101.00    0.95031   0.90276    0.000
 4102.00    0.94925   0.91445    0.000
 4103.00    0.96416   0.93443    0.000
 4104.00    0.97487   0.95870    0.000
 4105.00    0.97845   0.98289    0.000
 4106.00    0.98367   1.00307    0.000
 4107.00    0.99134   1.01661    0.000
 4108.00    0.98660   1.02362    0.000
 4109.00    0.96564   1.02719    0.000
 4110.00    0.96860   1.03025    0.000
 4111.00    0.99908   1.03438    0.000
 4112.00    1.01900   1.04060    0.000
 4113.00    1.02820   1.04781    0.257
 4114.00    1.03155   1.05287    0.256
 4115.00    1.02968   1.05387    0.256
 4116.00    1.02125   1.05130    0.256
 4117.00    1.00764   1.04590    0.256
 4118.00    1.01106   1.03844    0.256
 4119.00    1.02629   1.03116    0.255
 4120.00    1.03850   1.02678    0.257
 4121.00    1.04886   1.02607    0.261
 4122.00    1.06066   1.02746    0.263
 4123.00    1.07322   1.02900    0.263
 4124.00    1.06195   1.02848    0.261
 4125.00    1.03968   1.02405    0.259
 4126.00    1.01957   1.01512    0.259
 4127.00    1.00033   1.00165    0.259
 4128.00    0.96683   0.98392    0.256
 4129.00    0.92851   0.96445    0.250
 4130.00    0.94365   0.94739    0.253
 4131.00    0.97399   0.93728    0.258
 4132.00    0.98192   0.93681    0.255
 4133.00    0.98460   0.94522    0.250
 4134.00    1.00271   0.96042    0.252
 4135.00    1.02374   0.97965    0.255
 4136.00    1.00906   0.99874    0.257
 4137.00    0.98915   1.01237    0.260
 4138.00    0.98037   1.01499    0.257
 4139.00    0.97277   1.00411    0.253
 4140.00    0.99063   0.98307    0.254
 4141.00    1.01026   0.95942    0.254
 4142.00    0.92545   0.93964    0.253
 4143.00    0.83704   0.92669    0.251
 4144.00    0.92830   0.92159    0.258
 4145.00    1.01674   0.92327    0.265
 4146.00    1.00043   0.92920    0.267
 4147.00    0.98500   0.93684    0.268
 4148.00    0.98319   0.94306    0.264
 4149.00    0.98038   0.94474    0.261
 4150.00    0.96787   0.94137    0.260
 4151.00    0.95399   0.93545    0.261
 4152.00    0.93038   0.92996    0.263
 4153.00    0.91450   0.92708    0.266
 4154.00    0.94079   0.92904    0.265
 4155.00    0.96445   0.93690    0.264
 4156.00    0.97661   0.94983    0.258
 4157.00    0.98187   0.96645    0.254
 4158.00    0.96230   0.98580    0.257
 4159.00    0.94814   1.00602    0.258
 4160.00    0.95026   1.02343    0.248
 4161.00    0.94354   1.03514    0.241
 4162.00    0.91407   1.03995    0.237
 4163.00    0.90874   1.03732    0.235
 4164.00    0.95674   1.02884    0.241
 4165.00    0.97855   1.01797    0.244
 4166.00    0.95017   1.00634    0.242
 4167.00    0.93804   0.99299    0.242
 4168.00    0.95304   0.97708    0.244
 4169.00    0.96153   0.95913    0.244
 4170.00    0.96046   0.94119    0.240
 4171.00    0.94517   0.92544    0.238
 4172.00    0.91157   0.91274    0.239
 4173.00    0.89862   0.90302    0.243
 4174.00    0.90909   0.89702    0.251
 4175.00    0.91518   0.89648    0.251
 4176.00    0.91690   0.90195    0.243
 4177.00    0.91480   0.91093    0.238
 4178.00    0.90932   0.92011    0.237
 4179.00    0.89950   0.92868    0.233
 4180.00    0.88630   0.93772    0.228
 4181.00    0.88844   0.94781    0.226
 4182.00    0.90108   0.95740    0.227
 4183.00    0.91365   0.96316    0.228
 4184.00    0.92617   0.96493    0.230
 4185.00    0.93306   0.96647    0.229
 4186.00    0.93701   0.96964    0.228
 4187.00    0.94967   0.97306    0.227
 4188.00    0.96629   0.97644    0.226
 4189.00    0.96905   0.98128    0.226
 4190.00    0.96640   0.98713    0.227
 4191.00    0.95680   0.99071    0.226
 4192.00    0.94488   0.98821    0.225
 4193.00    0.96683   0.97787    0.226
 4194.00    0.99820   0.96086    0.227
 4195.00    0.95763   0.94046    0.225
 4196.00    0.90056   0.92044    0.221
 4197.00    0.86634   0.90292    0.222
 4198.00    0.83632   0.88960    0.223
 4199.00    0.86615   0.88416    0.223
 4200.00    0.90446   0.88894    0.223
 4201.00    0.92987   0.90225    0.223
 4202.00    0.95396   0.92191    0.224
 4203.00    0.93887   0.94614    0.223
 4204.00    0.92123   0.97194    0.223
 4205.00    0.92202   0.99661    0.224
 4206.00    0.92342   1.01751    0.225
 4207.00    0.95362   1.03246    0.227
 4208.00    0.98290   1.04161    0.228
 4209.00    0.98553   1.04526    0.227
 4210.00    0.98959   1.04254    0.226
 4211.00    1.01434   1.03380    0.227
 4212.00    1.03713   1.02221    0.227
 4213.00    1.04148   1.01456    0.227
 4214.00    1.03984   1.01596    0.228
 4215.00    0.99703   1.02490    0.224
 4216.00    0.96582   1.03788    0.222
 4217.00    0.99624   1.05233    0.222
 4218.00    1.02228   1.06380    0.223
 4219.00    1.02962   1.06593    0.224
 4220.00    1.02790   1.05320    0.225
 4221.00    0.99423   1.02238    0.225
 4222.00    0.95939   0.97537    0.225
 4223.00    0.92106   0.92052    0.222
 4224.00    0.88988   0.87131    0.221
 4225.00    0.87676   0.83994    0.221
 4226.00    0.86701   0.83093    0.220
 4227.00    0.86458   0.84309    0.217
 4228.00    0.88322   0.87149    0.215
 4229.00    0.94159   0.90719    0.216
 4230.00    0.98310   0.94270    0.216
 4231.00    0.99683   0.97300    0.213
 4232.00    0.99430   0.99150    0.213
 4233.00    0.96830   0.99703    0.216
 4234.00    0.95463   0.99639    0.218
 4235.00    0.95660   0.99483    0.219
 4236.00    0.96596   0.99610    0.219
 4237.00    0.98356   1.00459    0.215
 4238.00    0.98643   1.02060    0.213
 4239.00    0.97475   1.04096    0.211
 4240.00    0.99989   1.06445    0.212
 4241.00    1.05706   1.08923    0.214
 4242.00    1.07247   1.10947    0.215
 4243.00    1.05587   1.12009    0.215
 4244.00    1.09015   1.11921    0.217
 4245.00    1.15872   1.10702    0.221
 4246.00    1.13508   1.08554    0.224
 4247.00    1.05699   1.05817    0.227
 4248.00    0.99618   1.03051    0.227
 4249.00    0.94428   1.00742    0.226
 4250.00    0.94140   0.98932    0.224
 4251.00    0.96040   0.97628    0.222
 4252.00    0.96605   0.97088    0.221
 4253.00    0.96658   0.97442    0.220
 4254.00    0.98307   0.98358    0.216
 4255.00    1.00477   0.99084    0.210
 4256.00    0.98956   0.99210    0.209
 4257.00    0.96427   0.99061    0.210
 4258.00    0.97818   0.99357    0.212
 4259.00    1.00088   1.00545    0.215
 4260.00    1.04079   1.02365    0.217
 4261.00    1.08378   1.04433    0.219
 4262.00    1.06185   1.06738    0.219
 4263.00    1.03104   1.09045    0.219
 4264.00    1.00885   1.10627    0.217
 4265.00    0.98750   1.10888    0.215
 4266.00    1.00500   1.09461    0.214
 4267.00    1.02488   1.06238    0.213
 4268.00    1.01270   1.01707    0.214
 4269.00    0.99967   0.96953    0.214
 4270.00    0.98959   0.92916    0.215
 4271.00    0.97918   0.89979    0.216
 4272.00    0.95970   0.88585    0.214
 4273.00    0.93893   0.89111    0.212
 4274.00    0.90033   0.91346    0.210
 4275.00    0.87010   0.94716    0.208
 4276.00    0.91582   0.98247    0.213
 4277.00    0.96371   1.01028    0.218
 4278.00    1.02605   1.03108    0.217
 4279.00    1.07909   1.04585    0.217
 4280.00    1.08396   1.05215    0.219
 4281.00    1.08947   1.04981    0.221
 4282.00    1.09766   1.03950   -2.000
 4283.00    1.09542   1.02542   -2.000
 4284.00    1.05717   1.01200   -2.000
 4285.00    1.02177   0.99636   -2.000
 4286.00    0.99466   0.97527   -2.000
 4287.00    0.97308   0.95316   -2.000
 4288.00    0.96522   0.93679   -2.000
 4289.00    0.95376   0.92990   -2.000
 4290.00    0.93463   0.93017   -2.000
 4291.00    0.92878   0.93126   -2.000
 4292.00    0.94761   0.93264   -2.000
 4293.00    0.96127   0.93438   -2.000
 4294.00    0.96657   0.93097   -2.000
 4295.00    0.96007   0.91669   -2.000
 4296.00    0.93680   0.88975   -2.000
 4297.00    0.91449   0.85603   -2.000
 4298.00    0.89339   0.82477    0.213
 4299.00    0.86156   0.79726    0.212
 4300.00    0.81789   0.77330    0.209
 4301.00    0.79160   0.75559    0.208
 4302.00    0.78221   0.74308    0.206
 4303.00    0.77019   0.73432    0.207
 4304.00    0.75592   0.72702    0.209
 4305.00    0.75000   0.71898    0.209
 4306.00    0.75040   0.71483    0.208
 4307.00    0.74180   0.71987    0.206
 4308.00    0.72723   0.73560    0.204
 4309.00    0.74419   0.76389    0.206
 4310.00    0.77947   0.80571    0.209
 4311.00    0.82773   0.85972    0.209
 4312.00    0.88257   0.92558    0.208
 4313.00    0.94552   1.00038    0.208
 4314.00    1.01203   1.07400    0.209
 4315.00    1.05254   1.13706    0.211
 4316.00    1.08326   1.18521    0.213
 4317.00    1.11626   1.21527    0.216
 4318.00    1.15000   1.22584    0.219
 4319.00    1.14562   1.21702    0.219
 4320.00    1.13105   1.18678    0.218
 4321.00    1.13242   1.14009    0.219
 4322.00    1.13727   1.08889    0.219
 4323.00    1.07854   1.04630    0.222
 4324.00    1.00875   1.02419    0.225
 4325.00    1.00882   1.02563    0.222
 4326.00    1.01815   1.04434    0.218
 4327.00    1.06861   1.07461    0.220
 4328.00    1.12291   1.11423    0.223
 4329.00    1.13149   1.15909    0.221
 4330.00    1.13744   1.20012    0.000
 4331.00    1.18061   1.22819    0.000
 4332.00    1.22399   1.23988    0.000
 4333.00    1.19202   1.23433    0.000
 4334.00    1.16137   1.21148    0.000
 4335.00    1.16215   1.17595    0.000
 4336.00    1.15916   1.13375    0.000
 4337.00    1.10716   1.09049    0.000
 4338.00    1.05673   1.05475    0.000
 4339.00    1.02000   1.03375    0.000
 4340.00    0.98980   1.02859    0.000
 4341.00    1.00176   1.03960    0.000
 4342.00    1.01833   1.06555    0.000
 4343.00    1.05818   1.09929    0.000
 4344.00    1.09454   1.13384    0.000
 4345.00    1.11670   1.16508    0.000
 4346.00    1.13461   1.18855    0.000
 4347.00    1.13813   1.19921    0.000
 4348.00    1.14075   1.19418    0.000
 4349.00    1.14075   1.17830    0.000
 4350.00    1.13804   1.16271    0.000
 4351.00    1.12868   1.15269    0.215
 4352.00    1.12347   1.14637    0.212
 4353.00    1.12699   1.14463    0.215
 4354.00    1.12487   1.15124    0.215
 4355.00    1.11247   1.16538    0.213
 4356.00    1.11453   1.18201    0.213
 4357.00    1.13971   1.19881    0.216
 4358.00    1.17088   1.21700    0.218
 4359.00    1.21042   1.23534    0.217
 4360.00    1.23528   1.25058    0.217
 4361.00    1.24200   1.26379    0.216
 4362.00    1.25497   1.27720    0.216
 4363.00    1.27474   1.28698    0.217
 4364.00    1.26650   1.28695    0.217
 4365.00    1.23141   1.27746    0.215
 4366.00    1.21192   1.26384    0.216
 4367.00    1.20561   1.24828    0.220
 4368.00    1.20070   1.22980    0.221
 4369.00    1.19684   1.20912    0.220
 4370.00    1.16501   1.18814    0.217
 4371.00    1.11489   1.16796    0.213
 4372.00    1.11152   1.15001    0.214
 4373.00    1.13493   1.13750    0.219
 4374.00    1.11928   1.13256    0.217
 4375.00    1.08414   1.13139    0.212
 4376.00    1.09103   1.12790    0.213
 4377.00    1.11606   1.11976    0.216
 4378.00    1.09129   1.10650    0.215
 4379.00    1.04810   1.08378    0.213
 4380.00    1.02015   1.04704    0.212
 4381.00    0.99696   1.00285    0.211
 4382.00    0.96242   0.96639    0.208
 4383.00    0.92491   0.94688    0.204
 4384.00    0.92231   0.94207    0.202
 4385.00    0.92715   0.94756    0.200
 4386.00    0.94459   0.96369    0.203
 4387.00    0.96415   0.99023    0.206
 4388.00    1.01708   1.02170    0.207
 4389.00    1.07428   1.05111    0.207
 4390.00    1.11830   1.07492    0.208
 4391.00    1.16116   1.09380    0.209
 4392.00    1.14013   1.11056    0.208
 4393.00    1.11569   1.12941    0.208
 4394.00    1.11642   1.15128    0.209
 4395.00    1.11794   1.17000    0.210
 4396.00    1.14331   1.17902    0.211
 4397.00    1.16734   1.17763    0.211
 4398.00    1.16185   1.17039    0.213
 4399.00    1.15498   1.16060    0.216
 4400.00    1.13106   1.14262    0.214
 4401.00    1.10536   1.11171    0.212
 4402.00    1.06474   1.07709    0.209
 4403.00    1.03096   1.05325    0.206
 4404.00    1.04012   1.04356    0.209
 4405.00    1.04852   1.04214    0.211
 4406.00    1.05315   1.04843    0.209
 4407.00    1.06133   1.06845    0.207
 4408.00    1.08365   1.10137    0.208
 4409.00    1.11211   1.13669    0.209
 4410.00    1.16092   1.16458    0.209
 4411.00    1.20262   1.18094    0.209
 4412.00    1.22438   1.18654    0.211
 4413.00    1.23560   1.18685    0.212
 4414.00    1.22158   1.18693    0.212
 4415.00    1.20666   1.18864    0.213
 4416.00    1.18987   1.19279    0.215
 4417.00    1.17394   1.19985    0.215
 4418.00    1.15951   1.20894    0.210
 4419.00    1.16624   1.21623    0.207
 4420.00    1.20625   1.21920    0.207
 4421.00    1.22973   1.21971    0.208
 4422.00    1.23035   1.21768    0.209
 4423.00    1.23504   1.21196    0.211
 4424.00    1.24468   1.20558    0.211
 4425.00    1.24265   1.20321    0.212
 4426.00    1.22810   1.20416    0.214
 4427.00    1.20416   1.20230    0.215
 4428.00    1.17134   1.19683    0.214
 4429.00    1.17302   1.19225    0.213
 4430.00    1.20346   1.18758    0.212
 4431.00    1.21692   1.17876    0.210
 4432.00    1.21791   1.16721    0.208
 4433.00    1.19660   1.16102    0.209
 4434.00    1.16092   1.16583    0.212
 4435.00    1.17263   1.17774    0.213
 4436.00    1.21107   1.19120    0.213
 4437.00    1.21992   1.20412    0.216
 4438.00    1.21425   1.21496    0.219
 4439.00    1.21336   1.22222    0.218
 4440.00    1.21451   1.22580    0.215
 4441.00    1.23967   1.22851    0.213
 4442.00    1.27356   1.23389    0.213
 4443.00    1.27152   1.24207    0.213
 4444.00    1.25844   1.25160    0.215
 4445.00    1.26450   1.26357    0.214
 4446.00    1.27546   1.27762    0.213
 4447.00    1.28990   1.28737    0.211
 4448.00    1.30506   1.28768    0.210
 4449.00    1.29435   1.27912    0.212
 4450.00    1.27940   1.26320    0.215
 4451.00    1.25827   1.23919    0.213
 4452.00    1.23637   1.20779    0.210
 4453.00    1.21152   1.17576    0.209
 4454.00    1.18640   1.14864    0.208
 4455.00    1.18734   1.12485    0.208
 4456.00    1.18955   1.10385    0.208
 4457.00    1.14986   1.08954    0.206
 4458.00    1.10997   1.08399    0.204
 4459.00    1.09961   1.08572    0.204
 4460.00    1.09176   1.09499    0.204
 4461.00    1.13470   1.11149    0.000
 4462.00    1.17415   1.13028    0.000
 4463.00    1.17263   1.14790    0.000
 4464.00    1.17317   1.16560    0.000
 4465.00    1.19036   1.18416    0.000
 4466.00    1.20491   1.19961    0.000
 4467.00    1.20342   1.21035    0.000
 4468.00    1.20744   1.22167    0.000
 4469.00    1.23786   1.23751    0.000
 4470.00    1.26941   1.25730    0.000
 4471.00    1.30538   1.27867    0.000
 4472.00    1.33434   1.29936    0.000
 4473.00    1.34048   1.31836    0.000
 4474.00    1.34519   1.33511    0.000
 4475.00    1.34598   1.34659    0.000
 4476.00    1.33637   1.34770    0.000
 4477.00    1.30227   1.33724    0.000
 4478.00    1.28073   1.32111    0.000
 4479.00    1.28480   1.30670    0.000
 4480.00    1.28821   1.29732    0.000
 4481.00    1.29045   1.29371    0.000
 4482.00    1.28860   1.29569    0.209
 4483.00    1.28040   1.30290    0.210
 4484.00    1.28126   1.31285    0.211
 4485.00    1.29446   1.32025    0.210
 4486.00    1.30134   1.32033    0.208
 4487.00    1.30066   1.31290    0.204
 4488.00    1.29716   1.30246    0.202
 4489.00    1.29067   1.29215    0.204
 4490.00    1.28329   1.28108    0.204
 4491.00    1.27507   1.26850    0.205
 4492.00    1.25590   1.25798    0.204
 4493.00    1.22773   1.25461    0.203
 4494.00    1.23662   1.25840    0.204
 4495.00    1.27232   1.26677    0.206
 4496.00    1.28816   1.27915    0.208
 4497.00    1.29140   1.29620    0.211
 4498.00    1.30416   1.31661    0.211
 4499.00    1.32220   1.33884    0.210
 4500.00    1.33630   1.36446    0.209
 4501.00    1.34848   1.39143    0.208
 4502.00    1.34190   1.41351    0.207
 4503.00    1.32749   1.42845    0.205
 4504.00    1.35534   1.43918    0.206
 4505.00    1.39827   1.44724    0.209
 4506.00    1.43952   1.45019    0.211
 4507.00    1.48027   1.44692    0.213
 4508.00    1.46026   1.43920    0.211
 4509.00    1.42503   1.42788    0.208
 4510.00    1.39241   1.41347    0.206
 4511.00    1.36031   1.39798    0.204
 4512.00    1.34620   1.38390    0.202
 4513.00    1.33495   1.37255    0.201
 4514.00    1.33844   1.36325    0.203
 4515.00    1.34368   1.35532    0.205
 4516.00    1.33773   1.35148    0.205
 4517.00    1.33088   1.35387    0.206
 4518.00    1.33883   1.35854    0.205
 4519.00    1.34746   1.35838    0.205
 4520.00    1.34417   1.35001    0.205
 4521.00    1.34055   1.33657    0.205
 4522.00    1.32738   1.31894    0.206
 4523.00    1.31438   1.29341    0.207
 4524.00    1.30459   1.26013    0.204
 4525.00    1.29376   1.22561    0.201
 4526.00    1.27138   1.19632    0.202
 4527.00    1.24945   1.17369    0.202
 4528.00    1.23098   1.15783    0.200
 4529.00    1.21221   1.15083    0.198
 4530.00    1.19161   1.15341    0.197
 4531.00    1.17635   1.16115    0.197
 4532.00    1.18614   1.17115    0.199
 4533.00    1.19549   1.18552    0.201
 4534.00    1.20316   1.20775    0.200
 4535.00    1.21319   1.23373    0.201
 4536.00    1.23072   1.25496    0.206
 4537.00    1.24780   1.27037    0.209
 4538.00    1.26366   1.28385    0.204
 4539.00    1.28257   1.29676    0.202
 4540.00    1.30854   1.30540    0.203
 4541.00    1.32712   1.30629    0.203
 4542.00    1.33092   1.30034    0.202
 4543.00    1.32525   1.29357    0.202
 4544.00    1.30306   1.29065    0.204
 4545.00    1.28999   1.28796    0.206
 4546.00    1.29088   1.28057    0.206
 4547.00    1.29118   1.27132    0.206
 4548.00    1.29072   1.26716    0.206
 4549.00    1.27913   1.26717    0.205
 4550.00    1.25438   1.26580    0.000
 4551.00    1.23961   1.26412    0.000
 4552.00    1.23524   1.26700    0.000
 4553.00    1.24292   1.27618    0.000
 4554.00    1.26169   1.29036    0.000
 4555.00    1.28005   1.30820    0.000
 4556.00    1.29806   1.32672    0.000
 4557.00    1.32068   1.34332    0.000
 4558.00    1.34659   1.35737    0.000
 4559.00    1.35212   1.36816    0.000
 4560.00    1.34489   1.37245    0.000
 4561.00    1.35438   1.36771    0.000
 4562.00    1.37301   1.35794    0.000
 4563.00    1.38213   1.35046    0.000
 4564.00    1.38673   1.34830    0.000
 4565.00    1.36843   1.34936    0.000
 4566.00    1.34073   1.35151    0.000
 4567.00    1.35019   1.35534    0.000
 4568.00    1.37266   1.35997    0.000
 4569.00    1.37627   1.36306    0.000
 4570.00    1.37431   1.36656    0.000
 4571.00    1.38555   1.37130    0.000
 4572.00    1.40003   1.37196    0.000
 4573.00    1.38317   1.36735    0.000
 4574.00    1.36010   1.36342    0.000
 4575.00    1.35539   1.36019    0.000
 4576.00    1.35352   1.35031    0.000
 4577.00    1.35516   1.33268    0.000
 4578.00    1.35720   1.31426    0.000
 4579.00    1.32754   1.30021    0.000
 4580.00    1.29544   1.29051    0.000
 4581.00    1.32088   1.28293    0.000
 4582.00    1.34872   1.27890    0.000
 4583.00    1.34717   1.28116    0.000
 4584.00    1.34533   1.28906    0.000
 4585.00    1.34182   1.30051    0.000
 4586.00    1.33873   1.31258    0.000
 4587.00    1.34312   1.32217    0.000
 4588.00    1.34809   1.32669    0.000
 4589.00    1.35943   1.32648    0.000
 4590.00    1.36765   1.32282    0.000
 4591.00    1.35230   1.31586    0.000
 4592.00    1.33388   1.30506    0.000
 4593.00    1.29777   1.29234    0.000
 4594.00    1.26884   1.28237    0.000
 4595.00    1.27273   1.27716    0.000
 4596.00    1.27767   1.27534    0.000
 4597.00    1.28658   1.27520    0.000
 4598.00    1.29354   1.27508    0.000
 4599.00    1.29438   1.27710    0.000
 4600.00    1.30044   1.28275    0.000
 4601.00    1.32034   1.28973    0.000
 4602.00    1.32550   1.29646    0.000
 4603.00    1.29705   1.30540    0.000
 4604.00    1.28973   1.31974    0.000
 4605.00    1.32407   1.33822    0.000
 4606.00    1.36331   1.35827    0.000
 4607.00    1.41096   1.37625    0.000
 4608.00    1.43016   1.38998    0.000
 4609.00    1.40653   1.40012    0.000
 4610.00    1.39436   1.40714    0.000
 4611.00    1.39734   1.41000    0.000
 4612.00    1.39050   1.40997    0.000
 4613.00    1.37221   1.40949    0.000
 4614.00    1.37823   1.40940    0.000
 4615.00    1.40922   1.41112    0.000
 4616.00    1.43086   1.41345    0.000
 4617.00    1.44403   1.41440    0.000
 4618.00    1.42781   1.41582    0.000
 4619.00    1.38812   1.41844    0.000
 4620.00    1.37473   1.41808    0.000
 4621.00    1.37983   1.41561    0.000
 4622.00    1.40733   1.41465    0.000
 4623.00    1.44864   1.41275    0.000
 4624.00    1.45324   1.40871    0.000
 4625.00    1.43806   1.40635    0.000
 4626.00    1.42184   1.40428    0.000
 4627.00    1.40513   1.39896    0.000
 4628.00    1.40574   1.39464    0.000
 4629.00    1.41335   1.39366    0.000
 4630.00    1.41105   1.38869    0.000
 4631.00    1.40535   1.37708    0.000
 4632.00    1.39772   1.36567    0.000
 4633.00    1.38954   1.35603    0.000
 4634.00    1.36087   1.34284    0.000
 4635.00    1.32731   1.32623    0.000
 4636.00    1.31050   1.31197    0.000
 4637.00    1.29693   1.30111    0.000
 4638.00    1.27563   1.29175    0.000
 4639.00    1.25318   1.28508    0.000
 4640.00    1.25783   1.27933    0.000
 4641.00    1.26546   1.27103    0.000
 4642.00    1.28249   1.26118    0.000
 4643.00    1.30019   1.25147    0.000
 4644.00    1.28943   1.23973    0.000
 4645.00    1.27760   1.22842    0.000
 4646.00    1.26673   1.22350    0.000
 4647.00    1.25608   1.22559    0.000
 4648.00    1.25319   1.23192    0.000
 4649.00    1.25306   1.24252    0.000
 4650.00    1.29813   1.25738    0.000
 4651.00    1.33958   1.27293    0.000
 4652.00    1.34408   1.28483    0.000
 4653.00    1.34510   1.29453    0.000
 4654.00    1.32066   1.30510    0.000
 4655.00    1.30613   1.31713    0.000
 4656.00    1.34696   1.32966    0.000
 4657.00    1.37874   1.34157    0.000
 4658.00    1.37012   1.35037    0.000
 4659.00    1.36363   1.35242    0.000
 4660.00    1.36494   1.34569    0.000
 4661.00    1.36259   1.32995    0.000
 4662.00    1.34901   1.30802    0.000
 4663.00    1.33011   1.28151    0.000
 4664.00    1.29731   1.25054    0.000
 4665.00    1.27363   1.22142    0.000
 4666.00    1.27040   1.20428    0.000
 4667.00    1.26798   1.20045    0.000
 4668.00    1.26714   1.20386    0.000
 4669.00    1.26156   1.21327    0.000
 4670.00    1.24795   1.22972    0.000
 4671.00    1.24414   1.24948    0.000
 4672.00    1.25485   1.26721    0.000
 4673.00    1.27143   1.28142    0.000
 4674.00    1.29567   1.29160    0.000
 4675.00    1.31140   1.29483    0.000
 4676.00    1.31738   1.29172    0.000
 4677.00    1.30845   1.28702    0.000
 4678.00    1.28439   1.28235    0.000
 4679.00    1.26835   1.27596    0.000
 4680.00    1.25947   1.27038    0.000
 4681.00    1.26311   1.26968    0.000
 4682.00    1.27662   1.27170    0.000
 4683.00    1.28492   1.27409    0.000
 4684.00    1.28963   1.27758    0.000
 4685.00    1.29728   1.28071    0.000
 4686.00    1.30671   1.28181    0.000
 4687.00    1.30824   1.28243    0.000
 4688.00    1.30557   1.28262    0.000
 4689.00    1.29390   1.28170    0.000
 4690.00    1.27809   1.28258    0.000
 4691.00    1.26551   1.28587    0.000
 4692.00    1.25421   1.28836    0.000
 4693.00    1.24974   1.29011    0.000
 4694.00    1.24758   1.29148    0.000
 4695.00    1.25550   1.28801    0.000
 4696.00    1.26627   1.27763    0.000
 4697.00    1.27691   1.26603    0.000
 4698.00    1.28752   1.25654    0.000
 4699.00    1.27324   1.24511    0.000
 4700.00    1.25427   1.23143    0.000
 4701.00    1.22936   1.22183    0.000
 4702.00    1.20358   1.22034    0.000
 4703.00    1.21268   1.22152    0.000
 4704.00    1.22548   1.22109    0.000
 4705.00    1.25093   1.22157    0.000
 4706.00    1.27724   1.22608    0.000
 4707.00    1.25725   1.23167    0.000
 4708.00    1.23568   1.23697    0.000
 4709.00    1.26969   1.24455    0.000
 4710.00    1.30262   1.25351    0.000
 4711.00    1.29742   1.26142    0.000
 4712.00    1.29273   1.26948    0.000
 4713.00    1.29593   1.28228    0.000
 4714.00    1.30042   1.29933    0.000
 4715.00    1.31757   1.31545    0.000
 4716.00    1.33332   1.33009    0.000
 4717.00    1.33909   1.34778    0.000
 4718.00    1.34880   1.36684    0.000
 4719.00    1.37996   1.37988    0.000
 4720.00    1.40532   1.38466    0.000
 4721.00    1.40547   1.38481    0.000
 4722.00    1.40340   1.38156    0.000
 4723.00    1.39338   1.37218    0.000
 4724.00    1.38148   1.35436    0.000
 4725.00    1.36397   1.33039    0.000
 4726.00    1.34902   1.30724    0.000
 4727.00    1.34066   1.28831    0.000
 4728.00    1.33095   1.27204    0.000
 4729.00    1.31828   1.25967    0.000
 4730.00    1.30915   1.25536    0.000
 4731.00    1.30681   1.25879    0.000
 4732.00    1.30676   1.26740    0.000
 4733.00    1.31054   1.27905    0.000
 4734.00    1.31370   1.28836    0.000
 4735.00    1.31595   1.29624    0.000
 4736.00    1.32300   1.30844    0.000
 4737.00    1.33624   1.32046    0.000
 4738.00    1.34592   1.32498    0.000
 4739.00    1.35158   1.32822    0.000
 4740.00    1.34891   1.33768    0.000
 4741.00    1.33791   1.34741    0.000
 4742.00    1.35347   1.35114    0.000
 4743.00    1.39245   1.35378    0.000
 4744.00    1.39862   1.36153    0.000
 4745.00    1.37934   1.36940    0.000
 4746.00    1.38759   1.37105    0.000
 4747.00    1.41463   1.37004    0.000
 4748.00    1.41535   1.37015    0.000
 4749.00    1.40032   1.36700    0.000
 4750.00    1.38974   1.35786    0.000
 4751.00    1.38149   1.34779    0.000
 4752.00    1.37157   1.33872    0.000
 4753.00    1.36088   1.33005    0.000
 4754.00    1.35501   1.32217    0.000
 4755.00    1.35101   1.31615    0.000
 4756.00    1.35241   1.31113    0.000
 4757.00    1.35559   1.30751    0.000
 4758.00    1.36082   1.30382    0.000
 4759.00    1.36661   1.29538    0.000
 4760.00    1.36742   1.28278    0.000
 4761.00    1.36710   1.27180    0.204
 4762.00    1.33215   1.26199    0.204
 4763.00    1.29086   1.25026    0.204
 4764.00    1.28162   1.24161    0.202
 4765.00    1.27689   1.24178    0.201
 4766.00    1.28768   1.24792    0.201
 4767.00    1.30003   1.25773    0.202
 4768.00    1.32615   1.27171    0.202
 4769.00    1.35315   1.28630    0.202
 4770.00    1.35504   1.29997    0.202
 4771.00    1.35626   1.31599    0.202
 4772.00    1.40330   1.33300    0.203
 4773.00    1.44785   1.34406    0.204
 4774.00    1.42026   1.35063    0.201
 4775.00    1.39282   1.35940    0.199
 4776.00    1.36758   1.36638    0.199
 4777.00    1.34616   1.36424    0.199
 4778.00    1.36066   1.35751    0.198
 4779.00    1.37302   1.35173    0.198
 4780.00    1.37078   1.34123    0.199
 4781.00    1.37090   1.32521    0.200
 4782.00    1.38350   1.31327    0.197
 4783.00    1.38719   1.30518    0.196
 4784.00    1.35298   1.29390    0.195
 4785.00    1.32773   1.28572    0.196
 4786.00    1.33394   1.28681    0.198
 4787.00    1.33932   1.29038    0.199
 4788.00    1.34225   1.29473    0.198
 4789.00    1.34113   1.30568    0.197
 4790.00    1.32985   1.32087    0.196
 4791.00    1.33401   1.33576    0.195
 4792.00    1.37169   1.35121    0.197
 4793.00    1.39241   1.36441    0.197
 4794.00    1.38121   1.37128    0.196
 4795.00    1.38478   1.37402    0.196
 4796.00    1.41263   1.37384    0.196
 4797.00    1.42584   1.36915    0.197
 4798.00    1.41798   1.36224    0.199
 4799.00    1.39291   1.35793    0.199
 4800.00    1.34604   1.35636    0.197
 4801.00    1.33387   1.35383    0.197
 4802.00    1.36046   1.34934    0.198
 4803.00    1.37174   1.34512    0.198
 4804.00    1.36793   1.34258    0.197
 4805.00    1.36713   1.33739    0.198
 4806.00    1.36895   1.32973    0.199
 4807.00    1.36248   1.32573    0.199
 4808.00    1.34967   1.32712    0.199
 4809.00    1.34769   1.32907    0.198
 4810.00    1.35302   1.33211    0.196
 4811.00    1.35109   1.33911    0.196
 4812.00    1.34490   1.34840    0.198
 4813.00    1.35898   1.35725    0.197
 4814.00    1.38348   1.36608    0.195
 4815.00    1.40144   1.37468    0.196
 4816.00    1.41648   1.38143    0.198
 4817.00    1.40796   1.38491    0.197
 4818.00    1.39042   1.38432    0.196
 4819.00    1.38689   1.38068    0.195
 4820.00    1.38792   1.37367    0.195
 4821.00    1.39765   1.36157    0.197
 4822.00    1.40976   1.34898    0.200
 4823.00    1.37731   1.34145    0.198
 4824.00    1.33491   1.33586    0.194
 4825.00    1.31937   1.32786    0.194
 4826.00    1.30863   1.32122    0.194
 4827.00    1.31575   1.31984    0.194
 4828.00    1.32531   1.32058    0.194
 4829.00    1.33922   1.31751    0.195
 4830.00    1.35354   1.31226    0.196
 4831.00    1.34975   1.31253    0.194
 4832.00    1.34486   1.31679    0.193
 4833.00    1.35728   1.31679    0.193
 4834.00    1.36989   1.31386    0.194
 4835.00    1.33488   1.31487    0.193
 4836.00    1.30165   1.31545    0.192
 4837.00    1.31463   1.30952    0.192
 4838.00    1.32579   1.30237    0.191
 4839.00    1.31211   1.30060    0.192
 4840.00    1.30036   1.29985    0.193
 4841.00    1.30607   1.29619    0.193
 4842.00    1.31300   1.29594    0.193
 4843.00    1.32806   1.30191    0.191
 4844.00    1.33981   1.30746    0.190
 4845.00    1.33446   1.30849    0.192
 4846.00    1.33032   1.30757    0.193
 4847.00    1.33120   1.30794    0.191
 4848.00    1.33074   1.30778    0.000
 4849.00    1.32567   1.30123    0.000
 4850.00    1.32500   1.28969    0.000
 4851.00    1.33708   1.27977    0.000
 4852.00    1.33245   1.26744    0.000
 4853.00    1.28648   1.24630    0.000
 4854.00    1.25035   1.22345    0.000
 4855.00    1.23521   1.20321    0.000
 4856.00    1.22182   1.17920    0.000
 4857.00    1.21169   1.15234    0.000
 4858.00    1.19309   1.12874    0.000
 4859.00    1.16081   1.11020    0.000
 4860.00    1.13849   1.10055    0.000
 4861.00    1.13035   1.10073    0.000
 4862.00    1.13422   1.10454    0.000
 4863.00    1.15311   1.11440    0.000
 4864.00    1.17267   1.13339    0.000
 4865.00    1.19299   1.15104    0.000
 4866.00    1.20393   1.16060    0.000
 4867.00    1.20576   1.16950    0.000
 4868.00    1.20674   1.17533    0.000
 4869.00    1.20700   1.17155    0.000
 4870.00    1.21076   1.16856    0.000
 4871.00    1.21718   1.17513    0.000
 4872.00    1.21969   1.18232    0.000
 4873.00    1.21961   1.18820    0.000
 4874.00    1.23626   1.20308    0.000
 4875.00    1.26260   1.22325    0.191
 4876.00    1.26914   1.23817    0.190
 4877.00    1.26565   1.25217    0.189
 4878.00    1.27382   1.26488    0.190
 4879.00    1.28709   1.26710    0.192
 4880.00    1.28512   1.26304    0.193
 4881.00    1.27743   1.26059    0.195
 4882.00    1.27385   1.25209    0.193
 4883.00    1.27157   1.23467    0.190
 4884.00    1.25914   1.21891    0.190
 4885.00    1.24401   1.20802    0.189
 4886.00    1.24289   1.19786    0.190
 4887.00    1.24483   1.19078    0.192
 4888.00    1.23687   1.18940    0.192
 4889.00    1.22720   1.19402    0.192
 4890.00    1.20954   1.20998    0.192
 4891.00    1.19083   1.23509    0.192
 4892.00    1.21230   1.26139    0.192
 4893.00    1.23751   1.28812    0.192
 4894.00    1.27695   1.31604    0.194
 4895.00    1.31720   1.33960    0.196
 4896.00    1.34631   1.35514    0.199
 4897.00    1.37483   1.36114    0.203
 4898.00    1.36717   1.35896    0.202
 4899.00    1.35978   1.35574    0.201
 4900.00    1.35862   1.35170    0.200
 4901.00    1.35623   1.34259    0.199
 4902.00    1.33797   1.33416    0.199
 4903.00    1.32278   1.33203    0.199
 4904.00    1.33429   1.32946    0.199
 4905.00    1.34135   1.32167    0.199
 4906.00    1.31974   1.31392    0.197
 4907.00    1.30432   1.30777    0.196
 4908.00    1.32008   1.29960    0.199
 4909.00    1.32477   1.29163    0.201
 4910.00    1.28443   1.28759    0.199
 4911.00    1.26187   1.28456    0.197
 4912.00    1.29932   1.27998    0.197
 4913.00    1.32124   1.27529    0.198
 4914.00    1.29898   1.26742    0.199
 4915.00    1.27801   1.25205    0.200
 4916.00    1.26014   1.23102    0.197
 4917.00    1.23419   1.20891    0.195
 4918.00    1.19126   1.18778    0.195
 4919.00    1.17401   1.17212    0.195
 4920.00    1.20363   1.16736    0.194
 4921.00    1.21213   1.17196    0.194
 4922.00    1.18698   1.18283    0.194
 4923.00    1.19530   1.20332    0.194
 4924.00    1.25047   1.23280    0.196
 4925.00    1.28067   1.26056    0.196
 4926.00    1.28011   1.28368    0.195
 4927.00    1.29908   1.30587    0.195
 4928.00    1.33925   1.32188    0.196
 4929.00    1.36867   1.32886    0.197
 4930.00    1.38781   1.32990    0.196
 4931.00    1.39449   1.32216    0.195
 4932.00    1.39064   1.30697    0.194
 4933.00    1.36945   1.29302    0.193
 4934.00    1.33536   1.27915    0.193
 4935.00    1.31370   1.26242    0.191
 4936.00    1.30015   1.24964    0.188
 4937.00    1.27985   1.24624    0.189
 4938.00    1.25568   1.25132    0.191
 4939.00    1.25964   1.26156    0.192
 4940.00    1.27761   1.27377    0.000
 4941.00    1.30315   1.29101    0.000
 4942.00    1.33196   1.31339    0.000
 4943.00    1.34743   1.33145    0.000
 4944.00    1.35797   1.34330    0.000
 4945.00    1.37084   1.35633    0.000
 4946.00    1.38443   1.36781    0.000
 4947.00    1.38109   1.37148    0.000
 4948.00    1.37333   1.37120    0.000
 4949.00    1.37674   1.37101    0.000
 4950.00    1.38253   1.36536    0.000
 4951.00    1.39097   1.35054    0.000
 4952.00    1.39986   1.33094    0.000
 4953.00    1.36608   1.31232    0.000
 4954.00    1.32688   1.29267    0.000
 4955.00    1.30408   1.26841    0.000
 4956.00    1.28273   1.25077    0.000
 4957.00    1.29700   1.24836    0.000
 4958.00    1.31315   1.25079    0.000
 4959.00    1.30425   1.25091    0.000
 4960.00    1.29512   1.25662    0.000
 4961.00    1.30607   1.26879    0.000
 4962.00    1.31680   1.27503    0.000
 4963.00    1.32255   1.27229    0.000
 4964.00    1.32635   1.26913    0.000
 4965.00    1.30611   1.26826    0.000
 4966.00    1.28904   1.26565    0.000
 4967.00    1.29843   1.26376    0.000
 4968.00    1.30703   1.26697    0.000
 4969.00    1.31077   1.27412    0.000
 4970.00    1.31066   1.28224    0.000
 4971.00    1.29166   1.29009    0.000
 4972.00    1.28265   1.29624    0.000
 4973.00    1.31348   1.29770    0.000
 4974.00    1.34057   1.29389    0.000
 4975.00    1.35533   1.28511    0.000
 4976.00    1.36140   1.26922    0.000
 4977.00    1.34314   1.24737    0.000
 4978.00    1.31295   1.22548    0.000
 4979.00    1.25424   1.20400    0.000
 4980.00    1.21878   1.18045    0.000
 4981.00    1.23134   1.16258    0.000
 4982.00    1.23033   1.15627    0.000
 4983.00    1.20493   1.15532    0.000
 4984.00    1.18840   1.15834    0.000
 4985.00    1.18579   1.17027    0.000
 4986.00    1.19098   1.18688    0.000
 4987.00    1.20690   1.20193    0.000
 4988.00    1.21955   1.21501    0.000
 4989.00    1.22824   1.22628    0.000
 4990.00    1.24452   1.23595    0.000
 4991.00    1.26893   1.24148    0.000
 4992.00    1.27854   1.24203    0.000
 4993.00    1.27416   1.24219    0.000
 4994.00    1.27354   1.24103    0.000
 4995.00    1.27605   1.23440    0.000
 4996.00    1.27810   1.22494    0.000
 4997.00    1.27983   1.21392    0.000
 4998.00    1.26121   1.19957    0.000
 4999.00    1.22948   1.18446    0.000
 5000.00    1.21948   1.16948    0.000
 5001.00    1.22169   1.15432    0.000
 5002.00    1.23295   1.14306    0.000
 5003.00    1.24862   1.13536    0.000
 5004.00    1.25329   1.12819    0.000
 5005.00    1.25329   1.12571    0.000
 5006.00    1.26581   1.12862    0.000
 5007.00    1.28287   1.12920    0.000
 5008.00    1.26399   1.12695    0.000
 5009.00    1.23409   1.12578    0.000
 5010.00    1.23327   1.12267    0.000
 5011.00    1.23988   1.11539    0.000
 5012.00    1.20043   1.10683    0.000
 5013.00    1.15140   1.10088    0.000
 5014.00    1.14252   1.09848    0.000
 5015.00    1.14021   1.09763    0.000
 5016.00    1.14242   1.09835    0.000
 5017.00    1.14518   1.10373    0.000
 5018.00    1.15946   1.11266    0.000
 5019.00    1.17472   1.12001    0.000
 5020.00    1.15799   1.12618    0.000
 5021.00    1.13970   1.13546    0.000
 5022.00    1.14598   1.14506    0.000
 5023.00    1.15289   1.15260    0.000
 5024.00    1.17560   1.16171    0.000
 5025.00    1.19805   1.17130    0.000
 5026.00    1.21495   1.18060    0.000
 5027.00    1.22991   1.19273    0.000
 5028.00    1.22229   1.20549    0.000
 5029.00    1.21662   1.21465    0.190
 5030.00    1.22674   1.22187    0.187
 5031.00    1.23597   1.22761    0.185
 5032.00    1.23972   1.22745    0.185
 5033.00    1.24027   1.21830    0.184
 5034.00    1.22547   1.20296    0.184
 5035.00    1.20959   1.18607    0.183
 5036.00    1.18943   1.16625    0.182
 5037.00    1.16651   1.14535    0.182
 5038.00    1.13461   1.12986    0.182
 5039.00    1.11293   1.12109    0.182
 5040.00    1.11930   1.12125    0.181
 5041.00    1.13106   1.13155    0.180
 5042.00    1.15548   1.14564    0.180
 5043.00    1.17697   1.16074    0.180
 5044.00    1.19248   1.17940    0.178
 5045.00    1.19767   1.19472    0.178
 5046.00    1.18460   1.19974    0.178
 5047.00    1.18522   1.20068    0.179
 5048.00    1.20701   1.20203    0.180
 5049.00    1.21811   1.20091    0.181
 5050.00    1.21468   1.19917    0.183
 5051.00    1.22038   1.20286    0.184
 5052.00    1.23701   1.21245    0.184
 5053.00    1.24467   1.22428    0.183
 5054.00    1.24286   1.23667    0.182
 5055.00    1.24044   1.25041    0.181
 5056.00    1.23746   1.26394    0.181
 5057.00    1.25466   1.27343    0.182
 5058.00    1.28843   1.27796    0.184
 5059.00    1.29019   1.27793    0.183
 5060.00    1.26883   1.27342    0.181
 5061.00    1.25491   1.26519    0.182
 5062.00    1.24572   1.25166    0.185
 5063.00    1.24594   1.23468    0.185
 5064.00    1.25137   1.22114    0.184
 5065.00    1.23960   1.21058    0.183
 5066.00    1.21953   1.19805    0.184
 5067.00    1.21144   1.18882    0.185
 5068.00    1.20835   1.18859    0.186
 5069.00    1.19974   1.18870    0.186
 5070.00    1.18917   1.18414    0.185
 5071.00    1.17956   1.18302    0.185
 5072.00    1.17025   1.18543    0.185
 5073.00    1.19322   1.18108    0.186
 5074.00    1.22424   1.17024    0.187
 5075.00    1.22069   1.16241    0.188
 5076.00    1.21014   1.15508    0.189
 5077.00    1.18534   1.14070    0.187
 5078.00    1.15828   1.12655    0.185
 5079.00    1.13931   1.12124    0.184
 5080.00    1.12130   1.11966    0.184
 5081.00    1.13961   1.11825    0.185
 5082.00    1.16084   1.12389    0.185
 5083.00    1.17664   1.13760    0.183
 5084.00    1.19220   1.15217    0.180
 5085.00    1.17819   1.16577    0.182
 5086.00    1.16476   1.18093    0.184
 5087.00    1.19813   1.19666    0.182
 5088.00    1.22874   1.20926    0.180
 5089.00    1.20786   1.21762    0.181
 5090.00    1.18925   1.22357    0.182
 5091.00    1.19581   1.22695    0.181
 5092.00    1.20126   1.22503    0.181
 5093.00    1.19812   1.21729    0.181
 5094.00    1.19424   1.20658    0.182
 5095.00    1.18607   1.19545    0.184
 5096.00    1.17533   1.18304    0.186
 5097.00    1.15256   1.17023    0.184
 5098.00    1.13672   1.16184    0.182
 5099.00    1.14723   1.15826    0.184
 5100.00    1.15892   1.15619    0.185
 5101.00    1.17434   1.15516    0.182
 5102.00    1.18249   1.15525    0.180
 5103.00    1.17106   1.15536    0.181
 5104.00    1.16696   1.15383    0.183
 5105.00    1.17979   1.14931    0.184
 5106.00    1.18377   1.14626    0.185
 5107.00    1.17003   1.14663    0.185
 5108.00    1.16113   1.14646    0.184
 5109.00    1.16068   1.14952    0.181
 5110.00    1.17279   1.15905    0.181
 5111.00    1.20408   1.16960    0.182
 5112.00    1.21484   1.18089    0.183
 5113.00    1.19808   1.19467    0.182
 5114.00    1.19125   1.20610    0.183
 5115.00    1.19615   1.21307    0.186
 5116.00    1.21163   1.21709    0.188
 5117.00    1.23811   1.21572    0.189
 5118.00    1.23605   1.20692    0.187
 5119.00    1.20778   1.19367    0.184
 5120.00    1.19315   1.17807    0.181
 5121.00    1.18955   1.15931    0.178
 5122.00    1.17577   1.13963    0.177
 5123.00    1.15474   1.12391    0.178
 5124.00    1.15077   1.11225    0.180
 5125.00    1.15746   1.10327    0.182
 5126.00    1.14503   1.10026    0.180
 5127.00    1.12217   1.10319    0.176
 5128.00    1.11409   1.10790    0.175
 5129.00    1.11303   1.11541    0.176
 5130.00    1.13069   1.12651    0.178
 5131.00    1.15602   1.13531    0.182
 5132.00    1.15784   1.14155    0.181
 5133.00    1.15145   1.14807    0.178
 5134.00    1.15155   1.14920    0.177
 5135.00    1.15358   1.14596    0.176
 5136.00    1.15700   1.14318    0.177
 5137.00    1.16076   1.13549    0.179
 5138.00    1.15710   1.12597    0.179
 5139.00    1.15196   1.12155    0.177
 5140.00    1.14347   1.11481    0.179
 5141.00    1.13445   1.10608    0.181
 5142.00    1.11454   1.10414    0.179
 5143.00    1.09339   1.10244    0.176
 5144.00    1.08461   1.09718    0.177
 5145.00    1.07678   1.09562    0.178
 5146.00    1.12701   1.09575    0.180
 5147.00    1.17963   1.09419    0.183
 5148.00    1.16652   1.09402    0.182
 5149.00    1.15241   1.09530    0.180
 5150.00    1.11897   1.09829    0.181
 5151.00    1.08784   1.10389    0.182
 5152.00    1.09654   1.11117    0.182
 5153.00    1.10649   1.12078    0.181
 5154.00    1.12976   1.13217    0.182
 5155.00    1.15313   1.14399    0.183
 5156.00    1.17730   1.15435    0.186
 5157.00    1.19578   1.15928    0.189
 5158.00    1.18170   1.15900    0.186
 5159.00    1.16696   1.15290    0.183
 5160.00    1.14929   1.13570    0.182
 5161.00    1.12432   1.10925    0.181
 5162.00    1.07216   1.07784    0.180
 5163.00    1.03165   1.03971    0.180
 5164.00    1.02747   0.99780    0.181
 5165.00    1.00991   0.95922    0.181
 5166.00    0.95692   0.92431    0.179
 5167.00    0.91814   0.89414    0.178
 5168.00    0.91166   0.87506    0.176
 5169.00    0.90087   0.86736    0.176
 5170.00    0.88156   0.86675    0.177
 5171.00    0.88184   0.87511    0.178
 5172.00    0.91572   0.89493    0.178
 5173.00    0.93692   0.91985    0.178
 5174.00    0.93904   0.94349    0.177
 5175.00    0.96758   0.96708    0.177
 5176.00    1.03099   0.98829    0.178
 5177.00    1.06957   0.99893    0.177
 5178.00    1.07927   0.99765    0.176
 5179.00    1.05792   0.99147    0.174
 5180.00    1.00472   0.98283    0.173
 5181.00    0.97797   0.97036    0.173
 5182.00    0.97515   0.96167    0.174
 5183.00    0.97203   0.96367    0.173
 5184.00    0.96867   0.97351    0.170
 5185.00    0.98502   0.98953    0.171
 5186.00    1.01522   1.00977    0.174
 5187.00    1.05598   1.02988    0.175
 5188.00    1.10323   1.04946    0.176
 5189.00    1.12637   1.06407    0.177
 5190.00    1.13657   1.06967    0.000
 5191.00    1.12229   1.07537    0.000
 5192.00    1.09659   1.08335    0.000
 5193.00    1.09951   1.08631    0.000
 5194.00    1.11396   1.09107    0.000
 5195.00    1.13957   1.10324    0.000
 5196.00    1.16902   1.11313    0.000
 5197.00    1.16746   1.11889    0.000
 5198.00    1.15694   1.12559    0.000
 5199.00    1.15988   1.12714    0.000
 5200.00    1.16605   1.11877    0.000
 5201.00    1.16680   1.10710    0.000
 5202.00    1.16651   1.09280    0.000
 5203.00    1.15814   1.07185    0.000
 5204.00    1.14857   1.05246    0.000
 5205.00    1.10458   1.04086    0.000
 5206.00    1.05682   1.03198    0.000
 5207.00    1.04595   1.02922    0.000
 5208.00    1.03774   1.03860    0.000
 5209.00    1.05920   1.05348    0.000
 5210.00    1.08176   1.06993    0.000
 5211.00    1.10563   1.09058    0.176
 5212.00    1.12942   1.11143    0.177
 5213.00    1.15016   1.12820    0.178
 5214.00    1.16990   1.14261    0.178
 5215.00    1.17328   1.15474    0.177
 5216.00    1.17927   1.16364    0.176
 5217.00    1.21178   1.16966    0.179
 5218.00    1.23893   1.17184    0.181
 5219.00    1.22704   1.16973    0.181
 5220.00    1.21469   1.16398    0.182
 5221.00    1.19971   1.15275    0.182
 5222.00    1.18286   1.13660    0.182
 5223.00    1.15777   1.12166    0.181
 5224.00    1.13724   1.10830    0.181
 5225.00    1.13344   1.09573    0.181
 5226.00    1.13176   1.09189    0.182
 5227.00    1.13657   1.09617    0.183
 5228.00    1.13581   1.10148    0.183
 5229.00    1.12055   1.11242    0.181
 5230.00    1.12403   1.12813    0.181
 5231.00    1.16941   1.14055    0.183
 5232.00    1.19248   1.15348    0.184
 5233.00    1.17232   1.16876    0.183
 5234.00    1.16847   1.18136    0.181
 5235.00    1.19216   1.19377    0.180
 5236.00    1.21979   1.20764    0.180
 5237.00    1.25326   1.21892    0.183
 5238.00    1.26398   1.22729    0.185
 5239.00    1.24508   1.23417    0.185
 5240.00    1.24621   1.23804    0.183
 5241.00    1.27030   1.23646    0.181
 5242.00    1.27683   1.23068    0.180
 5243.00    1.26560   1.22400    0.179
 5244.00    1.24306   1.21384    0.178
 5245.00    1.21042   1.19860    0.177
 5246.00    1.20399   1.18546    0.177
 5247.00    1.21816   1.17560    0.178
 5248.00    1.22359   1.16435    0.178
 5249.00    1.22296   1.15661    0.178
 5250.00    1.21961   1.15610    0.177
 5251.00    1.21459   1.15842    0.175
 5252.00    1.20607   1.16313    0.175
 5253.00    1.19571   1.17097    0.177
 5254.00    1.19562   1.17996    0.177
 5255.00    1.20024   1.18787    0.176
 5256.00    1.21690   1.19116    0.176
 5257.00    1.23832   1.18837    0.176
 5258.00    1.22463   1.17907    0.176
 5259.00    1.19910   1.16195    0.175
 5260.00    1.19864   1.13724    0.175
 5261.00    1.20527   1.10653    0.175
 5262.00    1.17261   1.07486    0.177
 5263.00    1.13077   1.04563    0.179
 5264.00    1.09673   1.01665    0.180
 5265.00    1.06414   0.99393    0.181
 5266.00    1.06850   0.98382    0.180
 5267.00    1.07821   0.97810    0.179
 5268.00    1.04448   0.97718    0.179
 5269.00    1.00618   0.99083    0.179
 5270.00    1.01281   1.01040    0.179
 5271.00    1.02251   1.02917    0.180
 5272.00    1.06535   1.05603    0.182
 5273.00    1.10931   1.08618    0.184
 5274.00    1.12716   1.11046    0.182
 5275.00    1.14503   1.13418    0.180
 5276.00    1.16470   1.15608    0.181
 5277.00    1.18402   1.17060    0.182
 5278.00    1.19808   1.18111    0.181
 5279.00    1.20991   1.18867    0.180
 5280.00    1.19993   1.19356    0.179
 5281.00    1.19134   1.19894    0.179
 5282.00    1.19261   1.20517    0.182
 5283.00    1.19615   1.21419    0.184
 5284.00    1.21207   1.22739    0.182
 5285.00    1.22724   1.24140    0.181
 5286.00    1.23915   1.25505    0.182
 5287.00    1.25767   1.26824    0.184
 5288.00    1.29986   1.27757    0.185
 5289.00    1.33143   1.28119    0.185
 5290.00    1.33114   1.27953    0.184
 5291.00    1.32774   1.27226    0.184
 5292.00    1.31637   1.25948    0.184
 5293.00    1.29867   1.24286    0.184
 5294.00    1.26704   1.22513    0.182
 5295.00    1.24191   1.20797    0.181
 5296.00    1.22919   1.19274    0.182
 5297.00    1.21044   1.18366    0.181
 5298.00    1.18167   1.18214    0.178
 5299.00    1.16937   1.18533    0.176
 5300.00    1.18112   1.19484    0.176
 5301.00    1.19804   1.21108    0.175
 5302.00    1.22159   1.22847    0.173
 5303.00    1.24501   1.24577    0.173
 5304.00    1.26828   1.26383    0.176
 5305.00    1.28229   1.27883    0.177
 5306.00    1.28709   1.28982    0.176
 5307.00    1.31207   1.29875    0.176
 5308.00    1.35480   1.30387    0.176
 5309.00    1.35746   1.30494    0.176
 5310.00    1.32906   1.30443    0.175
 5311.00    1.30566   1.30115    0.174
 5312.00    1.28567   1.29504    0.173
 5313.00    1.28434   1.28879    0.173
 5314.00    1.29414   1.28131    0.172
 5315.00    1.30003   1.27223    0.172
 5316.00    1.30387   1.26377    0.174
 5317.00    1.30738   1.25457    0.173
 5318.00    1.31074   1.24345    0.172
 5319.00    1.30321   1.23086    0.172
 5320.00    1.29146   1.21601    0.174
 5321.00    1.26363   1.19930    0.172
 5322.00    1.23048   1.17997    0.169
 5323.00    1.20883   1.15836    0.168
 5324.00    1.19036   1.13928    0.169
 5325.00    1.17672   1.12333    0.168
 5326.00    1.16418   1.10956    0.168
 5327.00    1.14848   1.10397    0.170
 5328.00    1.13220   1.10817    0.172
 5329.00    1.13129   1.11742    0.172
 5330.00    1.13254   1.13249    0.172
 5331.00    1.16047   1.15270    0.172
 5332.00    1.19109   1.17252    0.172
 5333.00    1.19902   1.19002    0.172
 5334.00    1.20548   1.20381    0.172
 5335.00    1.22700   1.21140    0.172
 5336.00    1.24887   1.21416    0.172
 5337.00    1.23477   1.21400    0.173
 5338.00    1.22142   1.20961    0.174
 5339.00    1.22963   1.20414    0.175
 5340.00    1.23679   1.20181    0.175
 5341.00    1.22890   1.19921    0.175
 5342.00    1.22111   1.19752    0.175
 5343.00    1.21425   1.19988    0.175
 5344.00    1.20827   1.20170    0.176
 5345.00    1.20831   1.20430    0.173
 5346.00    1.20791   1.21025    0.171
 5347.00    1.20519   1.21611    0.170
 5348.00    1.20274   1.22411    0.170
 5349.00    1.20140   1.23633    0.172
 5350.00    1.20213   1.24994    0.174
 5351.00    1.21010   1.26445    0.174
 5352.00    1.22464   1.28037    0.173
 5353.00    1.25860   1.29593    0.172
 5354.00    1.28664   1.30811    0.171
 5355.00    1.29982   1.31696    0.172
 5356.00    1.31573   1.32268    0.173
 5357.00    1.33758   1.32267    0.173
 5358.00    1.34943   1.31811    0.173
 5359.00    1.34249   1.31047    0.174
 5360.00    1.33267   1.29802    0.173
 5361.00    1.31812   1.28347    0.169
 5362.00    1.30122   1.26825    0.168
 5363.00    1.28094   1.25027    0.169
 5364.00    1.26689   1.23285    0.169
 5365.00    1.26073   1.21705    0.167
 5366.00    1.25012   1.20072    0.166
 5367.00    1.23458   1.18772    0.166
 5368.00    1.21980   1.17962   -2.000
 5369.00    1.20577   1.17459   -2.000
 5370.00    1.20417   1.17548   -2.000
 5371.00    1.21335   1.18361   -2.000
 5372.00    1.22712   1.19461   -2.000
 5373.00    1.24440   1.20818   -2.000
 5374.00    1.25320   1.22475   -2.000
 5375.00    1.25631   1.23849   -2.000
 5376.00    1.25724   1.24882   -2.000
 5377.00    1.25689   1.25790   -2.000
 5378.00    1.26267   1.26199   -2.000
 5379.00    1.27159   1.26210   -2.000
 5380.00    1.26964   1.26211   -2.000
 5381.00    1.26285   1.25950   -2.000
 5382.00    1.26054   1.25472   -2.000
 5383.00    1.25993   1.25124    0.168
 5384.00    1.26685   1.24620    0.169
 5385.00    1.27620   1.23878    0.169
 5386.00    1.27471   1.23160    0.171
 5387.00    1.27027   1.22267    0.172
 5388.00    1.26252   1.21159    0.171
 5389.00    1.25403   1.20023    0.169
 5390.00    1.22525   1.18853    0.168
 5391.00    1.19286   1.17736    0.167
 5392.00    1.18254   1.16642    0.168
 5393.00    1.17522   1.15685    0.169
 5394.00    1.17552   1.15103    0.170
 5395.00    1.17656   1.14547    0.170
 5396.00    1.17973   1.14124    0.170
 5397.00    1.18303   1.14142    0.169
 5398.00    1.17213   1.14020    0.169
 5399.00    1.16099   1.13706    0.170
 5400.00    1.17096   1.13535    0.169
 5401.00    1.17929   1.13068    0.168
 5402.00    1.14571   1.12278    0.166
 5403.00    1.11482   1.11632    0.164
 5404.00    1.12040   1.11058    0.163
 5405.00    1.12448   1.10595    0.163
 5406.00    1.11514   1.10648    0.162
 5407.00    1.10755   1.11174    0.162
 5408.00    1.11156   1.12024    0.163
 5409.00    1.11868   1.13359    0.163
 5410.00    1.14183   1.15005    0.163
 5411.00    1.16146   1.16679    0.162
 5412.00    1.16645   1.18441    0.161
 5413.00    1.17433   1.20075    0.160
 5414.00    1.19216   1.21414    0.161
 5415.00    1.20949   1.22542    0.161
 5416.00    1.22537   1.23247    0.159
 5417.00    1.23988   1.23618    0.158
 5418.00    1.25103   1.23819    0.161
 5419.00    1.25707   1.23614    0.163
 5420.00    1.25222   1.23300    0.161
 5421.00    1.24380   1.23050    0.159
 5422.00    1.22878   1.22492    0.160
 5423.00    1.21736   1.22008    0.160
 5424.00    1.21179   1.21616    0.160
 5425.00    1.21218   1.20800    0.159
 5426.00    1.22102   1.20093    0.160
 5427.00    1.22590   1.19373    0.160
 5428.00    1.22584   1.18235    0.160
 5429.00    1.22513   1.17424    0.160
 5430.00    1.22371   1.16767    0.160
 5431.00    1.21928   1.16077    0.161
 5432.00    1.21194   1.16034    0.163
 5433.00    1.20355   1.16395    0.162
 5434.00    1.19425   1.17056    0.160
 5435.00    1.18823   1.18274    0.159
 5436.00    1.18467   1.19748    0.160
 5437.00    1.20124   1.21264    0.161
 5438.00    1.23113   1.22705    0.163
 5439.00    1.25153   1.23799    0.163
 5440.00    1.26643   1.24390    0.163
 5441.00    1.26542   1.24467    0.162
 5442.00    1.25639   1.23957    0.161
 5443.00    1.24790   1.23063    0.161
 5444.00    1.23965   1.22071    0.161
 5445.00    1.23400   1.20942    0.164
 5446.00    1.22934   1.20038    0.167
 5447.00    1.22075   1.19479    0.166
 5448.00    1.21091   1.18966    0.163
 5449.00    1.20196   1.18729    0.161
 5450.00    1.19324   1.18616    0.160
 5451.00    1.19836   1.18309    0.162
 5452.00    1.20649   1.18129    0.164
 5453.00    1.19919   1.17972    0.162
 5454.00    1.18923   1.17748    0.160
 5455.00    1.20313   1.17785    0.161
 5456.00    1.22015   1.17894    0.162
 5457.00    1.20992   1.18072    0.161
 5458.00    1.19718   1.18372    0.160
 5459.00    1.18609   1.18522    0.158
 5460.00    1.17510   1.18712    0.157
 5461.00    1.18090   1.18853    0.159
 5462.00    1.18713   1.18819    0.161
 5463.00    1.19944   1.18938    0.158
 5464.00    1.21081   1.19031    0.156
 5465.00    1.20006   1.19002    0.155
 5466.00    1.19066   1.19005    0.154
 5467.00    1.19867   1.18904    0.153
 5468.00    1.20782   1.18579    0.153
 5469.00    1.22685   1.18003    0.153
 5470.00    1.24192   1.17355    0.154
 5471.00    1.23169   1.16560    0.155
 5472.00    1.22271   1.15514    0.156
 5473.00    1.22000   1.14673    0.156
 5474.00    1.21566   1.13968    0.156
 5475.00    1.20471   1.13278    0.158
 5476.00    1.19003   1.13017    0.160
 5477.00    1.16276   1.13022    0.158
 5478.00    1.14219   1.13217   -2.000
 5479.00    1.14065   1.13724   -2.000
 5480.00    1.14535   1.14359   -2.000
 5481.00    1.16519   1.15130   -2.000
 5482.00    1.18411   1.15904   -2.000
 5483.00    1.20110   1.16579   -2.000
 5484.00    1.19389   1.17291   -2.000
 5485.00    1.14261   1.17817   -2.000
 5486.00    1.13493   1.18104   -2.000
 5487.00    1.19668   1.18462   -2.000
 5488.00    1.22284   1.18693   -2.000
 5489.00    1.19927   1.18715   -2.000
 5490.00    1.19206   1.18871   -2.000
 5491.00    1.20496   1.19000   -2.000
 5492.00    1.21292   1.18983   -2.000
 5493.00    1.21553   1.19027   -2.000
 5494.00    1.21654   1.19067   -2.000
 5495.00    1.21602   1.19011   -2.000
 5496.00    1.20983   1.18896   -2.000
 5497.00    1.19884   1.18771   -2.000
 5498.00    1.21258   1.18559   -2.000
 5499.00    1.24468   1.18187   -2.000
 5500.00    1.24699   1.17856   -2.000
 5501.00    1.22988   1.17498   -2.000
 5502.00    1.21813   1.16938    0.157
 5503.00    1.20945   1.16577    0.156
 5504.00    1.18645   1.16298    0.156
 5505.00    1.15633   1.15819    0.156
 5506.00    1.15136   1.15600    0.155
 5507.00    1.15720   1.15402    0.154
 5508.00    1.15757   1.15018    0.153
 5509.00    1.15594   1.14889    0.152
 5510.00    1.15692   1.14735    0.151
 5511.00    1.15871   1.14615    0.151
 5512.00    1.16997   1.14857    0.149
 5513.00    1.18369   1.15195    0.146
 5514.00    1.18253   1.15812    0.148
 5515.00    1.17820   1.16703    0.150
 5516.00    1.17387   1.17612    0.151
 5517.00    1.16953   1.18615    0.151
 5518.00    1.17555   1.19473    0.153
 5519.00    1.18289   1.20103    0.155
 5520.00    1.20287   1.20497    0.154
 5521.00    1.22396   1.20467    0.153
 5522.00    1.22675   1.20225    0.154
 5523.00    1.22859   1.19776    0.155
 5524.00    1.20600   1.19047    0.155
 5525.00    1.18310   1.18413    0.156
 5526.00    1.17025   1.17874    0.154
 5527.00    1.15841   1.17379    0.153
 5528.00    1.16804   1.17166    0.155
 5529.00    1.17785   1.17173    0.157
 5530.00    1.18969   1.17286    0.157
 5531.00    1.20011   1.17525    0.157
 5532.00    1.19868   1.17878    0.157
 5533.00    1.19905   1.18213    0.158
 5534.00    1.21059   1.18553    0.160
 5535.00    1.21977   1.18991    0.162
 5536.00    1.21743   1.19331    0.159
 5537.00    1.21547   1.19725    0.157
 5538.00    1.21506   1.20192    0.157
 5539.00    1.21704   1.20452    0.178
 5540.00    1.22694   1.20787    0.420
 5541.00    1.23076   1.21141   -1.000
 5542.00    1.21762   1.21283   -1.000
 5543.00    1.20986   1.21548   -1.000
 5544.00    1.21499   1.21866   -1.000
 5545.00    1.21855   1.22089   -1.000
 5546.00    1.21888   1.22433   -1.000
 5547.00    1.21700   1.22731    0.874
 5548.00    1.21114   1.22918    0.231
 5549.00    1.21382   1.23096    0.158
 5550.00    1.22992   1.23044    0.157
 5551.00    1.23751   1.22847    0.155
 5552.00    1.23337   1.22632    0.153
 5553.00    1.23461   1.22223    0.151
 5554.00    1.24237   1.21783    0.149
 5555.00    1.24190   1.21383    0.149
 5556.00    1.23265   1.20891    0.151
 5557.00    1.21915   1.20474    0.151
 5558.00    1.20164   1.20011    0.150
 5559.00    1.19609   1.19441    0.149
 5560.00    1.20049   1.19005    0.147
 5561.00    1.19468   1.18472    0.147
 5562.00    1.18142   1.17837    0.148
 5563.00    1.17647   1.17397    0.149
 5564.00    1.17686   1.17003    0.150
 5565.00    1.17464   1.16540    0.149
 5566.00    1.17097   1.16267    0.148
 5567.00    1.16943   1.16242    0.148
 5568.00    1.16893   1.16127    0.149
 5569.00    1.15945   1.16141    0.149
 5570.00    1.14618   1.16482    0.149
 5571.00    1.15465   1.16666    0.149
 5572.00    1.17100   1.16961    0.150
 5573.00    1.16912   1.17509    0.151
 5574.00    1.16167   1.17778    0.152
 5575.00    1.16019   1.18127    0.152
 5576.00    1.16022   1.18560    0.152
 5577.00    1.16909   1.18539    0.153
 5578.00    1.17980   1.18475    0.154
 5579.00    1.18889   1.18294    0.154
 5580.00    1.19771   1.17565    0.153
 5581.00    1.19231   1.16734    0.154
 5582.00    1.18516   1.15710    0.155
 5583.00    1.16786   1.14327    0.154
 5584.00    1.14970   1.13060    0.152
 5585.00    1.13735   1.11811    0.152
 5586.00    1.12528   1.10694    0.152
 5587.00    1.11299   1.09983    0.150
 5588.00    1.10099   1.09561    0.149
 5589.00    1.10737   1.09608    0.148
 5590.00    1.11360   1.09913    0.148
 5591.00    1.11690   1.10395    0.151
 5592.00    1.11898   1.11214    0.154
 5593.00    1.10694   1.11854    0.151
 5594.00    1.09710   1.12333    0.150
 5595.00    1.10506   1.12846    0.150
 5596.00    1.11447   1.13038    0.151
 5597.00    1.13261   1.13121    0.150
 5598.00    1.14703   1.13229    0.149
 5599.00    1.14371   1.13257    0.152
 5600.00    1.13862   1.13620    0.153
 5601.00    1.12666   1.14223    0.151
 5602.00    1.11830   1.14943    0.149
 5603.00    1.12161   1.16044    0.147
 5604.00    1.12861   1.17247    0.147
 5605.00    1.14572   1.18397    0.147
 5606.00    1.16075   1.19456    0.148
 5607.00    1.17091   1.20183    0.148
 5608.00    1.18073   1.20526    0.148
 5609.00    1.18986   1.20528    0.148
 5610.00    1.19491   1.20096    0.147
 5611.00    1.19276   1.19175    0.148
 5612.00    1.18966   1.18172    0.148
 5613.00    1.18509   1.17151    0.148
 5614.00    1.17272   1.16005    0.148
 5615.00    1.14975   1.15115    0.148
 5616.00    1.13160   1.14448    0.148
 5617.00    1.11919   1.13980    0.148
 5618.00    1.11813   1.13840    0.148
 5619.00    1.12903   1.13743    0.149
 5620.00    1.13245   1.13649    0.149
 5621.00    1.12893   1.13754    0.150
 5622.00    1.12744   1.13941    0.150
 5623.00    1.12760   1.14057    0.149
 5624.00    1.12601   1.14322    0.149
 5625.00    1.12314   1.14813    0.148
 5626.00    1.11911   1.15355    0.148
 5627.00    1.11435   1.16003    0.147
 5628.00    1.11738   1.16655    0.147
 5629.00    1.12472   1.17160    0.146
 5630.00    1.13771   1.17564    0.146
 5631.00    1.15341   1.17741    0.146
 5632.00    1.16787   1.17611    0.146
 5633.00    1.18180   1.17286    0.146
 5634.00    1.17597   1.16828    0.146
 5635.00    1.16312   1.16308    0.146
 5636.00    1.15333   1.15770    0.144
 5637.00    1.14446   1.15244    0.141
 5638.00    1.14747   1.14907    0.143
 5639.00    1.15343   1.14720    0.145
 5640.00    1.15132   1.14616    0.143
 5641.00    1.14758   1.14716    0.140
 5642.00    1.14832   1.14878    0.140
 5643.00    1.14976   1.15159    0.141
 5644.00    1.15076   1.15556    0.142
 5645.00    1.15172   1.15828    0.143
 5646.00    1.14418   1.16147    0.142
 5647.00    1.13596   1.16469    0.141
 5648.00    1.15128   1.16609    0.141
 5649.00    1.16764   1.16695    0.141
 5650.00    1.15738   1.16566    0.143
 5651.00    1.14690   1.16185    0.144
 5652.00    1.14031   1.15844    0.143
 5653.00    1.13401   1.15280    0.142
 5654.00    1.13289   1.14356    0.144
 5655.00    1.13217   1.13625    0.146
 5656.00    1.13582   1.13047    0.146
 5657.00    1.13821   1.12394    0.146
 5658.00    1.13084   1.11964    0.146
 5659.00    1.12397   1.11790    0.146
 5660.00    1.12001   1.11908    0.146
 5661.00    1.11754   1.12313    0.145
 5662.00    1.12206   1.12716    0.147
 5663.00    1.12586   1.13193    0.147
 5664.00    1.12699   1.13909    0.147
 5665.00    1.12591   1.14593    0.146
 5666.00    1.11789   1.15144    0.144
 5667.00    1.11622   1.15758    0.143
 5668.00    1.13167   1.16427    0.143
 5669.00    1.14594   1.17120    0.144
 5670.00    1.15747   1.17780    0.146
 5671.00    1.16607   1.18348    0.147
 5672.00    1.16882   1.18939    0.146
 5673.00    1.16926   1.19460    0.145
 5674.00    1.16569   1.19732    0.144
 5675.00    1.16628   1.19791    0.144
 5676.00    1.17320   1.19709    0.144
 5677.00    1.17695   1.19460    0.144
 5678.00    1.17647   1.18936    0.144
 5679.00    1.17601   1.18290    0.144
 5680.00    1.17558   1.17690    0.142
 5681.00    1.17252   1.17083    0.143
 5682.00    1.16672   1.16480    0.145
 5683.00    1.16166   1.15962    0.145
 5684.00    1.15728   1.15659    0.143
 5685.00    1.15491   1.15592    0.141
 5686.00    1.15415   1.15664    0.141
 5687.00    1.14858   1.15855    0.141
 5688.00    1.13958   1.16295    0.141
 5689.00    1.14164   1.16829    0.142
 5690.00    1.15058   1.17269    0.142
 5691.00    1.16796   1.17678    0.142
 5692.00    1.18992   1.17978    0.141
 5693.00    1.19867   1.18093    0.144
 5694.00    1.20117   1.17891    0.149
 5695.00    1.19771   1.17513    0.150
 5696.00    1.19182   1.17017    0.149
 5697.00    1.17761   1.16226    0.148
 5698.00    1.16049   1.15424    0.148
 5699.00    1.15203   1.14600    0.147
 5700.00    1.14610   1.13779    0.146
 5701.00    1.13780   1.13043    0.145
 5702.00    1.12891   1.12153    0.145
 5703.00    1.12720   1.11431    0.144
 5704.00    1.12689   1.10821    0.144
 5705.00    1.13053   1.10065    0.145
 5706.00    1.13478   1.09652    0.146
 5707.00    1.12650   1.09360    0.146
 5708.00    1.11679   1.09178    0.146
 5709.00    1.11259   1.09582    0.145
 5710.00    1.10881   1.10103    0.143
 5711.00    1.12812   1.10880    0.143
 5712.00    1.14837   1.12121    0.142
 5713.00    1.14686   1.13301    0.142
 5714.00    1.14510   1.14645    0.141
 5715.00    1.14025   1.16090    0.140
 5716.00    1.13656   1.17242    0.140
 5717.00    1.15282   1.18380    0.140
 5718.00    1.16867   1.19420    0.141
 5719.00    1.18020   1.20123    0.141
 5720.00    1.19123   1.20684    0.141
 5721.00    1.19844   1.21097    0.142
 5722.00    1.20472   1.21233    0.142
 5723.00    1.20576   1.21166    0.141
 5724.00    1.20420   1.21052    0.139
 5725.00    1.19080   1.20866    0.138
 5726.00    1.18318   1.20574    0.138
 5727.00    1.19705   1.20229    0.141
 5728.00    1.20924   1.19962    0.143
 5729.00    1.21622   1.19891    0.142
 5730.00    1.22151   1.19837    0.142
 5731.00    1.22232   1.19795    0.144
 5732.00    1.21860   1.19873    0.146
 5733.00    1.20457   1.19999    0.145
 5734.00    1.19684   1.20155    0.145
 5735.00    1.20148   1.20206    0.146
 5736.00    1.20415   1.20215    0.145
 5737.00    1.20346   1.20300    0.144
 5738.00    1.20580   1.20281    0.143
 5739.00    1.21272   1.20191    0.144
 5740.00    1.21417   1.20163    0.000
 5741.00    1.20842   1.20109    0.000
 5742.00    1.20602   1.20041    0.000
 5743.00    1.20749   1.19922    0.000
 5744.00    1.21014   1.19679    0.000
 5745.00    1.21401   1.19515    0.000
 5746.00    1.21208   1.19320    0.000
 5747.00    1.20492   1.18947    0.000
 5748.00    1.20068   1.18568    0.000
 5749.00    1.19877   1.18180    0.000
 5750.00    1.19642   1.17814    0.000
 5751.00    1.19376   1.17581    0.000
 5752.00    1.19330   1.17380    0.000
 5753.00    1.19419   1.17237    0.000
 5754.00    1.19907   1.17284    0.000
 5755.00    1.20607   1.17332    0.000
 5756.00    1.20288   1.17330    0.000
 5757.00    1.19493   1.17369    0.000
 5758.00    1.19119   1.17326    0.000
 5759.00    1.18914   1.17321    0.000
 5760.00    1.18399   1.17518    0.000
 5761.00    1.17777   1.17684    0.000
 5762.00    1.18012   1.17906    0.000
 5763.00    1.18494   1.18349    0.000
 5764.00    1.19065   1.18823    0.000
 5765.00    1.19657   1.19317    0.000
 5766.00    1.19931   1.19785    0.000
 5767.00    1.20144   1.20095    0.000
 5768.00    1.19970   1.20278    0.000
 5769.00    1.19739   1.20363    0.000
 5770.00    1.20350   1.20198    0.000
 5771.00    1.21053   1.19864    0.000
 5772.00    1.22190   1.19533    0.000
 5773.00    1.23358   1.19005    0.000
 5774.00    1.23178   1.18370    0.000
 5775.00    1.22948   1.17665    0.000
 5776.00    1.21123   1.16703    0.000
 5777.00    1.19310   1.15638    0.000
 5778.00    1.18125   1.14571    0.000
 5779.00    1.16982   1.13469    0.000
 5780.00    1.16514   1.12436    0.000
 5781.00    1.16126   1.11512    0.000
 5782.00    1.16545   1.10926    0.000
 5783.00    1.16748   1.10772    0.000
 5784.00    1.15386   1.10801    0.000
 5785.00    1.14215   1.11189    0.000
 5786.00    1.14104   1.11847    0.000
 5787.00    1.14115   1.12621    0.000
 5788.00    1.14672   1.13650    0.000
 5789.00    1.15181   1.14530    0.000
 5790.00    1.15512   1.15373    0.000
 5791.00    1.15867   1.16322   -2.000
 5792.00    1.16301   1.17023   -2.000
 5793.00    1.16580   1.17643   -2.000
 5794.00    1.16458   1.18195   -2.000
 5795.00    1.16329   1.18678   -2.000
 5796.00    1.16185   1.19167   -2.000
 5797.00    1.16358   1.19501   -2.000
 5798.00    1.17144   1.19818   -2.000
 5799.00    1.18024   1.20067   -2.000
 5800.00    1.19065   1.20163   -2.000
 5801.00    1.20239   1.20216   -2.000
 5802.00    1.21611   1.20133   -2.000
 5803.00    1.22445   1.20018   -2.000
 5804.00    1.22582   1.19917   -2.000
 5805.00    1.22476   1.19714   -2.000
 5806.00    1.22091   1.19601   -2.000
 5807.00    1.21937   1.19551   -2.000
 5808.00    1.22017   1.19452   -2.000
 5809.00    1.21537   1.19450   -2.000
 5810.00    1.20559   1.19453   -2.000
 5811.00    1.20157   1.19411    0.000
 5812.00    1.20208   1.19389    0.000
 5813.00    1.19297   1.19389    0.000
 5814.00    1.17723   1.19492    0.000
 5815.00    1.16946   1.19621    0.000
 5816.00    1.16652   1.19820    0.000
 5817.00    1.17627   1.20138    0.000
 5818.00    1.19271   1.20485    0.000
 5819.00    1.20635   1.20858    0.000
 5820.00    1.21871   1.21187    0.000
 5821.00    1.22983   1.21495    0.000
 5822.00    1.24046   1.21756    0.000
 5823.00    1.23515   1.21923    0.000
 5824.00    1.22450   1.22029    0.000
 5825.00    1.21828   1.22089    0.000
 5826.00    1.21331   1.22107    0.000
 5827.00    1.21252   1.22051    0.000
 5828.00    1.21270   1.21974    0.000
 5829.00    1.21584   1.21868    0.000
 5830.00    1.21953   1.21682    0.000
 5831.00    1.21696   1.21479    0.000
 5832.00    1.21350   1.21312    0.000
 5833.00    1.21239   1.21149    0.000
 5834.00    1.21154   1.20977    0.000
 5835.00    1.21226   1.20905    0.000
 5836.00    1.21309   1.20926    0.000
 5837.00    1.21825   1.20978    0.000
 5838.00    1.22355   1.21060    0.000
 5839.00    1.22841   1.21123    0.000
 5840.00    1.23304   1.21172    0.000
 5841.00    1.23049   1.21158    0.000
 5842.00    1.22729   1.20976    0.000
 5843.00    1.21431   1.20650    0.000
 5844.00    1.20234   1.20238    0.000
 5845.00    1.20015   1.19720    0.000
 5846.00    1.19786   1.19094    0.000
 5847.00    1.19475   1.18396    0.000
 5848.00    1.19311   1.17623    0.000
 5849.00    1.19940   1.16822    0.000
 5850.00    1.20260   1.16073    0.000
 5851.00    1.19243   1.15320    0.000
 5852.00    1.18625   1.14556    0.000
 5853.00    1.19427   1.13825    0.000
 5854.00    1.20117   1.13237    0.000
 5855.00    1.20466   1.12864    0.000
 5856.00    1.20066   1.12563    0.000
 5857.00    1.17755   1.12437    0.000
 5858.00    1.15793   1.12478    0.000
 5859.00    1.14598   1.12699    0.000
 5860.00    1.13699   1.13126    0.000
 5861.00    1.13365   1.13502    0.000
 5862.00    1.13108   1.13907    0.000
 5863.00    1.12981   1.14376    0.000
 5864.00    1.13026   1.14865    0.000
 5865.00    1.13323   1.15331    0.000
 5866.00    1.13420   1.15721    0.000
 5867.00    1.13263   1.16072    0.000
 5868.00    1.13024   1.16402    0.000
 5869.00    1.12695   1.16686    0.000
 5870.00    1.12774   1.16859    0.000
 5871.00    1.13260   1.16913    0.000
 5872.00    1.13674   1.16830    0.000
 5873.00    1.14024   1.16664    0.000
 5874.00    1.14784   1.16356    0.000
 5875.00    1.15860   1.15906    0.000
 5876.00    1.15775   1.15357    0.000
 5877.00    1.14899   1.14699    0.000
 5878.00    1.14137   1.13985    0.000
 5879.00    1.13442   1.13088    0.000
 5880.00    1.12960   1.11973    0.000
 5881.00    1.12588   1.10687    0.000
 5882.00    1.11128   1.09152    0.000
 5883.00    1.09178   1.07250    0.000
 5884.00    1.06492   1.04965    0.000
 5885.00    1.03519   1.02353    0.000
 5886.00    1.01400   0.99567    0.000
 5887.00    0.99563   0.96954    0.000
 5888.00    0.97665   0.94476    0.000
 5889.00    0.95751   0.92197    0.000
 5890.00    0.93458   0.90638    0.000
 5891.00    0.91080   0.89642    0.000
 5892.00    0.89702   0.89318    0.000
 5893.00    0.88506   0.89885    0.000
 5894.00    0.88622   0.90797    0.000
 5895.00    0.88922   0.92233    0.000
 5896.00    0.89993   0.94306    0.000
 5897.00    0.91141   0.96560    0.000
 5898.00    0.93669   0.99063    0.000
 5899.00    0.96284   1.01566    0.000
 5900.00    0.99594   1.03826    0.000
 5901.00    1.02920   1.05993    0.135
 5902.00    1.04986   1.07904    0.133
 5903.00    1.07023   1.09426    0.132
 5904.00    1.08213   1.10607    0.132
 5905.00    1.09382   1.11488    0.133
 5906.00    1.10246   1.12119    0.135
 5907.00    1.11138   1.12545    0.137
 5908.00    1.12289   1.12791    0.138
 5909.00    1.13286   1.12849    0.140
 5910.00    1.13243   1.12759    0.139
 5911.00    1.13086   1.12665    0.138
 5912.00    1.12331   1.12502    0.138
 5913.00    1.11886   1.12323    0.138
 5914.00    1.12751   1.12243    0.136
 5915.00    1.13153   1.12174    0.134
 5916.00    1.11935   1.12291    0.133
 5917.00    1.11103   1.12481    0.133
 5918.00    1.11406   1.12663    0.132
 5919.00    1.11873   1.12969    0.131
 5920.00    1.12753   1.13234    0.131
 5921.00    1.13488   1.13443    0.131
 5922.00    1.13906   1.13656    0.133
 5923.00    1.14249   1.13736    0.134
 5924.00    1.14451   1.13742    0.134
 5925.00    1.14598   1.13743    0.133
 5926.00    1.14655   1.13608    0.132
 5927.00    1.14465   1.13528    0.130
 5928.00    1.13920   1.13423    0.129
 5929.00    1.13136   1.13249    0.129
 5930.00    1.12049   1.13209    0.130
 5931.00    1.11870   1.13156    0.131
 5932.00    1.12701   1.13209    0.131
 5933.00    1.12658   1.13281    0.131
 5934.00    1.11757   1.13301    0.130
 5935.00    1.11077   1.13434    0.130
 5936.00    1.10590   1.13534    0.132
 5937.00    1.11495   1.13621    0.133
 5938.00    1.13463   1.13722    0.135
 5939.00    1.15299   1.13758    0.135
 5940.00    1.17047   1.13792    0.136
 5941.00    1.17254   1.13832    0.136
 5942.00    1.16557   1.13811    0.137
 5943.00    1.15188   1.13783    0.137
 5944.00    1.13474   1.13732    0.136
 5945.00    1.12996   1.13621    0.134
 5946.00    1.13067   1.13493    0.133
 5947.00    1.13105   1.13302    0.134
 5948.00    1.13132   1.13052    0.136
 5949.00    1.12412   1.12825    0.135
 5950.00    1.11450   1.12657    0.133
 5951.00    1.11439   1.12506    0.133
 5952.00    1.11684   1.12365    0.133
 5953.00    1.11545   1.12322    0.131
 5954.00    1.11320   1.12386    0.128
 5955.00    1.11521   1.12565    0.127
 5956.00    1.11797   1.12815    0.127
 5957.00    1.12336   1.13089    0.127
 5958.00    1.12909   1.13465    0.127
 5959.00    1.13872   1.13877    0.129
 5960.00    1.14872   1.14278    0.131
 5961.00    1.14682   1.14671    0.131
 5962.00    1.14421   1.14978    0.132
 5963.00    1.13329   1.15300    0.130
 5964.00    1.12228   1.15556    0.127
 5965.00    1.12922   1.15740    0.129
 5966.00    1.13599   1.15945    0.131
 5967.00    1.13847   1.16049    0.131
 5968.00    1.14083   1.16133    0.130
 5969.00    1.14178   1.16131    0.131
 5970.00    1.14257   1.15992    0.132
 5971.00    1.14206   1.15783    0.133
 5972.00    1.14144   1.15454    0.133
 5973.00    1.14021   1.15052    0.135
 5974.00    1.13801   1.14617    0.136
 5975.00    1.13086   1.14127    0.134
 5976.00    1.12525   1.13688    0.133
 5977.00    1.12598   1.13264    0.134
 5978.00    1.12605   1.12866    0.135
 5979.00    1.12379   1.12581    0.134
 5980.00    1.11934   1.12297    0.133
 5981.00    1.10855   1.12100    0.133
 5982.00    1.10167   1.11977    0.132
 5983.00    1.10442   1.11849    0.131
 5984.00    1.10806   1.11895    0.130
 5985.00    1.11358   1.12026    0.130
 5986.00    1.11634   1.12228    0.130
 5987.00    1.11398   1.12550    0.128
 5988.00    1.11390   1.12837    0.126
 5989.00    1.11751   1.13176    0.125
 5990.00    1.12449   1.13460    0.125
 5991.00    1.13623   1.13629    0.127
 5992.00    1.14429   1.13755    0.128
 5993.00    1.14775   1.13753    0.128
 5994.00    1.14646   1.13692    0.129
 5995.00    1.13995   1.13558    0.130
 5996.00    1.12994   1.13296    0.130
 5997.00    1.11653   1.13016    0.129
 5998.00    1.10826   1.12752    0.129
 5999.00    1.10439   1.12464    0.128
 6000.00    1.10330   1.12238    0.129
 6001.00    1.10429   1.11957    0.131
 6002.00    1.10307   1.11611    0.132
 6003.00    1.10040   1.11389    0.132
 6004.00    1.10156   1.11139    0.133
 6005.00    1.10493   1.10959    0.134
 6006.00    1.10355   1.10830    0.134
 6007.00    1.09976   1.10594    0.132
 6008.00    1.09728   1.10524    0.132
 6009.00    1.09538   1.10493    0.133
 6010.00    1.09295   1.10451    0.132
 6011.00    1.09032   1.10463    0.130
 6012.00    1.09011   1.10340    0.130
 6013.00    1.09067   1.10232    0.130
 6014.00    1.09294   1.10161    0.130
 6015.00    1.09567   1.10044    0.129
 6016.00    1.08780   1.09970    0.129
 6017.00    1.07764   1.09937    0.129
 6018.00    1.07160   1.09913    0.128
 6019.00    1.06627   1.10035    0.128
 6020.00    1.06971   1.10232    0.127
 6021.00    1.07428   1.10493    0.126
 6022.00    1.08085   1.10936    0.126
 6023.00    1.08760   1.11377    0.127
 6024.00    1.08648   1.11953    0.128
 6025.00    1.08493   1.12538    0.129
 6026.00    1.09088   1.13100    0.129
 6027.00    1.09710   1.13725    0.129
 6028.00    1.11448   1.14250    0.130
 6029.00    1.13122   1.14762    0.130
 6030.00    1.13311   1.15195    0.130
 6031.00    1.13538   1.15541    0.130
 6032.00    1.14253   1.15839    0.131
 6033.00    1.14895   1.16042    0.132
 6034.00    1.14902   1.16182    0.133
 6035.00    1.14823   1.16268    0.133
 6036.00    1.14193   1.16287    0.133
 6037.00    1.13588   1.16320    0.132
 6038.00    1.13108   1.16335    0.132
 6039.00    1.12780   1.16356    0.131
 6040.00    1.13067   1.16434    0.132
 6041.00    1.13256   1.16502    0.132
 6042.00    1.13119   1.16647    0.130
 6043.00    1.13104   1.16791    0.128
 6044.00    1.13438   1.16933    0.128
 6045.00    1.13769   1.17058    0.128
 6046.00    1.14092   1.17102    0.128
 6047.00    1.14524   1.17080    0.128
 6048.00    1.15183   1.16963    0.126
 6049.00    1.15711   1.16789    0.126
 6050.00    1.15999   1.16510    0.126
 6051.00    1.16064   1.16198    0.127
 6052.00    1.15775   1.15836    0.126
 6053.00    1.15343   1.15475    0.127
 6054.00    1.14713   1.15151    0.129
 6055.00    1.14166   1.14832    0.129
 6056.00    1.13722   1.14595    0.129
 6057.00    1.13428   1.14362    0.128
 6058.00    1.13296   1.14188    0.129
 6059.00    1.13160   1.14006    0.130
 6060.00    1.13020   1.13883    0.132
 6061.00    1.12782   1.13838    0.133
 6062.00    1.12460   1.13811    0.132
 6063.00    1.12729   1.13932    0.133
 6064.00    1.13435   1.14080    0.134
 6065.00    1.14227   1.14409    0.134
 6066.00    1.15074   1.14873    0.133
 6067.00    1.15803   1.15359    0.132
 6068.00    1.16465   1.15919    0.131
 6069.00    1.16831   1.16358    0.131
 6070.00    1.17051   1.16681    0.131
 6071.00    1.16920   1.16873    0.130
 6072.00    1.16638   1.16848    0.129
 6073.00    1.15331   1.16679    0.128
 6074.00    1.13647   1.16346    0.128
 6075.00    1.12712   1.15823    0.128
 6076.00    1.12010   1.15225    0.127
 6077.00    1.12058   1.14573    0.126
 6078.00    1.12300   1.13940    0.126
 6079.00    1.12086   1.13379    0.124
 6080.00    1.11775   1.12863    0.123
 6081.00    1.11445   1.12459    0.124
 6082.00    1.11112   1.12173    0.125
 6083.00    1.11412   1.11942    0.126
 6084.00    1.11791   1.11767    0.126
 6085.00    1.11998   1.11680    0.127
 6086.00    1.12190   1.11614    0.127
 6087.00    1.11582   1.11583    0.127
 6088.00    1.10931   1.11578    0.127
 6089.00    1.10599   1.11603    0.129
 6090.00    1.10261   1.11663    0.130
 6091.00    1.09118   1.11716    0.129
 6092.00    1.08055   1.11807    0.128
 6093.00    1.08686   1.11940    0.129
 6094.00    1.09359   1.12061    0.129
 6095.00    1.10537   1.12071    0.131
 6096.00    1.11577   1.11927    0.131
 6097.00    1.11480   1.11684    0.130
 6098.00    1.11232   1.11479    0.130
 6099.00    1.10043   1.11211    0.129
 6100.00    1.09022   1.10956    0.129
 6101.00    1.08815   1.10674    0.129
 6102.00    1.08574   1.10451    0.128
 6103.00    1.08201   1.10519    0.127
 6104.00    1.08014   1.10681    0.126
 6105.00    1.08440   1.11037    0.124
 6106.00    1.09181   1.11453    0.124
 6107.00    1.10800   1.11841    0.125
 6108.00    1.12172   1.12285    0.125
 6109.00    1.12959   1.12653    0.124
 6110.00    1.13604   1.12933    0.124
 6111.00    1.13959   1.13137    0.126
 6112.00    1.14198   1.13185    0.127
 6113.00    1.14229   1.13075    0.128
 6114.00    1.14079   1.12837    0.129
 6115.00    1.13645   1.12434    0.129
 6116.00    1.12840   1.11888    0.128
 6117.00    1.11527   1.11359    0.127
 6118.00    1.09984   1.10827    0.127
 6119.00    1.08164   1.10320    0.128
 6120.00    1.07145   1.09904    0.129
 6121.00    1.06981   1.09510    0.130
 6122.00    1.07362   1.09369    0.130
 6123.00    1.08256   1.09400    0.129
 6124.00    1.09074   1.09547    0.130
 6125.00    1.09829   1.09808    0.131
 6126.00    1.10108   1.09966    0.130
 6127.00    1.10039   1.10113    0.128
 6128.00    1.09809   1.10165    0.126
 6129.00    1.09474   1.10076    0.126
 6130.00    1.09336   1.09831    0.126
 6131.00    1.09308   1.09327    0.126
 6132.00    1.08636   1.08809    0.125
 6133.00    1.07650   1.08262    0.124
 6134.00    1.06835   1.07694    0.124
 6135.00    1.06093   1.07165    0.125
 6136.00    1.05872   1.06744    0.125
 6137.00    1.05838   1.06754    0.125
 6138.00    1.05864   1.07036    0.125
 6139.00    1.05909   1.07557    0.126
 6140.00    1.06504   1.08223    0.126
 6141.00    1.07238   1.08859    0.126
 6142.00    1.07715   1.09515    0.127
 6143.00    1.08138   1.10066    0.128
 6144.00    1.07763   1.10554    0.128
 6145.00    1.07259   1.10931    0.127
 6146.00    1.06660   1.11060    0.127
 6147.00    1.06049   1.11017    0.127
 6148.00    1.05378   1.10813    0.127
 6149.00    1.04702   1.10536    0.127
 6150.00    1.05063   1.10246    0.127
 6151.00    1.05474   1.09833    0.128
 6152.00    1.06711   1.09358    0.129
 6153.00    1.07944   1.08747    0.130
 6154.00    1.08269   1.07981    0.129
 6155.00    1.08572   1.07035    0.128
 6156.00    1.08455   1.05944    0.129
 6157.00    1.08199   1.04848    0.130
 6158.00    1.06345   1.03741    0.130
 6159.00    1.04418   1.02656    0.130
 6160.00    1.01906   1.01583    0.126
 6161.00    0.99693   1.00738    0.123
 6162.00    0.99280   1.00171    0.122
 6163.00    0.99074   0.99836    0.121
 6164.00    0.99859   0.99834    0.122
 6165.00    1.00415   1.00074    0.123
 6166.00    1.00087   1.00502    0.122
 6167.00    0.99890   1.00929    0.122
 6168.00    1.00115   1.01396    0.122
 6169.00    1.00628   1.01985    0.122
 6170.00    1.01930   1.02626    0.122
 6171.00    1.02923   1.03289    0.122
 6172.00    1.03195   1.03965    0.124
 6173.00    1.03202   1.04653    0.125
 6174.00    1.02671   1.05231    0.126
 6175.00    1.02178   1.05768    0.127
 6176.00    1.01749   1.06268    0.127
 6177.00    1.01457   1.06736    0.128
 6178.00    1.01373   1.07109    0.127
 6179.00    1.01501   1.07317    0.127
 6180.00    1.01916   1.07415    0.126
 6181.00    1.02205   1.07363    0.126
 6182.00    1.02344   1.07162    0.125
 6183.00    1.02578   1.06832    0.126
 6184.00    1.02912   1.06392    0.127
 6185.00    1.02863   1.05774    0.128
 6186.00    1.02460   1.05162    0.129
 6187.00    1.01796   1.04640    0.128
 6188.00    1.00919   1.04182    0.127
 6189.00    1.00322   1.03897    0.125
 6190.00    0.99928   1.03694    0.124
 6191.00    0.99794   1.03733    0.123
 6192.00    0.99824   1.03959    0.121
 6193.00    0.99612   1.04243    0.121
 6194.00    0.99265   1.04698    0.122
 6195.00    0.99013   1.05152    0.127
 6196.00    0.98807   1.05592   -2.000
 6197.00    1.00047   1.05968   -2.000
 6198.00    1.01888   1.06268   -2.000
 6199.00    1.03813   1.06573   -2.000
 6200.00    1.05769   1.06856   -2.000
 6201.00    1.07017   1.07108   -2.000
 6202.00    1.08054   1.07344   -2.000
 6203.00    1.06919   1.07515   -2.000
 6204.00    1.05244   1.07557   -2.000
 6205.00    1.05025   1.07461   -2.000
 6206.00    1.05100   1.07225   -2.000
 6207.00    1.06019   1.06820   -2.000
 6208.00    1.07073   1.06261    0.129
 6209.00    1.06952   1.05558    0.129
 6210.00    1.06695   1.04741    0.130
 6211.00    1.05423   1.03914    0.128
 6212.00    1.04070   1.03051    0.126
 6213.00    1.02389   1.02246    0.123
 6214.00    1.00693   1.01570    0.120
 6215.00    0.99849   1.01053    0.120
 6216.00    0.99025   1.00756    0.121
 6217.00    0.98745   1.00621    0.120
 6218.00    0.98516   1.00557    0.119
 6219.00    0.99238   1.00620    0.120
 6220.00    0.99963   1.00724    0.120
 6221.00    1.00722   1.00865    0.119
 6222.00    1.01337   1.01024    0.119
 6223.00    1.00844   1.01071    0.120
 6224.00    1.00377   1.01058    0.121
 6225.00    1.00056   1.00928    0.121
 6226.00    0.99839   1.00788    0.121
 6227.00    1.00098   1.00634    0.123
 6228.00    1.00119   1.00492    0.124
 6229.00    0.99240   1.00371    0.125
 6230.00    0.98637   1.00307    0.126
 6231.00    0.98908   1.00393    0.126
 6232.00    0.99267   1.00502    0.126
 6233.00    0.99865   1.00765    0.125
 6234.00    1.00261   1.00938    0.125
 6235.00    1.00193   1.01041    0.125
 6236.00    0.99927   1.01037    0.124
 6237.00    0.99268   1.00824    0.122
 6238.00    0.98847   1.00590    0.121
 6239.00    0.98838   1.00240    0.120
 6240.00    0.98821   0.99936    0.120
 6241.00    0.98793   0.99686    0.120
 6242.00    0.98343   0.99455    0.120
 6243.00    0.97331   0.99380    0.120
 6244.00    0.96626   0.99329    0.119
 6245.00    0.96282   0.99344    0.117
 6246.00    0.96433   0.99403    0.117
 6247.00    0.97097   0.99427    0.118
 6248.00    0.97668   0.99363    0.119
 6249.00    0.98152   0.99180    0.120
 6250.00    0.98497   0.98859    0.121
 6251.00    0.98728   0.98397    0.121
 6252.00    0.98485   0.97942    0.121
 6253.00    0.97905   0.97482    0.121
 6254.00    0.97462   0.97198    0.123
 6255.00    0.97104   0.97015    0.125
 6256.00    0.96477   0.97010    0.125
 6257.00    0.95703   0.97203    0.125
 6258.00    0.95658   0.97546    0.126
 6259.00    0.95957   0.98136    0.129
 6260.00    0.97929   0.98775    0.136
 6261.00    1.00582   0.99547    0.146
 6262.00    1.01266   1.00261    0.150
 6263.00    1.01265   1.00886    0.152
 6264.00    1.00878   1.01421    0.148
 6265.00    1.00378   1.01875    0.142
 6266.00    1.00809   1.02265    0.136
 6267.00    1.01467   1.02573    0.130
 6268.00    1.01595   1.02836    0.125
 6269.00    1.01620   1.03047    0.121
 6270.00    1.01972   1.03214    0.120
 6271.00    1.02374   1.03348    0.120
 6272.00    1.03053   1.03462    0.120
 6273.00    1.03762   1.03527    0.120
 6274.00    1.04089   1.03544    0.120
 6275.00    1.04387   1.03528    0.120
 6276.00    1.04595   1.03499    0.121
 6277.00    1.04800   1.03462    0.122
 6278.00    1.04358   1.03472    0.124
 6279.00    1.03903   1.03474    0.126
 6280.00    1.03095   1.03577    0.000
 6281.00    1.02315   1.03765    0.000
 6282.00    1.02025   1.03995    0.000
 6283.00    1.01803   1.04337    0.000
 6284.00    1.02297   1.04608    0.000
 6285.00    1.02785   1.04888    0.000
 6286.00    1.03229   1.05099    0.000
 6287.00    1.03692   1.05204    0.000
 6288.00    1.04267   1.05238    0.000
 6289.00    1.04719   1.05104    0.000
 6290.00    1.04614   1.04850    0.000
 6291.00    1.04527   1.04509    0.000
 6292.00    1.04501   1.04072    0.000
 6293.00    1.04410   1.03641    0.000
 6294.00    1.04117   1.03187    0.000
 6295.00    1.03711   1.02730    0.000
 6296.00    1.03006   1.02338    0.000
 6297.00    1.02294   1.02011    0.000
 6298.00    1.01563   1.01813    0.000
 6299.00    1.01050   1.01747    0.000
 6300.00    1.00960   1.01780    0.000
 6301.00    1.01106   1.01936    0.000
 6302.00    1.01653   1.02179    0.000
 6303.00    1.02345   1.02493    0.000
 6304.00    1.03254   1.02846    0.000
 6305.00    1.03522   1.03171    0.000
 6306.00    1.02949   1.03454    0.000
 6307.00    1.02515   1.03587    0.000
 6308.00    1.02243   1.03629    0.000
 6309.00    1.01956   1.03498    0.000
 6310.00    1.01654   1.03220    0.000
 6311.00    1.01347   1.02867    0.000
 6312.00    1.01036   1.02460    0.000
 6313.00    1.00764   1.02068    0.000
 6314.00    1.00523   1.01680    0.000
 6315.00    1.00086   1.01422    0.000
 6316.00    0.99512   1.01274    0.000
 6317.00    0.99944   1.01225    0.000
 6318.00    1.00993   1.01411    0.000
 6319.00    1.01683   1.01688    0.000
 6320.00    1.02181   1.02108    0.000
 6321.00    1.02324   1.02619    0.120
 6322.00    1.02301   1.03120    0.120
 6323.00    1.02526   1.03665    0.119
 6324.00    1.02852   1.04100    0.118
 6325.00    1.03474   1.04534    0.118
 6326.00    1.04199   1.04812    0.118
 6327.00    1.04442   1.04959    0.120
 6328.00    1.04548   1.05027    0.122
 6329.00    1.04516   1.04913    0.123
 6330.00    1.04452   1.04768    0.123
 6331.00    1.04751   1.04497    0.123
 6332.00    1.05119   1.04203    0.123
 6333.00    1.05046   1.03895    0.124
 6334.00    1.04906   1.03532    0.125
 6335.00    1.04490   1.03234    0.126
 6336.00    1.04045   1.02975    0.127
 6337.00    1.03468   1.02861    0.125
 6338.00    1.02882   1.02804    0.123
 6339.00    1.02573   1.02854    0.124
 6340.00    1.02274   1.02941    0.125
 6341.00    1.01567   1.03041    0.123
 6342.00    1.00889   1.03199    0.121
 6343.00    1.01292   1.03329    0.121
 6344.00    1.01728   1.03543    0.120
 6345.00    1.02682   1.03757    0.119
 6346.00    1.03627   1.03958    0.119
 6347.00    1.04479   1.04128    0.118
 6348.00    1.05212   1.04206    0.117
 6349.00    1.05081   1.04182    0.117
 6350.00    1.04874   1.04014    0.117
 6351.00    1.04247   1.03704    0.117
 6352.00    1.03677   1.03265    0.118
 6353.00    1.03360   1.02693    0.120
 6354.00    1.02953   1.02015    0.122
 6355.00    1.02218   1.01321    0.122
 6356.00    1.01310   1.00629    0.122
 6357.00    0.99874   0.99992    0.122
 6358.00    0.98673   0.99466    0.122
 6359.00    0.98084   0.99091    0.124
 6360.00    0.97698   0.98917    0.125
 6361.00    0.97767   0.98949    0.126
 6362.00    0.98165   0.99209    0.126
 6363.00    0.99198   0.99658    0.127
 6364.00    0.99749   1.00301    0.127
 6365.00    0.99488   1.01071    0.126
 6366.00    0.99439   1.01879    0.124
 6367.00    0.99705   1.02721    0.124
 6368.00    1.00330   1.03504    0.123
 6369.00    1.01420   1.04223    0.122
 6370.00    1.02233   1.04812    0.121
 6371.00    1.02728   1.05291    0.119
 6372.00    1.03327   1.05661    0.119
 6373.00    1.04029   1.05883    0.118
 6374.00    1.04498   1.06010    0.118
 6375.00    1.04760   1.06015    0.118
 6376.00    1.04556   1.05961    0.119
 6377.00    1.03987   1.05844    0.120
 6378.00    1.03350   1.05724    0.120
 6379.00    1.02664   1.05623    0.120
 6380.00    1.02159   1.05524    0.120
 6381.00    1.01764   1.05501    0.120
 6382.00    1.01620   1.05481    0.120
 6383.00    1.01607   1.05470    0.121
 6384.00    1.01829   1.05452    0.122
 6385.00    1.02158   1.05390    0.124
 6386.00    1.02584   1.05299    0.124
 6387.00    1.03049   1.05168    0.125
 6388.00    1.02987   1.04982    0.124
 6389.00    1.02750   1.04748    0.123
 6390.00    1.02787   1.04463    0.121
 6391.00    1.02901   1.04175    0.120
 6392.00    1.02717   1.03825    0.121
 6393.00    1.02464   1.03598    0.122
 6394.00    1.02494   1.03447    0.121
 6395.00    1.02576   1.03362    0.121
 6396.00    1.03266   1.03377    0.122
 6397.00    1.04042   1.03398    0.123
 6398.00    1.04055   1.03469    0.123
 6399.00    1.03989   1.03502    0.123
 6400.00    1.03297   1.03652    0.122
 6401.00    1.02564   1.03822    0.120
 6402.00    1.02892   1.03996    0.121
 6403.00    1.03255   1.04173    0.122
 6404.00    1.03556   1.04222    0.122
 6405.00    1.03842   1.04226    0.123
 6406.00    1.03642   1.04154    0.123
 6407.00    1.03455   1.04027    0.123
 6408.00    1.03462   1.03931    0.123
 6409.00    1.03393   1.03831    0.123
 6410.00    1.02588   1.03733    0.123
 6411.00    1.01840   1.03662    0.124
 6412.00    1.01495   1.03587    0.125
 6413.00    1.01212   1.03531    0.126
 6414.00    1.01266   1.03517    0.123
 6415.00    1.01275   1.03531    0.120
 6416.00    1.01089   1.03521    0.122
 6417.00    1.01037   1.03555    0.122
 6418.00    1.01463   1.03609    0.120
 6419.00    1.01839   1.03685    0.119
 6420.00    1.02064   1.03826    0.120
 6421.00    1.01992   1.04020    0.120
 6422.00    1.01160   1.04274    0.118
 6423.00    1.00588   1.04485    0.118
 6424.00    1.00582   1.04696    0.118
 6425.00    1.00787   1.04804    0.119
 6426.00    1.01393   1.04847    0.120
 6427.00    1.01935   1.04812    0.122
 6428.00    1.02372   1.04717    0.122
 6429.00    1.02793   1.04569    0.122
 6430.00    1.03192   1.04395    0.122
 6431.00    1.03481   1.04297    0.123
 6432.00    1.03630   1.04238    0.123
 6433.00    1.03581   1.04273    0.124
 6434.00    1.03309   1.04354    0.126
 6435.00    1.03175   1.04465    0.126
 6436.00    1.03177   1.04621    0.125
 6437.00    1.02959   1.04790    0.124
 6438.00    1.02549   1.04974    0.124
 6439.00    1.02518   1.05207    0.123
 6440.00    1.02782   1.05423    0.122
 6441.00    1.03121   1.05591    0.122
 6442.00    1.03511   1.05669    0.122
 6443.00    1.03459   1.05606    0.121
 6444.00    1.03143   1.05409    0.120
 6445.00    1.02451   1.05096    0.119
 6446.00    1.01562   1.04689    0.117
 6447.00    1.01050   1.04232    0.118
 6448.00    1.00709   1.03780    0.120
 6449.00    1.00396   1.03386    0.121
 6450.00    1.00095   1.03200    0.121
 6451.00    0.99918   1.03127    0.121
 6452.00    0.99781   1.03254    0.121
 6453.00    1.00220   1.03468    0.121
 6454.00    1.00817   1.03688    0.122
 6455.00    1.01682   1.03929    0.124
 6456.00    1.02608   1.04156    0.126
 6457.00    1.02900   1.04339    0.126
 6458.00    1.03077   1.04481    0.126
 6459.00    1.03287   1.04551    0.125
 6460.00    1.03501   1.04574    0.125
 6461.00    1.03422   1.04517    0.124
 6462.00    1.03314   1.04480    0.124
 6463.00    1.02944   1.04518    0.124
 6464.00    1.02558   1.04562    0.123
 6465.00    1.02249   1.04716    0.120
 6466.00    1.01942   1.04832    0.117
 6467.00    1.01641   1.04969    0.118
 6468.00    1.01353   1.05037    0.119
 6469.00    1.01446   1.05117    0.117
 6470.00    1.01571   1.05132    0.116
 6471.00    1.02144   1.05124    0.117
 6472.00    1.02731   1.05125    0.119
 6473.00    1.03448   1.05049    0.120
 6474.00    1.04055   1.04966    0.121
 6475.00    1.03912   1.04817    0.121
 6476.00    1.03751   1.04658    0.122
 6477.00    1.03500   1.04435    0.122
 6478.00    1.03242   1.04220    0.123
 6479.00    1.02957   1.03974    0.122
 6480.00    1.02393   1.03711    0.122
 6481.00    1.00861   1.03457    0.122
 6482.00    0.99533   1.03218    0.123
 6483.00    0.98802   1.02992    0.121
 6484.00    0.98564   1.02724    0.121
 6485.00    0.99562   1.02408    0.121
 6486.00    1.00589   1.01952    0.121
 6487.00    1.01676   1.01351    0.121
 6488.00    1.01978   1.00585    0.120
 6489.00    1.00809   0.99644    0.120
 6490.00    0.99402   0.98625    0.120
 6491.00    0.97605   0.97538    0.119
 6492.00    0.96058   0.96528    0.119
 6493.00    0.94869   0.95610    0.118
 6494.00    0.94303   0.94955    0.117
 6495.00    0.94525   0.94620    0.117
 6496.00    0.94448   0.94602    0.117
 6497.00    0.94040   0.95000    0.117
 6498.00    0.94117   0.95599    0.118
 6499.00    0.94669   0.96479    0.118
 6500.00    0.95492   0.97466    0.119
 6501.00    0.96548   0.98508    0.120
 6502.00    0.97575   0.99549    0.121
 6503.00    0.98579   1.00483    0.121
 6504.00    0.98923   1.01312    0.122
 6505.00    0.98826   1.01986    0.123
 6506.00    0.99031   1.02515    0.124
 6507.00    0.99414   1.02885    0.124
 6508.00    1.00079   1.03124    0.124
 6509.00    1.00887   1.03248    0.124
 6510.00    1.00908   1.03297    0.121
 6511.00    1.00580   1.03261    0.118
 6512.00    1.01074   1.03186    0.117
 6513.00    1.01880   1.03062    0.116
 6514.00    1.02957   1.02932    0.116
 6515.00    1.04121   1.02820    0.117
 6516.00    1.03684   1.02740    0.117
 6517.00    1.02815   1.02708    0.117
 6518.00    1.02302   1.02724    0.117
 6519.00    1.01868   1.02830    0.116
 6520.00    1.01466   1.02932    0.116
 6521.00    1.01070   1.03079    0.117
 6522.00    1.01502   1.03185    0.119
 6523.00    1.02046   1.03271    0.122
 6524.00    1.02759   1.03324    0.122
 6525.00    1.03489   1.03335    0.122
 6526.00    1.03567   1.03314    0.122
 6527.00    1.03607   1.03287    0.122
 6528.00    1.03454   1.03265    0.000
 6529.00    1.03297   1.03262    0.000
 6530.00    1.03311   1.03295    0.000
 6531.00    1.03314   1.03326    0.000
 6532.00    1.03033   1.03395    0.000
 6533.00    1.02788   1.03483    0.000
 6534.00    1.03029   1.03593    0.000
 6535.00    1.03261   1.03699    0.000
 6536.00    1.03408   1.03742    0.000
 6537.00    1.03568   1.03744    0.000
 6538.00    1.03813   1.03655    0.000
 6539.00    1.03922   1.03501    0.000
 6540.00    1.03335   1.03243    0.000
 6541.00    1.02916   1.02912    0.000
 6542.00    1.03194   1.02512    0.000
 6543.00    1.03569   1.02066    0.000
 6544.00    1.04276   1.01629    0.000
 6545.00    1.04765   1.01152    0.000
 6546.00    1.04629   1.00733    0.000
 6547.00    1.04481   1.00309    0.000
 6548.00    1.04304   0.99898    0.000
 6549.00    1.04001   0.99476    0.000
 6550.00    1.03430   0.98975    0.000
 6551.00    1.02944   0.98408    0.000
 6552.00    1.02617   0.97734    0.000
 6553.00    1.02075   0.96943    0.000
 6554.00    1.01187   0.96068    0.000
 6555.00    1.00008   0.95074    0.000
 6556.00    0.98421   0.94031    0.000
 6557.00    0.97372   0.92937    0.000
 6558.00    0.96994   0.91893    0.000
 6559.00    0.96980   0.90936    0.000
 6560.00    0.97363   0.90155    0.000
 6561.00    0.97390   0.89609    0.000
 6562.00    0.97072   0.89348    0.000
 6563.00    0.96684   0.89565    0.000
 6564.00    0.96236   0.90066    0.000
 6565.00    0.96116   0.90899    0.000
 6566.00    0.96242   0.91877    0.000
 6567.00    0.96788   0.92853    0.000
 6568.00    0.97611   0.93777    0.000
 6569.00    0.97906   0.94621    0.000
 6570.00    0.97895   0.95359    0.000
 6571.00    0.97646   0.95990    0.000
 6572.00    0.97277   0.96529    0.000
 6573.00    0.97827   0.97019    0.000
 6574.00    0.98778   0.97447    0.000
 6575.00    0.99201   0.97905    0.000
 6576.00    0.99425   0.98322    0.000
 6577.00    1.00710   0.98742    0.000
 6578.00    1.02332   0.99112    0.000
 6579.00    1.04977   0.99439    0.000
 6580.00    1.07894   0.99698    0.000
 6581.00    1.10086   0.99929    0.000
 6582.00    1.12122   1.00100    0.000
 6583.00    1.13016   1.00216    0.000
 6584.00    1.13715   1.00267    0.000
 6585.00    1.12365   1.00224    0.000
 6586.00    1.10748   1.00103    0.000
 6587.00    1.07755   0.99918    0.000
 6588.00    1.04637   0.99646    0.000
 6589.00    1.02210   0.99356    0.000
 6590.00    0.99822   0.99023    0.000
 6591.00    0.98644   0.98712    0.000
 6592.00    0.97501   0.98442    0.000
 6593.00    0.97091   0.98292    0.000
 6594.00    0.96685   0.98268    0.000
 6595.00    0.96374   0.98354    0.000
 6596.00    0.96136   0.98541    0.000
 6597.00    0.96816   0.98752    0.000
 6598.00    0.97461   0.98973    0.000
 6599.00    0.97807   0.99187    0.000
 6600.00    0.98172   0.99345    0.000
 6601.00    0.98658   0.99436    0.000
 6602.00    0.99111   0.99440    0.000
 6603.00    0.99408   0.99375    0.000
 6604.00    0.99665   0.99257    0.000
 6605.00    0.99762   0.99144    0.000
 6606.00    0.99792   0.99046    0.000
 6607.00    0.99594   0.99018    0.000
 6608.00    0.99341   0.99050    0.000
 6609.00    0.98932   0.99188    0.117
 6610.00    0.98485   0.99416    0.117
 6611.00    0.97945   0.99690    0.118
 6612.00    0.97688   1.00012    0.118
 6613.00    0.98024   1.00296    0.119
 6614.00    0.98598   1.00585    0.119
 6615.00    0.99605   1.00794    0.122
 6616.00    1.00272   1.00949    0.123
 6617.00    1.00402   1.01015    0.123
 6618.00    1.00480   1.00989    0.123
 6619.00    1.00488   1.00886    0.124
 6620.00    1.00514   1.00701    0.124
 6621.00    1.00563   1.00464    0.123
 6622.00    1.00507   1.00154    0.123
 6623.00    1.00337   0.99832    0.124
 6624.00    1.00233   0.99466    0.123
 6625.00    1.00191   0.99149    0.121
 6626.00    0.99716   0.98811    0.120
 6627.00    0.98877   0.98520    0.120
 6628.00    0.97657   0.98238    0.119
 6629.00    0.96155   0.97977    0.116
 6630.00    0.95185   0.97762    0.116
 6631.00    0.94559   0.97585    0.116
 6632.00    0.94372   0.97468    0.116
 6633.00    0.94434   0.97405    0.116
 6634.00    0.94752   0.97424    0.117
 6635.00    0.95196   0.97484    0.118
 6636.00    0.96044   0.97593    0.119
 6637.00    0.97064   0.97704    0.119
 6638.00    0.97751   0.97806    0.121
 6639.00    0.98315   0.97882    0.123
 6640.00    0.97972   0.97952    0.123
 6641.00    0.97347   0.98003    0.123
 6642.00    0.97097   0.98029    0.123
 6643.00    0.96945   0.98063    0.124
 6644.00    0.97313   0.98100    0.123
 6645.00    0.97792   0.98143    0.121
 6646.00    0.97997   0.98202    0.121
 6647.00    0.98156   0.98251    0.121
 6648.00    0.98057   0.98300    0.119
 6649.00    0.97924   0.98324    0.118
 6650.00    0.97247   0.98338    0.118
 6651.00    0.96523   0.98310    0.118
 6652.00    0.96454   0.98259    0.118
 6653.00    0.96419   0.98159    0.118
 6654.00    0.96749   0.98031    0.117
 6655.00    0.97084   0.97852    0.116
 6656.00    0.97326   0.97627    0.117
 6657.00    0.97581   0.97380    0.118
 6658.00    0.98112   0.97088    0.118
 6659.00    0.98537   0.96807    0.119
 6660.00    0.97679   0.96519    0.120
 6661.00    0.96863   0.96290    0.121
 6662.00    0.96397   0.96086    0.122
 6663.00    0.95971   0.95991    0.122
 6664.00    0.95791   0.95975    0.122
 6665.00    0.95474   0.96044    0.122
 6666.00    0.94486   0.96187    0.122
 6667.00    0.93792   0.96369    0.121
 6668.00    0.94261   0.96560    0.121
 6669.00    0.94909   0.96740    0.120
 6670.00    0.96147   0.96865    0.120
 6671.00    0.97047   0.96920    0.120
 6672.00    0.97009   0.96893    0.119
 6673.00    0.96694   0.96787    0.119
 6674.00    0.95719   0.96636    0.119
 6675.00    0.95122   0.96449    0.119
 6676.00    0.95299   0.96269    0.118
 6677.00    0.95393   0.96103    0.118
 6678.00    0.95338   0.96035    0.119
 6679.00    0.95327   0.96043    0.119
 6680.00    0.95385   0.96125    0.120
 6681.00    0.95100   0.96289    0.121
 6682.00    0.94344   0.96463    0.121
 6683.00    0.93814   0.96661    0.121
 6684.00    0.93557   0.96845    0.122
 6685.00    0.93783   0.96996    0.122
 6686.00    0.94524   0.97106    0.122
 6687.00    0.94975   0.97146    0.122
 6688.00    0.95154   0.97146    0.124
 6689.00    0.95463   0.97075    0.124
 6690.00    0.95878   0.96967    0.123
 6691.00    0.95954   0.96808    0.122
 6692.00    0.95783   0.96630    0.121
 6693.00    0.95667   0.96431    0.120
 6694.00    0.95585   0.96245    0.120
 6695.00    0.95166   0.96060    0.120
 6696.00    0.94557   0.95925    0.000
 6697.00    0.93975   0.95820    0.000
 6698.00    0.93407   0.95757    0.000
 6699.00    0.92968   0.95740    0.000
 6700.00    0.92583   0.95718    0.000
 6701.00    0.92548   0.95713    0.000
 6702.00    0.92639   0.95682    0.000
 6703.00    0.93133   0.95633    0.000
 6704.00    0.93750   0.95565    0.000
 6705.00    0.93992   0.95467    0.000
 6706.00    0.94139   0.95339    0.000
 6707.00    0.93891   0.95161    0.000
 6708.00    0.93561   0.94948    0.000
 6709.00    0.94555   0.94674    0.000
 6710.00    0.95763   0.94377    0.000
 6711.00    0.95811   0.94067    0.000
 6712.00    0.95718   0.93744    0.000
 6713.00    0.96458   0.93472    0.000
 6714.00    0.97266   0.93235    0.000
 6715.00    0.97574   0.93079    0.000
 6716.00    0.97858   0.93015    0.000
 6717.00    0.97278   0.93036    0.000
 6718.00    0.96683   0.93184    0.000
 6719.00    0.95981   0.93371    0.000
 6720.00    0.95272   0.93641    0.000
 6721.00    0.94411   0.93897    0.000
 6722.00    0.93544   0.94181    0.000
 6723.00    0.92609   0.94429    0.000
 6724.00    0.91958   0.94667    0.000
 6725.00    0.93574   0.94854    0.000
 6726.00    0.95123   0.95020    0.000
 6727.00    0.96272   0.95144    0.000
 6728.00    0.97300   0.95236    0.000
 6729.00    0.97750   0.95300    0.000
 6730.00    0.97914   0.95309    0.000
 6731.00    0.96969   0.95292    0.000
 6732.00    0.96017   0.95211    0.000
 6733.00    0.95042   0.95114    0.000
 6734.00    0.94258   0.94965    0.000
 6735.00    0.93997   0.94812    0.000
 6736.00    0.93353   0.94624    0.000
 6737.00    0.91817   0.94432    0.000
 6738.00    0.90705   0.94235    0.000
 6739.00    0.90452   0.94046    0.000
 6740.00    0.90732   0.93882    0.000
 6741.00    0.91951   0.93719    0.000
 6742.00    0.92724   0.93581    0.000
 6743.00    0.92810   0.93445    0.000
 6744.00    0.92335   0.93342    0.000
 6745.00    0.91103   0.93234    0.000
 6746.00    0.90811   0.93180    0.000
 6747.00    0.91636   0.93124    0.000
 6748.00    0.92046   0.93133    0.000
 6749.00    0.92020   0.93172    0.000
 6750.00    0.91665   0.93278    0.000
 6751.00    0.91005   0.93450    0.000
 6752.00    0.90955   0.93644    0.000
 6753.00    0.91402   0.93933    0.133
 6754.00    0.91559   0.94200    0.135
 6755.00    0.91508   0.94519    0.135
 6756.00    0.90771   0.94800    0.135
 6757.00    0.89602   0.95057    0.135
 6758.00    0.90014   0.95248    0.134
 6759.00    0.91297   0.95370    0.134
 6760.00    0.94917   0.95414    0.136
 6761.00    0.99656   0.95371    0.139
 6762.00    1.03101   0.95276    0.142
 6763.00    1.06010   0.95119    0.145
 6764.00    1.06211   0.94949    0.145
 6765.00    1.05455   0.94766    0.145
 6766.00    1.05346   0.94613    0.145
 6767.00    1.05431   0.94502    0.145
 6768.00    1.06255   0.94470    0.144
 6769.00    1.07262   0.94502    0.144
 6770.00    1.05118   0.94605    0.142
 6771.00    1.02341   0.94764    0.140
 6772.00    1.00922   0.94953    0.137
 6773.00    0.99717   0.95153    0.135
 6774.00    0.99471   0.95329    0.132
 6775.00    0.99337   0.95450    0.130
 6776.00    0.97191   0.95493    0.130
 6777.00    0.94886   0.95442    0.130
 6778.00    0.96583   0.95317    0.131
 6779.00    0.98454   0.95099    0.133
 6780.00    0.98755   0.94840    0.132
 6781.00    0.98979   0.94537    0.131
 6782.00    0.96380   0.94241    0.130
 6783.00    0.93909   0.93974    0.129
 6784.00    0.93766   0.93764    0.129
 6785.00    0.93688   0.93630    0.129
 6786.00    0.94320   0.93553    0.131
 6787.00    0.94936   0.93556    0.133
 6788.00    0.95417   0.93568    0.133
 6789.00    0.96094   0.93627    0.134
 6790.00    0.97911   0.93676    0.135
 6791.00    0.99501   0.93740    0.135
 6792.00    1.00038   0.93788    0.136
 6793.00    1.00603   0.93843    0.137
 6794.00    1.01272   0.93900    0.136
 6795.00    1.01158   0.93957    0.135
 6796.00    0.98570   0.94032    0.132
 6797.00    0.96862   0.94108    0.130
 6798.00    0.97508   0.94180    0.130
 6799.00    0.97430   0.94253    0.129
 6800.00    0.95687   0.94302    0.128
 6801.00    0.94467   0.94343    0.128
 6802.00    0.94289   0.94354    0.129
 6803.00    0.94316   0.94346    0.130
 6804.00    0.94700   0.94323    0.131
 6805.00    0.94806   0.94287    0.131
 6806.00    0.94493   0.94237    0.131
 6807.00    0.94432   0.94202    0.130
 6808.00    0.94709   0.94156    0.131
 6809.00    0.94847   0.94126    0.131
 6810.00    0.94823   0.94109    0.132
 6811.00    0.94876   0.94110    0.134
 6812.00    0.95010   0.94122    0.137
 6813.00    0.95459   0.94164    0.139
 6814.00    0.96196   0.94206    0.140
 6815.00    0.95835   0.94285    0.138
 6816.00    0.94590   0.94372    0.134
 6817.00    0.93811   0.94471    0.131
 6818.00    0.93362   0.94575    0.129
 6819.00    0.93623   0.94661    0.127
 6820.00    0.94327   0.94752    0.126
 6821.00    0.95207   0.94813    0.126
 6822.00    0.96184   0.94875    0.126
 6823.00    0.96070   0.94891    0.125
 6824.00    0.95442   0.94904    0.124
 6825.00    0.95572   0.94866    0.124
 6826.00    0.96010   0.94838    0.126
 6827.00    0.95199   0.94764    0.128
 6828.00    0.93956   0.94710    0.131
 6829.00    0.94182   0.94627    0.133
 6830.00    0.94840   0.94547    0.134
 6831.00    0.95821   0.94432    0.135
 6832.00    0.96882   0.94284    0.135
 6833.00    0.96694   0.94095    0.135
 6834.00    0.96262   0.93859    0.134
 6835.00    0.95514   0.93594    0.134
 6836.00    0.94719   0.93292    0.134
 6837.00    0.95575   0.93006    0.134
 6838.00    0.96617   0.92719    0.134
 6839.00    0.95830   0.92508    0.135
 6840.00    0.94907   0.92351    0.137
 6841.00    0.93182   0.92296    0.133
 6842.00    0.91425   0.92326    0.130
 6843.00    0.90468   0.92435    0.127
 6844.00    0.89575   0.92599    0.124
 6845.00    0.90990   0.92775    0.123
 6846.00    0.92410   0.92941    0.122
 6847.00    0.93917   0.93060    0.126
 6848.00    0.95349   0.93121    0.131
 6849.00    0.96010   0.93106    0.131
 6850.00    0.96467   0.93024    0.131
 6851.00    0.95411   0.92875    0.131
 6852.00    0.94369   0.92684    0.132
 6853.00    0.93415   0.92461    0.131
 6854.00    0.92510   0.92229    0.131
 6855.00    0.91824   0.92019    0.131
 6856.00    0.91053   0.91847    0.130
 6857.00    0.89970   0.91713    0.129
 6858.00    0.89220   0.91644    0.128
 6859.00    0.89502   0.91603    0.129
 6860.00    0.89801   0.91599    0.129
 6861.00    0.90148   0.91622    0.128
 6862.00    0.90365   0.91660    0.127
 6863.00    0.90288   0.91707    0.125
 6864.00    0.90326   0.91736    0.125
 6865.00    0.90589   0.91760    0.127
 6866.00    0.90726   0.91751    0.129
 6867.00    0.90651   0.91743    0.131
 6868.00    0.90501   0.91733    0.132
 6869.00    0.90240   0.91749    0.131
 6870.00    0.90330   0.91767    0.130
 6871.00    0.90878   0.91814    0.130
 6872.00    0.91352   0.91866    0.130
 6873.00    0.91740   0.91943    0.130
 6874.00    0.91848   0.92018    0.130
 6875.00    0.91669   0.92107    0.131
 6876.00    0.91047   0.92183    0.132
 6877.00    0.90027   0.92261    0.131
 6878.00    0.90051   0.92322    0.130
 6879.00    0.90902   0.92393    0.130
 6880.00    0.91486   0.92460    0.129
 6881.00    0.91882   0.92553    0.127
 6882.00    0.91929   0.92671    0.126
 6883.00    0.91761   0.92833    0.125
 6884.00    0.91945   0.93031    0.125
 6885.00    0.92317   0.93251    0.124
 6886.00    0.91810   0.93494    0.124
 6887.00    0.90897   0.93731    0.124
 6888.00    0.90750   0.93954    0.126
 6889.00    0.90909   0.94150    0.128
 6890.00    0.90781   0.94309    0.130
 6891.00    0.90555   0.94424    0.131
 6892.00    0.90802   0.94495    0.131
 6893.00    0.91184   0.94545    0.130
 6894.00    0.90636   0.94559    0.130
 6895.00    0.89868   0.94575    0.130
 6896.00    0.90060   0.94581    0.129
 6897.00    0.90436   0.94606    0.128
 6898.00    0.89988   0.94631    0.130
 6899.00    0.89419   0.94677    0.132
 6900.00    0.89882   0.94727    0.131
 6901.00    0.90456   0.94791    0.130
 6902.00    0.91028   0.94850    0.129
 6903.00    0.91599   0.94898    0.128
 6904.00    0.91682   0.94932    0.127
 6905.00    0.91747   0.94926    0.126
 6906.00    0.92332   0.94906    0.126
 6907.00    0.92874   0.94827    0.126
 6908.00    0.91848   0.94733    0.127
 6909.00    0.90855   0.94589    0.128
 6910.00    0.90398   0.94436    0.128
 6911.00    0.89953   0.94268    0.128
 6912.00    0.89636   0.94108    0.128
 6913.00    0.89035   0.93971    0.129
 6914.00    0.86403   0.93854    0.130
 6915.00    0.84616   0.93791    0.132
 6916.00    0.87488   0.93723    0.134
 6917.00    0.89961   0.93713    0.135
 6918.00    0.90669   0.93674    0.134
 6919.00    0.91211   0.93658    0.133
 6920.00    0.91150   0.93612    0.132
 6921.00    0.91104   0.93557    0.132
 6922.00    0.91104   0.93486    0.131
 6923.00    0.91066   0.93399    0.130
 6924.00    0.90934   0.93324    0.129
 6925.00    0.90705   0.93260    0.128
 6926.00    0.90263   0.93226    0.128
 6927.00    0.89888   0.93221    0.129
 6928.00    0.89642   0.93238    0.130
 6929.00    0.89897   0.93283    0.132
 6930.00    0.90992   0.93336    0.133
 6931.00    0.91402   0.93408    0.134
 6932.00    0.90802   0.93479    0.134
 6933.00    0.89778   0.93558    0.135
 6934.00    0.88204   0.93636    0.135
 6935.00    0.87753   0.93693    0.136
 6936.00    0.88583   0.93740    0.136
 6937.00    0.89698   0.93747    0.136
 6938.00    0.91102   0.93731    0.135
 6939.00    0.91175   0.93676    0.135
 6940.00    0.90067   0.93597    0.134
 6941.00    0.89764   0.93489    0.133
 6942.00    0.90089   0.93367    0.132
 6943.00    0.90833   0.93244    0.132
 6944.00    0.91864   0.93127    0.132
 6945.00    0.91623   0.93036    0.132
 6946.00    0.90616   0.92970    0.131
 6947.00    0.90352   0.92926    0.131
 6948.00    0.90479   0.92911    0.132
 6949.00    0.90667   0.92913    0.133
 6950.00    0.90884   0.92936    0.135
 6951.00    0.91444   0.92982    0.136
 6952.00    0.92140   0.93063    0.137
 6953.00    0.91906   0.93161    0.136
 6954.00    0.91360   0.93307    0.135
 6955.00    0.90854   0.93461    0.136
 6956.00    0.90358   0.93652    0.137
 6957.00    0.90091   0.93834    0.138
 6958.00    0.89878   0.94037    0.139
 6959.00    0.90304   0.94212    0.139
 6960.00    0.90849   0.94389    0.137
 6961.00    0.90245   0.94533    0.136
 6962.00    0.89477   0.94658    0.134
 6963.00    0.89581   0.94750    0.133
 6964.00    0.89775   0.94805    0.131
 6965.00    0.88971   0.94820    0.132
 6966.00    0.88101   0.94790    0.133
 6967.00    0.89459   0.94712    0.134
 6968.00    0.90889   0.94571    0.135
 6969.00    0.91007   0.94368    0.135
 6970.00    0.91100   0.94100    0.135
 6971.00    0.90433   0.93772    0.139
 6972.00    0.89808   0.93421    0.142
 6973.00    0.89792   0.93035    0.140
 6974.00    0.89658   0.92686    0.138
 6975.00    0.88380   0.92362    0.138
 6976.00    0.87248   0.92138    0.139
 6977.00    0.87121   0.92002    0.138
 6978.00    0.86965   0.92003    0.136
 6979.00    0.86653   0.92121    0.135
 6980.00    0.86611   0.92355    0.134
 6981.00    0.87730   0.92660    0.134
 6982.00    0.88724   0.93017    0.133
 6983.00    0.89272   0.93366    0.132
 6984.00    0.89679   0.93698    0.132
 6985.00    0.89665   0.93978    0.133
 6986.00    0.89578   0.94205    0.133
 6987.00    0.89304   0.94367    0.132
 6988.00    0.89157   0.94474    0.132
 6989.00    0.89288   0.94528    0.134
 6990.00    0.89899   0.94543    0.136
 6991.00    0.91421   0.94518    0.137
 6992.00    0.91986   0.94459    0.139
 6993.00    0.90964   0.94365    0.140
 6994.00    0.90419   0.94237    0.140
 6995.00    0.90567   0.94085    0.139
 6996.00    0.90365   0.93909    0.139
 6997.00    0.89718   0.93722    0.139
 6998.00    0.89241   0.93529    0.139
 6999.00    0.88955   0.93338    0.139
 7000.00    0.88768   0.93175    0.139
 7001.00    0.88678   0.93030    0.138
 7002.00    0.88594   0.92925    0.137
 7003.00    0.88514   0.92835    0.137
 7004.00    0.88520   0.92778    0.137
 7005.00    0.88593   0.92731    0.135
 7006.00    0.88260   0.92697    0.135
 7007.00    0.87652   0.92662    0.135
 7008.00    0.86500   0.92613    0.136
 7009.00    0.85026   0.92553    0.137
 7010.00    0.84876   0.92461    0.138
 7011.00    0.85411   0.92371    0.139
 7012.00    0.85637   0.92259    0.140
 7013.00    0.85724   0.92174    0.141
 7014.00    0.85878   0.92086    0.142
 7015.00    0.86058   0.92044    0.141
 7016.00    0.86602   0.92017    0.141
 7017.00    0.87265   0.92055    0.140
 7018.00    0.87570   0.92094    0.141
 7019.00    0.87777   0.92183    0.142
 7020.00    0.87466   0.92249    0.142
 7021.00    0.87038   0.92347    0.142
 7022.00    0.88166   0.92411    0.139
 7023.00    0.89575   0.92515    0.137
 7024.00    0.89393   0.92595    0.137
 7025.00    0.88990   0.92722    0.138
 7026.00    0.88372   0.92827    0.137
 7027.00    0.87733   0.92972    0.135
 7028.00    0.88947   0.93092    0.137
 7029.00    0.90277   0.93234    0.140
 7030.00    0.89213   0.93351    0.141
 7031.00    0.88084   0.93479    0.142
 7032.00    0.87763   0.93589    0.144
 7033.00    0.87443   0.93719    0.145
 7034.00    0.87144   0.93851    0.144
 7035.00    0.86875   0.94022    0.142
 7036.00    0.87028   0.94216    0.144
 7037.00    0.87248   0.94449    0.146
 7038.00    0.88082   0.94711    0.144
 7039.00    0.88745   0.95009    0.143
 7040.00    0.88255   0.95301    0.142
 7041.00    0.88152   0.95589    0.140
 7042.00    0.90067   0.95822    0.141
 7043.00    0.91593   0.95992    0.142
 7044.00    0.91480   0.96060    0.142
 7045.00    0.91391   0.96029    0.142
 7046.00    0.91384   0.95875    0.141
 7047.00    0.91178   0.95598    0.141
 7048.00    0.90391   0.95201    0.144
 7049.00    0.90116   0.94690    0.146
 7050.00    0.91116   0.94093   -2.000
 7051.00    0.91385   0.93435   -2.000
 7052.00    0.90082   0.92740   -2.000
 7053.00    0.89144   0.92061   -2.000
 7054.00    0.88887   0.91396   -2.000
 7055.00    0.89827   0.90804   -2.000
 7056.00    0.92718   0.90257   -2.000
 7057.00    0.93449   0.89798   -2.000
 7058.00    0.91090   0.89389   -2.000
 7059.00    0.90707   0.89059   -2.000
 7060.00    0.92811   0.88777   -2.000
 7061.00    0.94289   0.88562   -2.000
 7062.00    0.95074   0.88391   -2.000
 7063.00    0.96081   0.88276   -2.000
 7064.00    0.97306   0.88210   -2.000
 7065.00    0.95864   0.88195   -2.000
 7066.00    0.92120   0.88240   -2.000
 7067.00    0.90444   0.88337   -2.000
 7068.00    0.90337   0.88495   -2.000
 7069.00    0.91683   0.88701   -2.000
 7070.00    0.93997   0.88942   -2.000
 7071.00    0.96889   0.89195   -2.000
 7072.00    1.00119   0.89435   -2.000
 7073.00    1.01300   0.89647   -2.000
 7074.00    1.01437   0.89793   -2.000
 7075.00    0.99171   0.89873   -2.000
 7076.00    0.95844   0.89847   -2.000
 7077.00    0.96060   0.89728   -2.000
 7078.00    0.97620   0.89486   -2.000
 7079.00    0.97611   0.89150   -2.000
 7080.00    0.97098   0.88705   -2.000
 7081.00    0.97660   0.88195   -2.000
 7082.00    0.98512   0.87614   -2.000
 7083.00    0.97009   0.87025   -2.000
 7084.00    0.94986   0.86419   -2.000
 7085.00    0.92837   0.85874   -2.000
 7086.00    0.90666   0.85356   -2.000
 7087.00    0.89185   0.84940   -2.000
 7088.00    0.87798   0.84579   -2.000
 7089.00    0.87462   0.84333   -2.000
 7090.00    0.87227   0.84150   -2.000
 7091.00    0.87328   0.84075   -2.000
 7092.00    0.87449   0.84055   -2.000
 7093.00    0.88734   0.84107   -2.000
 7094.00    0.90030   0.84213   -2.000
 7095.00    0.89075   0.84337   -2.000
 7096.00    0.88152   0.84514   -2.000
 7097.00    0.88059   0.84656   -2.000
 7098.00    0.87769   0.84845   -2.000
 7099.00    0.84846   0.84958   -2.000
 7100.00    0.82088   0.85105   -2.000
 7101.00    0.80785   0.85161   -2.000
 7102.00    0.79857   0.85239   -2.000
 7103.00    0.81383   0.85233   -2.000
 7104.00    0.82867   0.85246   -2.000
 7105.00    0.84138   0.85193   -2.000
 7106.00    0.84662   0.85161   -2.000
 7107.00    0.82109   0.85096   -2.000
 7108.00    0.79649   0.85059   -2.000
 7109.00    0.77509   0.85016   -2.000
 7110.00    0.76542   0.85005   -2.000
 7111.00    0.78947   0.85003   -2.000
 7112.00    0.80430   0.85026   -2.000
 7113.00    0.79650   0.85051   -2.000
 7114.00    0.79741   0.85081   -2.000
 7115.00    0.81675   0.85091   -2.000
 7116.00    0.83111   0.85086   -2.000
 7117.00    0.83631   0.85034   -2.000
 7118.00    0.84703   0.84958   -2.000
 7119.00    0.86662   0.84822   -2.000
 7120.00    0.88493   0.84657   -2.000
 7121.00    0.90143   0.84446   -2.000
 7122.00    0.90209   0.84205   -2.000
 7123.00    0.88308   0.83955   -2.000
 7124.00    0.87692   0.83679   -2.000
 7125.00    0.88482   0.83439   -2.000
 7126.00    0.87198   0.83193   -2.000
 7127.00    0.83913   0.83027   -2.000
 7128.00    0.83438   0.82879   -2.000
 7129.00    0.85352   0.82831   -2.000
 7130.00    0.84807   0.82817   -2.000
 7131.00    0.82420   0.82900   -2.000
 7132.00    0.81831   0.83014   -2.000
 7133.00    0.82424   0.83184   -2.000
 7134.00    0.81811   0.83369   -2.000
 7135.00    0.80503   0.83557   -2.000
 7136.00    0.81719   0.83737   -2.000
 7137.00    0.84201   0.83880   -2.000
 7138.00    0.85548   0.83995   -2.000
 7139.00    0.86401   0.84054   -2.000
 7140.00    0.86020   0.84085   -2.000
 7141.00    0.85180   0.84062   -2.000
 7142.00    0.83930   0.84026   -2.000
 7143.00    0.82551   0.83956   -2.000
 7144.00    0.80975   0.83903   -2.000
 7145.00    0.79346   0.83843   -2.000
 7146.00    0.79296   0.83834   -2.000
 7147.00    0.79586   0.83841   -2.000
 7148.00    0.80903   0.83919   -2.000
 7149.00    0.82395   0.84015   -2.000
 7150.00    0.82415   0.84178   -2.000
 7151.00    0.82246   0.84334   -2.000
 7152.00    0.81060   0.84527   -2.000
 7153.00    0.79782   0.84675   -2.000
 7154.00    0.80768   0.84827   -2.000
 7155.00    0.81877   0.84904   -2.000
 7156.00    0.82961   0.84958   -2.000
 7157.00    0.84038   0.84937   -2.000
 7158.00    0.84505   0.84890   -2.000
 7159.00    0.85124   0.84802   -2.000
 7160.00    0.89193   0.84704   -2.000
 7161.00    0.92802   0.84618   -2.000
 7162.00    0.90602   0.84549   -2.000
 7163.00    0.88466   0.84540   -2.000
 7164.00    0.86879   0.84565   -2.000
 7165.00    0.85406   0.84667   -2.000
 7166.00    0.84653   0.84797   -2.000
 7167.00    0.84480   0.84980   -2.000
 7168.00    0.87181   0.85164   -2.000
 7169.00    0.89172   0.85353   -2.000
 7170.00    0.88300   0.85508   -2.000
 7171.00    0.87126   0.85622   -2.000
 7172.00    0.84941   0.85681   -2.000
 7173.00    0.83302   0.85677   -2.000
 7174.00    0.83201   0.85621   -2.000
 7175.00    0.83708   0.85508   -2.000
 7176.00    0.85681   0.85364   -2.000
 7177.00    0.86673   0.85185   -2.000
 7178.00    0.85622   0.85002   -2.000
 7179.00    0.84367   0.84803   -2.000
 7180.00    0.82743   0.84620   -2.000
 7181.00    0.81623   0.84428   -2.000
 7182.00    0.81303   0.84260   -2.000
 7183.00    0.80172   0.84083   -2.000
 7184.00    0.77912   0.83935   -2.000
 7185.00    0.76591   0.83783   -2.000
 7186.00    0.76418   0.83672   -2.000
 7187.00    0.76091   0.83566   -2.000
 7188.00    0.75600   0.83514   -2.000
 7189.00    0.77062   0.83478   -2.000
 7190.00    0.80383   0.83504   -2.000
 7191.00    0.81054   0.83548   -2.000
 7192.00    0.79504   0.83641   -2.000
 7193.00    0.77672   0.83745   -2.000
 7194.00    0.75633   0.83871   -2.000
 7195.00    0.75401   0.83996   -2.000
 7196.00    0.76340   0.84116   -2.000
 7197.00    0.77226   0.84221   -2.000
 7198.00    0.78081   0.84297   -2.000
 7199.00    0.78752   0.84350   -2.000
 7200.00    0.79332   0.84365   -2.000
 7201.00    0.79730   0.84357   -2.000
 7202.00    0.80051   0.84314   -2.000
 7203.00    0.78245   0.84264   -2.000
 7204.00    0.75660   0.84203   -2.000
 7205.00    0.75683   0.84157   -2.000
 7206.00    0.76513   0.84131   -2.000
 7207.00    0.76094   0.84134   -2.000
 7208.00    0.75354   0.84185   -2.000
 7209.00    0.74492   0.84262   -2.000
 7210.00    0.73606   0.84400   -2.000
 7211.00    0.74429   0.84542   -2.000
 7212.00    0.75536   0.84731   -2.000
 7213.00    0.76442   0.84903   -2.000
 7214.00    0.77323   0.85099   -2.000
 7215.00    0.76823   0.85271   -2.000
 7216.00    0.76204   0.85452   -2.000
 7217.00    0.77525   0.85612   -2.000
 7218.00    0.78945   0.85778   -2.000
