###################################################################
## OUTPUT of StarlightChains_v04.for    [Cid@UFSC - 01/Apr/2007] ##
###################################################################

## Some input info
KUG0210-078._29_32.txt                   [arq_obs]
Base.CB07.vall.4m                        [arq_base]
Masks.EmLines.NEW.gm                     [arq_masks]
StCv04.C11.config                        [arq_config]
   66                                    [N_base]
    0                                    [N_YAV_components = # of components with extra extinction!]
    0                                    [i_FitPowerLaw (1/0 = Yes/No)]
-9.99                                    [alpha_PowerLaw]
CCM                                      [red_law_option]
 1.458241                                [q_norm = A(l_norm)/A(V)]

## (Re)Sampling Parameters
 3741.00                                 [l_ini (A)]
 7218.00                                 [l_fin (A)]
    1.00                                 [dl    (A)]     (OBS: dl_cushion =    50.00 A)

## Normalization info
 4020.00                                 [l_norm (A) - for base]
 4010.00                                 [llow_norm (A) - window for f_obs]
 4060.00                                 [lupp_norm (A) - window for f_obs]
8.748713E-17                             [fobs_norm (in input units)]

## S/N
 3691.00                                 [llow_SN (A) - window for S/N]
 7268.00                                 [lupp_SN (A) - window for S/N]
   9.608                                 [S/N in S/N window]
  11.732                                 [S/N in norm. window]
   0.103                                 [S/N_err in S/N window]
   0.126                                 [S/N_err in norm. window]
  1.0000                                 [fscale_chi2]

## etc...
    -2007408                             [idum_orig]
  2432                                   [NOl_eff]
  2422                                   [Nl_eff]
    10    NSIGMA                         [Ntot_cliped & clip_method]
  3344950                                [Nglobal_steps]
   7                                     [N_chains]
  46                                     [NEX0s_base = N_base in EX0s-fits]
 0   0   1       10   2.0   1.138E+04    [Clip-Bug, RC-Crash & Burn-In warning-flags, n_censored_weights, wei_nsig_threshold & wei_limit]
    43     43.250     42.854      0.397  [idt_all, wdt_TotTime, wdt_UsrTime & wdt_SysTime (sec)]

## Synthesis Results - Best model ##

 6.00781E-05                             [chi2/Nl_eff]
     4.80762                             [adev (%)]

   101.69868                             [sum-of-x (%)]
 5.42018E-17                             [Flux_tot (units of input spectrum!)]
 2.80183E-12                             [Mini_tot (???)]
 1.40792E-12                             [Mcor_tot (???)]

 -13.97                                  [v0_min  (km/s)]
 312.12                                  [vd_min  (km/s)]
-0.3690                                  [AV_min  (mag)]
 0.0000                                  [YAV_min (mag)]

# j     x_j(%)      Mini_j(%)     Mcor_j(%)     age_j(yr)     Z_j      (L/M)_j    YAV?  Mstars   component_j        a/Fe...       SSP_chi2r SSP_adev(%)   SSP_AV   SSP_x(%)
  1      5.7685     1.0030E-02    1.9960E-02    1.000000E+06  0.00400  1.094E-02    0   1.0000   age020_m42            0.0000     1.8964E-04     8.4833   2.7141    86.0030
  2      0.0000     0.0000E+00    0.0000E+00    3.160000E+06  0.00400  4.007E-02    0   0.9999   age045_m42            0.0000     1.4327E-04     7.6627   1.9586    92.6946
  3      3.8169     2.8596E-03    5.3994E-03    5.010000E+06  0.00400  2.539E-02    0   0.9488   age055_m42            0.0000     1.5827E-04     7.8468   2.2948    90.0118
  4      0.0000     0.0000E+00    0.0000E+00    6.610000E+06  0.00400  2.620E-02    0   0.9220   age061_m42            0.0000     1.4497E-04     7.4849   1.8906    92.7430
  5      8.7422     1.2579E-02    2.2184E-02    1.000000E+07  0.00400  1.322E-02    0   0.8862   age070_m42            0.0000     1.3122E-04     6.2013   1.6585    93.2475
  6      2.2253     5.3697E-03    9.1590E-03    1.445000E+07  0.00400  7.883E-03    0   0.8571   age078_m42            0.0000     1.4323E-04     6.5449   1.9851    90.9046
  7      0.0000     0.0000E+00    0.0000E+00    2.512000E+07  0.00400  5.251E-03    0   0.8174   age090_m42            0.0000     1.2900E-04     5.9890   1.5352    93.5812
  8      0.0000     0.0000E+00    0.0000E+00    4.000000E+07  0.00400  3.649E-03    0   0.7851   age104_m42            0.0000     1.2226E-04     5.9714   1.2977    94.6809
  9      0.0000     0.0000E+00    0.0000E+00    5.500000E+07  0.00400  3.098E-03    0   0.7629   age110_m42            0.0000     1.3584E-04     6.5458   1.4251    95.4352
 10      0.0000     0.0000E+00    0.0000E+00    1.015200E+08  0.00400  2.228E-03    0   0.7207   age116_m42            0.0000     1.5265E-04     6.9508   1.4279    96.1033
 11      0.0000     0.0000E+00    0.0000E+00    2.861200E+08  0.00400  1.093E-03    0   0.6648   age125_m42            0.0000     1.4544E-04     5.9735   0.8655    98.6293
 12      0.0000     0.0000E+00    0.0000E+00    5.088000E+08  0.00400  6.597E-04    0   0.6365   age130_m42            0.0000     1.6949E-04     6.6487   0.8271   100.3490
 13      0.0000     0.0000E+00    0.0000E+00    1.434000E+09  0.00400  2.132E-04    0   0.5798   age139_m42            0.0000     1.3097E-04     6.1585  -0.1665   103.1707
 14      0.0000     0.0000E+00    0.0000E+00    4.250000E+09  0.00400  5.895E-05    0   0.5377   age158_m42            0.0000     1.0826E-04     6.8184  -0.6424   100.4027
 15      0.0918     4.9773E-02    5.1625E-02    7.500000E+09  0.00400  3.510E-05    0   0.5212   age171_m42            0.0000     1.2258E-04     7.2757  -0.8483   100.2746
 16      0.0000     0.0000E+00    0.0000E+00    1.300000E+10  0.00400  2.005E-05    0   0.5034   age193_m42            0.0000     1.4094E-04     7.6291  -1.0000    99.5776
 17      0.0000     0.0000E+00    0.0000E+00    1.800000E+10  0.00400  1.525E-05    0   0.4967   age213_m42            0.0000     1.3681E-04     7.4317  -1.0000    98.6306
 18      0.0000     0.0000E+00    0.0000E+00    1.000000E+06  0.00800  1.238E-02    0   1.0000   age020_m52            0.0000     1.9045E-04     8.4960   2.7096    86.1891
 19      5.2493     3.2483E-03    6.4422E-03    3.160000E+06  0.00800  3.074E-02    0   0.9966   age045_m52            0.0000     1.8638E-04     8.4568   2.6297    87.0614
 20      0.0000     0.0000E+00    0.0000E+00    5.010000E+06  0.00800  2.668E-02    0   0.9443   age055_m52            0.0000     1.6389E-04     7.8945   2.3829    89.0705
 21      0.0000     0.0000E+00    0.0000E+00    6.610000E+06  0.00800  2.136E-02    0   0.9177   age061_m52            0.0000     1.0344E-04     6.0355   1.1551    94.5239
 22      0.1297     2.0299E-04    3.5658E-04    1.000000E+07  0.00800  1.215E-02    0   0.8827   age070_m52            0.0000     1.3487E-04     5.8789   1.8522    92.5834
 23      0.0000     0.0000E+00    0.0000E+00    1.445000E+07  0.00800  8.717E-03    0   0.8552   age078_m52            0.0000     1.3793E-04     6.3706   1.9504    92.1783
 24      4.1698     1.4184E-02    2.3039E-02    2.512000E+07  0.00800  5.592E-03    0   0.8162   age090_m52            0.0000     1.2677E-04     5.7428   1.5987    94.6725
 25      5.0873     2.4838E-02    3.8758E-02    4.000000E+07  0.00800  3.896E-03    0   0.7841   age104_m52            0.0000     1.2444E-04     5.8011   1.4945    95.8766
 26      0.0000     0.0000E+00    0.0000E+00    1.015200E+08  0.00800  2.148E-03    0   0.7226   age116_m52            0.0000     1.3436E-04     6.4050   1.4059    96.5492
 27      0.0000     0.0000E+00    0.0000E+00    2.861200E+08  0.00800  9.925E-04    0   0.6683   age125_m52            0.0000     1.6999E-04     6.5940   0.8926   101.2674
 28      2.6063     1.5784E-01    1.9280E-01    9.047900E+08  0.00800  3.141E-04    0   0.6138   age135_m52            0.0000     1.6900E-04     6.8879   0.0394   107.2620
 29      5.2787     5.8413E-01    6.8037E-01    1.434000E+09  0.00800  1.719E-04    0   0.5853   age139_m52            0.0000     1.1586E-04     6.3686  -0.5434   105.2297
 30      0.0000     0.0000E+00    0.0000E+00    2.500000E+09  0.00800  7.872E-05    0   0.5600   age150_m52            0.0000     1.3681E-04     7.5932  -0.8495   103.7342
 31      6.1958     2.7181E+00    2.9350E+00    4.250000E+09  0.00800  4.336E-05    0   0.5426   age158_m52            0.0000     1.3995E-04     7.6790  -0.8661   102.8176
 32      0.0000     0.0000E+00    0.0000E+00    6.250000E+09  0.00800  3.159E-05    0   0.5319   age166_m52            0.0000     1.8128E-04     8.2132  -1.0000   101.6268
 33      0.0000     0.0000E+00    0.0000E+00    1.300000E+10  0.00800  1.361E-05    0   0.5073   age193_m52            0.0000     4.5933E-04    12.5838  -1.0000    90.0311
 34      0.0000     0.0000E+00    0.0000E+00    1.800000E+10  0.00800  9.886E-06    0   0.4990   age213_m52            0.0000     6.2284E-04    14.9443  -1.0000    86.8631
 35      0.0000     0.0000E+00    0.0000E+00    1.000000E+06  0.02000  1.544E-02    0   1.0000   age020_m62            0.0000     1.9286E-04     8.5288   2.7073    86.3543
 36      0.0000     0.0000E+00    0.0000E+00    3.160000E+06  0.02000  3.762E-02    0   0.9858   age045_m62            0.0000     1.9292E-04     8.5362   2.6438    87.1861
 37      0.0000     0.0000E+00    0.0000E+00    5.010000E+06  0.02000  3.296E-02    0   0.9342   age055_m62            0.0000     1.5651E-04     7.8852   2.2432    91.4575
 38      9.8413     1.6222E-02    2.8605E-02    8.710000E+06  0.02000  1.154E-02    0   0.8861   age067_m62            0.0000     1.7820E-04     6.3563   1.3909    92.3972
 39      0.0000     0.0000E+00    0.0000E+00    1.445000E+07  0.02000  7.663E-03    0   0.8472   age078_m62            0.0000     1.2785E-04     5.3008   1.5210    93.9415
 40      0.0000     0.0000E+00    0.0000E+00    2.512000E+07  0.02000  4.532E-03    0   0.8099   age090_m62            0.0000     1.3168E-04     5.2216   1.5151    93.5863
 41      0.0000     0.0000E+00    0.0000E+00    5.500000E+07  0.02000  2.733E-03    0   0.7595   age110_m62            0.0000     1.2452E-04     5.7739   1.4798    95.1248
 42      1.3923     1.9346E-02    2.6892E-02    1.609000E+08  0.02000  1.369E-03    0   0.6985   age120_m62            0.0000     1.6148E-04     6.5442   1.2788    98.9300
 43      2.6389     5.5695E-02    7.4414E-02    2.861200E+08  0.02000  9.013E-04    0   0.6714   age125_m62            0.0000     2.0246E-04     6.9866   1.0049   102.5087
 44      0.0000     0.0000E+00    0.0000E+00    5.088000E+08  0.02000  5.028E-04    0   0.6449   age130_m62            0.0000     2.2714E-04     7.7153   0.5787   106.8073
 45      0.0000     0.0000E+00    0.0000E+00    9.047900E+08  0.02000  2.428E-04    0   0.6179   age135_m62            0.0000     1.6663E-04     7.5324  -0.0402   107.3245
 46      0.0000     0.0000E+00    0.0000E+00    1.434000E+09  0.02000  1.263E-04    0   0.5908   age139_m62            0.0000     1.4697E-04     7.5722  -0.4956   106.1988
 47      0.8950     2.8447E-01    3.2115E-01    2.500000E+09  0.02000  5.985E-05    0   0.5673   age150_m62            0.0000     1.7376E-04     8.5427  -0.8974   105.9370
 48      2.7824     1.6181E+00    1.7607E+00    4.250000E+09  0.02000  3.271E-05    0   0.5468   age158_m62            0.0000     2.6826E-04     9.6257  -1.0000   100.8549
 49      0.0000     0.0000E+00    0.0000E+00    1.000000E+10  0.02000  1.360E-05    0   0.5167   age181_m62            0.0000     5.8218E-04    13.3212  -1.0000    91.9281
 50     24.4025     6.5158E+01    6.5002E+01    1.800000E+10  0.02000  7.124E-06    0   0.5013   age213_m62            0.0000     8.8706E-04    17.1905  -1.0000    85.6150
 51      0.0000     0.0000E+00    0.0000E+00    1.000000E+06  0.05000  2.592E-02    0   0.9998   age020_m72            0.0000     2.0038E-04     8.5977   2.7028    86.2757
 52      0.0000     0.0000E+00    0.0000E+00    3.160000E+06  0.05000  4.845E-02    0   0.9577   age045_m72            0.0000     1.7775E-04     8.3255   2.5136    88.7074
 53      3.4204     2.1180E-03    3.8553E-03    5.010000E+06  0.05000  3.072E-02    0   0.9147   age055_m72            0.0000     1.4876E-04     6.0712   2.0792    91.0760
 54      0.0000     0.0000E+00    0.0000E+00    6.610000E+06  0.05000  1.455E-02    0   0.8877   age061_m72            0.0000     2.4560E-04     7.9016   1.4425    92.2666
 55      0.0000     0.0000E+00    0.0000E+00    1.000000E+07  0.05000  9.074E-03    0   0.8524   age070_m72            0.0000     1.6201E-04     6.7933   2.2455    90.9013
 56      0.0000     0.0000E+00    0.0000E+00    2.512000E+07  0.05000  4.250E-03    0   0.7902   age090_m72            0.0000     1.4087E-04     5.9159   1.9476    92.8148
 57      0.0000     0.0000E+00    0.0000E+00    4.000000E+07  0.05000  3.087E-03    0   0.7618   age104_m72            0.0000     1.3968E-04     5.7458   1.7229    94.2699
 58      0.0000     0.0000E+00    0.0000E+00    1.015200E+08  0.05000  1.700E-03    0   0.7096   age116_m72            0.0000     1.5673E-04     6.0971   1.4361    98.0120
 59      0.0000     0.0000E+00    0.0000E+00    2.861200E+08  0.05000  7.384E-04    0   0.6633   age125_m72            0.0000     2.1930E-04     7.2887   0.8469   104.7781
 60      0.0000     0.0000E+00    0.0000E+00    5.088000E+08  0.05000  3.819E-04    0   0.6372   age130_m72            0.0000     1.9420E-04     7.7633   0.3068   108.1423
 61      0.0000     0.0000E+00    0.0000E+00    9.047900E+08  0.05000  1.676E-04    0   0.6110   age135_m72            0.0000     1.8559E-04     8.7956  -0.4435   108.1328
 62      0.0000     0.0000E+00    0.0000E+00    1.434000E+09  0.05000  8.837E-05    0   0.5874   age139_m72            0.0000     1.9344E-04     8.8273  -0.9117   107.9382
 63      0.0000     0.0000E+00    0.0000E+00    2.500000E+09  0.05000  4.233E-05    0   0.5598   age150_m72            0.0000     2.9826E-04    10.0579  -1.0000   101.8674
 64      0.0000     0.0000E+00    0.0000E+00    6.250000E+09  0.05000  1.435E-05    0   0.5249   age166_m72            0.0000     6.9023E-04    14.9834  -1.0000    89.0436
 65      0.0000     0.0000E+00    0.0000E+00    1.300000E+10  0.05000  6.513E-06    0   0.5036   age193_m72            0.0000     1.1330E-03    20.1770  -1.0000    82.1044
 66      6.9642     2.9263E+01    2.8797E+01    1.800000E+10  0.05000  4.527E-06    0   0.4945   age213_m72            0.0000     1.4327E-03    22.8997  -1.0000    77.3382


## Synthesis Results - Average & Chains ##

# j      x_j: min, <> & last-chain-values for 1 ...  7 chains
  1      5.7685      2.7911      2.3190      3.2609      4.4436      7.2314      5.3349      6.3490      3.2871
  2      0.0000      0.6973      1.4133      0.0000      0.0000      0.3371      0.0000      0.0000      0.0000
  3      3.8169      1.1231      0.0000      0.3680      1.2255      0.0984      3.0389      0.0000      2.7592
  4      0.0000      0.8589      0.2183      0.0000      2.9123      1.1761      1.1052      4.9551      0.0000
  5      8.7422      0.8172      0.8946      1.7125      2.4884      0.0000      0.0000      0.0000      0.0000
  6      2.2253      0.7721      0.4407      0.4812      3.5827      0.0000      1.1291      0.0000      0.7806
  7      0.0000      1.0931      1.1718     11.8569      0.0000      0.2287      0.0984      3.9568      3.2872
  8      0.0000      0.8318      0.4927      1.3456      0.6543      0.0000      0.0000      0.5364      3.2168
  9      0.0000      0.7233      0.0000      3.2317      0.0000      0.0000      4.2368      0.3341      0.8922
 10      0.0000      0.5830      1.9996      0.0000      0.0000      0.1558      0.0000      0.0430      0.2066
 11      0.0000      0.7791      2.0793      1.3407      1.1734      4.0191      0.5827      0.0000      0.0000
 12      0.0000      1.0240      1.6813      2.3660      0.4895      0.0000      4.6441      0.0000      0.4548
 13      0.0000      0.6639      0.0000      0.0000      0.0000      0.1561      0.6883      4.7673      0.0000
 14      0.0000      1.0181      1.3491      2.4240      3.4754      2.4684      0.0000      4.7282      0.8712
 15      0.0918      0.5062      1.3125      0.0000      1.0046      1.4290      1.1964      0.4636      0.0000
 16      0.0000      0.6952      1.3611      2.7999      0.1648      1.2903      0.0000      0.8131      0.0505
 17      0.0000      0.9505      0.3494      1.2326      0.0000      2.3078      2.8818      0.1660      3.6996
 18      0.0000      1.0868      2.3679      0.0000      2.2668      1.1739      3.1358      0.0000      0.0000
 19      5.2493      1.1025      3.7258      1.2695      1.1284      1.2199      2.0513      6.8066      0.0146
 20      0.0000      0.9934      0.0000      0.0000      2.2573      2.0400      0.0162      2.2914      3.0779
 21      0.0000      0.8776      0.0000      0.0000      0.0000      1.1999      2.8569      1.1981      3.0974
 22      0.1297      0.6669      0.0000      0.0000      2.0373      0.9764      0.0000      0.1767      4.4871
 23      0.0000      2.9115      3.7185      1.0722      5.8857      0.0000      0.2573      0.0000      3.8627
 24      4.1698      0.8938      0.9887      3.7719      0.9847      3.7614      0.5153      0.0000      1.0365
 25      5.0873      0.9280      0.0000      0.0000      1.7493      0.0000      0.0000      3.5406      0.0000
 26      0.0000      0.7831      0.6959      3.4491      0.0000      3.8225      1.0806      0.0000      0.0000
 27      0.0000      0.9748      0.0000      0.4980      0.2393      0.0000      2.3901      0.0000      0.3895
 28      2.6063      0.9305      2.1054      1.4164      2.4317      1.4909      0.2071      0.0000      5.3202
 29      5.2787      0.6823      0.2006      0.0000      2.3643      0.1438      0.0000      1.5264      0.0000
 30      0.0000      1.0572      1.1902      0.0000      3.6502      1.5233      1.4150      2.2693      1.1838
 31      6.1958      0.8500      0.2642      3.0610      3.2909      0.0000      0.0000      0.1996      0.8719
 32      0.0000      1.1756      1.1050      4.0203      3.1409      3.4147      0.6754      1.2669      4.3167
 33      0.0000      0.9457      0.0000      3.9221      0.0000      2.2491      0.6833      3.3052      0.0000
 34      0.0000      0.6569      0.3611      0.0000      0.3324      2.1559      2.9853      0.0000      1.3053
 35      0.0000      0.9289      2.3551      3.3747      0.5010      3.6763      1.2383      1.2549      0.0000
 36      0.0000      0.7698      0.9572      0.0000      0.0468      0.0000      3.8873      0.0000      2.7890
 37      0.0000      0.9516      0.8025      0.3919      0.0000      0.0000      1.7352      0.0000      1.1886
 38      9.8413      4.4938      3.5719      0.9452      1.5168      1.5358      3.7269      1.9288      2.0808
 39      0.0000      3.4789      7.0985      3.0532      0.7275      2.2892      0.3264      0.6102      1.8670
 40      0.0000      0.8093      0.4523      0.4214      0.4030      1.2101      0.0000      1.9762      2.1107
 41      0.0000      0.9829      0.0000      5.1692      2.0948      1.1857      1.9544      0.0000      0.0000
 42      1.3923      0.9849      0.6358      0.9196      3.0095      4.2174      0.0000      0.0000      2.0044
 43      2.6389      0.8830      1.7145      0.0000      0.8094      1.2509      1.9480      0.5490      0.5726
 44      0.0000      0.8926      0.0000      0.6429      0.0000      1.7633      0.0000      2.4803      1.7388
 45      0.0000      0.8569      1.3834      0.0000      1.2419      3.0384      0.0000      1.1633      0.0000
 46      0.0000      0.8170      0.5684      0.9291      0.5931      2.1717      1.9499      0.6357      0.2638
 47      0.8950      1.0786      2.3553      2.1406      1.7257      0.5310      1.8310      0.0000      1.0450
 48      2.7824      0.9863      3.6876      4.2018      0.5952      0.9842      3.4523      3.9688      1.4062
 49      0.0000      0.8224      0.1776      0.0000      2.3524      1.0759      1.3402      1.4878      0.0000
 50     24.4025      3.9035      3.9974      1.7030      0.8674      2.6700      3.6641      2.6555      5.5362
 51      0.0000      0.9539      1.0980      1.1993      3.0485      1.1641      1.1808      5.1469      0.5554
 52      0.0000      2.2633      0.8081      0.2307      0.0000      3.2023      3.1123      2.4683      3.3868
 53      3.4204      0.8547      0.2225      0.2407      0.6442      1.0996      0.0000      0.0000      1.5493
 54      0.0000     11.3781     11.3646      3.6690      1.2438      1.0411      3.9482      0.7280      2.6010
 55      0.0000      3.1787      1.7745      0.0000      1.7830      0.8320      4.9356      2.3586      1.1363
 56      0.0000      1.4538      0.4938      0.9009      3.4319      1.0844      2.4321      0.0000      1.4738
 57      0.0000      0.7957      0.0000      0.0000      0.0529      1.8882      0.0000      1.4595      0.0000
 58      0.0000      0.7216      0.4405      0.0000      2.6618      0.0000      1.0584      1.0516      0.2619
 59      0.0000      0.8926      0.5131      0.0000      0.6184      0.0000      1.5451      0.9459      0.0000
 60      0.0000      0.8597      0.4040      0.0000      0.0000      3.6955      0.0000      0.0418      2.1527
 61      0.0000      0.9614      0.0000      0.6203      0.7652      1.6618      0.0000      0.0000      0.0380
 62      0.0000      1.2616      1.2083      4.5920      2.2989      0.6646      0.0000      0.8154      3.6725
 63      0.0000      3.7722      3.7287      2.5881      0.3658      3.2688      4.1504      4.4132      4.9778
 64      0.0000      3.7467      4.4166      0.6031      1.5985      0.0000      0.6306      1.9056      1.7312
 65      0.0000      1.2501      0.9079      2.6250      3.2061      0.0000      1.4891      2.1745      0.3761
 66      6.9642      1.6536      2.6553      0.0000      4.6554      0.1611      0.0000      2.6134      0.1944

# j      m_j: min, <> & last-chain-values for 1 ...  7 chains
  1  1.9960E-02  2.5402E-02  1.9295E-02  3.2868E-02  3.3005E-02  8.5339E-02  5.3450E-02  4.9642E-02  3.2001E-02
  2  0.0000E+00  1.7324E-03  3.2102E-03  0.0000E+00  0.0000E+00  1.0859E-03  0.0000E+00  0.0000E+00  0.0000E+00
  3  5.3994E-03  4.1789E-03  0.0000E+00  1.5166E-03  3.7210E-03  4.7478E-04  1.2447E-02  0.0000E+00  1.0981E-02
  4  0.0000E+00  3.0095E-03  6.9927E-04  0.0000E+00  8.3276E-03  5.3436E-03  4.2628E-03  1.4916E-02  0.0000E+00
  5  2.2184E-02  5.4542E-03  5.4590E-03  1.2659E-02  1.3554E-02  0.0000E+00  0.0000E+00  0.0000E+00  0.0000E+00
  6  9.1590E-03  8.3589E-03  4.3620E-03  5.7699E-03  3.1653E-02  0.0000E+00  1.3456E-02  0.0000E+00  9.0388E-03
  7  0.0000E+00  1.6942E-02  1.6604E-02  2.0353E-01  0.0000E+00  4.5953E-03  1.6793E-03  5.2687E-02  5.4499E-02
  8  0.0000E+00  1.7819E-02  9.6488E-03  3.1925E-02  1.1439E-02  0.0000E+00  0.0000E+00  9.8727E-03  7.3713E-02
  9  0.0000E+00  1.7734E-02  0.0000E+00  8.7755E-02  0.0000E+00  0.0000E+00  1.1436E-01  7.0375E-03  2.3401E-02
 10  0.0000E+00  1.8775E-02  5.8876E-02  0.0000E+00  0.0000E+00  6.5086E-03  0.0000E+00  1.1886E-03  7.1186E-03
 11  0.0000E+00  4.7183E-02  1.1512E-01  8.9919E-02  5.7990E-02  3.1561E-01  3.8849E-02  0.0000E+00  0.0000E+00
 12  0.0000E+00  9.8371E-02  1.4766E-01  2.5173E-01  3.8379E-02  0.0000E+00  4.9112E-01  0.0000E+00  4.6734E-02
 13  0.0000E+00  1.7977E-01  0.0000E+00  0.0000E+00  0.0000E+00  5.4801E-02  2.0517E-01  1.1090E+00  0.0000E+00
 14  0.0000E+00  9.2458E-01  1.1201E+00  2.4381E+00  2.5758E+00  2.9068E+00  0.0000E+00  3.6891E+00  8.4629E-01
 15  5.1625E-02  7.4835E-01  1.7740E+00  0.0000E+00  1.2121E+00  2.7396E+00  1.9473E+00  5.8886E-01  0.0000E+00
 16  0.0000E+00  1.7379E+00  3.1105E+00  7.7517E+00  3.3625E-01  4.1826E+00  0.0000E+00  1.7463E+00  1.3512E-01
 17  0.0000E+00  3.0824E+00  1.0360E+00  4.4271E+00  0.0000E+00  9.7042E+00  1.0288E+01  4.6237E-01  1.2834E+01
 18  0.0000E+00  8.7409E-03  1.7410E-02  0.0000E+00  1.4878E-02  1.2242E-02  2.7763E-02  0.0000E+00  0.0000E+00
 19  6.4422E-03  3.5589E-03  1.0995E-02  4.5384E-03  2.9726E-03  5.1058E-03  7.2895E-03  1.8876E-02  5.0449E-05
 20  0.0000E+00  3.5009E-03  0.0000E+00  0.0000E+00  6.4918E-03  9.3219E-03  6.3038E-05  6.9372E-03  1.1602E-02
 21  0.0000E+00  3.7542E-03  0.0000E+00  0.0000E+00  0.0000E+00  6.6556E-03  1.3453E-02  4.4030E-03  1.4173E-02
 22  3.5658E-04  4.8239E-03  0.0000E+00  0.0000E+00  1.2027E-02  9.1585E-03  0.0000E+00  1.0982E-03  3.4719E-02
 23  0.0000E+00  2.8440E-02  3.3207E-02  1.1600E-02  4.6920E-02  0.0000E+00  2.7663E-03  0.0000E+00  4.0361E-02
 24  2.3039E-02  1.2989E-02  1.3135E-02  6.0708E-02  1.1679E-02  7.0879E-02  8.2439E-03  0.0000E+00  1.6113E-02
 25  3.8758E-02  1.8596E-02  0.0000E+00  0.0000E+00  2.8608E-02  0.0000E+00  0.0000E+00  6.0953E-02  0.0000E+00
 26  0.0000E+00  2.6228E-02  2.1308E-02  1.2795E-01  0.0000E+00  1.6602E-01  3.9846E-02  0.0000E+00  0.0000E+00
 27  0.0000E+00  6.5355E-02  0.0000E+00  3.6976E-02  1.3094E-02  0.0000E+00  1.7640E-01  0.0000E+00  2.7933E-02
 28  1.9280E-01  1.8105E-01  3.7450E-01  3.0520E-01  3.8612E-01  3.7614E-01  4.4358E-02  0.0000E+00  1.1073E+00
 29  6.8037E-01  2.3129E-01  6.2165E-02  0.0000E+00  6.5413E-01  6.3205E-02  0.0000E+00  4.4456E-01  0.0000E+00
 30  0.0000E+00  7.4883E-01  7.7070E-01  0.0000E+00  2.1100E+00  1.3990E+00  1.1033E+00  1.3809E+00  8.9690E-01
 31  2.9350E+00  1.0590E+00  3.0092E-01  4.2239E+00  3.3462E+00  0.0000E+00  0.0000E+00  2.1369E-01  1.1621E+00
 32  0.0000E+00  1.9708E+00  1.6936E+00  7.4644E+00  4.2973E+00  7.4228E+00  1.2466E+00  1.8247E+00  7.7411E+00
 33  0.0000E+00  3.5096E+00  0.0000E+00  1.6121E+01  0.0000E+00  1.0823E+01  2.7915E+00  1.0538E+01  0.0000E+00
 34  0.0000E+00  3.3011E+00  1.6592E+00  0.0000E+00  1.3635E+00  1.4049E+01  1.6516E+01  0.0000E+00  7.0171E+00
 35  0.0000E+00  5.9899E-03  1.3884E-02  2.4101E-02  2.6367E-03  3.0740E-02  8.7906E-03  6.9523E-03  0.0000E+00
 36  0.0000E+00  2.0085E-03  2.2831E-03  0.0000E+00  9.9543E-05  0.0000E+00  1.1165E-02  0.0000E+00  7.7836E-03
 37  0.0000E+00  2.6854E-03  2.0704E-03  1.2248E-03  0.0000E+00  0.0000E+00  5.3906E-03  0.0000E+00  3.5879E-03
 38  2.8605E-02  3.4356E-02  2.4965E-02  8.0032E-03  9.4635E-03  1.5224E-02  3.1366E-02  1.2668E-02  1.7016E-02
 39  0.0000E+00  3.8295E-02  7.1435E-02  3.7222E-02  6.5352E-03  3.2674E-02  3.9554E-03  5.7702E-03  2.1984E-02
 40  0.0000E+00  1.4399E-02  7.3580E-03  8.3045E-03  5.8518E-03  2.7920E-02  0.0000E+00  3.0208E-02  4.0173E-02
 41  0.0000E+00  2.7197E-02  0.0000E+00  1.5841E-01  4.7304E-02  4.2540E-02  5.9532E-02  0.0000E+00  0.0000E+00
 42  2.6892E-02  5.0033E-02  2.9530E-02  5.1741E-02  1.2477E-01  2.7781E-01  0.0000E+00  0.0000E+00  1.0892E-01
 43  7.4414E-02  6.5491E-02  1.1625E-01  0.0000E+00  4.8995E-02  1.2030E-01  1.5905E-01  3.4983E-02  4.5429E-02
 44  0.0000E+00  1.1399E-01  0.0000E+00  9.0928E-02  0.0000E+00  2.9199E-01  0.0000E+00  2.7212E-01  2.3752E-01
 45  0.0000E+00  2.1713E-01  3.2046E-01  0.0000E+00  2.5681E-01  9.9827E-01  0.0000E+00  2.5324E-01  0.0000E+00
 46  0.0000E+00  3.8049E-01  2.4203E-01  4.7926E-01  2.2543E-01  1.3115E+00  9.9974E-01  2.5437E-01  1.3143E-01
 47  3.2115E-01  1.0180E+00  2.0322E+00  2.2374E+00  1.3291E+00  6.4978E-01  1.9023E+00  0.0000E+00  1.0550E+00
 48  1.7607E+00  1.6416E+00  5.6111E+00  7.7454E+00  8.0844E-01  2.1240E+00  6.3254E+00  5.6751E+00  2.5036E+00
 49  0.0000E+00  3.1108E+00  6.1427E-01  0.0000E+00  7.2623E+00  5.2773E+00  5.5810E+00  4.8351E+00  0.0000E+00
 50  6.5002E+01  2.7349E+01  2.5604E+01  1.3215E+01  4.9596E+00  2.4256E+01  2.8261E+01  1.5984E+01  4.1491E+01
 51  0.0000E+00  3.6636E-03  3.8552E-03  5.1012E-03  9.5547E-03  5.7971E-03  4.9921E-03  1.6982E-02  2.2815E-03
 52  0.0000E+00  4.4543E-03  1.4540E-03  5.0291E-04  0.0000E+00  8.1723E-03  6.7431E-03  4.1735E-03  7.1301E-03
 53  3.8553E-03  2.5337E-03  6.0310E-04  7.9028E-04  1.5585E-03  4.2270E-03  0.0000E+00  0.0000E+00  4.9132E-03
 54  0.0000E+00  6.9117E-02  6.3112E-02  2.4684E-02  6.1660E-03  8.2003E-03  2.6403E-02  3.7995E-03  1.6901E-02
 55  0.0000E+00  2.9731E-02  1.5173E-02  0.0000E+00  1.3610E-02  1.0091E-02  5.0819E-02  1.8952E-02  1.1369E-02
 56  0.0000E+00  2.6914E-02  8.3577E-03  1.8471E-02  5.1849E-02  2.6031E-02  4.9563E-02  0.0000E+00  2.9184E-02
 57  0.0000E+00  1.9551E-02  0.0000E+00  0.0000E+00  1.0606E-03  6.0157E-02  0.0000E+00  3.0809E-02  0.0000E+00
 58  0.0000E+00  2.9990E-02  1.6735E-02  0.0000E+00  9.0280E-02  0.0000E+00  4.8425E-02  3.7549E-02  1.1644E-02
 59  0.0000E+00  7.9835E-02  4.1954E-02  0.0000E+00  4.5137E-02  0.0000E+00  1.5213E-01  7.2681E-02  0.0000E+00
 60  0.0000E+00  1.4283E-01  6.1363E-02  0.0000E+00  0.0000E+00  7.9604E-01  0.0000E+00  5.9642E-03  3.8253E-01
 61  0.0000E+00  3.4897E-01  0.0000E+00  2.4937E-01  2.2667E-01  7.8214E-01  0.0000E+00  0.0000E+00  1.4759E-02
 62  0.0000E+00  8.3493E-01  7.3107E-01  3.3658E+00  1.2417E+00  5.7031E-01  0.0000E+00  4.6363E-01  2.5999E+00
 63  0.0000E+00  4.9669E+00  4.4884E+00  3.7741E+00  3.9305E-01  5.5810E+00  6.0161E+00  4.9923E+00  7.0112E+00
 64  0.0000E+00  1.3645E+01  1.4705E+01  2.4328E+00  4.7512E+00  0.0000E+00  2.5283E+00  5.9624E+00  6.7442E+00
 65  0.0000E+00  9.6241E+00  6.3898E+00  2.2381E+01  2.0144E+01  0.0000E+00  1.2621E+01  1.4383E+01  3.0970E+00
 66  2.8797E+01  1.7984E+01  2.6402E+01  0.0000E+00  4.1321E+01  2.2714E+00  0.0000E+00  2.4419E+01  2.2619E+00

# AV, chi2 & Mass for <> & i_chain = 1 ...  7 solutions
AV      -0.3690      0.3624      0.2818      0.1865      0.1957      0.4142      0.4374      0.1848      0.2946
chi2 6.0078E-05  1.0306E-04  9.6437E-05  7.7872E-05  7.7737E-05  9.9561E-05  8.6873E-05  8.5357E-05  8.4127E-05
Mass 1.4079E-12  1.4296E-12  1.4034E-12  1.0192E-12  1.4004E-12  1.1819E-12  1.4364E-12  1.3110E-12  1.2202E-12
 -13.97                                  [v0_min (km/s) before EX0s...]
 312.12                                  [vd_min (km/s) before EX0s...]


## Synthetic spectrum (Best Model) ##l_obs f_obs f_syn wei
 3478    [Nl_obs]
 3741.00    0.65511   0.69678    0.000
 3742.00    0.66191   0.69701    0.000
 3743.00    0.63780   0.69108    0.000
 3744.00    0.62915   0.68148    0.000
 3745.00    0.62950   0.66942    0.274
 3746.00    0.66424   0.65690    0.282
 3747.00    0.71643   0.64754    0.285
 3748.00    0.71847   0.64206    0.277
 3749.00    0.69845   0.64183    0.265
 3750.00    0.70197   0.64841    0.255
 3751.00    0.71438   0.66024    0.247
 3752.00    0.72564   0.67519    0.247
 3753.00    0.73653   0.69234    0.250
 3754.00    0.74205   0.71027    0.245
 3755.00    0.74612   0.72570    0.239
 3756.00    0.76447   0.73791    0.240
 3757.00    0.78594   0.74740    0.244
 3758.00    0.77190   0.75305    0.247
 3759.00    0.75166   0.75582    0.250
 3760.00    0.76000   0.75613    0.266
 3761.00    0.77214   0.75320    0.286
 3762.00    0.77820   0.74873    0.261
 3763.00    0.78369   0.74284    0.237
 3764.00    0.76361   0.73452    0.235
 3765.00    0.74206   0.72570    0.234
 3766.00    0.68977   0.71692    0.235
 3767.00    0.63709   0.70895    0.236
 3768.00    0.62549   0.70449    0.232
 3769.00    0.61508   0.70323    0.228
 3770.00    0.63384   0.70530    0.227
 3771.00    0.65250   0.71334    0.226
 3772.00    0.66992   0.72616    0.227
 3773.00    0.68754   0.74111    0.228
 3774.00    0.70688   0.75934    0.224
 3775.00    0.72285   0.77989    0.222
 3776.00    0.71697   0.79984    0.226
 3777.00    0.71100   0.81865    0.230
 3778.00    0.70449   0.83547    0.233
 3779.00    0.69890   0.84966    0.236
 3780.00    0.69705   0.86026    0.242
 3781.00    0.69742   0.86599    0.244
 3782.00    0.70530   0.86793    0.234
 3783.00    0.71869   0.86577    0.230
 3784.00    0.74784   0.85897    0.244
 3785.00    0.77197   0.84860    0.254
 3786.00    0.78379   0.83544    0.248
 3787.00    0.79565   0.82036    0.244
 3788.00    0.80758   0.80319    0.241
 3789.00    0.80901   0.78404    0.242
 3790.00    0.79122   0.76430    0.251
 3791.00    0.77077   0.74425    0.257
 3792.00    0.74607   0.72297    0.258
 3793.00    0.73723   0.70195    0.253
 3794.00    0.75066   0.68352    0.241
 3795.00    0.74901   0.66801    0.237
 3796.00    0.72873   0.65692    0.243
 3797.00    0.69914   0.65196    0.248
 3798.00    0.65940   0.65396    0.251
 3799.00    0.65758   0.66331    0.251
 3800.00    0.69218   0.67844    0.250
 3801.00    0.73621   0.69725    0.249
 3802.00    0.78823   0.71923    0.249
 3803.00    0.80582   0.74284    0.247
 3804.00    0.79773   0.76448    0.244
 3805.00    0.82047   0.78360    0.240
 3806.00    0.86343   0.80025    0.236
 3807.00    0.86169   0.81301    0.231
 3808.00    0.83430   0.82228    0.226
 3809.00    0.79522   0.82780    0.230
 3810.00    0.75031   0.82930    0.240
 3811.00    0.73778   0.82794    0.242
 3812.00    0.73925   0.82381    0.240
 3813.00    0.72598   0.81633    0.238
 3814.00    0.70724   0.80658    0.235
 3815.00    0.71568   0.79588    0.239
 3816.00    0.73265   0.78473    0.245
 3817.00    0.73898   0.77408    0.249
 3818.00    0.74252   0.76404    0.253
 3819.00    0.73164   0.75426    0.251
 3820.00    0.71768   0.74637    0.249
 3821.00    0.68309   0.73992    0.240
 3822.00    0.64499   0.73224    0.231
 3823.00    0.60422   0.72440    0.222
 3824.00    0.56310   0.71684    0.213
 3825.00    0.56094   0.70792    0.226
 3826.00    0.56229   0.69666    0.244
 3827.00    0.57098   0.68257    0.236
 3828.00    0.58007   0.66700    0.228
 3829.00    0.57893   0.65001    0.225
 3830.00    0.57749   0.63190    0.222
 3831.00    0.56837   0.61445    0.228
 3832.00    0.56076   0.59810    0.235
 3833.00    0.58661   0.58504    0.236
 3834.00    0.61162   0.57698    0.236
 3835.00    0.62618   0.57360    0.231
 3836.00    0.63875   0.57713    0.227
 3837.00    0.63455   0.58738    0.230
 3838.00    0.63325   0.60239    0.233
 3839.00    0.65013   0.62292    0.235
 3840.00    0.66455   0.64642    0.239
 3841.00    0.66679   0.67066    0.251
 3842.00    0.67029   0.69590    0.261
 3843.00    0.67883   0.71916    0.261
 3844.00    0.69142   0.73949    0.260
 3845.00    0.71744   0.75751    0.254
 3846.00    0.74121   0.77222    0.250
 3847.00    0.75863   0.78351    0.000
 3848.00    0.76711   0.79156    0.000
 3849.00    0.75410   0.79704    0.000
 3850.00    0.74525   0.80065    0.000
 3851.00    0.74499   0.80245    0.000
 3852.00    0.73238   0.80283    0.000
 3853.00    0.69747   0.80153    0.000
 3854.00    0.67919   0.79969    0.000
 3855.00    0.68712   0.79810    0.000
 3856.00    0.69425   0.79595    0.000
 3857.00    0.70027   0.79462    0.000
 3858.00    0.68909   0.79416    0.000
 3859.00    0.65693   0.79410    0.000
 3860.00    0.65083   0.79567    0.000
 3861.00    0.67273   0.79800    0.000
 3862.00    0.67878   0.79979    0.000
 3863.00    0.66982   0.80141    0.000
 3864.00    0.64258   0.80280    0.000
 3865.00    0.60007   0.80272    0.000
 3866.00    0.57867   0.80134    0.000
 3867.00    0.57280   0.79877    0.000
 3868.00    0.54585   0.79556    0.000
 3869.00    0.50528   0.79260    0.000
 3870.00    0.47432   0.78896    0.000
 3871.00    0.44880   0.78548    0.000
 3872.00    0.46972   0.78247    0.000
 3873.00    0.51349   0.77893    0.000
 3874.00    0.56826   0.77554    0.000
 3875.00    0.62772   0.77121    0.000
 3876.00    0.66006   0.76514    0.000
 3877.00    0.68253   0.75817    0.000
 3878.00    0.69263   0.74962    0.000
 3879.00    0.69891   0.73925    0.000
 3880.00    0.70875   0.72654    0.000
 3881.00    0.71950   0.71174    0.234
 3882.00    0.70637   0.69687    0.229
 3883.00    0.68825   0.68132    0.221
 3884.00    0.71958   0.66544    0.226
 3885.00    0.75907   0.65131    0.234
 3886.00    0.74428   0.64041    0.232
 3887.00    0.72278   0.63464    0.228
 3888.00    0.74280   0.63355    0.225
 3889.00    0.76637   0.63762    0.223
 3890.00    0.78231   0.64836    0.222
 3891.00    0.79786   0.66380    0.222
 3892.00    0.80259   0.68230    0.227
 3893.00    0.80683   0.70250    0.233
 3894.00    0.79088   0.72323    0.231
 3895.00    0.77638   0.74309    0.230
 3896.00    0.79157   0.76116    0.233
 3897.00    0.80295   0.77695    0.236
 3898.00    0.76932   0.78975    0.226
 3899.00    0.73620   0.80165    0.218
 3900.00    0.70728   0.81142    0.214
 3901.00    0.67773   0.81940    0.211
 3902.00    0.64428   0.82708    0.208
 3903.00    0.61252   0.83350    0.204
 3904.00    0.58882   0.84110    0.194
 3905.00    0.57220   0.84834    0.187
 3906.00    0.58325   0.85523    0.186
 3907.00    0.59856   0.86378    0.187
 3908.00    0.62775   0.87108    0.194
 3909.00    0.65960   0.87766    0.200
 3910.00    0.69877   0.88378    0.201
 3911.00    0.73511   0.88746    0.203
 3912.00    0.76473   0.88930    0.208
 3913.00    0.79567   0.88845    0.211
 3914.00    0.82926   0.88469    0.214
 3915.00    0.84752   0.87935    0.216
 3916.00    0.83853   0.87166    0.218
 3917.00    0.82849   0.86269    0.220
 3918.00    0.81681   0.85288    0.223
 3919.00    0.82966   0.84228    0.224
 3920.00    0.87595   0.83180    0.222
 3921.00    0.90480   0.82092    0.227
 3922.00    0.91269   0.81021    0.241
 3923.00    0.88659   0.79849    0.249
 3924.00    0.82449   0.78598    0.247
 3925.00    0.78774   0.77290    0.243
 3926.00    0.77466   0.75803    0.236
 3927.00    0.76135   0.74275    0.239
 3928.00    0.74785   0.72695    0.250
 3929.00    0.71763   0.71153    0.253
 3930.00    0.67530   0.69821    0.250
 3931.00    0.63842   0.68727    0.246
 3932.00    0.60502   0.68013    0.242
 3933.00    0.59015   0.67732    0.235
 3934.00    0.58559   0.67913    0.226
 3935.00    0.63063   0.68557    0.224
 3936.00    0.69968   0.69543    0.225
 3937.00    0.73242   0.70833    0.228
 3938.00    0.74999   0.72309    0.232
 3939.00    0.74552   0.73831    0.230
 3940.00    0.73317   0.75384    0.226
 3941.00    0.75962   0.76836    0.223
 3942.00    0.79780   0.78148    0.221
 3943.00    0.78227   0.79411    0.224
 3944.00    0.75324   0.80573    0.228
 3945.00    0.76898   0.81645    0.227
 3946.00    0.79387   0.82627    0.226
 3947.00    0.81298   0.83441    0.229
 3948.00    0.83118   0.84195    0.234
 3949.00    0.87908   0.84876    0.235
 3950.00    0.93053   0.85271    0.237
 3951.00    0.92193   0.85435    0.230
 3952.00    0.90844   0.85434    0.224
 3953.00    0.90179   0.85165    0.225
 3954.00    0.89545   0.84632    0.226
 3955.00    0.91188   0.83720    0.230
 3956.00    0.92829   0.82424    0.234
 3957.00    0.92861   0.80906    0.234
 3958.00    0.92678   0.79006    0.233
 3959.00    0.88418   0.76643    0.235
 3960.00    0.84401   0.73991    0.000
 3961.00    0.83112   0.71065    0.000
 3962.00    0.81305   0.67959    0.000
 3963.00    0.75424   0.64786    0.000
 3964.00    0.69965   0.61582    0.000
 3965.00    0.67019   0.58624    0.000
 3966.00    0.65073   0.56134    0.000
 3967.00    0.67824   0.54184    0.000
 3968.00    0.69805   0.52978    0.000
 3969.00    0.68832   0.52648    0.000
 3970.00    0.68455   0.53225    0.000
 3971.00    0.69978   0.54697    0.000
 3972.00    0.71689   0.56940    0.000
 3973.00    0.73912   0.59815    0.000
 3974.00    0.76270   0.63114    0.000
 3975.00    0.78944   0.66651    0.000
 3976.00    0.80360   0.70178    0.000
 3977.00    0.79249   0.73539    0.000
 3978.00    0.80023   0.76699    0.000
 3979.00    0.84094   0.79454    0.000
 3980.00    0.87299   0.81860    0.000
 3981.00    0.89178   0.83931    0.235
 3982.00    0.90325   0.85636    0.236
 3983.00    0.90488   0.87179    0.237
 3984.00    0.90816   0.88431    0.235
 3985.00    0.91342   0.89504    0.230
 3986.00    0.92033   0.90524    0.229
 3987.00    0.92899   0.91312    0.230
 3988.00    0.95580   0.92060    0.234
 3989.00    0.99932   0.92660    0.241
 3990.00    1.01800   0.93097    0.239
 3991.00    1.01650   0.93541    0.231
 3992.00    1.01370   0.93800    0.227
 3993.00    1.00996   0.94008    0.227
 3994.00    0.99257   0.94203    0.228
 3995.00    0.96663   0.94345    0.229
 3996.00    0.94582   0.94534    0.228
 3997.00    0.92784   0.94737    0.227
 3998.00    0.90363   0.94923    0.224
 3999.00    0.87646   0.95093    0.221
 4000.00    0.90249   0.95210    0.223
 4001.00    0.95038   0.95264    0.227
 4002.00    0.95724   0.95257    0.231
 4003.00    0.94969   0.95139    0.236
 4004.00    0.94057   0.95005    0.232
 4005.00    0.93097   0.94920    0.227
 4006.00    0.93149   0.94953    0.226
 4007.00    0.93449   0.95084    0.226
 4008.00    0.96644   0.95325    0.227
 4009.00    1.00415   0.95703    0.230
 4010.00    1.00291   0.96187    0.226
 4011.00    0.99562   0.96780    0.223
 4012.00    1.02089   0.97318    0.224
 4013.00    1.04989   0.97857    0.226
 4014.00    1.06271   0.98319    0.224
 4015.00    1.07427   0.98613    0.222
 4016.00    1.04882   0.98847    0.220
 4017.00    1.02181   0.98898    0.217
 4018.00    1.03482   0.98806    0.218
 4019.00    1.04756   0.98592    0.219
 4020.00    1.03253   0.98205    0.217
 4021.00    1.01898   0.97763    0.215
 4022.00    1.03151   0.97232    0.217
 4023.00    1.04322   0.96626    0.219
 4024.00    1.04593   0.96022    0.220
 4025.00    1.04503   0.95436    0.223
 4026.00    1.01663   0.94923    0.227
 4027.00    0.98996   0.94453    0.232
 4028.00    0.97320   0.93952    0.238
 4029.00    0.95905   0.93572    0.243
 4030.00    0.95684   0.93332    0.247
 4031.00    0.94961   0.93243    0.247
 4032.00    0.92350   0.93418    0.234
 4033.00    0.89437   0.93689    0.226
 4034.00    0.85580   0.94184    0.232
 4035.00    0.83741   0.94848    0.238
 4036.00    0.87271   0.95472    0.243
 4037.00    0.89938   0.96043    0.242
 4038.00    0.90636   0.96341    0.230
 4039.00    0.92932   0.96401    0.224
 4040.00    0.98388   0.96305    0.229
 4041.00    1.01047   0.95924    0.230
 4042.00    0.98889   0.95379    0.225
 4043.00    0.97263   0.94739    0.222
 4044.00    0.96440   0.94152    0.225
 4045.00    0.97024   0.93874    0.228
 4046.00    0.99473   0.93811    0.233
 4047.00    1.01697   0.93962    0.234
 4048.00    1.03657   0.94271    0.230
 4049.00    1.04267   0.94618    0.228
 4050.00    1.03487   0.94975    0.228
 4051.00    1.02044   0.95266    0.228
 4052.00    1.00000   0.95385    0.229
 4053.00    0.99071   0.95329    0.232
 4054.00    0.99034   0.95128    0.239
 4055.00    1.00412   0.94697    0.239
 4056.00    1.02787   0.94195    0.235
 4057.00    1.01562   0.93671    0.231
 4058.00    0.98115   0.93159    0.228
 4059.00    0.95619   0.92692    0.227
 4060.00    0.93635   0.92180    0.227
 4061.00    0.93496   0.91702    0.230
 4062.00    0.94222   0.91353    0.234
 4063.00    0.91791   0.91162    0.229
 4064.00    0.88084   0.91029    0.221
 4065.00    0.88119   0.91012    0.222
 4066.00    0.89444   0.91093    0.226
 4067.00    0.91589   0.91191    0.226
 4068.00    0.93972   0.91307    0.225
 4069.00    0.94040   0.91304    0.221
 4070.00    0.93552   0.91266    0.218
 4071.00    0.92388   0.91266    0.218
 4072.00    0.91093   0.91181    0.219
 4073.00    0.93357   0.91139    0.217
 4074.00    0.96157   0.91074    0.215
 4075.00    0.99626   0.91002    0.214
 4076.00    1.03168   0.91117    0.213
 4077.00    0.98848   0.91379    0.211
 4078.00    0.93952   0.91851    0.209
 4079.00    0.94830   0.92435    0.214
 4080.00    0.95929   0.92987    0.220
 4081.00    0.98257   0.93567    0.220
 4082.00    1.00525   0.94121    0.221
 4083.00    1.00270   0.94632    0.215
 4084.00    0.99994   0.95096    0.210
 4085.00    0.99397   0.95412    0.215
 4086.00    0.98766   0.95577    0.219
 4087.00    0.97788   0.95541    0.218
 4088.00    0.97032   0.95207    0.217
 4089.00    0.97910   0.94638    0.215
 4090.00    0.98921   0.93748    0.214
 4091.00    1.00669   0.92573    0.219
 4092.00    1.02521   0.91091    0.000
 4093.00    1.04839   0.89183    0.000
 4094.00    1.05711   0.87029    0.000
 4095.00    1.01268   0.84702    0.000
 4096.00    0.96940   0.82376    0.000
 4097.00    0.92963   0.80148    0.000
 4098.00    0.90372   0.78086    0.000
 4099.00    0.91406   0.76366    0.000
 4100.00    0.90747   0.75151    0.000
 4101.00    0.86285   0.74577    0.000
 4102.00    0.84579   0.74636    0.000
 4103.00    0.88233   0.75312    0.000
 4104.00    0.90302   0.76461    0.000
 4105.00    0.89679   0.77922    0.000
 4106.00    0.89871   0.79641    0.000
 4107.00    0.91275   0.81437    0.000
 4108.00    0.93421   0.83234    0.000
 4109.00    0.96537   0.84910    0.000
 4110.00    0.97862   0.86371    0.000
 4111.00    0.97124   0.87682    0.000
 4112.00    0.96601   0.88755    0.000
 4113.00    0.96297   0.89645    0.222
 4114.00    0.96924   0.90349    0.221
 4115.00    0.98385   0.90875    0.219
 4116.00    0.97872   0.91223    0.217
 4117.00    0.95803   0.91454    0.216
 4118.00    0.93998   0.91654    0.215
 4119.00    0.92377   0.91748    0.215
 4120.00    0.94907   0.91850    0.214
 4121.00    0.99964   0.91903    0.213
 4122.00    0.97877   0.91974    0.214
 4123.00    0.91995   0.92017    0.216
 4124.00    0.90976   0.91943    0.216
 4125.00    0.92201   0.91838    0.216
 4126.00    0.93006   0.91615    0.214
 4127.00    0.93644   0.91351    0.212
 4128.00    0.92977   0.91032    0.214
 4129.00    0.91868   0.90734    0.217
 4130.00    0.94575   0.90424    0.218
 4131.00    0.98368   0.90258    0.218
 4132.00    0.95597   0.90186    0.215
 4133.00    0.91285   0.90281    0.211
 4134.00    0.92477   0.90533    0.212
 4135.00    0.94707   0.90681    0.213
 4136.00    0.94019   0.90867    0.211
 4137.00    0.92904   0.90897    0.209
 4138.00    0.91265   0.90853    0.212
 4139.00    0.89571   0.90674    0.214
 4140.00    0.92145   0.90251    0.217
 4141.00    0.95014   0.89738    0.220
 4142.00    0.90471   0.89204    0.216
 4143.00    0.85673   0.88836    0.212
 4144.00    0.92178   0.88604    0.211
 4145.00    0.98426   0.88491    0.210
 4146.00    0.95444   0.88494    0.210
 4147.00    0.92406   0.88514    0.211
 4148.00    0.88518   0.88596    0.211
 4149.00    0.85305   0.88783    0.211
 4150.00    0.88756   0.88997    0.209
 4151.00    0.91429   0.89213    0.208
 4152.00    0.88580   0.89335    0.210
 4153.00    0.86445   0.89534    0.212
 4154.00    0.88207   0.89755    0.216
 4155.00    0.89469   0.90043    0.218
 4156.00    0.88549   0.90499    0.213
 4157.00    0.87551   0.90938    0.208
 4158.00    0.86271   0.91432    0.205
 4159.00    0.86482   0.91858    0.203
 4160.00    0.91191   0.92268    0.201
 4161.00    0.94032   0.92584    0.200
 4162.00    0.92074   0.92703    0.201
 4163.00    0.91032   0.92726    0.202
 4164.00    0.92011   0.92558    0.204
 4165.00    0.92344   0.92194    0.206
 4166.00    0.91439   0.91745    0.208
 4167.00    0.89920   0.91248    0.209
 4168.00    0.87373   0.90681    0.208
 4169.00    0.84872   0.90058    0.206
 4170.00    0.82438   0.89368    0.205
 4171.00    0.82181   0.88793    0.203
 4172.00    0.84725   0.88309    0.203
 4173.00    0.87827   0.87947    0.205
 4174.00    0.91564   0.87767    0.209
 4175.00    0.91241   0.87647    0.211
 4176.00    0.86855   0.87659    0.209
 4177.00    0.86275   0.87776    0.207
 4178.00    0.89054   0.87995    0.204
 4179.00    0.88749   0.88297    0.202
 4180.00    0.86045   0.88587    0.201
 4181.00    0.86244   0.88915    0.202
 4182.00    0.88428   0.89195    0.204
 4183.00    0.89066   0.89486    0.206
 4184.00    0.88776   0.89719    0.207
 4185.00    0.88231   0.89835    0.207
 4186.00    0.87552   0.89986    0.205
 4187.00    0.88585   0.90092    0.204
 4188.00    0.90393   0.90192    0.203
 4189.00    0.92798   0.90209    0.204
 4190.00    0.95434   0.90181    0.205
 4191.00    0.90291   0.90107    0.201
 4192.00    0.82563   0.89825    0.196
 4193.00    0.83416   0.89480    0.199
 4194.00    0.86662   0.89046    0.205
 4195.00    0.88416   0.88550    0.206
 4196.00    0.89827   0.88015    0.206
 4197.00    0.90287   0.87559    0.208
 4198.00    0.90573   0.87291    0.211
 4199.00    0.89800   0.87090    0.209
 4200.00    0.88879   0.87068    0.206
 4201.00    0.87283   0.87306    0.203
 4202.00    0.85618   0.87725    0.200
 4203.00    0.83041   0.88289    0.199
 4204.00    0.80404   0.88971    0.198
 4205.00    0.83109   0.89673    0.200
 4206.00    0.85975   0.90331    0.203
 4207.00    0.87208   0.90864    0.201
 4208.00    0.88596   0.91300    0.200
 4209.00    0.94539   0.91637    0.204
 4210.00    0.99909   0.91851    0.208
 4211.00    0.96943   0.91946    0.206
 4212.00    0.94026   0.91983    0.204
 4213.00    0.91570   0.91910    0.200
 4214.00    0.89848   0.91885    0.196
 4215.00    0.93181   0.91947    0.198
 4216.00    0.95761   0.91945    0.200
 4217.00    0.94344   0.91897    0.197
 4218.00    0.93043   0.91652    0.195
 4219.00    0.92239   0.91281    0.197
 4220.00    0.91724   0.90612    0.198
 4221.00    0.92226   0.89761    0.197
 4222.00    0.90695   0.88803    0.196
 4223.00    0.83144   0.87720    0.191
 4224.00    0.78231   0.86675    0.190
 4225.00    0.79976   0.85827    0.195
 4226.00    0.81506   0.85419    0.197
 4227.00    0.82571   0.85301    0.192
 4228.00    0.83831   0.85481    0.189
 4229.00    0.85460   0.85946    0.189
 4230.00    0.86190   0.86499    0.187
 4231.00    0.85443   0.87086    0.183
 4232.00    0.83897   0.87767    0.181
 4233.00    0.81201   0.88434    0.182
 4234.00    0.81364   0.88977    0.184
 4235.00    0.85156   0.89541    0.188
 4236.00    0.87053   0.90043    0.189
 4237.00    0.86832   0.90531    0.188
 4238.00    0.85490   0.91018    0.186
 4239.00    0.83043   0.91584    0.184
 4240.00    0.84094   0.92124    0.183
 4241.00    0.88189   0.92538    0.183
 4242.00    0.91026   0.92976    0.184
 4243.00    0.92900   0.93185    0.184
 4244.00    0.92489   0.93158    0.185
 4245.00    0.90539   0.92902    0.186
 4246.00    0.92042   0.92465    0.192
 4247.00    0.95585   0.91927    0.201
 4248.00    0.95819   0.91224    0.204
 4249.00    0.94349   0.90590    0.203
 4250.00    0.93260   0.90047    0.201
 4251.00    0.92341   0.89517    0.199
 4252.00    0.91159   0.89076    0.197
 4253.00    0.89876   0.88822    0.195
 4254.00    0.86984   0.88777    0.187
 4255.00    0.83568   0.88882    0.178
 4256.00    0.83472   0.89005    0.178
 4257.00    0.84281   0.89227    0.180
 4258.00    0.84372   0.89488    0.182
 4259.00    0.84302   0.89822    0.184
 4260.00    0.87405   0.90310    0.187
 4261.00    0.91076   0.90781    0.191
 4262.00    0.95002   0.91172    0.195
 4263.00    0.98963   0.91394    0.199
 4264.00    0.98496   0.91444    0.197
 4265.00    0.97597   0.91168    0.194
 4266.00    0.94373   0.90681    0.191
 4267.00    0.91006   0.90020    0.187
 4268.00    0.86849   0.89158    0.186
 4269.00    0.82669   0.88191    0.185
 4270.00    0.78146   0.87276    0.183
 4271.00    0.73723   0.86642    0.182
 4272.00    0.71931   0.86138    0.181
 4273.00    0.70592   0.85948    0.181
 4274.00    0.75483   0.86129    0.187
 4275.00    0.80396   0.86526    0.192
 4276.00    0.85498   0.87091    0.194
 4277.00    0.90042   0.87687    0.195
 4278.00    0.90871   0.88182    0.193
 4279.00    0.91512   0.88650    0.192
 4280.00    0.91171   0.88944    0.194
 4281.00    0.90538   0.89052    0.195
 4282.00    0.88684   0.89009   -2.000
 4283.00    0.86988   0.88687   -2.000
 4284.00    0.85839   0.88299   -2.000
 4285.00    0.84773   0.87774   -2.000
 4286.00    0.83949   0.87225   -2.000
 4287.00    0.84299   0.86580   -2.000
 4288.00    0.87563   0.85980   -2.000
 4289.00    0.90103   0.85553   -2.000
 4290.00    0.91097   0.85134   -2.000
 4291.00    0.91935   0.84821   -2.000
 4292.00    0.92484   0.84344   -2.000
 4293.00    0.92194   0.83900   -2.000
 4294.00    0.90545   0.83384   -2.000
 4295.00    0.86984   0.82690   -2.000
 4296.00    0.80703   0.81921   -2.000
 4297.00    0.77871   0.80957   -2.000
 4298.00    0.79357   0.80012    0.192
 4299.00    0.79647   0.79109    0.190
 4300.00    0.78616   0.78210    0.189
 4301.00    0.76604   0.77361    0.187
 4302.00    0.73636   0.76698    0.185
 4303.00    0.71682   0.76158    0.186
 4304.00    0.70597   0.75797    0.188
 4305.00    0.68203   0.75661    0.188
 4306.00    0.64819   0.75745    0.186
 4307.00    0.66616   0.76220    0.187
 4308.00    0.71853   0.77015    0.191
 4309.00    0.75006   0.78191    0.192
 4310.00    0.76946   0.79624    0.193
 4311.00    0.77043   0.81379    0.190
 4312.00    0.76208   0.83294    0.186
 4313.00    0.81542   0.85290    0.186
 4314.00    0.89585   0.87385    0.187
 4315.00    0.91074   0.89178    0.187
 4316.00    0.90096   0.90674    0.186
 4317.00    0.93017   0.91719    0.188
 4318.00    0.97185   0.92340    0.191
 4319.00    0.95931   0.92413    0.189
 4320.00    0.93228   0.92167    0.186
 4321.00    0.94487   0.91510    0.188
 4322.00    0.96614   0.90652    0.192
 4323.00    0.94425   0.89809    0.194
 4324.00    0.91487   0.89065    0.195
 4325.00    0.91041   0.88695    0.193
 4326.00    0.90925   0.88514    0.190
 4327.00    0.91372   0.88557    0.190
 4328.00    0.91871   0.88611    0.190
 4329.00    0.93124   0.88722    0.189
 4330.00    0.94420   0.88762    0.000
 4331.00    0.96350   0.88511    0.000
 4332.00    0.98282   0.87987    0.000
 4333.00    0.98820   0.87079    0.000
 4334.00    0.99219   0.85861    0.000
 4335.00    0.96289   0.84224    0.000
 4336.00    0.93563   0.82481    0.000
 4337.00    0.93491   0.80829    0.000
 4338.00    0.93199   0.79344    0.000
 4339.00    0.90986   0.78371    0.000
 4340.00    0.89022   0.77971    0.000
 4341.00    0.88674   0.78070    0.000
 4342.00    0.88884   0.78623    0.000
 4343.00    0.91907   0.79682    0.000
 4344.00    0.94052   0.80988    0.000
 4345.00    0.92609   0.82425    0.000
 4346.00    0.92053   0.83947    0.000
 4347.00    0.94494   0.85376    0.000
 4348.00    0.96346   0.86593    0.000
 4349.00    0.96517   0.87534    0.000
 4350.00    0.96841   0.88330    0.000
 4351.00    0.97541   0.89087    0.185
 4352.00    0.97403   0.89791    0.183
 4353.00    0.95503   0.90439    0.185
 4354.00    0.94156   0.91126    0.184
 4355.00    0.93819   0.91876    0.181
 4356.00    0.92813   0.92630    0.179
 4357.00    0.90738   0.93365    0.177
 4358.00    0.90848   0.94159    0.177
 4359.00    0.94019   0.94950    0.178
 4360.00    0.97306   0.95690    0.179
 4361.00    1.00735   0.96277    0.179
 4362.00    1.01310   0.96745    0.180
 4363.00    0.98781   0.97077    0.181
 4364.00    0.98909   0.97157    0.182
 4365.00    1.01586   0.97044    0.183
 4366.00    1.01344   0.96750    0.185
 4367.00    0.98632   0.96397    0.187
 4368.00    0.97549   0.95894    0.186
 4369.00    0.97680   0.95317    0.183
 4370.00    0.96948   0.94695    0.182
 4371.00    0.95653   0.94035    0.182
 4372.00    0.94303   0.93380    0.182
 4373.00    0.92922   0.92755    0.181
 4374.00    0.93785   0.92194    0.182
 4375.00    0.95768   0.91675    0.184
 4376.00    0.94861   0.91088    0.183
 4377.00    0.92707   0.90411    0.180
 4378.00    0.91075   0.89611    0.180
 4379.00    0.89638   0.88723    0.180
 4380.00    0.88035   0.87760    0.180
 4381.00    0.86381   0.86718    0.180
 4382.00    0.84269   0.85851    0.176
 4383.00    0.82038   0.85211    0.171
 4384.00    0.82111   0.84871    0.171
 4385.00    0.82676   0.84736    0.173
 4386.00    0.83026   0.84855    0.174
 4387.00    0.83340   0.85291    0.174
 4388.00    0.85863   0.85928    0.174
 4389.00    0.88669   0.86762    0.175
 4390.00    0.90336   0.87700    0.175
 4391.00    0.91901   0.88671    0.176
 4392.00    0.93580   0.89606    0.176
 4393.00    0.95265   0.90462    0.177
 4394.00    0.94721   0.91223    0.175
 4395.00    0.94121   0.91841    0.174
 4396.00    0.92570   0.92186    0.175
 4397.00    0.91054   0.92322    0.175
 4398.00    0.90332   0.92228    0.176
 4399.00    0.89701   0.91962    0.177
 4400.00    0.90206   0.91590    0.177
 4401.00    0.90520   0.91082    0.176
 4402.00    0.89233   0.90503    0.175
 4403.00    0.87853   0.90024    0.174
 4404.00    0.85892   0.89769    0.174
 4405.00    0.84653   0.89682    0.174
 4406.00    0.86969   0.89770    0.174
 4407.00    0.89006   0.90090    0.175
 4408.00    0.89925   0.90597    0.175
 4409.00    0.91158   0.91185    0.175
 4410.00    0.93430   0.91779    0.174
 4411.00    0.95908   0.92344    0.174
 4412.00    0.98966   0.92818    0.175
 4413.00    1.00702   0.93175    0.175
 4414.00    0.99272   0.93564    0.175
 4415.00    0.98139   0.93902    0.176
 4416.00    0.97623   0.94191    0.177
 4417.00    0.97751   0.94458    0.177
 4418.00    0.99041   0.94658    0.176
 4419.00    0.99240   0.94835    0.175
 4420.00    0.97721   0.94941    0.174
 4421.00    0.97176   0.95021    0.173
 4422.00    0.97977   0.95085    0.173
 4423.00    0.97479   0.95068    0.173
 4424.00    0.95401   0.95005    0.172
 4425.00    0.94555   0.94911    0.173
 4426.00    0.95028   0.94769    0.174
 4427.00    0.96147   0.94626    0.175
 4428.00    0.97877   0.94395    0.178
 4429.00    0.97722   0.94204    0.177
 4430.00    0.95996   0.94018    0.173
 4431.00    0.96927   0.93822    0.173
 4432.00    0.99807   0.93677    0.173
 4433.00    0.98992   0.93611    0.174
 4434.00    0.95793   0.93657    0.175
 4435.00    0.94657   0.93816    0.174
 4436.00    0.94683   0.94023    0.173
 4437.00    0.95273   0.94294    0.175
 4438.00    0.96139   0.94564    0.179
 4439.00    0.97179   0.94839    0.179
 4440.00    0.98294   0.95138    0.178
 4441.00    0.98695   0.95466    0.177
 4442.00    0.98836   0.95810    0.177
 4443.00    0.98232   0.96128    0.176
 4444.00    0.97398   0.96434    0.174
 4445.00    0.97477   0.96644    0.173
 4446.00    0.97789   0.96783    0.173
 4447.00    0.99463   0.96827    0.173
 4448.00    1.01421   0.96671    0.173
 4449.00    1.01237   0.96373    0.175
 4450.00    1.00701   0.95886    0.177
 4451.00    1.01199   0.95221    0.176
 4452.00    1.01823   0.94457    0.175
 4453.00    0.97527   0.93597    0.172
 4454.00    0.92812   0.92779    0.169
 4455.00    0.92326   0.91983    0.172
 4456.00    0.92048   0.91300    0.176
 4457.00    0.90899   0.90742    0.171
 4458.00    0.89770   0.90370    0.167
 4459.00    0.90736   0.90217    0.169
 4460.00    0.91640   0.90206    0.172
 4461.00    0.91268   0.90414    0.000
 4462.00    0.91020   0.90716    0.000
 4463.00    0.92223   0.91096    0.000
 4464.00    0.93466   0.91546    0.000
 4465.00    0.95027   0.92001    0.000
 4466.00    0.96288   0.92520    0.000
 4467.00    0.95725   0.93004    0.000
 4468.00    0.95290   0.93568    0.000
 4469.00    0.95471   0.94158    0.000
 4470.00    0.96148   0.94801    0.000
 4471.00    0.98762   0.95469    0.000
 4472.00    1.00414   0.96138    0.000
 4473.00    0.98943   0.96784    0.000
 4474.00    0.98274   0.97344    0.000
 4475.00    0.99815   0.97818    0.000
 4476.00    1.00103   0.98117    0.000
 4477.00    0.97440   0.98304    0.000
 4478.00    0.95363   0.98350    0.000
 4479.00    0.94482   0.98375    0.000
 4480.00    0.94071   0.98353    0.000
 4481.00    0.94493   0.98360    0.000
 4482.00    0.96235   0.98375    0.166
 4483.00    1.00025   0.98396    0.168
 4484.00    1.01187   0.98408    0.169
 4485.00    0.98768   0.98393    0.169
 4486.00    0.97744   0.98337    0.168
 4487.00    0.98393   0.98254    0.167
 4488.00    0.99518   0.98118    0.167
 4489.00    1.01145   0.97970    0.167
 4490.00    1.01063   0.97756    0.167
 4491.00    0.99386   0.97596    0.168
 4492.00    0.99146   0.97462    0.168
 4493.00    1.00086   0.97461    0.169
 4494.00    1.00269   0.97592    0.169
 4495.00    0.99904   0.97860    0.170
 4496.00    0.99876   0.98283    0.170
 4497.00    1.00061   0.98797    0.171
 4498.00    0.99028   0.99449    0.170
 4499.00    0.97319   1.00190    0.169
 4500.00    0.99017   1.00958    0.168
 4501.00    1.02360   1.01745    0.167
 4502.00    1.03233   1.02441    0.167
 4503.00    1.03076   1.03058    0.168
 4504.00    1.02897   1.03527    0.167
 4505.00    1.02710   1.03871    0.167
 4506.00    1.04168   1.04048    0.167
 4507.00    1.06123   1.04084    0.168
 4508.00    1.06514   1.03946    0.168
 4509.00    1.06513   1.03698    0.166
 4510.00    1.06061   1.03333    0.166
 4511.00    1.05518   1.02923    0.166
 4512.00    1.02951   1.02486    0.165
 4513.00    1.00062   1.02048    0.164
 4514.00    0.99123   1.01611    0.165
 4515.00    0.98415   1.01239    0.166
 4516.00    0.99203   1.00858    0.165
 4517.00    1.00111   1.00524    0.164
 4518.00    0.98206   1.00117    0.163
 4519.00    0.96174   0.99661    0.163
 4520.00    0.98100   0.99136    0.163
 4521.00    1.00055   0.98473    0.163
 4522.00    1.01005   0.97723    0.165
 4523.00    1.01809   0.96841    0.167
 4524.00    0.99889   0.95932    0.164
 4525.00    0.98098   0.94978    0.162
 4526.00    0.97744   0.94132    0.162
 4527.00    0.97186   0.93333    0.162
 4528.00    0.95032   0.92768    0.162
 4529.00    0.93279   0.92319    0.162
 4530.00    0.93899   0.92113    0.162
 4531.00    0.94827   0.92093    0.162
 4532.00    0.97195   0.92296    0.163
 4533.00    0.98977   0.92725    0.164
 4534.00    0.98522   0.93225    0.164
 4535.00    0.97619   0.93830    0.165
 4536.00    0.95293   0.94420    0.165
 4537.00    0.94553   0.95017    0.165
 4538.00    0.98097   0.95564    0.165
 4539.00    1.01318   0.96033    0.165
 4540.00    1.03786   0.96379    0.166
 4541.00    1.04711   0.96581    0.167
 4542.00    1.02542   0.96722    0.166
 4543.00    0.99618   0.96728    0.164
 4544.00    0.95373   0.96687    0.162
 4545.00    0.93628   0.96533    0.161
 4546.00    0.95703   0.96395    0.162
 4547.00    0.98022   0.96271    0.163
 4548.00    1.00670   0.96131    0.165
 4549.00    0.99923   0.96065    0.165
 4550.00    0.95163   0.96042    0.000
 4551.00    0.93591   0.96140    0.000
 4552.00    0.95340   0.96320    0.000
 4553.00    0.97009   0.96649    0.000
 4554.00    0.98605   0.97024    0.000
 4555.00    0.98233   0.97490    0.000
 4556.00    0.96267   0.97963    0.000
 4557.00    0.97482   0.98444    0.000
 4558.00    1.00967   0.98891    0.000
 4559.00    1.02728   0.99238    0.000
 4560.00    1.03411   0.99509    0.000
 4561.00    1.02695   0.99684    0.000
 4562.00    1.01214   0.99807    0.000
 4563.00    1.01476   0.99876    0.000
 4564.00    1.02567   0.99914    0.000
 4565.00    1.02969   0.99912    0.000
 4566.00    1.03088   0.99935    0.000
 4567.00    1.02382   0.99933    0.000
 4568.00    1.01386   0.99959    0.000
 4569.00    1.01296   1.00009    0.000
 4570.00    1.01473   1.00025    0.000
 4571.00    1.01457   1.00002    0.000
 4572.00    1.01394   0.99939    0.000
 4573.00    0.99926   0.99810    0.000
 4574.00    0.98180   0.99610    0.000
 4575.00    0.98311   0.99326    0.000
 4576.00    0.98734   0.98992    0.000
 4577.00    0.98622   0.98612    0.000
 4578.00    0.98450   0.98233    0.000
 4579.00    0.97287   0.97861    0.000
 4580.00    0.96048   0.97519    0.000
 4581.00    0.98904   0.97273    0.000
 4582.00    1.01930   0.97089    0.000
 4583.00    0.98559   0.97038    0.000
 4584.00    0.95227   0.97042    0.000
 4585.00    0.95992   0.97133    0.000
 4586.00    0.96836   0.97223    0.000
 4587.00    0.99071   0.97333    0.000
 4588.00    1.01185   0.97391    0.000
 4589.00    1.01996   0.97415    0.000
 4590.00    1.02527   0.97362    0.000
 4591.00    1.00941   0.97256    0.000
 4592.00    0.99505   0.97089    0.000
 4593.00    0.98927   0.96919    0.000
 4594.00    0.98502   0.96713    0.000
 4595.00    0.98780   0.96563    0.000
 4596.00    0.98758   0.96429    0.000
 4597.00    0.97612   0.96369    0.000
 4598.00    0.96813   0.96389    0.000
 4599.00    0.97098   0.96467    0.000
 4600.00    0.96656   0.96663    0.000
 4601.00    0.94283   0.96905    0.000
 4602.00    0.93111   0.97283    0.000
 4603.00    0.94679   0.97691    0.000
 4604.00    0.96896   0.98201    0.000
 4605.00    1.00394   0.98710    0.000
 4606.00    1.01890   0.99266    0.000
 4607.00    0.99943   0.99783    0.000
 4608.00    0.99548   1.00283    0.000
 4609.00    1.01490   1.00732    0.000
 4610.00    1.02344   1.01088    0.000
 4611.00    1.01759   1.01407    0.000
 4612.00    1.02822   1.01612    0.000
 4613.00    1.05806   1.01788    0.000
 4614.00    1.06277   1.01879    0.000
 4615.00    1.04166   1.01977    0.000
 4616.00    1.02642   1.02002    0.000
 4617.00    1.01648   1.02047    0.000
 4618.00    1.01823   1.02050    0.000
 4619.00    1.02931   1.02055    0.000
 4620.00    1.02986   1.02029    0.000
 4621.00    1.02302   1.01999    0.000
 4622.00    1.03519   1.01943    0.000
 4623.00    1.05907   1.01854    0.000
 4624.00    1.05129   1.01745    0.000
 4625.00    1.02645   1.01613    0.000
 4626.00    1.02121   1.01444    0.000
 4627.00    1.02514   1.01225    0.000
 4628.00    1.01786   1.00977    0.000
 4629.00    1.00607   1.00680    0.000
 4630.00    1.00978   1.00342    0.000
 4631.00    1.01882   0.99946    0.000
 4632.00    1.00587   0.99508    0.000
 4633.00    0.98655   0.99039    0.000
 4634.00    0.98291   0.98529    0.000
 4635.00    0.98303   0.98031    0.000
 4636.00    0.97224   0.97508    0.000
 4637.00    0.95936   0.97016    0.000
 4638.00    0.96488   0.96506    0.000
 4639.00    0.97317   0.96051    0.000
 4640.00    0.96489   0.95576    0.000
 4641.00    0.95478   0.95163    0.000
 4642.00    0.94829   0.94753    0.000
 4643.00    0.94206   0.94416    0.000
 4644.00    0.93707   0.94110    0.000
 4645.00    0.93212   0.93907    0.000
 4646.00    0.93345   0.93770    0.000
 4647.00    0.93489   0.93771    0.000
 4648.00    0.93950   0.93854    0.000
 4649.00    0.94426   0.94082    0.000
 4650.00    0.95140   0.94385    0.000
 4651.00    0.95765   0.94799    0.000
 4652.00    0.95487   0.95250    0.000
 4653.00    0.95268   0.95743    0.000
 4654.00    0.95484   0.96223    0.000
 4655.00    0.95501   0.96662    0.000
 4656.00    0.94399   0.97037    0.000
 4657.00    0.93977   0.97294    0.000
 4658.00    0.96591   0.97421    0.000
 4659.00    0.98744   0.97370    0.000
 4660.00    0.99208   0.97161    0.000
 4661.00    0.99437   0.96785    0.000
 4662.00    0.98942   0.96280    0.000
 4663.00    0.98049   0.95693    0.000
 4664.00    0.96121   0.95071    0.000
 4665.00    0.94483   0.94498    0.000
 4666.00    0.93495   0.94012    0.000
 4667.00    0.92850   0.93683    0.000
 4668.00    0.92867   0.93515    0.000
 4669.00    0.93037   0.93523    0.000
 4670.00    0.93466   0.93669    0.000
 4671.00    0.94615   0.93925    0.000
 4672.00    0.96835   0.94237    0.000
 4673.00    0.97563   0.94559    0.000
 4674.00    0.96344   0.94847    0.000
 4675.00    0.95467   0.95073    0.000
 4676.00    0.94981   0.95220    0.000
 4677.00    0.94452   0.95289    0.000
 4678.00    0.93879   0.95291    0.000
 4679.00    0.93627   0.95248    0.000
 4680.00    0.93660   0.95180    0.000
 4681.00    0.93789   0.95108    0.000
 4682.00    0.93994   0.95050    0.000
 4683.00    0.94265   0.95010    0.000
 4684.00    0.94581   0.95003    0.000
 4685.00    0.93602   0.95015    0.000
 4686.00    0.91835   0.95057    0.000
 4687.00    0.92479   0.95107    0.000
 4688.00    0.94402   0.95172    0.000
 4689.00    0.95145   0.95233    0.000
 4690.00    0.95346   0.95289    0.000
 4691.00    0.95123   0.95321    0.000
 4692.00    0.94732   0.95319    0.000
 4693.00    0.94564   0.95267    0.000
 4694.00    0.94471   0.95160    0.000
 4695.00    0.93858   0.94982    0.000
 4696.00    0.93097   0.94750    0.000
 4697.00    0.93351   0.94451    0.000
 4698.00    0.93842   0.94135    0.000
 4699.00    0.93915   0.93783    0.000
 4700.00    0.93910   0.93466    0.000
 4701.00    0.92984   0.93161    0.000
 4702.00    0.91924   0.92929    0.000
 4703.00    0.91796   0.92749    0.000
 4704.00    0.91766   0.92651    0.000
 4705.00    0.94068   0.92631    0.000
 4706.00    0.96531   0.92673    0.000
 4707.00    0.94766   0.92810    0.000
 4708.00    0.92857   0.92984    0.000
 4709.00    0.94036   0.93266    0.000
 4710.00    0.95216   0.93571    0.000
 4711.00    0.96278   0.93988    0.000
 4712.00    0.97269   0.94423    0.000
 4713.00    0.97161   0.94959    0.000
 4714.00    0.96980   0.95498    0.000
 4715.00    0.96088   0.96099    0.000
 4716.00    0.95338   0.96666    0.000
 4717.00    0.95597   0.97224    0.000
 4718.00    0.96173   0.97688    0.000
 4719.00    0.98476   0.98064    0.000
 4720.00    1.00092   0.98289    0.000
 4721.00    0.98719   0.98365    0.000
 4722.00    0.97665   0.98272    0.000
 4723.00    0.97753   0.98024    0.000
 4724.00    0.97941   0.97643    0.000
 4725.00    0.98433   0.97166    0.000
 4726.00    0.98105   0.96640    0.000
 4727.00    0.95675   0.96119    0.000
 4728.00    0.94238   0.95642    0.000
 4729.00    0.94990   0.95267    0.000
 4730.00    0.95529   0.94997    0.000
 4731.00    0.95661   0.94872    0.000
 4732.00    0.95789   0.94859    0.000
 4733.00    0.95912   0.94978    0.000
 4734.00    0.95313   0.95173    0.000
 4735.00    0.93656   0.95448    0.000
 4736.00    0.92931   0.95756    0.000
 4737.00    0.93402   0.96088    0.000
 4738.00    0.94389   0.96426    0.000
 4739.00    0.95960   0.96753    0.000
 4740.00    0.97232   0.97071    0.000
 4741.00    0.98204   0.97362    0.000
 4742.00    0.99165   0.97633    0.000
 4743.00    1.00115   0.97867    0.000
 4744.00    1.00276   0.98064    0.000
 4745.00    0.99824   0.98213    0.000
 4746.00    0.99336   0.98296    0.000
 4747.00    0.98823   0.98328    0.000
 4748.00    0.98674   0.98268    0.000
 4749.00    0.98742   0.98164    0.000
 4750.00    0.99860   0.97962    0.000
 4751.00    1.01526   0.97738    0.000
 4752.00    1.00547   0.97432    0.000
 4753.00    0.98371   0.97127    0.000
 4754.00    0.98690   0.96766    0.000
 4755.00    0.99982   0.96418    0.000
 4756.00    0.99694   0.96036    0.000
 4757.00    0.98882   0.95662    0.000
 4758.00    0.97333   0.95270    0.000
 4759.00    0.95578   0.94883    0.000
 4760.00    0.93302   0.94502    0.000
 4761.00    0.90906   0.94144    0.159
 4762.00    0.91720   0.93834    0.146
 4763.00    0.93121   0.93586    0.146
 4764.00    0.94115   0.93434    0.147
 4765.00    0.95051   0.93380    0.147
 4766.00    0.95495   0.93454    0.146
 4767.00    0.95890   0.93629    0.145
 4768.00    0.94065   0.93923    0.144
 4769.00    0.92096   0.94282    0.142
 4770.00    0.92426   0.94714    0.144
 4771.00    0.92827   0.95150    0.145
 4772.00    0.94305   0.95594    0.145
 4773.00    0.95756   0.95983    0.145
 4774.00    0.96435   0.96314    0.145
 4775.00    0.97163   0.96551    0.145
 4776.00    0.98588   0.96687    0.146
 4777.00    0.99818   0.96716    0.148
 4778.00    0.99214   0.96639    0.145
 4779.00    0.98186   0.96472    0.143
 4780.00    0.94252   0.96230    0.142
 4781.00    0.91144   0.95946    0.140
 4782.00    0.92410   0.95647    0.140
 4783.00    0.92974   0.95369    0.140
 4784.00    0.90547   0.95140    0.139
 4785.00    0.88719   0.94986    0.139
 4786.00    0.88996   0.94931    0.141
 4787.00    0.90067   0.94975    0.143
 4788.00    0.93484   0.95129    0.143
 4789.00    0.95346   0.95364    0.143
 4790.00    0.93294   0.95678    0.145
 4791.00    0.92041   0.96022    0.145
 4792.00    0.92522   0.96383    0.143
 4793.00    0.93297   0.96714    0.141
 4794.00    0.94626   0.97000    0.142
 4795.00    0.95872   0.97215    0.143
 4796.00    0.96983   0.97356    0.144
 4797.00    0.97106   0.97416    0.144
 4798.00    0.95807   0.97412    0.144
 4799.00    0.95982   0.97340    0.144
 4800.00    0.98025   0.97239    0.147
 4801.00    0.98266   0.97087    0.148
 4802.00    0.96493   0.96945    0.147
 4803.00    0.96354   0.96764    0.146
 4804.00    0.97826   0.96627    0.146
 4805.00    0.97544   0.96467    0.145
 4806.00    0.95738   0.96378    0.144
 4807.00    0.94967   0.96290    0.144
 4808.00    0.94988   0.96286    0.146
 4809.00    0.95146   0.96306    0.145
 4810.00    0.95397   0.96407    0.144
 4811.00    0.96133   0.96535    0.145
 4812.00    0.97156   0.96715    0.147
 4813.00    0.96846   0.96903    0.148
 4814.00    0.95851   0.97095    0.148
 4815.00    0.95304   0.97259    0.147
 4816.00    0.94956   0.97377    0.144
 4817.00    0.95180   0.97432    0.145
 4818.00    0.95623   0.97411    0.146
 4819.00    0.98010   0.97312    0.147
 4820.00    1.01028   0.97141    0.148
 4821.00    0.99579   0.96905    0.147
 4822.00    0.96914   0.96631    0.145
 4823.00    0.97915   0.96326    0.145
 4824.00    0.99735   0.96023    0.145
 4825.00    0.97951   0.95727    0.145
 4826.00    0.95526   0.95460    0.146
 4827.00    0.93990   0.95222    0.146
 4828.00    0.92575   0.95015    0.146
 4829.00    0.93178   0.94847    0.147
 4830.00    0.93976   0.94696    0.148
 4831.00    0.93950   0.94580    0.146
 4832.00    0.93874   0.94455    0.144
 4833.00    0.93847   0.94356    0.144
 4834.00    0.93820   0.94229    0.143
 4835.00    0.93560   0.94117    0.144
 4836.00    0.93297   0.93968    0.145
 4837.00    0.92965   0.93829    0.145
 4838.00    0.92679   0.93663    0.144
 4839.00    0.93032   0.93506    0.145
 4840.00    0.93357   0.93339    0.145
 4841.00    0.93414   0.93178    0.143
 4842.00    0.93430   0.93011    0.142
 4843.00    0.93176   0.92833    0.141
 4844.00    0.92968   0.92631    0.141
 4845.00    0.93002   0.92380    0.142
 4846.00    0.93002   0.92065    0.142
 4847.00    0.92856   0.91653    0.142
 4848.00    0.92490   0.91132    0.000
 4849.00    0.91363   0.90470    0.000
 4850.00    0.90715   0.89668    0.000
 4851.00    0.91456   0.88704    0.000
 4852.00    0.91742   0.87599    0.000
 4853.00    0.90903   0.86360    0.000
 4854.00    0.89874   0.85027    0.000
 4855.00    0.88440   0.83643    0.000
 4856.00    0.86897   0.82266    0.000
 4857.00    0.85150   0.80976    0.000
 4858.00    0.83886   0.79825    0.000
 4859.00    0.83403   0.78904    0.000
 4860.00    0.83040   0.78234    0.000
 4861.00    0.82846   0.77888    0.000
 4862.00    0.83109   0.77820    0.000
 4863.00    0.83942   0.78076    0.000
 4864.00    0.84302   0.78540    0.000
 4865.00    0.84142   0.79235    0.000
 4866.00    0.83725   0.80019    0.000
 4867.00    0.83060   0.80913    0.000
 4868.00    0.83752   0.81798    0.000
 4869.00    0.85605   0.82704    0.000
 4870.00    0.87310   0.83569    0.000
 4871.00    0.88904   0.84419    0.000
 4872.00    0.89766   0.85232    0.000
 4873.00    0.90142   0.86029    0.000
 4874.00    0.88978   0.86783    0.000
 4875.00    0.86920   0.87510    0.136
 4876.00    0.86821   0.88156    0.135
 4877.00    0.87712   0.88742    0.134
 4878.00    0.88982   0.89195    0.135
 4879.00    0.90418   0.89554    0.136
 4880.00    0.91220   0.89752    0.137
 4881.00    0.91783   0.89853    0.138
 4882.00    0.91676   0.89819    0.137
 4883.00    0.91354   0.89731    0.137
 4884.00    0.90898   0.89591    0.138
 4885.00    0.90407   0.89469    0.139
 4886.00    0.89223   0.89401    0.138
 4887.00    0.87887   0.89428    0.137
 4888.00    0.86516   0.89601    0.136
 4889.00    0.85138   0.89902    0.135
 4890.00    0.86831   0.90385    0.136
 4891.00    0.88927   0.90968    0.137
 4892.00    0.90701   0.91688    0.138
 4893.00    0.92443   0.92429    0.138
 4894.00    0.92931   0.93203    0.137
 4895.00    0.93347   0.93904    0.136
 4896.00    0.94113   0.94529    0.139
 4897.00    0.94876   0.95023    0.141
 4898.00    0.94393   0.95376    0.140
 4899.00    0.93896   0.95594    0.139
 4900.00    0.93073   0.95674    0.139
 4901.00    0.92367   0.95651    0.139
 4902.00    0.93164   0.95535    0.140
 4903.00    0.93767   0.95357    0.141
 4904.00    0.92675   0.95132    0.140
 4905.00    0.91793   0.94874    0.139
 4906.00    0.92272   0.94597    0.139
 4907.00    0.92586   0.94298    0.139
 4908.00    0.92078   0.93983    0.139
 4909.00    0.91894   0.93649    0.140
 4910.00    0.93034   0.93280    0.140
 4911.00    0.93639   0.92887    0.140
 4912.00    0.92434   0.92430    0.139
 4913.00    0.91834   0.91945    0.139
 4914.00    0.92952   0.91386    0.140
 4915.00    0.93255   0.90820    0.140
 4916.00    0.91572   0.90221    0.140
 4917.00    0.89995   0.89673    0.140
 4918.00    0.88641   0.89189    0.139
 4919.00    0.86983   0.88834    0.138
 4920.00    0.84772   0.88659    0.137
 4921.00    0.84333   0.88659    0.137
 4922.00    0.86722   0.88899    0.139
 4923.00    0.87993   0.89285    0.140
 4924.00    0.87699   0.89873    0.139
 4925.00    0.88233   0.90508    0.139
 4926.00    0.89787   0.91228    0.139
 4927.00    0.91130   0.91867    0.139
 4928.00    0.92244   0.92457    0.140
 4929.00    0.93237   0.92878    0.140
 4930.00    0.94114   0.93170    0.138
 4931.00    0.94881   0.93280    0.138
 4932.00    0.95555   0.93261    0.137
 4933.00    0.93586   0.93126    0.138
 4934.00    0.89652   0.92939    0.138
 4935.00    0.88647   0.92747    0.138
 4936.00    0.89555   0.92594    0.136
 4937.00    0.89989   0.92540    0.137
 4938.00    0.90154   0.92584    0.138
 4939.00    0.89756   0.92774    0.139
 4940.00    0.89078   0.93065    0.000
 4941.00    0.90193   0.93481    0.000
 4942.00    0.92080   0.93937    0.000
 4943.00    0.93003   0.94460    0.000
 4944.00    0.93569   0.94931    0.000
 4945.00    0.93491   0.95379    0.000
 4946.00    0.93212   0.95695    0.000
 4947.00    0.93272   0.95930    0.000
 4948.00    0.93421   0.95987    0.000
 4949.00    0.93927   0.95927    0.000
 4950.00    0.94510   0.95682    0.000
 4951.00    0.95240   0.95324    0.000
 4952.00    0.95995   0.94850    0.000
 4953.00    0.94687   0.94303    0.000
 4954.00    0.93118   0.93739    0.000
 4955.00    0.91963   0.93170    0.000
 4956.00    0.90846   0.92681    0.000
 4957.00    0.91912   0.92241    0.000
 4958.00    0.93093   0.91927    0.000
 4959.00    0.91240   0.91693    0.000
 4960.00    0.89332   0.91565    0.000
 4961.00    0.87656   0.91510    0.000
 4962.00    0.86190   0.91502    0.000
 4963.00    0.89292   0.91545    0.000
 4964.00    0.91802   0.91588    0.000
 4965.00    0.87047   0.91681    0.000
 4966.00    0.83073   0.91749    0.000
 4967.00    0.85642   0.91855    0.000
 4968.00    0.87895   0.91932    0.000
 4969.00    0.88169   0.92023    0.000
 4970.00    0.88216   0.92078    0.000
 4971.00    0.87148   0.92101    0.000
 4972.00    0.86952   0.92057    0.000
 4973.00    0.90224   0.91930    0.000
 4974.00    0.92216   0.91700    0.000
 4975.00    0.89971   0.91357    0.000
 4976.00    0.88199   0.90911    0.000
 4977.00    0.87753   0.90379    0.000
 4978.00    0.87549   0.89792    0.000
 4979.00    0.87924   0.89203    0.000
 4980.00    0.87592   0.88633    0.000
 4981.00    0.85802   0.88162    0.000
 4982.00    0.84216   0.87781    0.000
 4983.00    0.82996   0.87562    0.000
 4984.00    0.82348   0.87467    0.000
 4985.00    0.82599   0.87526    0.000
 4986.00    0.83336   0.87696    0.000
 4987.00    0.84743   0.87952    0.000
 4988.00    0.85681   0.88246    0.000
 4989.00    0.86053   0.88545    0.000
 4990.00    0.87596   0.88833    0.000
 4991.00    0.90395   0.89043    0.000
 4992.00    0.90899   0.89177    0.000
 4993.00    0.89236   0.89197    0.000
 4994.00    0.87828   0.89120    0.000
 4995.00    0.86630   0.88914    0.000
 4996.00    0.85963   0.88626    0.000
 4997.00    0.85685   0.88243    0.000
 4998.00    0.85429   0.87807    0.000
 4999.00    0.85189   0.87324    0.000
 5000.00    0.84964   0.86816    0.000
 5001.00    0.84747   0.86315    0.000
 5002.00    0.85024   0.85848    0.000
 5003.00    0.85544   0.85404    0.000
 5004.00    0.85700   0.85018    0.000
 5005.00    0.85702   0.84678    0.000
 5006.00    0.86175   0.84382    0.000
 5007.00    0.86818   0.84133    0.000
 5008.00    0.86715   0.83903    0.000
 5009.00    0.86383   0.83697    0.000
 5010.00    0.86247   0.83489    0.000
 5011.00    0.86161   0.83312    0.000
 5012.00    0.85026   0.83141    0.000
 5013.00    0.83672   0.83030    0.000
 5014.00    0.83007   0.82945    0.000
 5015.00    0.82455   0.82937    0.000
 5016.00    0.81182   0.82969    0.000
 5017.00    0.79822   0.83100    0.000
 5018.00    0.78303   0.83294    0.000
 5019.00    0.76770   0.83570    0.000
 5020.00    0.78846   0.83914    0.000
 5021.00    0.81098   0.84298    0.000
 5022.00    0.81385   0.84729    0.000
 5023.00    0.81642   0.85162    0.000
 5024.00    0.81916   0.85631    0.000
 5025.00    0.82179   0.86058    0.000
 5026.00    0.82220   0.86509    0.000
 5027.00    0.82312   0.86873    0.000
 5028.00    0.83011   0.87231    0.000
 5029.00    0.83713   0.87467    0.135
 5030.00    0.84438   0.87636    0.134
 5031.00    0.85158   0.87673    0.133
 5032.00    0.85846   0.87580    0.134
 5033.00    0.86358   0.87406    0.135
 5034.00    0.86032   0.87090    0.134
 5035.00    0.85687   0.86743    0.134
 5036.00    0.85271   0.86323    0.135
 5037.00    0.84746   0.85942    0.135
 5038.00    0.83868   0.85584    0.134
 5039.00    0.82352   0.85328    0.133
 5040.00    0.79086   0.85170    0.133
 5041.00    0.77620   0.85161    0.133
 5042.00    0.80386   0.85273    0.133
 5043.00    0.82378   0.85473    0.132
 5044.00    0.82797   0.85755    0.131
 5045.00    0.83188   0.86070    0.131
 5046.00    0.83532   0.86421    0.132
 5047.00    0.84527   0.86791    0.133
 5048.00    0.86531   0.87122    0.133
 5049.00    0.86841   0.87450    0.133
 5050.00    0.84846   0.87763    0.133
 5051.00    0.83930   0.88068    0.132
 5052.00    0.84305   0.88381    0.131
 5053.00    0.84552   0.88704    0.131
 5054.00    0.84664   0.89052    0.131
 5055.00    0.85331   0.89378    0.132
 5056.00    0.86517   0.89673    0.133
 5057.00    0.88014   0.89901    0.133
 5058.00    0.89766   0.90053    0.133
 5059.00    0.90080   0.90089    0.132
 5060.00    0.89354   0.90021    0.131
 5061.00    0.88648   0.89841    0.131
 5062.00    0.87953   0.89583    0.132
 5063.00    0.87108   0.89247    0.131
 5064.00    0.86178   0.88867    0.131
 5065.00    0.85350   0.88470    0.131
 5066.00    0.84571   0.88082    0.132
 5067.00    0.84248   0.87693    0.131
 5068.00    0.84116   0.87346    0.130
 5069.00    0.84750   0.87007    0.130
 5070.00    0.85658   0.86746    0.131
 5071.00    0.85664   0.86484    0.132
 5072.00    0.85399   0.86209    0.133
 5073.00    0.83824   0.85941    0.132
 5074.00    0.81922   0.85664    0.130
 5075.00    0.81465   0.85376    0.130
 5076.00    0.81300   0.85072    0.130
 5077.00    0.79967   0.84797    0.129
 5078.00    0.78448   0.84604    0.129
 5079.00    0.79060   0.84419    0.128
 5080.00    0.79924   0.84360    0.127
 5081.00    0.80136   0.84373    0.127
 5082.00    0.80296   0.84528    0.126
 5083.00    0.79957   0.84721    0.126
 5084.00    0.79595   0.85033    0.127
 5085.00    0.79913   0.85438    0.125
 5086.00    0.80250   0.85872    0.124
 5087.00    0.81150   0.86288    0.124
 5088.00    0.82010   0.86664    0.125
 5089.00    0.82121   0.86999    0.125
 5090.00    0.82341   0.87223    0.125
 5091.00    0.83777   0.87353    0.126
 5092.00    0.84929   0.87364    0.126
 5093.00    0.83867   0.87294    0.127
 5094.00    0.82858   0.87121    0.128
 5095.00    0.82166   0.86877    0.128
 5096.00    0.81381   0.86593    0.129
 5097.00    0.80162   0.86279    0.129
 5098.00    0.79162   0.85973    0.129
 5099.00    0.78999   0.85646    0.128
 5100.00    0.79080   0.85392    0.127
 5101.00    0.79939   0.85142    0.126
 5102.00    0.80025   0.84980    0.125
 5103.00    0.78025   0.84822    0.125
 5104.00    0.76987   0.84766    0.125
 5105.00    0.78171   0.84746    0.126
 5106.00    0.78845   0.84759    0.127
 5107.00    0.78503   0.84813    0.127
 5108.00    0.78637   0.84914    0.127
 5109.00    0.79603   0.85087    0.129
 5110.00    0.80274   0.85294    0.130
 5111.00    0.80496   0.85546    0.129
 5112.00    0.80441   0.85790    0.128
 5113.00    0.80015   0.86059    0.129
 5114.00    0.80142   0.86254    0.129
 5115.00    0.80921   0.86392    0.131
 5116.00    0.82608   0.86445    0.132
 5117.00    0.85240   0.86367    0.135
 5118.00    0.85747   0.86172    0.135
 5119.00    0.84302   0.85883    0.133
 5120.00    0.82710   0.85490    0.133
 5121.00    0.80998   0.85041    0.132
 5122.00    0.80659   0.84577    0.131
 5123.00    0.81299   0.84088    0.129
 5124.00    0.80095   0.83683    0.129
 5125.00    0.77739   0.83313    0.129
 5126.00    0.76648   0.83070    0.129
 5127.00    0.76247   0.82911    0.129
 5128.00    0.75546   0.82851    0.128
 5129.00    0.74703   0.82892    0.127
 5130.00    0.76858   0.82979    0.127
 5131.00    0.80240   0.83098    0.128
 5132.00    0.81907   0.83194    0.129
 5133.00    0.82975   0.83313    0.130
 5134.00    0.83277   0.83344    0.130
 5135.00    0.83353   0.83365    0.130
 5136.00    0.82614   0.83291    0.131
 5137.00    0.81677   0.83178    0.132
 5138.00    0.81357   0.83011    0.131
 5139.00    0.81157   0.82801    0.129
 5140.00    0.81363   0.82592    0.128
 5141.00    0.81632   0.82331    0.128
 5142.00    0.79799   0.82133    0.127
 5143.00    0.77727   0.81944    0.126
 5144.00    0.78206   0.81786    0.127
 5145.00    0.78879   0.81691    0.128
 5146.00    0.79364   0.81617    0.129
 5147.00    0.79842   0.81589    0.129
 5148.00    0.78130   0.81638    0.127
 5149.00    0.76460   0.81738    0.126
 5150.00    0.77328   0.81863    0.126
 5151.00    0.78190   0.82067    0.126
 5152.00    0.78946   0.82277    0.126
 5153.00    0.79557   0.82517    0.125
 5154.00    0.78625   0.82714    0.126
 5155.00    0.78052   0.82847    0.126
 5156.00    0.80186   0.82882    0.127
 5157.00    0.82070   0.82793    0.128
 5158.00    0.82522   0.82538    0.128
 5159.00    0.82766   0.82093    0.128
 5160.00    0.82058   0.81425    0.127
 5161.00    0.81058   0.80536    0.127
 5162.00    0.78967   0.79463    0.126
 5163.00    0.77071   0.78273    0.126
 5164.00    0.75780   0.76985    0.126
 5165.00    0.73826   0.75715    0.126
 5166.00    0.70116   0.74509    0.125
 5167.00    0.67328   0.73414    0.124
 5168.00    0.66635   0.72552    0.125
 5169.00    0.66369   0.71879    0.125
 5170.00    0.66942   0.71508    0.125
 5171.00    0.67321   0.71385    0.125
 5172.00    0.67367   0.71506    0.126
 5173.00    0.67987   0.71790    0.126
 5174.00    0.69468   0.72165    0.125
 5175.00    0.70989   0.72604    0.125
 5176.00    0.72563   0.73075    0.125
 5177.00    0.73383   0.73536    0.125
 5178.00    0.73325   0.73958    0.125
 5179.00    0.72902   0.74295    0.125
 5180.00    0.72103   0.74557    0.124
 5181.00    0.70221   0.74766    0.123
 5182.00    0.67360   0.74992    0.122
 5183.00    0.66494   0.75242    0.122
 5184.00    0.67218   0.75535    0.123
 5185.00    0.68702   0.75913    0.124
 5186.00    0.70718   0.76351    0.124
 5187.00    0.72364   0.76938    0.125
 5188.00    0.73783   0.77538    0.126
 5189.00    0.75091   0.78188    0.125
 5190.00    0.76341   0.78787    0.000
 5191.00    0.77225   0.79309    0.000
 5192.00    0.77938   0.79822    0.000
 5193.00    0.76669   0.80202    0.000
 5194.00    0.74602   0.80561    0.000
 5195.00    0.75716   0.80832    0.000
 5196.00    0.77921   0.81058    0.000
 5197.00    0.78399   0.81172    0.000
 5198.00    0.78378   0.81232    0.000
 5199.00    0.79442   0.81159    0.000
 5200.00    0.80767   0.80984    0.000
 5201.00    0.81023   0.80751    0.000
 5202.00    0.81074   0.80431    0.000
 5203.00    0.79347   0.80109    0.000
 5204.00    0.77355   0.79761    0.000
 5205.00    0.75830   0.79519    0.000
 5206.00    0.74356   0.79309    0.000
 5207.00    0.73644   0.79271    0.000
 5208.00    0.72987   0.79350    0.000
 5209.00    0.74449   0.79646    0.000
 5210.00    0.75990   0.80027    0.000
 5211.00    0.76256   0.80548    0.125
 5212.00    0.76557   0.81168    0.126
 5213.00    0.78348   0.81758    0.125
 5214.00    0.80084   0.82407    0.124
 5215.00    0.80956   0.82901    0.125
 5216.00    0.81783   0.83344    0.127
 5217.00    0.82163   0.83603    0.127
 5218.00    0.82212   0.83752    0.128
 5219.00    0.79850   0.83816    0.128
 5220.00    0.78031   0.83762    0.127
 5221.00    0.79240   0.83644    0.126
 5222.00    0.80265   0.83426    0.124
 5223.00    0.80472   0.83190    0.125
 5224.00    0.80230   0.82928    0.125
 5225.00    0.78349   0.82709    0.125
 5226.00    0.77035   0.82566    0.125
 5227.00    0.77459   0.82517    0.125
 5228.00    0.77876   0.82598    0.125
 5229.00    0.78272   0.82792    0.125
 5230.00    0.78287   0.83151    0.125
 5231.00    0.77445   0.83620    0.125
 5232.00    0.78065   0.84109    0.125
 5233.00    0.81516   0.84660    0.126
 5234.00    0.83395   0.85176    0.126
 5235.00    0.82616   0.85651    0.124
 5236.00    0.82249   0.86163    0.124
 5237.00    0.82491   0.86563    0.125
 5238.00    0.82806   0.86925    0.126
 5239.00    0.83216   0.87206    0.125
 5240.00    0.84030   0.87360    0.125
 5241.00    0.85307   0.87391    0.126
 5242.00    0.85974   0.87309    0.126
 5243.00    0.86025   0.87159    0.125
 5244.00    0.84787   0.86932    0.124
 5245.00    0.82398   0.86632    0.124
 5246.00    0.81991   0.86320    0.125
 5247.00    0.83142   0.86027    0.127
 5248.00    0.83723   0.85729    0.127
 5249.00    0.83909   0.85466    0.127
 5250.00    0.82616   0.85284    0.126
 5251.00    0.80426   0.85179    0.125
 5252.00    0.79904   0.85064    0.125
 5253.00    0.80264   0.84980    0.126
 5254.00    0.80036   0.84906    0.126
 5255.00    0.79539   0.84737    0.126
 5256.00    0.79933   0.84514    0.126
 5257.00    0.80680   0.84103    0.126
 5258.00    0.81732   0.83664    0.127
 5259.00    0.82887   0.83080    0.129
 5260.00    0.81270   0.82318    0.129
 5261.00    0.78867   0.81479    0.129
 5262.00    0.77064   0.80572    0.129
 5263.00    0.75401   0.79680    0.129
 5264.00    0.73083   0.78820    0.129
 5265.00    0.70643   0.78114    0.130
 5266.00    0.69230   0.77547    0.129
 5267.00    0.67966   0.77240    0.129
 5268.00    0.69382   0.77140    0.130
 5269.00    0.71079   0.77343    0.131
 5270.00    0.72413   0.77760    0.130
 5271.00    0.73722   0.78254    0.130
 5272.00    0.74584   0.78945    0.130
 5273.00    0.75430   0.79816    0.130
 5274.00    0.78361   0.80768    0.129
 5275.00    0.81213   0.81663    0.129
 5276.00    0.81436   0.82594    0.128
 5277.00    0.81642   0.83425    0.127
 5278.00    0.81594   0.84219    0.127
 5279.00    0.81675   0.85007    0.128
 5280.00    0.83011   0.85691    0.128
 5281.00    0.84153   0.86312    0.127
 5282.00    0.83926   0.86846    0.127
 5283.00    0.83844   0.87346    0.127
 5284.00    0.84544   0.87797    0.126
 5285.00    0.85117   0.88241    0.125
 5286.00    0.85129   0.88595    0.126
 5287.00    0.85249   0.88952    0.126
 5288.00    0.85757   0.89195    0.127
 5289.00    0.85910   0.89289    0.127
 5290.00    0.84996   0.89270    0.126
 5291.00    0.84241   0.89119    0.125
 5292.00    0.83894   0.88926    0.125
 5293.00    0.83583   0.88636    0.125
 5294.00    0.83354   0.88309    0.125
 5295.00    0.83660   0.87978    0.125
 5296.00    0.84983   0.87703    0.126
 5297.00    0.85057   0.87521    0.126
 5298.00    0.83049   0.87391    0.125
 5299.00    0.82050   0.87389    0.126
 5300.00    0.82525   0.87505    0.127
 5301.00    0.83157   0.87825    0.127
 5302.00    0.83994   0.88250    0.126
 5303.00    0.84416   0.88674    0.125
 5304.00    0.84370   0.89153    0.124
 5305.00    0.85079   0.89635    0.125
 5306.00    0.86540   0.90092    0.126
 5307.00    0.87462   0.90470    0.126
 5308.00    0.87909   0.90744    0.125
 5309.00    0.87056   0.90903    0.124
 5310.00    0.85196   0.90972    0.125
 5311.00    0.85218   0.90984    0.125
 5312.00    0.86523   0.90874    0.125
 5313.00    0.86317   0.90667    0.125
 5314.00    0.85210   0.90359    0.124
 5315.00    0.85166   0.89961    0.124
 5316.00    0.85676   0.89511    0.125
 5317.00    0.85457   0.88979    0.124
 5318.00    0.84908   0.88393    0.122
 5319.00    0.85827   0.87728    0.123
 5320.00    0.87316   0.87076    0.125
 5321.00    0.84964   0.86330    0.125
 5322.00    0.81341   0.85654    0.124
 5323.00    0.81102   0.85023    0.124
 5324.00    0.81801   0.84430    0.123
 5325.00    0.81041   0.83946    0.123
 5326.00    0.79948   0.83500    0.124
 5327.00    0.79015   0.83320    0.124
 5328.00    0.78110   0.83246    0.124
 5329.00    0.78290   0.83297    0.124
 5330.00    0.78622   0.83378    0.123
 5331.00    0.80051   0.83710    0.124
 5332.00    0.81591   0.84196    0.125
 5333.00    0.82608   0.84623    0.124
 5334.00    0.83592   0.85043    0.122
 5335.00    0.84298   0.85407    0.122
 5336.00    0.84996   0.85757    0.121
 5337.00    0.85689   0.86043    0.122
 5338.00    0.86298   0.86214    0.124
 5339.00    0.84519   0.86328    0.123
 5340.00    0.82882   0.86435    0.123
 5341.00    0.83280   0.86495    0.122
 5342.00    0.83660   0.86523    0.121
 5343.00    0.83869   0.86619    0.122
 5344.00    0.84037   0.86869    0.122
 5345.00    0.83931   0.87110    0.122
 5346.00    0.83860   0.87378    0.122
 5347.00    0.83979   0.87715    0.122
 5348.00    0.83912   0.88067    0.122
 5349.00    0.83054   0.88540    0.121
 5350.00    0.82703   0.88998    0.121
 5351.00    0.84125   0.89447    0.122
 5352.00    0.85543   0.89954    0.123
 5353.00    0.86946   0.90429    0.123
 5354.00    0.87964   0.90832    0.123
 5355.00    0.88013   0.91085    0.122
 5356.00    0.88214   0.91271    0.121
 5357.00    0.88744   0.91354    0.121
 5358.00    0.89189   0.91249    0.121
 5359.00    0.89474   0.91064    0.121
 5360.00    0.88915   0.90721    0.122
 5361.00    0.86973   0.90310    0.121
 5362.00    0.85174   0.89785    0.121
 5363.00    0.83581   0.89186    0.121
 5364.00    0.83087   0.88551    0.121
 5365.00    0.83984   0.87987    0.121
 5366.00    0.83118   0.87541    0.121
 5367.00    0.80286   0.87071    0.121
 5368.00    0.78449   0.86795   -2.000
 5369.00    0.77592   0.86575   -2.000
 5370.00    0.78288   0.86477   -2.000
 5371.00    0.80332   0.86518   -2.000
 5372.00    0.80012   0.86595   -2.000
 5373.00    0.77886   0.86805   -2.000
 5374.00    0.78401   0.87105   -2.000
 5375.00    0.80690   0.87557   -2.000
 5376.00    0.82755   0.87886   -2.000
 5377.00    0.84686   0.88199   -2.000
 5378.00    0.85851   0.88457   -2.000
 5379.00    0.86622   0.88582   -2.000
 5380.00    0.85308   0.88710   -2.000
 5381.00    0.83068   0.88719   -2.000
 5382.00    0.83784   0.88640   -2.000
 5383.00    0.85629   0.88455    0.123
 5384.00    0.85211   0.88249    0.122
 5385.00    0.84059   0.87940    0.121
 5386.00    0.84291   0.87601    0.121
 5387.00    0.84899   0.87250    0.121
 5388.00    0.83404   0.86820    0.121
 5389.00    0.81441   0.86355    0.121
 5390.00    0.81146   0.85825    0.120
 5391.00    0.81147   0.85377    0.120
 5392.00    0.80663   0.84919    0.119
 5393.00    0.80113   0.84512    0.118
 5394.00    0.80855   0.84116    0.118
 5395.00    0.81722   0.83797    0.118
 5396.00    0.81138   0.83482    0.118
 5397.00    0.80467   0.83147    0.119
 5398.00    0.79540   0.82852    0.118
 5399.00    0.78612   0.82488    0.117
 5400.00    0.78649   0.82371    0.118
 5401.00    0.78698   0.82279    0.119
 5402.00    0.79051   0.82121    0.119
 5403.00    0.79315   0.81972    0.119
 5404.00    0.78381   0.81969    0.118
 5405.00    0.77463   0.82008    0.117
 5406.00    0.76689   0.82046    0.118
 5407.00    0.76097   0.82207    0.119
 5408.00    0.76702   0.82476    0.118
 5409.00    0.77398   0.82971    0.118
 5410.00    0.78554   0.83499    0.118
 5411.00    0.79572   0.83999    0.119
 5412.00    0.80020   0.84487    0.117
 5413.00    0.80477   0.85065    0.117
 5414.00    0.80964   0.85652    0.119
 5415.00    0.81534   0.86140    0.121
 5416.00    0.82345   0.86532    0.119
 5417.00    0.82930   0.86805    0.118
 5418.00    0.82954   0.87085    0.118
 5419.00    0.82998   0.87273    0.118
 5420.00    0.83087   0.87324    0.119
 5421.00    0.82940   0.87278    0.119
 5422.00    0.82359   0.87076    0.120
 5423.00    0.81551   0.86883    0.120
 5424.00    0.80375   0.86705    0.119
 5425.00    0.80111   0.86428    0.118
 5426.00    0.81137   0.86082    0.120
 5427.00    0.81281   0.85790    0.120
 5428.00    0.80326   0.85587    0.121
 5429.00    0.79867   0.85353    0.120
 5430.00    0.79953   0.85163    0.119
 5431.00    0.79642   0.84983    0.118
 5432.00    0.78947   0.84914    0.118
 5433.00    0.78667   0.85150    0.118
 5434.00    0.78742   0.85296    0.119
 5435.00    0.79201   0.85491    0.118
 5436.00    0.79948   0.85759    0.116
 5437.00    0.80431   0.86035    0.116
 5438.00    0.80738   0.86358    0.116
 5439.00    0.82439   0.86565    0.116
 5440.00    0.84950   0.86770    0.115
 5441.00    0.86054   0.86902    0.116
 5442.00    0.86448   0.86927    0.118
 5443.00    0.85517   0.86905    0.117
 5444.00    0.84006   0.86749    0.117
 5445.00    0.83275   0.86589    0.117
 5446.00    0.82837   0.86329    0.117
 5447.00    0.82040   0.86029    0.117
 5448.00    0.81129   0.85692    0.115
 5449.00    0.81560   0.85385    0.115
 5450.00    0.82349   0.85291    0.115
 5451.00    0.83241   0.85176    0.114
 5452.00    0.84157   0.85094    0.114
 5453.00    0.82772   0.84958    0.115
 5454.00    0.80991   0.84892    0.115
 5455.00    0.80077   0.84797    0.116
 5456.00    0.79277   0.84734    0.116
 5457.00    0.80070   0.84702    0.116
 5458.00    0.81010   0.84724    0.116
 5459.00    0.81759   0.84888    0.116
 5460.00    0.82497   0.84983    0.116
 5461.00    0.82619   0.85042    0.115
 5462.00    0.82731   0.85027    0.115
 5463.00    0.83233   0.84988    0.116
 5464.00    0.83663   0.84968    0.117
 5465.00    0.82422   0.84885    0.118
 5466.00    0.81375   0.84824    0.118
 5467.00    0.82835   0.84781    0.118
 5468.00    0.84002   0.84615    0.117
 5469.00    0.82633   0.84380    0.116
 5470.00    0.81548   0.84162    0.115
 5471.00    0.82280   0.83912    0.116
 5472.00    0.82722   0.83645    0.117
 5473.00    0.81711   0.83422    0.117
 5474.00    0.80961   0.83241    0.117
 5475.00    0.81272   0.83053    0.118
 5476.00    0.81072   0.82875    0.119
 5477.00    0.79148   0.82869    0.117
 5478.00    0.77729   0.82848   -2.000
 5479.00    0.77747   0.82872   -2.000
 5480.00    0.77991   0.83092   -2.000
 5481.00    0.78787   0.83295   -2.000
 5482.00    0.79986   0.83491   -2.000
 5483.00    0.82027   0.83605   -2.000
 5484.00    0.83429   0.83873   -2.000
 5485.00    0.83664   0.84148   -2.000
 5486.00    0.80537   0.84373   -2.000
 5487.00    0.72056   0.84621   -2.000
 5488.00    0.66514   0.84759   -2.000
 5489.00    0.65076   0.84857   -2.000
 5490.00    0.68725   0.84905   -2.000
 5491.00    0.78629   0.85043   -2.000
 5492.00    0.86001   0.85088   -2.000
 5493.00    0.90629   0.85111   -2.000
 5494.00    0.91835   0.85156   -2.000
 5495.00    0.89770   0.85079   -2.000
 5496.00    0.86576   0.84987   -2.000
 5497.00    0.82432   0.84909   -2.000
 5498.00    0.80557   0.84829   -2.000
 5499.00    0.80366   0.84647   -2.000
 5500.00    0.80666   0.84506   -2.000
 5501.00    0.81286   0.84408   -2.000
 5502.00    0.80962   0.84230    0.169
 5503.00    0.80099   0.84044    0.677
 5504.00    0.79697   0.83863   -1.000
 5505.00    0.79524   0.83729   -1.000
 5506.00    0.79225   0.83580   -1.000
 5507.00    0.78872   0.83453   -1.000
 5508.00    0.78142   0.83350   -1.000
 5509.00    0.77273   0.83296   -1.000
 5510.00    0.77319   0.83363    0.287
 5511.00    0.77650   0.83429    0.124
 5512.00    0.77642   0.83498    0.112
 5513.00    0.77544   0.83657    0.112
 5514.00    0.77183   0.83792    0.113
 5515.00    0.76766   0.83986    0.114
 5516.00    0.77634   0.84236    0.114
 5517.00    0.78717   0.84489    0.114
 5518.00    0.78225   0.84740    0.114
 5519.00    0.77534   0.84920    0.114
 5520.00    0.78605   0.85083    0.115
 5521.00    0.79832   0.85158    0.115
 5522.00    0.80776   0.85166    0.115
 5523.00    0.81706   0.85133    0.115
 5524.00    0.81052   0.85107    0.114
 5525.00    0.80364   0.85063    0.112
 5526.00    0.79230   0.84989    0.113
 5527.00    0.78167   0.84897    0.114
 5528.00    0.78618   0.84784    0.115
 5529.00    0.79089   0.84734    0.116
 5530.00    0.79816   0.84659    0.114
 5531.00    0.80421   0.84713    0.113
 5532.00    0.80011   0.84852    0.112
 5533.00    0.79747   0.84940    0.111
 5534.00    0.80389   0.85069    0.112
 5535.00    0.80887   0.85184    0.112
 5536.00    0.80686   0.85360    0.112
 5537.00    0.80572   0.85496    0.112
 5538.00    0.80810   0.85661    0.111
 5539.00    0.81170   0.85887    0.126
 5540.00    0.81930   0.86037    0.298
 5541.00    0.82693   0.86214   -1.000
 5542.00    0.83462   0.86379   -1.000
 5543.00    0.83838   0.86545   -1.000
 5544.00    0.83275   0.86668   -1.000
 5545.00    0.82910   0.86748    0.736
 5546.00    0.82950   0.86848    0.181
 5547.00    0.83126   0.86929    0.120
 5548.00    0.83545   0.86957    0.115
 5549.00    0.83527   0.86973    0.112
 5550.00    0.82824   0.86992    0.112
 5551.00    0.83014   0.86957    0.112
 5552.00    0.84432   0.86857    0.112
 5553.00    0.84507   0.86728    0.112
 5554.00    0.82955   0.86598    0.110
 5555.00    0.82070   0.86392    0.110
 5556.00    0.81898   0.86189    0.111
 5557.00    0.81635   0.85988    0.112
 5558.00    0.81287   0.85763    0.111
 5559.00    0.81266   0.85547    0.111
 5560.00    0.81516   0.85277    0.110
 5561.00    0.81398   0.85052    0.111
 5562.00    0.81010   0.84815    0.113
 5563.00    0.80277   0.84599    0.113
 5564.00    0.79322   0.84417    0.112
 5565.00    0.78486   0.84217    0.111
 5566.00    0.77717   0.84145    0.111
 5567.00    0.78025   0.84027    0.110
 5568.00    0.78859   0.83918    0.110
 5569.00    0.78984   0.83934    0.110
 5570.00    0.78811   0.83955    0.110
 5571.00    0.79116   0.83980    0.110
 5572.00    0.79595   0.84005    0.109
 5573.00    0.79463   0.84110    0.109
 5574.00    0.79144   0.84134    0.110
 5575.00    0.78795   0.84104    0.110
 5576.00    0.78439   0.84150    0.109
 5577.00    0.79190   0.84112    0.109
 5578.00    0.80171   0.83993    0.109
 5579.00    0.81146   0.83823    0.109
 5580.00    0.82121   0.83617    0.109
 5581.00    0.81129   0.83291    0.108
 5582.00    0.79896   0.82915    0.107
 5583.00    0.80205   0.82591    0.107
 5584.00    0.80643   0.82209    0.108
 5585.00    0.79249   0.81880    0.109
 5586.00    0.77767   0.81570    0.109
 5587.00    0.76402   0.81247    0.108
 5588.00    0.75051   0.81010    0.108
 5589.00    0.74406   0.80789    0.107
 5590.00    0.73831   0.80732    0.106
 5591.00    0.74653   0.80778    0.108
 5592.00    0.75503   0.80846    0.109
 5593.00    0.76684   0.80944    0.109
 5594.00    0.77642   0.81038    0.109
 5595.00    0.76803   0.81206    0.110
 5596.00    0.76230   0.81360    0.111
 5597.00    0.77262   0.81580    0.112
 5598.00    0.78340   0.81842    0.113
 5599.00    0.79638   0.82140    0.113
 5600.00    0.80454   0.82377    0.114
 5601.00    0.79397   0.82661    0.115
 5602.00    0.78571   0.82990    0.116
 5603.00    0.78495   0.83233    0.113
 5604.00    0.78791   0.83563    0.112
 5605.00    0.80107   0.83844    0.112
 5606.00    0.80815   0.84168    0.112
 5607.00    0.80098   0.84396    0.111
 5608.00    0.79753   0.84510    0.111
 5609.00    0.80162   0.84562    0.110
 5610.00    0.80748   0.84410    0.109
 5611.00    0.81649   0.84319    0.110
 5612.00    0.81848   0.84205    0.110
 5613.00    0.80965   0.84023    0.109
 5614.00    0.80036   0.83805    0.108
 5615.00    0.79047   0.83495    0.107
 5616.00    0.78432   0.83245    0.106
 5617.00    0.78266   0.82963    0.107
 5618.00    0.77744   0.82777    0.107
 5619.00    0.76848   0.82684    0.106
 5620.00    0.76995   0.82572    0.106
 5621.00    0.78110   0.82565    0.105
 5622.00    0.78514   0.82563    0.105
 5623.00    0.78335   0.82624    0.106
 5624.00    0.78261   0.82737    0.107
 5625.00    0.78261   0.82837    0.106
 5626.00    0.78333   0.82961    0.106
 5627.00    0.78449   0.83078    0.104
 5628.00    0.78757   0.83264    0.105
 5629.00    0.79173   0.83405    0.106
 5630.00    0.79675   0.83486    0.106
 5631.00    0.80218   0.83558    0.106
 5632.00    0.80857   0.83556    0.106
 5633.00    0.81536   0.83550    0.106
 5634.00    0.81088   0.83505    0.105
 5635.00    0.80240   0.83449    0.104
 5636.00    0.79449   0.83323    0.105
 5637.00    0.78674   0.83208    0.105
 5638.00    0.78459   0.83132    0.106
 5639.00    0.78383   0.83027    0.107
 5640.00    0.77352   0.83002    0.107
 5641.00    0.76127   0.82967    0.106
 5642.00    0.77490   0.82969    0.107
 5643.00    0.79262   0.82956    0.107
 5644.00    0.79016   0.82960    0.106
 5645.00    0.78533   0.83033    0.105
 5646.00    0.77784   0.83055    0.106
 5647.00    0.77013   0.83119    0.107
 5648.00    0.78098   0.83133    0.107
 5649.00    0.79266   0.83079    0.108
 5650.00    0.79318   0.82998    0.107
 5651.00    0.79357   0.82920    0.106
 5652.00    0.79365   0.82823    0.106
 5653.00    0.79401   0.82588    0.106
 5654.00    0.79970   0.82416    0.105
 5655.00    0.80385   0.82299    0.104
 5656.00    0.79085   0.82113    0.105
 5657.00    0.77739   0.81903    0.105
 5658.00    0.76029   0.81762    0.104
 5659.00    0.74631   0.81738    0.103
 5660.00    0.75058   0.81673    0.103
 5661.00    0.75554   0.81699    0.103
 5662.00    0.76372   0.81817    0.103
 5663.00    0.77089   0.81947    0.102
 5664.00    0.77425   0.82108    0.102
 5665.00    0.77646   0.82304    0.102
 5666.00    0.77502   0.82588    0.103
 5667.00    0.77354   0.82883    0.104
 5668.00    0.77195   0.83190    0.104
 5669.00    0.77209   0.83438    0.104
 5670.00    0.77624   0.83655    0.104
 5671.00    0.78079   0.83911    0.104
 5672.00    0.78613   0.84149    0.104
 5673.00    0.79267   0.84322    0.104
 5674.00    0.80132   0.84433    0.105
 5675.00    0.80958   0.84525    0.106
 5676.00    0.81723   0.84552    0.108
 5677.00    0.81697   0.84461    0.109
 5678.00    0.80611   0.84375    0.108
 5679.00    0.79637   0.84323    0.107
 5680.00    0.78792   0.84230    0.108
 5681.00    0.78088   0.84067    0.107
 5682.00    0.77528   0.83885    0.106
 5683.00    0.77274   0.83760    0.105
 5684.00    0.77299   0.83644    0.105
 5685.00    0.77527   0.83598    0.105
 5686.00    0.77920   0.83573    0.105
 5687.00    0.78067   0.83600    0.105
 5688.00    0.78040   0.83596    0.105
 5689.00    0.78149   0.83557    0.105
 5690.00    0.78341   0.83589    0.104
 5691.00    0.78734   0.83617    0.105
 5692.00    0.79234   0.83676    0.105
 5693.00    0.79879   0.83586    0.105
 5694.00    0.80592   0.83499    0.104
 5695.00    0.80522   0.83384    0.105
 5696.00    0.80133   0.83138    0.107
 5697.00    0.79934   0.82920    0.107
 5698.00    0.79801   0.82654    0.106
 5699.00    0.78986   0.82407    0.106
 5700.00    0.77971   0.82083    0.105
 5701.00    0.77651   0.81700    0.105
 5702.00    0.77500   0.81401    0.105
 5703.00    0.77497   0.81088    0.104
 5704.00    0.77522   0.80803    0.103
 5705.00    0.76151   0.80656    0.102
 5706.00    0.74565   0.80513    0.101
 5707.00    0.73518   0.80421    0.101
 5708.00    0.72531   0.80443    0.102
 5709.00    0.73032   0.80517    0.102
 5710.00    0.73645   0.80733    0.102
 5711.00    0.74762   0.80984    0.102
 5712.00    0.75900   0.81324    0.102
 5713.00    0.76294   0.81737    0.102
 5714.00    0.76717   0.82140    0.102
 5715.00    0.78552   0.82636    0.102
 5716.00    0.80281   0.83107    0.103
 5717.00    0.80190   0.83556    0.104
 5718.00    0.80055   0.83994    0.106
 5719.00    0.79460   0.84357    0.105
 5720.00    0.79201   0.84693    0.104
 5721.00    0.81457   0.84956    0.105
 5722.00    0.83504   0.85117    0.106
 5723.00    0.84355   0.85278    0.106
 5724.00    0.84801   0.85421    0.105
 5725.00    0.83413   0.85485    0.106
 5726.00    0.82129   0.85452    0.106
 5727.00    0.81235   0.85413    0.106
 5728.00    0.80727   0.85418    0.105
 5729.00    0.81417   0.85390    0.106
 5730.00    0.81664   0.85393    0.107
 5731.00    0.80736   0.85385    0.105
 5732.00    0.79904   0.85351    0.103
 5733.00    0.79289   0.85309    0.103
 5734.00    0.78835   0.85284    0.102
 5735.00    0.78699   0.85340    0.102
 5736.00    0.79011   0.85377    0.102
 5737.00    0.80089   0.85359    0.102
 5738.00    0.80749   0.85294    0.102
 5739.00    0.80783   0.85276    0.101
 5740.00    0.80760   0.85302    0.000
 5741.00    0.80661   0.85298    0.000
 5742.00    0.80948   0.85230    0.000
 5743.00    0.81682   0.85100    0.000
 5744.00    0.82371   0.85027    0.000
 5745.00    0.83013   0.84968    0.000
 5746.00    0.82980   0.84921    0.000
 5747.00    0.82337   0.84832    0.000
 5748.00    0.81960   0.84673    0.000
 5749.00    0.81797   0.84510    0.000
 5750.00    0.82123   0.84380    0.000
 5751.00    0.82793   0.84345    0.000
 5752.00    0.82692   0.84316    0.000
 5753.00    0.82116   0.84253    0.000
 5754.00    0.81820   0.84147    0.000
 5755.00    0.81673   0.84056    0.000
 5756.00    0.81257   0.84030    0.000
 5757.00    0.80716   0.84063    0.000
 5758.00    0.80706   0.84122    0.000
 5759.00    0.80910   0.84192    0.000
 5760.00    0.81386   0.84247    0.000
 5761.00    0.81955   0.84304    0.000
 5762.00    0.82714   0.84392    0.000
 5763.00    0.83529   0.84499    0.000
 5764.00    0.83964   0.84621    0.000
 5765.00    0.84309   0.84717    0.000
 5766.00    0.84070   0.84849    0.000
 5767.00    0.83719   0.84910    0.000
 5768.00    0.84155   0.84928    0.000
 5769.00    0.84708   0.84899    0.000
 5770.00    0.84159   0.84814    0.000
 5771.00    0.83490   0.84737    0.000
 5772.00    0.83246   0.84573    0.000
 5773.00    0.83034   0.84380    0.000
 5774.00    0.82993   0.84102    0.000
 5775.00    0.82958   0.83755    0.000
 5776.00    0.82157   0.83381    0.000
 5777.00    0.81365   0.83020    0.000
 5778.00    0.80997   0.82705    0.000
 5779.00    0.80589   0.82384    0.000
 5780.00    0.79541   0.82023    0.000
 5781.00    0.78500   0.81723    0.000
 5782.00    0.77544   0.81529    0.000
 5783.00    0.76655   0.81376    0.000
 5784.00    0.76255   0.81396    0.000
 5785.00    0.76089   0.81422    0.000
 5786.00    0.77221   0.81494    0.000
 5787.00    0.78286   0.81655    0.000
 5788.00    0.79052   0.81824    0.000
 5789.00    0.79636   0.82211    0.000
 5790.00    0.79557   0.82569    0.000
 5791.00    0.79527   0.82884   -2.000
 5792.00    0.79644   0.83187   -2.000
 5793.00    0.79471   0.83420   -2.000
 5794.00    0.78544   0.83808   -2.000
 5795.00    0.78037   0.84140   -2.000
 5796.00    0.78467   0.84405   -2.000
 5797.00    0.79048   0.84658   -2.000
 5798.00    0.79921   0.84776   -2.000
 5799.00    0.80605   0.84907   -2.000
 5800.00    0.80971   0.85032   -2.000
 5801.00    0.80939   0.85142   -2.000
 5802.00    0.80317   0.85270   -2.000
 5803.00    0.80543   0.85293   -2.000
 5804.00    0.81871   0.85265   -2.000
 5805.00    0.82569   0.85242   -2.000
 5806.00    0.82547   0.85219   -2.000
 5807.00    0.82592   0.85236   -2.000
 5808.00    0.82706   0.85253   -2.000
 5809.00    0.82539   0.85236   -2.000
 5810.00    0.82123   0.85221   -2.000
 5811.00    0.81879   0.85175    0.000
 5812.00    0.81770   0.85178    0.000
 5813.00    0.81641   0.85257    0.000
 5814.00    0.81499   0.85304    0.000
 5815.00    0.81388   0.85384    0.000
 5816.00    0.81296   0.85438    0.000
 5817.00    0.81381   0.85495    0.000
 5818.00    0.81561   0.85599    0.000
 5819.00    0.81617   0.85696    0.000
 5820.00    0.81618   0.85850    0.000
 5821.00    0.81906   0.85945    0.000
 5822.00    0.82309   0.86011    0.000
 5823.00    0.82585   0.86072    0.000
 5824.00    0.82818   0.86123    0.000
 5825.00    0.83395   0.86205    0.000
 5826.00    0.84068   0.86239    0.000
 5827.00    0.84004   0.86262    0.000
 5828.00    0.83769   0.86239    0.000
 5829.00    0.84092   0.86199    0.000
 5830.00    0.84519   0.86167    0.000
 5831.00    0.84270   0.86148    0.000
 5832.00    0.83924   0.86131    0.000
 5833.00    0.83840   0.86066    0.000
 5834.00    0.83784   0.86015    0.000
 5835.00    0.82903   0.85960    0.000
 5836.00    0.81965   0.85929    0.000
 5837.00    0.82037   0.85885    0.000
 5838.00    0.82143   0.85825    0.000
 5839.00    0.82795   0.85773    0.000
 5840.00    0.83432   0.85673    0.000
 5841.00    0.83591   0.85564    0.000
 5842.00    0.83655   0.85413    0.000
 5843.00    0.82266   0.85251    0.000
 5844.00    0.80995   0.85066    0.000
 5845.00    0.80867   0.84828    0.000
 5846.00    0.80693   0.84574    0.000
 5847.00    0.80206   0.84253    0.000
 5848.00    0.79788   0.83916    0.000
 5849.00    0.79742   0.83594    0.000
 5850.00    0.79696   0.83285    0.000
 5851.00    0.79653   0.83001    0.000
 5852.00    0.79485   0.82660    0.000
 5853.00    0.78871   0.82344    0.000
 5854.00    0.78509   0.82090    0.000
 5855.00    0.78903   0.81890    0.000
 5856.00    0.78979   0.81793    0.000
 5857.00    0.78245   0.81673    0.000
 5858.00    0.77756   0.81603    0.000
 5859.00    0.77802   0.81570    0.000
 5860.00    0.77728   0.81590    0.000
 5861.00    0.77426   0.81724    0.000
 5862.00    0.77475   0.81830    0.000
 5863.00    0.78110   0.81958    0.000
 5864.00    0.78518   0.82051    0.000
 5865.00    0.78597   0.82185    0.000
 5866.00    0.78360   0.82361    0.000
 5867.00    0.77718   0.82479    0.000
 5868.00    0.77624   0.82564    0.000
 5869.00    0.78149   0.82574    0.000
 5870.00    0.78231   0.82603    0.000
 5871.00    0.77873   0.82606    0.000
 5872.00    0.77810   0.82552    0.000
 5873.00    0.78006   0.82413    0.000
 5874.00    0.77925   0.82177    0.000
 5875.00    0.77630   0.81930    0.000
 5876.00    0.77127   0.81638    0.000
 5877.00    0.76483   0.81293    0.000
 5878.00    0.76193   0.80836    0.000
 5879.00    0.76116   0.80235    0.000
 5880.00    0.75960   0.79553    0.000
 5881.00    0.75764   0.78846    0.000
 5882.00    0.75531   0.78103    0.000
 5883.00    0.75281   0.77287    0.000
 5884.00    0.74250   0.76344    0.000
 5885.00    0.72917   0.75262    0.000
 5886.00    0.72127   0.74273    0.000
 5887.00    0.71516   0.73386    0.000
 5888.00    0.70173   0.72639    0.000
 5889.00    0.68628   0.71992    0.000
 5890.00    0.66994   0.71222    0.000
 5891.00    0.65340   0.70681    0.000
 5892.00    0.64116   0.70427    0.000
 5893.00    0.62970   0.70467    0.000
 5894.00    0.63346   0.70825    0.000
 5895.00    0.63935   0.71102    0.000
 5896.00    0.64778   0.71483    0.000
 5897.00    0.65646   0.72094    0.000
 5898.00    0.67455   0.72867    0.000
 5899.00    0.69324   0.73880    0.000
 5900.00    0.71208   0.74800    0.000
 5901.00    0.73090   0.75588    0.099
 5902.00    0.74423   0.76387    0.099
 5903.00    0.75730   0.77147    0.099
 5904.00    0.76275   0.77937    0.099
 5905.00    0.76838   0.78623    0.100
 5906.00    0.77646   0.79112    0.098
 5907.00    0.78355   0.79537    0.097
 5908.00    0.78140   0.79870    0.098
 5909.00    0.77943   0.80147    0.099
 5910.00    0.77873   0.80384    0.097
 5911.00    0.77846   0.80483    0.096
 5912.00    0.78047   0.80600    0.096
 5913.00    0.78127   0.80682    0.096
 5914.00    0.77697   0.80720    0.096
 5915.00    0.77353   0.80800    0.096
 5916.00    0.77307   0.80799    0.096
 5917.00    0.77282   0.80861    0.095
 5918.00    0.77315   0.80943    0.096
 5919.00    0.77577   0.80977    0.096
 5920.00    0.78414   0.81059    0.096
 5921.00    0.79158   0.81107    0.096
 5922.00    0.79701   0.81158    0.096
 5923.00    0.80204   0.81248    0.097
 5924.00    0.80635   0.81265    0.098
 5925.00    0.80690   0.81272    0.099
 5926.00    0.80132   0.81322    0.098
 5927.00    0.79766   0.81310    0.098
 5928.00    0.79675   0.81360    0.098
 5929.00    0.79384   0.81356    0.098
 5930.00    0.78840   0.81294    0.099
 5931.00    0.78601   0.81322    0.099
 5932.00    0.78700   0.81292    0.099
 5933.00    0.78407   0.81334    0.098
 5934.00    0.77727   0.81367    0.097
 5935.00    0.77171   0.81320    0.097
 5936.00    0.76720   0.81339    0.097
 5937.00    0.76912   0.81330    0.097
 5938.00    0.77594   0.81349    0.098
 5939.00    0.77982   0.81388    0.099
 5940.00    0.78173   0.81367    0.099
 5941.00    0.78358   0.81356    0.098
 5942.00    0.78540   0.81347    0.097
 5943.00    0.78958   0.81304    0.096
 5944.00    0.79498   0.81277    0.096
 5945.00    0.79151   0.81242    0.096
 5946.00    0.78411   0.81200    0.096
 5947.00    0.78405   0.81174    0.096
 5948.00    0.78679   0.81098    0.096
 5949.00    0.78501   0.81034    0.095
 5950.00    0.78177   0.80996    0.095
 5951.00    0.77590   0.80987    0.094
 5952.00    0.76931   0.81009    0.094
 5953.00    0.76573   0.80990    0.095
 5954.00    0.76283   0.81004    0.096
 5955.00    0.76715   0.81051    0.096
 5956.00    0.77275   0.81145    0.096
 5957.00    0.77574   0.81279    0.096
 5958.00    0.77838   0.81358    0.096
 5959.00    0.78697   0.81484    0.097
 5960.00    0.79614   0.81614    0.098
 5961.00    0.80010   0.81757    0.098
 5962.00    0.80376   0.81929    0.098
 5963.00    0.80111   0.82018    0.099
 5964.00    0.79833   0.82147    0.099
 5965.00    0.79878   0.82242    0.099
 5966.00    0.79917   0.82299    0.099
 5967.00    0.79771   0.82373    0.098
 5968.00    0.79639   0.82359    0.098
 5969.00    0.79700   0.82361    0.097
 5970.00    0.79703   0.82327    0.096
 5971.00    0.79183   0.82229    0.096
 5972.00    0.78610   0.82149    0.096
 5973.00    0.77679   0.82005    0.095
 5974.00    0.76893   0.81862    0.094
 5975.00    0.76847   0.81725    0.094
 5976.00    0.76943   0.81539    0.095
 5977.00    0.77622   0.81404    0.096
 5978.00    0.78201   0.81249    0.097
 5979.00    0.78436   0.81080    0.096
 5980.00    0.78589   0.80987    0.096
 5981.00    0.78508   0.80869    0.096
 5982.00    0.78470   0.80822    0.096
 5983.00    0.78538   0.80803    0.095
 5984.00    0.78548   0.80730    0.095
 5985.00    0.78436   0.80770    0.095
 5986.00    0.78350   0.80795    0.094
 5987.00    0.78311   0.80843    0.094
 5988.00    0.78418   0.80934    0.095
 5989.00    0.78764   0.80937    0.096
 5990.00    0.79040   0.81026    0.097
 5991.00    0.79220   0.81097    0.097
 5992.00    0.79330   0.81105    0.098
 5993.00    0.79353   0.81144    0.097
 5994.00    0.79092   0.81096    0.097
 5995.00    0.78519   0.81076    0.098
 5996.00    0.78030   0.81081    0.098
 5997.00    0.77622   0.80980    0.098
 5998.00    0.77559   0.80882    0.097
 5999.00    0.77789   0.80766    0.096
 6000.00    0.77982   0.80623    0.096
 6001.00    0.78146   0.80580    0.095
 6002.00    0.78254   0.80473    0.096
 6003.00    0.78324   0.80292    0.096
 6004.00    0.77675   0.80190    0.096
 6005.00    0.76610   0.80047    0.095
 6006.00    0.76353   0.80002    0.095
 6007.00    0.76503   0.79981    0.095
 6008.00    0.76720   0.79804    0.095
 6009.00    0.76966   0.79733    0.096
 6010.00    0.76719   0.79683    0.095
 6011.00    0.76288   0.79638    0.094
 6012.00    0.76138   0.79666    0.094
 6013.00    0.76077   0.79564    0.094
 6014.00    0.76040   0.79512    0.095
 6015.00    0.76010   0.79562    0.095
 6016.00    0.75953   0.79554    0.095
 6017.00    0.75889   0.79607    0.095
 6018.00    0.76755   0.79656    0.096
 6019.00    0.77780   0.79686    0.098
 6020.00    0.77479   0.79857    0.098
 6021.00    0.77005   0.79978    0.098
 6022.00    0.76480   0.80122    0.098
 6023.00    0.75949   0.80344    0.099
 6024.00    0.76059   0.80504    0.099
 6025.00    0.76205   0.80777    0.098
 6026.00    0.76942   0.81010    0.098
 6027.00    0.77691   0.81218    0.097
 6028.00    0.78282   0.81488    0.097
 6029.00    0.78852   0.81688    0.097
 6030.00    0.78921   0.81936    0.097
 6031.00    0.79013   0.82132    0.098
 6032.00    0.79398   0.82281    0.097
 6033.00    0.79760   0.82463    0.097
 6034.00    0.79929   0.82583    0.096
 6035.00    0.80059   0.82718    0.096
 6036.00    0.79940   0.82814    0.095
 6037.00    0.79949   0.82866    0.095
 6038.00    0.80599   0.82966    0.094
 6039.00    0.81195   0.83013    0.094
 6040.00    0.81577   0.83064    0.094
 6041.00    0.81778   0.83117    0.094
 6042.00    0.81367   0.83127    0.094
 6043.00    0.80905   0.83177    0.094
 6044.00    0.80297   0.83186    0.094
 6045.00    0.79985   0.83176    0.093
 6046.00    0.80390   0.83173    0.094
 6047.00    0.81070   0.83142    0.094
 6048.00    0.82326   0.83093    0.095
 6049.00    0.82983   0.83022    0.096
 6050.00    0.82551   0.82931    0.097
 6051.00    0.82106   0.82834    0.097
 6052.00    0.81641   0.82730    0.097
 6053.00    0.81437   0.82593    0.098
 6054.00    0.81599   0.82473    0.099
 6055.00    0.81420   0.82350    0.099
 6056.00    0.80823   0.82244    0.098
 6057.00    0.80203   0.82126    0.098
 6058.00    0.79557   0.82022    0.097
 6059.00    0.79340   0.81995    0.097
 6060.00    0.79531   0.81931    0.096
 6061.00    0.79937   0.81928    0.096
 6062.00    0.80524   0.81913    0.096
 6063.00    0.80546   0.81933    0.096
 6064.00    0.80150   0.82069    0.096
 6065.00    0.79973   0.82102    0.096
 6066.00    0.79938   0.82194    0.095
 6067.00    0.80363   0.82310    0.094
 6068.00    0.81048   0.82384    0.093
 6069.00    0.81702   0.82525    0.094
 6070.00    0.82340   0.82548    0.095
 6071.00    0.82547   0.82556    0.095
 6072.00    0.82569   0.82610    0.095
 6073.00    0.82546   0.82545    0.095
 6074.00    0.82507   0.82456    0.095
 6075.00    0.81985   0.82341    0.094
 6076.00    0.81313   0.82166    0.094
 6077.00    0.80437   0.82024    0.093
 6078.00    0.79508   0.81817    0.092
 6079.00    0.79066   0.81570    0.094
 6080.00    0.78728   0.81409    0.096
 6081.00    0.78926   0.81215    0.096
 6082.00    0.79214   0.81008    0.097
 6083.00    0.79381   0.80855    0.097
 6084.00    0.79532   0.80700    0.097
 6085.00    0.79034   0.80599    0.098
 6086.00    0.78480   0.80529    0.099
 6087.00    0.78751   0.80428    0.097
 6088.00    0.79064   0.80386    0.096
 6089.00    0.79394   0.80352    0.096
 6090.00    0.79713   0.80292    0.096
 6091.00    0.79285   0.80308    0.095
 6092.00    0.78879   0.80324    0.094
 6093.00    0.78936   0.80308    0.095
 6094.00    0.79027   0.80239    0.096
 6095.00    0.79528   0.80166    0.095
 6096.00    0.79993   0.80218    0.094
 6097.00    0.80169   0.80222    0.093
 6098.00    0.80238   0.80156    0.092
 6099.00    0.79649   0.80055    0.093
 6100.00    0.79029   0.79976    0.093
 6101.00    0.78259   0.80099    0.093
 6102.00    0.77569   0.80101    0.094
 6103.00    0.77199   0.80006    0.093
 6104.00    0.77003   0.80049    0.093
 6105.00    0.77381   0.80095    0.094
 6106.00    0.77829   0.80256    0.094
 6107.00    0.78468   0.80332    0.094
 6108.00    0.78780   0.80241    0.094
 6109.00    0.78313   0.80346    0.093
 6110.00    0.78039   0.80494    0.094
 6111.00    0.78163   0.80516    0.095
 6112.00    0.78650   0.80502    0.097
 6113.00    0.79784   0.80381    0.098
 6114.00    0.80370   0.80289    0.097
 6115.00    0.80097   0.80333    0.095
 6116.00    0.79664   0.80206    0.094
 6117.00    0.79011   0.79994    0.095
 6118.00    0.78590   0.79875    0.095
 6119.00    0.78451   0.79669    0.094
 6120.00    0.78239   0.79586    0.094
 6121.00    0.77948   0.79511    0.094
 6122.00    0.77698   0.79293    0.094
 6123.00    0.77485   0.79242    0.094
 6124.00    0.77213   0.79148    0.094
 6125.00    0.76891   0.79067    0.093
 6126.00    0.77249   0.79070    0.092
 6127.00    0.78103   0.78946    0.093
 6128.00    0.78845   0.78864    0.093
 6129.00    0.79516   0.78753    0.093
 6130.00    0.79257   0.78692    0.093
 6131.00    0.78477   0.78678    0.092
 6132.00    0.77988   0.78540    0.093
 6133.00    0.77642   0.78392    0.094
 6134.00    0.77160   0.78215    0.095
 6135.00    0.76622   0.78232    0.096
 6136.00    0.76110   0.78303    0.097
 6137.00    0.75607   0.78206    0.098
 6138.00    0.75483   0.78202    0.097
 6139.00    0.75474   0.78242    0.095
 6140.00    0.76489   0.78417    0.096
 6141.00    0.77763   0.78589    0.098
 6142.00    0.78596   0.78587    0.097
 6143.00    0.79338   0.78734    0.096
 6144.00    0.79794   0.78927    0.096
 6145.00    0.80204   0.79066    0.096
 6146.00    0.79991   0.79093    0.097
 6147.00    0.79703   0.78997    0.098
 6148.00    0.79491   0.79011    0.097
 6149.00    0.79285   0.78992    0.096
 6150.00    0.78459   0.78845    0.095
 6151.00    0.77603   0.78624    0.094
 6152.00    0.77784   0.78327    0.093
 6153.00    0.77968   0.78014    0.092
 6154.00    0.77482   0.77654    0.092
 6155.00    0.76969   0.77250    0.092
 6156.00    0.75927   0.76876    0.092
 6157.00    0.74944   0.76472    0.093
 6158.00    0.74634   0.75977    0.092
 6159.00    0.74240   0.75563    0.092
 6160.00    0.73177   0.75220    0.092
 6161.00    0.72040   0.74841    0.093
 6162.00    0.70465   0.74555    0.092
 6163.00    0.69233   0.74341    0.092
 6164.00    0.69637   0.74243    0.093
 6165.00    0.70046   0.74221    0.094
 6166.00    0.70477   0.74101    0.094
 6167.00    0.71101   0.74132    0.094
 6168.00    0.72347   0.74345    0.095
 6169.00    0.73458   0.74538    0.096
 6170.00    0.74199   0.74760    0.097
 6171.00    0.74529   0.74965    0.096
 6172.00    0.73896   0.75204    0.095
 6173.00    0.73374   0.75536    0.094
 6174.00    0.73079   0.75782    0.095
 6175.00    0.72821   0.75992    0.095
 6176.00    0.72629   0.76270    0.094
 6177.00    0.72354   0.76484    0.093
 6178.00    0.71952   0.76613    0.093
 6179.00    0.71931   0.76716    0.093
 6180.00    0.72427   0.76753    0.091
 6181.00    0.73019   0.76817    0.090
 6182.00    0.73726   0.76859    0.090
 6183.00    0.74164   0.76688    0.090
 6184.00    0.74320   0.76594    0.092
 6185.00    0.74186   0.76562    0.093
 6186.00    0.73781   0.76403    0.093
 6187.00    0.73272   0.76331    0.092
 6188.00    0.72679   0.76132    0.093
 6189.00    0.72424   0.76012    0.093
 6190.00    0.72412   0.76117    0.092
 6191.00    0.72453   0.75969    0.092
 6192.00    0.72528   0.75925    0.093
 6193.00    0.73016   0.76026    0.093
 6194.00    0.73734   0.76083    0.095
 6195.00    0.74651   0.76286    0.099
 6196.00    0.75663   0.76280   -2.000
 6197.00    0.75316   0.76302   -2.000
 6198.00    0.74406   0.76588   -2.000
 6199.00    0.71772   0.76712   -2.000
 6200.00    0.68527   0.76792   -2.000
 6201.00    0.69193   0.76856   -2.000
 6202.00    0.71030   0.76859   -2.000
 6203.00    0.75583   0.76967   -2.000
 6204.00    0.80812   0.76951   -2.000
 6205.00    0.81834   0.76788   -2.000
 6206.00    0.82010   0.76711   -2.000
 6207.00    0.80417   0.76571   -2.000
 6208.00    0.78545   0.76354    0.097
 6209.00    0.77073   0.76172    0.094
 6210.00    0.75647   0.75854    0.092
 6211.00    0.74648   0.75542    0.092
 6212.00    0.73683   0.75308    0.091
 6213.00    0.73598   0.74975    0.091
 6214.00    0.73551   0.74754    0.092
 6215.00    0.73575   0.74542    0.091
 6216.00    0.73596   0.74217    0.091
 6217.00    0.73472   0.74072    0.091
 6218.00    0.73353   0.73928    0.091
 6219.00    0.73329   0.73767    0.092
 6220.00    0.73297   0.73729    0.092
 6221.00    0.73166   0.73595    0.093
 6222.00    0.72920   0.73522    0.094
 6223.00    0.71791   0.73550    0.097
 6224.00    0.70891   0.73463    0.099
 6225.00    0.71322   0.73433    0.100
 6226.00    0.71713   0.73453    0.101
 6227.00    0.71910   0.73376    0.101
 6228.00    0.72117   0.73385    0.101
 6229.00    0.72365   0.73392    0.099
 6230.00    0.72638   0.73312    0.097
 6231.00    0.72991   0.73355    0.096
 6232.00    0.73383   0.73339    0.095
 6233.00    0.73878   0.73326    0.093
 6234.00    0.74385   0.73376    0.092
 6235.00    0.74917   0.73247    0.093
 6236.00    0.75149   0.73225    0.092
 6237.00    0.74783   0.73225    0.091
 6238.00    0.74244   0.73154    0.090
 6239.00    0.73403   0.73190    0.090
 6240.00    0.72859   0.73041    0.090
 6241.00    0.72763   0.72966    0.090
 6242.00    0.72776   0.72985    0.090
 6243.00    0.72933   0.72811    0.091
 6244.00    0.72860   0.72768    0.092
 6245.00    0.72518   0.72705    0.093
 6246.00    0.72203   0.72588    0.093
 6247.00    0.71918   0.72602    0.091
 6248.00    0.71688   0.72449    0.092
 6249.00    0.71509   0.72297    0.094
 6250.00    0.71423   0.72251    0.094
 6251.00    0.71413   0.72140    0.094
 6252.00    0.71651   0.72119    0.094
 6253.00    0.72066   0.72054    0.095
 6254.00    0.72243   0.71965    0.095
 6255.00    0.72273   0.71986    0.095
 6256.00    0.72310   0.72008    0.095
 6257.00    0.72350   0.72086    0.096
 6258.00    0.71798   0.72148    0.097
 6259.00    0.70966   0.72294    0.098
 6260.00    0.69779   0.72576    0.102
 6261.00    0.68447   0.72743    0.107
 6262.00    0.68316   0.72903    0.109
 6263.00    0.68602   0.73133    0.110
 6264.00    0.70147   0.73409    0.109
 6265.00    0.72062   0.73707    0.108
 6266.00    0.73414   0.73868    0.104
 6267.00    0.74631   0.74056    0.099
 6268.00    0.75311   0.74307    0.095
 6269.00    0.75886   0.74465    0.092
 6270.00    0.75809   0.74600    0.092
 6271.00    0.75632   0.74696    0.092
 6272.00    0.75261   0.74816    0.092
 6273.00    0.74867   0.74970    0.092
 6274.00    0.74937   0.74990    0.093
 6275.00    0.75041   0.75058    0.095
 6276.00    0.74735   0.75176    0.095
 6277.00    0.74411   0.75167    0.095
 6278.00    0.74432   0.75270    0.095
 6279.00    0.74471   0.75345    0.095
 6280.00    0.75173   0.75363    0.000
 6281.00    0.75852   0.75525    0.000
 6282.00    0.76146   0.75526    0.000
 6283.00    0.76448   0.75578    0.000
 6284.00    0.76832   0.75731    0.000
 6285.00    0.77218   0.75682    0.000
 6286.00    0.77623   0.75753    0.000
 6287.00    0.77910   0.75793    0.000
 6288.00    0.77524   0.75716    0.000
 6289.00    0.77157   0.75755    0.000
 6290.00    0.76878   0.75626    0.000
 6291.00    0.76709   0.75540    0.000
 6292.00    0.76946   0.75535    0.000
 6293.00    0.77085   0.75334    0.000
 6294.00    0.76917   0.75203    0.000
 6295.00    0.76625   0.75111    0.000
 6296.00    0.76008   0.75001    0.000
 6297.00    0.75480   0.74944    0.000
 6298.00    0.75150   0.74797    0.000
 6299.00    0.74935   0.74735    0.000
 6300.00    0.74944   0.74788    0.000
 6301.00    0.75230   0.74772    0.000
 6302.00    0.75991   0.74734    0.000
 6303.00    0.76388   0.74732    0.000
 6304.00    0.76240   0.74832    0.000
 6305.00    0.76231   0.74934    0.000
 6306.00    0.76406   0.74909    0.000
 6307.00    0.76891   0.74870    0.000
 6308.00    0.77736   0.74905    0.000
 6309.00    0.77893   0.74945    0.000
 6310.00    0.77347   0.74933    0.000
 6311.00    0.76603   0.74849    0.000
 6312.00    0.75681   0.74763    0.000
 6313.00    0.74921   0.74816    0.000
 6314.00    0.74288   0.74806    0.000
 6315.00    0.74031   0.74658    0.000
 6316.00    0.74036   0.74654    0.000
 6317.00    0.74222   0.74732    0.000
 6318.00    0.74519   0.74816    0.000
 6319.00    0.74904   0.74839    0.000
 6320.00    0.75336   0.74857    0.000
 6321.00    0.76152   0.75065    0.092
 6322.00    0.77147   0.75221    0.093
 6323.00    0.77502   0.75298    0.092
 6324.00    0.77601   0.75379    0.091
 6325.00    0.78044   0.75537    0.091
 6326.00    0.78606   0.75756    0.092
 6327.00    0.78955   0.75723    0.093
 6328.00    0.79244   0.75724    0.093
 6329.00    0.79201   0.75863    0.094
 6330.00    0.79080   0.75863    0.095
 6331.00    0.78807   0.75867    0.094
 6332.00    0.78504   0.75743    0.093
 6333.00    0.77844   0.75623    0.093
 6334.00    0.77130   0.75711    0.092
 6335.00    0.76875   0.75619    0.093
 6336.00    0.76669   0.75441    0.094
 6337.00    0.76006   0.75473    0.093
 6338.00    0.75311   0.75479    0.092
 6339.00    0.75151   0.75432    0.093
 6340.00    0.75011   0.75377    0.093
 6341.00    0.75225   0.75269    0.092
 6342.00    0.75449   0.75364    0.090
 6343.00    0.75935   0.75457    0.091
 6344.00    0.76409   0.75346    0.091
 6345.00    0.76685   0.75400    0.092
 6346.00    0.76967   0.75458    0.092
 6347.00    0.77308   0.75373    0.090
 6348.00    0.77628   0.75340    0.088
 6349.00    0.77795   0.75246    0.090
 6350.00    0.77875   0.75165    0.092
 6351.00    0.77475   0.75072    0.091
 6352.00    0.77072   0.74846    0.091
 6353.00    0.76653   0.74719    0.092
 6354.00    0.76196   0.74606    0.092
 6355.00    0.75600   0.74322    0.093
 6356.00    0.75137   0.74120    0.094
 6357.00    0.75079   0.74032    0.094
 6358.00    0.75031   0.73889    0.094
 6359.00    0.75010   0.73735    0.096
 6360.00    0.74775   0.73659    0.096
 6361.00    0.74067   0.73707    0.094
 6362.00    0.73706   0.73822    0.094
 6363.00    0.74016   0.73869    0.094
 6364.00    0.74549   0.73974    0.095
 6365.00    0.75459   0.74264    0.094
 6366.00    0.76023   0.74520    0.094
 6367.00    0.76077   0.74684    0.093
 6368.00    0.76199   0.74948    0.093
 6369.00    0.76407   0.75271    0.092
 6370.00    0.76636   0.75538    0.092
 6371.00    0.76887   0.75762    0.092
 6372.00    0.77310   0.75943    0.092
 6373.00    0.77905   0.76152    0.092
 6374.00    0.78240   0.76349    0.092
 6375.00    0.78345   0.76390    0.091
 6376.00    0.78689   0.76451    0.091
 6377.00    0.79220   0.76568    0.091
 6378.00    0.79547   0.76576    0.093
 6379.00    0.79734   0.76596    0.095
 6380.00    0.79388   0.76607    0.095
 6381.00    0.78722   0.76543    0.095
 6382.00    0.78741   0.76511    0.095
 6383.00    0.79122   0.76473    0.096
 6384.00    0.79373   0.76417    0.095
 6385.00    0.79564   0.76355    0.094
 6386.00    0.79098   0.76270    0.094
 6387.00    0.78373   0.76224    0.094
 6388.00    0.78590   0.76168    0.093
 6389.00    0.79122   0.76028    0.093
 6390.00    0.79360   0.75879    0.093
 6391.00    0.79516   0.75831    0.092
 6392.00    0.79042   0.75815    0.092
 6393.00    0.78422   0.75729    0.092
 6394.00    0.77760   0.75633    0.092
 6395.00    0.77091   0.75664    0.092
 6396.00    0.77040   0.75636    0.093
 6397.00    0.77079   0.75439    0.095
 6398.00    0.76921   0.75495    0.094
 6399.00    0.76743   0.75615    0.093
 6400.00    0.76241   0.75551    0.093
 6401.00    0.75716   0.75634    0.093
 6402.00    0.75583   0.75648    0.093
 6403.00    0.75463   0.75680    0.093
 6404.00    0.75991   0.75752    0.094
 6405.00    0.76511   0.75547    0.096
 6406.00    0.76751   0.75653    0.096
 6407.00    0.76981   0.75855    0.096
 6408.00    0.77072   0.75652    0.096
 6409.00    0.77149   0.75645    0.096
 6410.00    0.77086   0.75724    0.096
 6411.00    0.76928   0.75646    0.096
 6412.00    0.76111   0.75662    0.094
 6413.00    0.75468   0.75607    0.092
 6414.00    0.75762   0.75598    0.092
 6415.00    0.76128   0.75709    0.092
 6416.00    0.76807   0.75644    0.093
 6417.00    0.77253   0.75602    0.093
 6418.00    0.76869   0.75683    0.092
 6419.00    0.76487   0.75696    0.091
 6420.00    0.76108   0.75768    0.092
 6421.00    0.76214   0.75841    0.091
 6422.00    0.77555   0.75839    0.090
 6423.00    0.78811   0.75926    0.089
 6424.00    0.79881   0.75984    0.091
 6425.00    0.80595   0.75984    0.092
 6426.00    0.80630   0.76059    0.095
 6427.00    0.80331   0.76029    0.096
 6428.00    0.79479   0.76005    0.095
 6429.00    0.78956   0.76128    0.096
 6430.00    0.78914   0.76126    0.097
 6431.00    0.79064   0.76117    0.098
 6432.00    0.79457   0.76179    0.098
 6433.00    0.79181   0.76160    0.098
 6434.00    0.78151   0.76259    0.096
 6435.00    0.77406   0.76240    0.095
 6436.00    0.76945   0.76109    0.094
 6437.00    0.76757   0.76304    0.094
 6438.00    0.76809   0.76385    0.093
 6439.00    0.76905   0.76290    0.093
 6440.00    0.77035   0.76389    0.092
 6441.00    0.77670   0.76370    0.092
 6442.00    0.78648   0.76371    0.093
 6443.00    0.78871   0.76370    0.093
 6444.00    0.78646   0.76191    0.092
 6445.00    0.78462   0.76241    0.091
 6446.00    0.78299   0.76167    0.090
 6447.00    0.78375   0.75908    0.091
 6448.00    0.78558   0.75980    0.093
 6449.00    0.78069   0.75932    0.094
 6450.00    0.77319   0.75820    0.095
 6451.00    0.76469   0.75841    0.095
 6452.00    0.75585   0.75707    0.094
 6453.00    0.75762   0.75719    0.093
 6454.00    0.76233   0.75761    0.093
 6455.00    0.76639   0.75690    0.094
 6456.00    0.77031   0.75785    0.095
 6457.00    0.76845   0.75866    0.097
 6458.00    0.76555   0.75917    0.098
 6459.00    0.76207   0.75912    0.097
 6460.00    0.75851   0.75859    0.095
 6461.00    0.75580   0.76006    0.095
 6462.00    0.75318   0.76090    0.095
 6463.00    0.75935   0.76067    0.093
 6464.00    0.76608   0.76139    0.092
 6465.00    0.77819   0.76185    0.091
 6466.00    0.79043   0.76210    0.091
 6467.00    0.79552   0.76217    0.091
 6468.00    0.80043   0.76148    0.091
 6469.00    0.80022   0.76191    0.090
 6470.00    0.80001   0.76283    0.089
 6471.00    0.79990   0.76205    0.091
 6472.00    0.80035   0.76131    0.093
 6473.00    0.80594   0.76148    0.094
 6474.00    0.80951   0.76113    0.094
 6475.00    0.79940   0.76014    0.097
 6476.00    0.78985   0.75902    0.099
 6477.00    0.78320   0.75831    0.101
 6478.00    0.77958   0.75742    0.103
 6479.00    0.78874   0.75539    0.103
 6480.00    0.79471   0.75349    0.102
 6481.00    0.78954   0.75242    0.097
 6482.00    0.78440   0.75079    0.095
 6483.00    0.77936   0.74803    0.095
 6484.00    0.77649   0.74547    0.096
 6485.00    0.77904   0.74322    0.095
 6486.00    0.78235   0.74029    0.094
 6487.00    0.78731   0.73668    0.094
 6488.00    0.78671   0.73289    0.094
 6489.00    0.77571   0.73035    0.094
 6490.00    0.76462   0.72733    0.093
 6491.00    0.75339   0.72261    0.091
 6492.00    0.74659   0.72003    0.090
 6493.00    0.74612   0.71816    0.090
 6494.00    0.74308   0.71586    0.090
 6495.00    0.73680   0.71531    0.090
 6496.00    0.73397   0.71410    0.091
 6497.00    0.73496   0.71448    0.092
 6498.00    0.73549   0.71647    0.093
 6499.00    0.73556   0.71690    0.093
 6500.00    0.74020   0.71939    0.094
 6501.00    0.74879   0.72267    0.094
 6502.00    0.75942   0.72502    0.095
 6503.00    0.77162   0.72887    0.096
 6504.00    0.77875   0.73196    0.096
 6505.00    0.78251   0.73458    0.097
 6506.00    0.78630   0.73798    0.097
 6507.00    0.79012   0.74040    0.097
 6508.00    0.79553   0.74272    0.097
 6509.00    0.80176   0.74463    0.098
 6510.00    0.80467   0.74589    0.097
 6511.00    0.80613   0.74751    0.095
 6512.00    0.80385   0.74805    0.094
 6513.00    0.80015   0.74818    0.093
 6514.00    0.79545   0.74920    0.093
 6515.00    0.79043   0.74915    0.093
 6516.00    0.79246   0.74898    0.092
 6517.00    0.79639   0.74967    0.091
 6518.00    0.79827   0.74967    0.091
 6519.00    0.79970   0.74991    0.091
 6520.00    0.79787   0.74994    0.090
 6521.00    0.79547   0.74966    0.090
 6522.00    0.79582   0.75064    0.091
 6523.00    0.79655   0.75050    0.092
 6524.00    0.80029   0.74984    0.093
 6525.00    0.80432   0.75093    0.094
 6526.00    0.79631   0.75112    0.094
 6527.00    0.78759   0.75095    0.093
 6528.00    0.78504   0.75141    0.000
 6529.00    0.78268   0.75116    0.000
 6530.00    0.78581   0.75137    0.000
 6531.00    0.78892   0.75140    0.000
 6532.00    0.79170   0.75100    0.000
 6533.00    0.79437   0.75146    0.000
 6534.00    0.79567   0.75106    0.000
 6535.00    0.79693   0.75018    0.000
 6536.00    0.79786   0.75020    0.000
 6537.00    0.79864   0.74942    0.000
 6538.00    0.79850   0.74825    0.000
 6539.00    0.79928   0.74720    0.000
 6540.00    0.80474   0.74527    0.000
 6541.00    0.80998   0.74382    0.000
 6542.00    0.81433   0.74196    0.000
 6543.00    0.81588   0.73871    0.000
 6544.00    0.80785   0.73653    0.000
 6545.00    0.80242   0.73394    0.000
 6546.00    0.80451   0.73031    0.000
 6547.00    0.80755   0.72725    0.000
 6548.00    0.81296   0.72267    0.000
 6549.00    0.81414   0.71817    0.000
 6550.00    0.80634   0.71467    0.000
 6551.00    0.79858   0.70902    0.000
 6552.00    0.79092   0.70364    0.000
 6553.00    0.78337   0.69907    0.000
 6554.00    0.77600   0.69332    0.000
 6555.00    0.77096   0.68851    0.000
 6556.00    0.76918   0.68266    0.000
 6557.00    0.76696   0.67689    0.000
 6558.00    0.76419   0.67445    0.000
 6559.00    0.76170   0.66881    0.000
 6560.00    0.75952   0.66287    0.000
 6561.00    0.75526   0.66383    0.000
 6562.00    0.74901   0.66334    0.000
 6563.00    0.74494   0.66118    0.000
 6564.00    0.74273   0.66317    0.000
 6565.00    0.74290   0.66511    0.000
 6566.00    0.74488   0.66720    0.000
 6567.00    0.74774   0.67049    0.000
 6568.00    0.75118   0.67352    0.000
 6569.00    0.75783   0.67868    0.000
 6570.00    0.76633   0.68373    0.000
 6571.00    0.76626   0.68696    0.000
 6572.00    0.76187   0.69197    0.000
 6573.00    0.76282   0.69787    0.000
 6574.00    0.76608   0.70156    0.000
 6575.00    0.76939   0.70497    0.000
 6576.00    0.77271   0.70954    0.000
 6577.00    0.77934   0.71260    0.000
 6578.00    0.78701   0.71473    0.000
 6579.00    0.80501   0.71799    0.000
 6580.00    0.82575   0.72020    0.000
 6581.00    0.84746   0.72196    0.000
 6582.00    0.86939   0.72412    0.000
 6583.00    0.88204   0.72466    0.000
 6584.00    0.89309   0.72567    0.000
 6585.00    0.88418   0.72712    0.000
 6586.00    0.87266   0.72666    0.000
 6587.00    0.86134   0.72659    0.000
 6588.00    0.85005   0.72724    0.000
 6589.00    0.83389   0.72654    0.000
 6590.00    0.81747   0.72553    0.000
 6591.00    0.80395   0.72557    0.000
 6592.00    0.79053   0.72566    0.000
 6593.00    0.78088   0.72524    0.000
 6594.00    0.77142   0.72505    0.000
 6595.00    0.76650   0.72482    0.000
 6596.00    0.76180   0.72484    0.000
 6597.00    0.75982   0.72538    0.000
 6598.00    0.75925   0.72523    0.000
 6599.00    0.77081   0.72545    0.000
 6600.00    0.78119   0.72618    0.000
 6601.00    0.78415   0.72611    0.000
 6602.00    0.78610   0.72638    0.000
 6603.00    0.78298   0.72691    0.000
 6604.00    0.78098   0.72727    0.000
 6605.00    0.78355   0.72789    0.000
 6606.00    0.78526   0.72789    0.000
 6607.00    0.78406   0.72822    0.000
 6608.00    0.78304   0.72930    0.000
 6609.00    0.78255   0.73000    0.093
 6610.00    0.78034   0.73032    0.093
 6611.00    0.77400   0.73074    0.093
 6612.00    0.77131   0.73190    0.093
 6613.00    0.77623   0.73272    0.092
 6614.00    0.78137   0.73275    0.092
 6615.00    0.78688   0.73355    0.093
 6616.00    0.79295   0.73419    0.094
 6617.00    0.79990   0.73417    0.094
 6618.00    0.80637   0.73417    0.095
 6619.00    0.81214   0.73384    0.096
 6620.00    0.81463   0.73387    0.097
 6621.00    0.81310   0.73300    0.097
 6622.00    0.81270   0.73140    0.097
 6623.00    0.81353   0.73120    0.097
 6624.00    0.80931   0.73019    0.098
 6625.00    0.80026   0.72838    0.100
 6626.00    0.78897   0.72755    0.099
 6627.00    0.77579   0.72613    0.097
 6628.00    0.77155   0.72477    0.096
 6629.00    0.77392   0.72402    0.095
 6630.00    0.77506   0.72258    0.095
 6631.00    0.77539   0.72160    0.095
 6632.00    0.76999   0.72135    0.094
 6633.00    0.76131   0.72048    0.093
 6634.00    0.76001   0.71993    0.093
 6635.00    0.76234   0.72026    0.093
 6636.00    0.76846   0.71997    0.093
 6637.00    0.77620   0.71930    0.094
 6638.00    0.77842   0.71983    0.094
 6639.00    0.77860   0.72026    0.095
 6640.00    0.78136   0.71983    0.095
 6641.00    0.78492   0.72004    0.095
 6642.00    0.78006   0.72047    0.096
 6643.00    0.77301   0.72075    0.096
 6644.00    0.76738   0.72101    0.096
 6645.00    0.76204   0.72085    0.095
 6646.00    0.76338   0.72122    0.097
 6647.00    0.76582   0.72154    0.098
 6648.00    0.76366   0.72084    0.098
 6649.00    0.76092   0.72096    0.097
 6650.00    0.76131   0.72126    0.095
 6651.00    0.76197   0.72034    0.094
 6652.00    0.76594   0.72001    0.095
 6653.00    0.77007   0.71991    0.095
 6654.00    0.77726   0.71893    0.094
 6655.00    0.78447   0.71842    0.094
 6656.00    0.78988   0.71785    0.093
 6657.00    0.79465   0.71644    0.092
 6658.00    0.78592   0.71592    0.092
 6659.00    0.77717   0.71546    0.092
 6660.00    0.76823   0.71387    0.094
 6661.00    0.75956   0.71330    0.095
 6662.00    0.75323   0.71315    0.094
 6663.00    0.74715   0.71220    0.093
 6664.00    0.74268   0.71195    0.094
 6665.00    0.73953   0.71166    0.094
 6666.00    0.74282   0.71122    0.096
 6667.00    0.74732   0.71164    0.097
 6668.00    0.75662   0.71121    0.098
 6669.00    0.76444   0.71082    0.099
 6670.00    0.76744   0.71159    0.099
 6671.00    0.77092   0.71097    0.098
 6672.00    0.77571   0.71015    0.098
 6673.00    0.77753   0.71111    0.098
 6674.00    0.77229   0.71089    0.098
 6675.00    0.76478   0.70960    0.097
 6676.00    0.75260   0.71013    0.095
 6677.00    0.74717   0.71056    0.093
 6678.00    0.75384   0.70990    0.093
 6679.00    0.76075   0.71009    0.094
 6680.00    0.76803   0.71045    0.094
 6681.00    0.77109   0.71047    0.095
 6682.00    0.76835   0.71081    0.095
 6683.00    0.76651   0.71104    0.096
 6684.00    0.76574   0.71145    0.095
 6685.00    0.76892   0.71196    0.096
 6686.00    0.77631   0.71183    0.097
 6687.00    0.77806   0.71197    0.098
 6688.00    0.77449   0.71280    0.098
 6689.00    0.76817   0.71262    0.098
 6690.00    0.75957   0.71190    0.099
 6691.00    0.75831   0.71237    0.099
 6692.00    0.76241   0.71215    0.099
 6693.00    0.76434   0.71102    0.099
 6694.00    0.76488   0.71120    0.099
 6695.00    0.76214   0.71080    0.098
 6696.00    0.75756   0.70978    0.000
 6697.00    0.75742   0.70987    0.000
 6698.00    0.75944   0.70910    0.000
 6699.00    0.76188   0.70842    0.000
 6700.00    0.76451   0.70847    0.000
 6701.00    0.76068   0.70729    0.000
 6702.00    0.75454   0.70685    0.000
 6703.00    0.75380   0.70687    0.000
 6704.00    0.75470   0.70534    0.000
 6705.00    0.75471   0.70480    0.000
 6706.00    0.75450   0.70454    0.000
 6707.00    0.75738   0.70288    0.000
 6708.00    0.76091   0.70212    0.000
 6709.00    0.76407   0.70140    0.000
 6710.00    0.76718   0.69993    0.000
 6711.00    0.76616   0.69892    0.000
 6712.00    0.76465   0.69779    0.000
 6713.00    0.77981   0.69701    0.000
 6714.00    0.79635   0.69634    0.000
 6715.00    0.78758   0.69535    0.000
 6716.00    0.77762   0.69518    0.000
 6717.00    0.78293   0.69516    0.000
 6718.00    0.78828   0.69490    0.000
 6719.00    0.78417   0.69510    0.000
 6720.00    0.77985   0.69545    0.000
 6721.00    0.77169   0.69613    0.000
 6722.00    0.76369   0.69673    0.000
 6723.00    0.75754   0.69713    0.000
 6724.00    0.75158   0.69826    0.000
 6725.00    0.74714   0.69902    0.000
 6726.00    0.74520   0.69934    0.000
 6727.00    0.75818   0.70031    0.000
 6728.00    0.77291   0.70089    0.000
 6729.00    0.79594   0.70103    0.000
 6730.00    0.81318   0.70138    0.000
 6731.00    0.80807   0.70144    0.000
 6732.00    0.80408   0.70133    0.000
 6733.00    0.80373   0.70108    0.000
 6734.00    0.79861   0.70055    0.000
 6735.00    0.78046   0.70026    0.000
 6736.00    0.76401   0.69961    0.000
 6737.00    0.75154   0.69860    0.000
 6738.00    0.74504   0.69823    0.000
 6739.00    0.75059   0.69759    0.000
 6740.00    0.75562   0.69639    0.000
 6741.00    0.75973   0.69582    0.000
 6742.00    0.75882   0.69545    0.000
 6743.00    0.75019   0.69461    0.000
 6744.00    0.74739   0.69386    0.000
 6745.00    0.75246   0.69399    0.000
 6746.00    0.75122   0.69380    0.000
 6747.00    0.74249   0.69302    0.000
 6748.00    0.73899   0.69377    0.000
 6749.00    0.74100   0.69429    0.000
 6750.00    0.73867   0.69388    0.000
 6751.00    0.73234   0.69508    0.000
 6752.00    0.72795   0.69593    0.000
 6753.00    0.72517   0.69614    0.104
 6754.00    0.72750   0.69760    0.107
 6755.00    0.73351   0.69828    0.110
 6756.00    0.73519   0.69881    0.111
 6757.00    0.73414   0.70024    0.111
 6758.00    0.74400   0.70051    0.113
 6759.00    0.75988   0.70101    0.115
 6760.00    0.79283   0.70210    0.118
 6761.00    0.83396   0.70180    0.122
 6762.00    0.84920   0.70200    0.122
 6763.00    0.85372   0.70283    0.121
 6764.00    0.86000   0.70234    0.120
 6765.00    0.86689   0.70212    0.119
 6766.00    0.86645   0.70266    0.117
 6767.00    0.86383   0.70249    0.116
 6768.00    0.85535   0.70227    0.112
 6769.00    0.84542   0.70256    0.108
 6770.00    0.84335   0.70273    0.107
 6771.00    0.84287   0.70263    0.107
 6772.00    0.82887   0.70276    0.105
 6773.00    0.81275   0.70313    0.104
 6774.00    0.81119   0.70297    0.105
 6775.00    0.81134   0.70284    0.106
 6776.00    0.79326   0.70303    0.106
 6777.00    0.77373   0.70251    0.106
 6778.00    0.78207   0.70200    0.109
 6779.00    0.79163   0.70190    0.112
 6780.00    0.80680   0.70100    0.115
 6781.00    0.82157   0.70029    0.118
 6782.00    0.81505   0.70012    0.115
 6783.00    0.80922   0.69901    0.113
 6784.00    0.81607   0.69816    0.112
 6785.00    0.82133   0.69813    0.111
 6786.00    0.80928   0.69732    0.109
 6787.00    0.79705   0.69654    0.107
 6788.00    0.78344   0.69664    0.107
 6789.00    0.77361   0.69633    0.107
 6790.00    0.78578   0.69593    0.107
 6791.00    0.79527   0.69629    0.107
 6792.00    0.79234   0.69626    0.107
 6793.00    0.79209   0.69627    0.106
 6794.00    0.80198   0.69681    0.106
 6795.00    0.80832   0.69678    0.106
 6796.00    0.80343   0.69722    0.106
 6797.00    0.80183   0.69780    0.107
 6798.00    0.80907   0.69746    0.108
 6799.00    0.80791   0.69821    0.108
 6800.00    0.78748   0.69875    0.109
 6801.00    0.77039   0.69800    0.109
 6802.00    0.75992   0.69888    0.108
 6803.00    0.75536   0.69925    0.108
 6804.00    0.76103   0.69840    0.109
 6805.00    0.76588   0.69920    0.109
 6806.00    0.76947   0.69923    0.108
 6807.00    0.77268   0.69876    0.107
 6808.00    0.77539   0.69941    0.105
 6809.00    0.77559   0.69896    0.104
 6810.00    0.77284   0.69902    0.104
 6811.00    0.76342   0.69970    0.105
 6812.00    0.74708   0.69916    0.106
 6813.00    0.75218   0.69957    0.106
 6814.00    0.77685   0.70002    0.107
 6815.00    0.79239   0.69963    0.107
 6816.00    0.80060   0.70036    0.107
 6817.00    0.79762   0.70077    0.105
 6818.00    0.78670   0.70062    0.102
 6819.00    0.77975   0.70121    0.102
 6820.00    0.77528   0.70151    0.104
 6821.00    0.77879   0.70160    0.105
 6822.00    0.78663   0.70178    0.106
 6823.00    0.79099   0.70182    0.107
 6824.00    0.79371   0.70201    0.107
 6825.00    0.78428   0.70199    0.107
 6826.00    0.76992   0.70175    0.108
 6827.00    0.76655   0.70150    0.108
 6828.00    0.76700   0.70123    0.109
 6829.00    0.77670   0.70091    0.109
 6830.00    0.78910   0.70020    0.108
 6831.00    0.79861   0.69955    0.108
 6832.00    0.80740   0.69902    0.107
 6833.00    0.80641   0.69799    0.107
 6834.00    0.80350   0.69718    0.106
 6835.00    0.80472   0.69645    0.106
 6836.00    0.80657   0.69536    0.106
 6837.00    0.78974   0.69460    0.108
 6838.00    0.77082   0.69399    0.110
 6839.00    0.75742   0.69325    0.109
 6840.00    0.74442   0.69259    0.108
 6841.00    0.75068   0.69216    0.108
 6842.00    0.75770   0.69189    0.108
 6843.00    0.75322   0.69142    0.108
 6844.00    0.74903   0.69129    0.108
 6845.00    0.75903   0.69128    0.108
 6846.00    0.76898   0.69076    0.108
 6847.00    0.77786   0.69095    0.109
 6848.00    0.78728   0.69096    0.109
 6849.00    0.80237   0.68995    0.110
 6850.00    0.81468   0.69020    0.110
 6851.00    0.80629   0.69021    0.109
 6852.00    0.79753   0.68885    0.108
 6853.00    0.78661   0.68894    0.107
 6854.00    0.77601   0.68888    0.106
 6855.00    0.76681   0.68746    0.105
 6856.00    0.75799   0.68730    0.103
 6857.00    0.75055   0.68727    0.103
 6858.00    0.74461   0.68635    0.103
 6859.00    0.74335   0.68607    0.104
 6860.00    0.74445   0.68598    0.105
 6861.00    0.75178   0.68560    0.106
 6862.00    0.75468   0.68534    0.106
 6863.00    0.74758   0.68521    0.106
 6864.00    0.74253   0.68542    0.106
 6865.00    0.74151   0.68545    0.106
 6866.00    0.74408   0.68521    0.107
 6867.00    0.75279   0.68554    0.109
 6868.00    0.75771   0.68594    0.111
 6869.00    0.75699   0.68592    0.111
 6870.00    0.76082   0.68615    0.111
 6871.00    0.77065   0.68675    0.111
 6872.00    0.78116   0.68711    0.110
 6873.00    0.79246   0.68729    0.109
 6874.00    0.78993   0.68783    0.108
 6875.00    0.77329   0.68857    0.107
 6876.00    0.76385   0.68891    0.106
 6877.00    0.76089   0.68922    0.106
 6878.00    0.76087   0.69030    0.105
 6879.00    0.76318   0.69108    0.104
 6880.00    0.75973   0.69120    0.103
 6881.00    0.75224   0.69232    0.103
 6882.00    0.74800   0.69354    0.104
 6883.00    0.74574   0.69369    0.106
 6884.00    0.74313   0.69476    0.106
 6885.00    0.74033   0.69625    0.104
 6886.00    0.74629   0.69651    0.105
 6887.00    0.75631   0.69743    0.107
 6888.00    0.76236   0.69884    0.108
 6889.00    0.76683   0.69928    0.109
 6890.00    0.76750   0.70009    0.110
 6891.00    0.76689   0.70108    0.111
 6892.00    0.75953   0.70156    0.111
 6893.00    0.75025   0.70237    0.112
 6894.00    0.75175   0.70286    0.111
 6895.00    0.75581   0.70322    0.109
 6896.00    0.76076   0.70395    0.109
 6897.00    0.76588   0.70415    0.108
 6898.00    0.77704   0.70444    0.109
 6899.00    0.78909   0.70492    0.110
 6900.00    0.78162   0.70499    0.110
 6901.00    0.77205   0.70529    0.111
 6902.00    0.77203   0.70533    0.109
 6903.00    0.77269   0.70534    0.108
 6904.00    0.76924   0.70562    0.108
 6905.00    0.76563   0.70510    0.108
 6906.00    0.76305   0.70505    0.109
 6907.00    0.76063   0.70528    0.109
 6908.00    0.76385   0.70424    0.111
 6909.00    0.76699   0.70413    0.112
 6910.00    0.76897   0.70422    0.114
 6911.00    0.76920   0.70295    0.115
 6912.00    0.75196   0.70280    0.113
 6913.00    0.73780   0.70272    0.111
 6914.00    0.74583   0.70152    0.112
 6915.00    0.75183   0.70134    0.113
 6916.00    0.74666   0.70107    0.112
 6917.00    0.74423   0.70015    0.110
 6918.00    0.75385   0.70007    0.110
 6919.00    0.76221   0.69974    0.110
 6920.00    0.76598   0.69911    0.109
 6921.00    0.76772   0.69907    0.108
 6922.00    0.76328   0.69882    0.108
 6923.00    0.76238   0.69851    0.108
 6924.00    0.77065   0.69837    0.109
 6925.00    0.77393   0.69828    0.109
 6926.00    0.76614   0.69836    0.111
 6927.00    0.75810   0.69816    0.111
 6928.00    0.74959   0.69824    0.111
 6929.00    0.74718   0.69859    0.111
 6930.00    0.75503   0.69836    0.114
 6931.00    0.75684   0.69863    0.115
 6932.00    0.74972   0.69914    0.115
 6933.00    0.74467   0.69878    0.116
 6934.00    0.74228   0.69914    0.117
 6935.00    0.74024   0.69963    0.118
 6936.00    0.73859   0.69899    0.117
 6937.00    0.74189   0.69936    0.117
 6938.00    0.75017   0.69983    0.117
 6939.00    0.75127   0.69889    0.117
 6940.00    0.74599   0.69920    0.116
 6941.00    0.74232   0.69957    0.115
 6942.00    0.73991   0.69835    0.114
 6943.00    0.74497   0.69863    0.114
 6944.00    0.75518   0.69902    0.115
 6945.00    0.75652   0.69777    0.115
 6946.00    0.75250   0.69812    0.114
 6947.00    0.75121   0.69862    0.113
 6948.00    0.75135   0.69762    0.111
 6949.00    0.74635   0.69818    0.112
 6950.00    0.73901   0.69882    0.113
 6951.00    0.74833   0.69820    0.115
 6952.00    0.76419   0.69909    0.116
 6953.00    0.75393   0.69986    0.116
 6954.00    0.73494   0.69962    0.116
 6955.00    0.73893   0.70081    0.116
 6956.00    0.74938   0.70162    0.117
 6957.00    0.74872   0.70158    0.119
 6958.00    0.74548   0.70291    0.122
 6959.00    0.74621   0.70363    0.120
 6960.00    0.74767   0.70356    0.118
 6961.00    0.75539   0.70478    0.117
 6962.00    0.76400   0.70513    0.117
 6963.00    0.75498   0.70476    0.116
 6964.00    0.74412   0.70565    0.115
 6965.00    0.74828   0.70553    0.117
 6966.00    0.75343   0.70460    0.119
 6967.00    0.75304   0.70488    0.119
 6968.00    0.75248   0.70438    0.118
 6969.00    0.75532   0.70294    0.118
 6970.00    0.75806   0.70259    0.118
 6971.00    0.75769   0.70194    0.119
 6972.00    0.75713   0.70036    0.121
 6973.00    0.75366   0.69970    0.120
 6974.00    0.74935   0.69921    0.119
 6975.00    0.73708   0.69791    0.121
 6976.00    0.72744   0.69742    0.124
 6977.00    0.73609   0.69741    0.125
 6978.00    0.74427   0.69677    0.126
 6979.00    0.74997   0.69685    0.125
 6980.00    0.75364   0.69741    0.124
 6981.00    0.74858   0.69751    0.122
 6982.00    0.74330   0.69816    0.120
 6983.00    0.73727   0.69909    0.118
 6984.00    0.73471   0.69965    0.117
 6985.00    0.74256   0.70052    0.117
 6986.00    0.75097   0.70143    0.117
 6987.00    0.76084   0.70202    0.116
 6988.00    0.76884   0.70264    0.116
 6989.00    0.77275   0.70323    0.117
 6990.00    0.76916   0.70358    0.118
 6991.00    0.75135   0.70367    0.120
 6992.00    0.74203   0.70377    0.122
 6993.00    0.74675   0.70374    0.121
 6994.00    0.74888   0.70334    0.121
 6995.00    0.74726   0.70303    0.122
 6996.00    0.74236   0.70267    0.122
 6997.00    0.73327   0.70199    0.122
 6998.00    0.73619   0.70145    0.122
 6999.00    0.75262   0.70090    0.124
 7000.00    0.75366   0.70020    0.125
 7001.00    0.73944   0.69956    0.124
 7002.00    0.72809   0.69898    0.123
 7003.00    0.71925   0.69848    0.123
 7004.00    0.71757   0.69774    0.123
 7005.00    0.72141   0.69720    0.122
 7006.00    0.72275   0.69703    0.125
 7007.00    0.72240   0.69625    0.130
 7008.00    0.72014   0.69577    0.130
 7009.00    0.71676   0.69586    0.128
 7010.00    0.72377   0.69503    0.129
 7011.00    0.73616   0.69464    0.131
 7012.00    0.74056   0.69492    0.132
 7013.00    0.74138   0.69415    0.134
 7014.00    0.73786   0.69395    0.134
 7015.00    0.73267   0.69439    0.133
 7016.00    0.72312   0.69382    0.133
 7017.00    0.71215   0.69385    0.133
 7018.00    0.71785   0.69443    0.135
 7019.00    0.72814   0.69420    0.137
 7020.00    0.73092   0.69445    0.136
 7021.00    0.73199   0.69517    0.135
 7022.00    0.73074   0.69535    0.135
 7023.00    0.72906   0.69572    0.135
 7024.00    0.72842   0.69657    0.133
 7025.00    0.72793   0.69718    0.132
 7026.00    0.74271   0.69756    0.131
 7027.00    0.75900   0.69855    0.131
 7028.00    0.74411   0.69956    0.131
 7029.00    0.72725   0.69988    0.131
 7030.00    0.72448   0.70101    0.131
 7031.00    0.72218   0.70240    0.132
 7032.00    0.74152   0.70266    0.133
 7033.00    0.75980   0.70392    0.135
 7034.00    0.74913   0.70562    0.134
 7035.00    0.73871   0.70585    0.133
 7036.00    0.73192   0.70714    0.134
 7037.00    0.72678   0.70893    0.134
 7038.00    0.73688   0.70908    0.136
 7039.00    0.74619   0.71017    0.137
 7040.00    0.75020   0.71167    0.138
 7041.00    0.75517   0.71150    0.139
 7042.00    0.76516   0.71206    0.138
 7043.00    0.77252   0.71276    0.137
 7044.00    0.76884   0.71191    0.135
 7045.00    0.76772   0.71153    0.134
 7046.00    0.77552   0.71108    0.136
 7047.00    0.77525   0.70930    0.136
 7048.00    0.75136   0.70782    0.135
 7049.00    0.73893   0.70621    0.134
 7050.00    0.75511   0.70355   -2.000
 7051.00    0.77540   0.70111   -2.000
 7052.00    0.80453   0.69875   -2.000
 7053.00    0.81984   0.69563   -2.000
 7054.00    0.80935   0.69268   -2.000
 7055.00    0.80559   0.69024   -2.000
 7056.00    0.81279   0.68725   -2.000
 7057.00    0.80820   0.68433   -2.000
 7058.00    0.78675   0.68241   -2.000
 7059.00    0.78477   0.68004   -2.000
 7060.00    0.80730   0.67761   -2.000
 7061.00    0.82322   0.67657   -2.000
 7062.00    0.83182   0.67506   -2.000
 7063.00    0.83998   0.67339   -2.000
 7064.00    0.84773   0.67329   -2.000
 7065.00    0.84515   0.67266   -2.000
 7066.00    0.83364   0.67175   -2.000
 7067.00    0.81520   0.67234   -2.000
 7068.00    0.79149   0.67239   -2.000
 7069.00    0.78399   0.67203   -2.000
 7070.00    0.78731   0.67283   -2.000
 7071.00    0.80468   0.67317   -2.000
 7072.00    0.83027   0.67290   -2.000
 7073.00    0.84716   0.67335   -2.000
 7074.00    0.85962   0.67349   -2.000
 7075.00    0.86127   0.67274   -2.000
 7076.00    0.85813   0.67235   -2.000
 7077.00    0.84109   0.67190   -2.000
 7078.00    0.81877   0.67028   -2.000
 7079.00    0.82213   0.66887   -2.000
 7080.00    0.83377   0.66774   -2.000
 7081.00    0.82817   0.66523   -2.000
 7082.00    0.81793   0.66302   -2.000
 7083.00    0.78619   0.66145   -2.000
 7084.00    0.74971   0.65848   -2.000
 7085.00    0.77901   0.65605   -2.000
 7086.00    0.81987   0.65449   -2.000
 7087.00    0.79852   0.65171   -2.000
 7088.00    0.76884   0.64968   -2.000
 7089.00    0.76976   0.64857   -2.000
 7090.00    0.77360   0.64656   -2.000
 7091.00    0.75607   0.64531   -2.000
 7092.00    0.73729   0.64486   -2.000
 7093.00    0.72505   0.64390   -2.000
 7094.00    0.71315   0.64346   -2.000
 7095.00    0.72597   0.64358   -2.000
 7096.00    0.73754   0.64355   -2.000
 7097.00    0.71827   0.64367   -2.000
 7098.00    0.70024   0.64411   -2.000
 7099.00    0.69863   0.64463   -2.000
 7100.00    0.69571   0.64499   -2.000
 7101.00    0.68124   0.64546   -2.000
 7102.00    0.66901   0.64611   -2.000
 7103.00    0.67149   0.64647   -2.000
 7104.00    0.67336   0.64680   -2.000
 7105.00    0.67214   0.64730   -2.000
 7106.00    0.67118   0.64757   -2.000
 7107.00    0.67132   0.64772   -2.000
 7108.00    0.66599   0.64798   -2.000
 7109.00    0.64202   0.64815   -2.000
 7110.00    0.63401   0.64813   -2.000
 7111.00    0.67188   0.64816   -2.000
 7112.00    0.69595   0.64824   -2.000
 7113.00    0.68614   0.64800   -2.000
 7114.00    0.68068   0.64783   -2.000
 7115.00    0.68442   0.64773   -2.000
 7116.00    0.69328   0.64718   -2.000
 7117.00    0.71155   0.64678   -2.000
 7118.00    0.72845   0.64641   -2.000
 7119.00    0.74315   0.64551   -2.000
 7120.00    0.75506   0.64488   -2.000
 7121.00    0.76303   0.64420   -2.000
 7122.00    0.75912   0.64310   -2.000
 7123.00    0.74049   0.64236   -2.000
 7124.00    0.71920   0.64148   -2.000
 7125.00    0.69500   0.64051   -2.000
 7126.00    0.68962   0.63991   -2.000
 7127.00    0.70241   0.63900   -2.000
 7128.00    0.71893   0.63853   -2.000
 7129.00    0.73863   0.63831   -2.000
 7130.00    0.73384   0.63753   -2.000
 7131.00    0.71071   0.63775   -2.000
 7132.00    0.69513   0.63802   -2.000
 7133.00    0.68453   0.63738   -2.000
 7134.00    0.68529   0.63821   -2.000
 7135.00    0.69260   0.63887   -2.000
 7136.00    0.69342   0.63824   -2.000
 7137.00    0.69098   0.63941   -2.000
 7138.00    0.70355   0.64025   -2.000
 7139.00    0.72265   0.63948   -2.000
 7140.00    0.70739   0.64070   -2.000
 7141.00    0.67934   0.64160   -2.000
 7142.00    0.68459   0.64067   -2.000
 7143.00    0.70037   0.64179   -2.000
 7144.00    0.69500   0.64273   -2.000
 7145.00    0.68405   0.64182   -2.000
 7146.00    0.68238   0.64276   -2.000
 7147.00    0.68272   0.64382   -2.000
 7148.00    0.67904   0.64313   -2.000
 7149.00    0.67466   0.64386   -2.000
 7150.00    0.68429   0.64503   -2.000
 7151.00    0.69574   0.64470   -2.000
 7152.00    0.69055   0.64513   -2.000
 7153.00    0.68385   0.64627   -2.000
 7154.00    0.68282   0.64630   -2.000
 7155.00    0.68209   0.64634   -2.000
 7156.00    0.68539   0.64729   -2.000
 7157.00    0.68871   0.64758   -2.000
 7158.00    0.68698   0.64729   -2.000
 7159.00    0.68424   0.64802   -2.000
 7160.00    0.65838   0.64852   -2.000
 7161.00    0.63673   0.64808   -2.000
 7162.00    0.66796   0.64868   -2.000
 7163.00    0.69697   0.64937   -2.000
 7164.00    0.70700   0.64899   -2.000
 7165.00    0.72408   0.64959   -2.000
 7166.00    0.78593   0.65041   -2.000
 7167.00    0.82853   0.65014   -2.000
 7168.00    0.77558   0.65074   -2.000
 7169.00    0.73359   0.65153   -2.000
 7170.00    0.73568   0.65125   -2.000
 7171.00    0.73484   0.65169   -2.000
 7172.00    0.72423   0.65218   -2.000
 7173.00    0.71851   0.65173   -2.000
 7174.00    0.72661   0.65185   -2.000
 7175.00    0.73033   0.65187   -2.000
 7176.00    0.72345   0.65119   -2.000
 7177.00    0.71367   0.65096   -2.000
 7178.00    0.69786   0.65044   -2.000
 7179.00    0.68837   0.64966   -2.000
 7180.00    0.69033   0.64924   -2.000
 7181.00    0.68790   0.64831   -2.000
 7182.00    0.67855   0.64761   -2.000
 7183.00    0.67169   0.64727   -2.000
 7184.00    0.66828   0.64616   -2.000
 7185.00    0.67387   0.64572   -2.000
 7186.00    0.69047   0.64567   -2.000
 7187.00    0.69396   0.64465   -2.000
 7188.00    0.68331   0.64452   -2.000
 7189.00    0.67834   0.64488   -2.000
 7190.00    0.67878   0.64416   -2.000
 7191.00    0.67900   0.64427   -2.000
 7192.00    0.67905   0.64499   -2.000
 7193.00    0.67114   0.64465   -2.000
 7194.00    0.65737   0.64482   -2.000
 7195.00    0.64851   0.64568   -2.000
 7196.00    0.64283   0.64569   -2.000
 7197.00    0.64255   0.64575   -2.000
 7198.00    0.64532   0.64650   -2.000
 7199.00    0.63471   0.64680   -2.000
 7200.00    0.61751   0.64668   -2.000
 7201.00    0.60663   0.64712   -2.000
 7202.00    0.59845   0.64770   -2.000
 7203.00    0.63788   0.64750   -2.000
 7204.00    0.69474   0.64762   -2.000
 7205.00    0.70047   0.64850   -2.000
 7206.00    0.69036   0.64845   -2.000
 7207.00    0.66230   0.64838   -2.000
 7208.00    0.62961   0.64959   -2.000
 7209.00    0.63665   0.64991   -2.000
 7210.00    0.65206   0.64984   -2.000
 7211.00    0.63924   0.65131   -2.000
 7212.00    0.62172   0.65212   -2.000
 7213.00    0.62199   0.65222   -2.000
 7214.00    0.62447   0.65375   -2.000
 7215.00    0.62634   0.65504   -2.000
 7216.00    0.62816   0.65538   -2.000
 7217.00    0.64408   0.65678   -2.000
 7218.00    0.66072   0.65840   -2.000
