###################################################################
## OUTPUT of StarlightChains_v04.for    [Cid@UFSC - 01/Apr/2007] ##
###################################################################

## Some input info
KUG0210-078._27_33.txt                   [arq_obs]
Base.CB07.vall.4m                        [arq_base]
Masks.EmLines.NEW.gm                     [arq_masks]
StCv04.C11.config                        [arq_config]
   66                                    [N_base]
    0                                    [N_YAV_components = # of components with extra extinction!]
    0                                    [i_FitPowerLaw (1/0 = Yes/No)]
-9.99                                    [alpha_PowerLaw]
CCM                                      [red_law_option]
 1.458241                                [q_norm = A(l_norm)/A(V)]

## (Re)Sampling Parameters
 3741.00                                 [l_ini (A)]
 7218.00                                 [l_fin (A)]
    1.00                                 [dl    (A)]     (OBS: dl_cushion =    50.00 A)

## Normalization info
 4020.00                                 [l_norm (A) - for base]
 4010.00                                 [llow_norm (A) - window for f_obs]
 4060.00                                 [lupp_norm (A) - window for f_obs]
5.215761E-17                             [fobs_norm (in input units)]

## S/N
 3691.00                                 [llow_SN (A) - window for S/N]
 7268.00                                 [lupp_SN (A) - window for S/N]
   6.787                                 [S/N in S/N window]
   7.643                                 [S/N in norm. window]
   0.059                                 [S/N_err in S/N window]
   0.067                                 [S/N_err in norm. window]
  1.0000                                 [fscale_chi2]

## etc...
    -2007353                             [idum_orig]
  2432                                   [NOl_eff]
  2420                                   [Nl_eff]
    12    NSIGMA                         [Ntot_cliped & clip_method]
  1326920                                [Nglobal_steps]
   7                                     [N_chains]
  44                                     [NEX0s_base = N_base in EX0s-fits]
 0   0   1       12   2.0   7.450E+03    [Clip-Bug, RC-Crash & Burn-In warning-flags, n_censored_weights, wei_nsig_threshold & wei_limit]
    37     36.958     36.237      0.722  [idt_all, wdt_TotTime, wdt_UsrTime & wdt_SysTime (sec)]

## Synthesis Results - Best model ##

 6.72137E-05                             [chi2/Nl_eff]
     5.87970                             [adev (%)]

   114.12851                             [sum-of-x (%)]
 3.84359E-17                             [Flux_tot (units of input spectrum!)]
 1.07663E-12                             [Mini_tot (???)]
 5.57200E-13                             [Mcor_tot (???)]

 245.90                                  [v0_min  (km/s)]
 122.68                                  [vd_min  (km/s)]
-0.3257                                  [AV_min  (mag)]
 0.0000                                  [YAV_min (mag)]

# j     x_j(%)      Mini_j(%)     Mcor_j(%)     age_j(yr)     Z_j      (L/M)_j    YAV?  Mstars   component_j        a/Fe...       SSP_chi2r SSP_adev(%)   SSP_AV   SSP_x(%)
  1      4.1385     1.1833E-02    2.2864E-02    1.000000E+06  0.00400  1.094E-02    0   1.0000   age020_m42            0.0000     8.8950E-05     7.3522   2.6209    97.3111
  2      0.0000     0.0000E+00    0.0000E+00    3.160000E+06  0.00400  4.007E-02    0   0.9999   age045_m42            0.0000     8.1244E-05     6.5481   1.8618   104.8800
  3      2.0637     2.5425E-03    4.6612E-03    5.010000E+06  0.00400  2.539E-02    0   0.9488   age055_m42            0.0000     8.4052E-05     6.8580   2.2017   101.7684
  4      4.8744     5.8196E-03    1.0368E-02    6.610000E+06  0.00400  2.620E-02    0   0.9220   age061_m42            0.0000     8.6408E-05     6.5162   1.7974   104.7874
  5      5.3275     1.2606E-02    2.1585E-02    1.000000E+07  0.00400  1.322E-02    0   0.8862   age070_m42            0.0000     9.1275E-05     7.0518   1.5767   105.1469
  6      1.3001     5.1591E-03    8.5441E-03    1.445000E+07  0.00400  7.883E-03    0   0.8571   age078_m42            0.0000     8.9787E-05     7.1328   1.9038   102.5068
  7      0.0000     0.0000E+00    0.0000E+00    2.512000E+07  0.00400  5.251E-03    0   0.8174   age090_m42            0.0000     9.2319E-05     7.2478   1.4561   105.4560
  8      0.0000     0.0000E+00    0.0000E+00    4.000000E+07  0.00400  3.649E-03    0   0.7851   age104_m42            0.0000     9.0555E-05     6.9796   1.2167   106.7122
  9      0.0000     0.0000E+00    0.0000E+00    5.500000E+07  0.00400  3.098E-03    0   0.7629   age110_m42            0.0000     9.3967E-05     6.5007   1.3378   107.6885
 10      0.0000     0.0000E+00    0.0000E+00    1.015200E+08  0.00400  2.228E-03    0   0.7207   age116_m42            0.0000     1.0219E-04     6.3769   1.3384   108.4546
 11      0.0000     0.0000E+00    0.0000E+00    2.861200E+08  0.00400  1.093E-03    0   0.6648   age125_m42            0.0000     1.1146E-04     6.4328   0.7805   111.1501
 12      0.0000     0.0000E+00    0.0000E+00    5.088000E+08  0.00400  6.597E-04    0   0.6365   age130_m42            0.0000     1.2128E-04     6.1948   0.7368   113.1860
 13      0.0000     0.0000E+00    0.0000E+00    1.434000E+09  0.00400  2.132E-04    0   0.5798   age139_m42            0.0000     1.0261E-04     5.8948  -0.2574   116.1940
 14      2.4882     1.3203E+00    1.3717E+00    4.250000E+09  0.00400  5.895E-05    0   0.5377   age158_m42            0.0000     8.7516E-05     5.8190  -0.7290   112.6766
 15      0.0000     0.0000E+00    0.0000E+00    7.500000E+09  0.00400  3.510E-05    0   0.5212   age171_m42            0.0000     9.4457E-05     6.0324  -0.9366   112.4528
 16      0.0000     0.0000E+00    0.0000E+00    1.300000E+10  0.00400  2.005E-05    0   0.5034   age193_m42            0.0000     1.0639E-04     6.6630  -1.0000   110.0376
 17      3.3931     6.9598E+00    6.6795E+00    1.800000E+10  0.00400  1.525E-05    0   0.4967   age213_m42            0.0000     1.0482E-04     6.8070  -1.0000   109.0777
 18      0.0000     0.0000E+00    0.0000E+00    1.000000E+06  0.00800  1.238E-02    0   1.0000   age020_m52            0.0000     8.9475E-05     7.3622   2.6173    97.5138
 19      0.5516     5.6130E-04    1.0809E-03    3.160000E+06  0.00800  3.074E-02    0   0.9966   age045_m52            0.0000     8.8393E-05     7.3327   2.5374    98.4748
 20      0.0000     0.0000E+00    0.0000E+00    5.010000E+06  0.00800  2.668E-02    0   0.9443   age055_m52            0.0000     8.4902E-05     6.9784   2.2920   100.6433
 21      0.0000     0.0000E+00    0.0000E+00    6.610000E+06  0.00800  2.136E-02    0   0.9177   age061_m52            0.0000     7.8011E-05     6.7706   1.0738   106.5265
 22      0.0000     0.0000E+00    0.0000E+00    1.000000E+07  0.00800  1.215E-02    0   0.8827   age070_m52            0.0000     9.2525E-05     7.4576   1.7745   104.3267
 23      5.2406     1.8806E-02    3.1075E-02    1.445000E+07  0.00800  8.717E-03    0   0.8552   age078_m52            0.0000     8.9510E-05     7.0936   1.8700   103.9033
 24      0.0000     0.0000E+00    0.0000E+00    2.512000E+07  0.00800  5.592E-03    0   0.8162   age090_m52            0.0000     9.2761E-05     7.2669   1.5202   106.6613
 25      0.0000     0.0000E+00    0.0000E+00    4.000000E+07  0.00800  3.896E-03    0   0.7841   age104_m52            0.0000     9.1946E-05     6.8566   1.4137   108.0215
 26      0.0000     0.0000E+00    0.0000E+00    1.015200E+08  0.00800  2.148E-03    0   0.7226   age116_m52            0.0000     9.6888E-05     6.4287   1.3223   108.7329
 27      0.0000     0.0000E+00    0.0000E+00    2.861200E+08  0.00800  9.925E-04    0   0.6683   age125_m52            0.0000     1.2227E-04     6.3390   0.8053   114.0789
 28      0.0000     0.0000E+00    0.0000E+00    9.047900E+08  0.00800  3.141E-04    0   0.6138   age135_m52            0.0000     1.2083E-04     5.9964  -0.0570   120.8664
 29      0.0000     0.0000E+00    0.0000E+00    1.434000E+09  0.00800  1.719E-04    0   0.5853   age139_m52            0.0000     9.6218E-05     5.7136  -0.6312   118.1790
 30      0.0000     0.0000E+00    0.0000E+00    2.500000E+09  0.00800  7.872E-05    0   0.5600   age150_m52            0.0000     9.9298E-05     6.2634  -0.9419   116.3871
 31      2.1299     1.5365E+00    1.6109E+00    4.250000E+09  0.00800  4.336E-05    0   0.5426   age158_m52            0.0000     1.0070E-04     6.2609  -0.9574   115.2865
 32      0.0000     0.0000E+00    0.0000E+00    6.250000E+09  0.00800  3.159E-05    0   0.5319   age166_m52            0.0000     1.2440E-04     7.4574  -1.0000   112.3387
 33      1.5995     3.6763E+00    3.6035E+00    1.300000E+10  0.00800  1.361E-05    0   0.5073   age193_m52            0.0000     2.5515E-04    17.4522  -1.0000   100.9899
 34      0.2954     9.3475E-01    9.0126E-01    1.800000E+10  0.00800  9.886E-06    0   0.4990   age213_m52            0.0000     3.2471E-04    20.2160  -1.0000    97.8134
 35     21.4442     4.3445E-02    8.3945E-02    1.000000E+06  0.02000  1.544E-02    0   1.0000   age020_m62            0.0000     9.0808E-05     7.4006   2.6141    97.7230
 36      0.0000     0.0000E+00    0.0000E+00    3.160000E+06  0.02000  3.762E-02    0   0.9858   age045_m62            0.0000     9.1470E-05     7.3979   2.5506    98.6597
 37      0.0000     0.0000E+00    0.0000E+00    5.010000E+06  0.02000  3.296E-02    0   0.9342   age055_m62            0.0000     8.5875E-05     6.7896   2.1500   103.3468
 38      0.0000     0.0000E+00    0.0000E+00    8.710000E+06  0.02000  1.154E-02    0   0.8861   age067_m62            0.0000     1.2543E-04    10.7794   1.3347   103.8598
 39      0.0000     0.0000E+00    0.0000E+00    1.445000E+07  0.02000  7.663E-03    0   0.8472   age078_m62            0.0000     9.4971E-05     8.1676   1.4510   105.7421
 40      0.0000     0.0000E+00    0.0000E+00    2.512000E+07  0.02000  4.532E-03    0   0.8099   age090_m62            0.0000     9.9014E-05     8.3447   1.4485   105.2200
 41      0.0000     0.0000E+00    0.0000E+00    5.500000E+07  0.02000  2.733E-03    0   0.7595   age110_m62            0.0000     9.2713E-05     6.9396   1.4022   107.0580
 42      0.0000     0.0000E+00    0.0000E+00    1.609000E+08  0.02000  1.369E-03    0   0.6985   age120_m62            0.0000     1.1589E-04     6.4829   1.1944   111.4069
 43      0.0000     0.0000E+00    0.0000E+00    2.861200E+08  0.02000  9.013E-04    0   0.6714   age125_m62            0.0000     1.3891E-04     6.5245   0.9149   115.5619
 44      0.0000     0.0000E+00    0.0000E+00    5.088000E+08  0.02000  5.028E-04    0   0.6449   age130_m62            0.0000     1.4409E-04     6.5831   0.4728   120.7822
 45      1.8814     2.4238E-01    2.8938E-01    9.047900E+08  0.02000  2.428E-04    0   0.6179   age135_m62            0.0000     1.1207E-04     6.2165  -0.1399   120.8577
 46      0.0000     0.0000E+00    0.0000E+00    1.434000E+09  0.02000  1.263E-04    0   0.5908   age139_m62            0.0000     1.0340E-04     6.3002  -0.5898   119.2074
 47     12.0315     6.2883E+00    6.8929E+00    2.500000E+09  0.02000  5.985E-05    0   0.5673   age150_m62            0.0000     1.1279E-04     7.0011  -0.9938   118.7467
 48      0.0000     0.0000E+00    0.0000E+00    4.250000E+09  0.02000  3.271E-05    0   0.5468   age158_m62            0.0000     1.6378E-04     9.6595  -1.0000   111.8006
 49      0.0000     0.0000E+00    0.0000E+00    1.000000E+10  0.02000  1.360E-05    0   0.5167   age181_m62            0.0000     3.0472E-04    17.6669  -1.0000   103.0205
 50      6.6865     2.9360E+01    2.8438E+01    1.800000E+10  0.02000  7.124E-06    0   0.5013   age213_m62            0.0000     4.3560E-04    22.6979  -1.0000    96.6781
 51      0.0000     0.0000E+00    0.0000E+00    1.000000E+06  0.05000  2.592E-02    0   0.9998   age020_m72            0.0000     9.3974E-05     7.5109   2.6105    97.6374
 52      0.0000     0.0000E+00    0.0000E+00    3.160000E+06  0.05000  4.845E-02    0   0.9577   age045_m72            0.0000     8.7205E-05     7.1726   2.4213   100.2633
 53      0.0095     9.6327E-06    1.7025E-05    5.010000E+06  0.05000  3.072E-02    0   0.9147   age055_m72            0.0000     9.2219E-05     7.4347   2.0043   102.6118
 54      0.0000     0.0000E+00    0.0000E+00    6.610000E+06  0.05000  1.455E-02    0   0.8877   age061_m72            0.0000     1.5479E-04    11.8756   1.4041   103.4767
 55      0.0000     0.0000E+00    0.0000E+00    1.000000E+07  0.05000  9.074E-03    0   0.8524   age070_m72            0.0000     9.5915E-05     7.4062   2.1765   102.3344
 56      0.0000     0.0000E+00    0.0000E+00    2.512000E+07  0.05000  4.250E-03    0   0.7902   age090_m72            0.0000     9.5115E-05     7.2231   1.8759   104.4063
 57      0.0000     0.0000E+00    0.0000E+00    4.000000E+07  0.05000  3.087E-03    0   0.7618   age104_m72            0.0000     1.0063E-04     7.4066   1.6534   105.9809
 58      0.0000     0.0000E+00    0.0000E+00    1.015200E+08  0.05000  1.700E-03    0   0.7096   age116_m72            0.0000     1.1485E-04     6.7911   1.3570   110.2612
 59      0.0000     0.0000E+00    0.0000E+00    2.861200E+08  0.05000  7.384E-04    0   0.6633   age125_m72            0.0000     1.4277E-04     6.4257   0.7481   118.2865
 60      0.0000     0.0000E+00    0.0000E+00    5.088000E+08  0.05000  3.819E-04    0   0.6372   age130_m72            0.0000     1.2322E-04     6.5619   0.2009   122.0770
 61     17.2866     3.2264E+00    3.8090E+00    9.047900E+08  0.05000  1.676E-04    0   0.6110   age135_m72            0.0000     1.1179E-04     7.2039  -0.5460   121.4781
 62      0.0000     0.0000E+00    0.0000E+00    1.434000E+09  0.05000  8.837E-05    0   0.5874   age139_m72            0.0000     1.2035E-04     7.2731  -1.0000   120.7506
 63     13.8687     1.0249E+01    1.1085E+01    2.500000E+09  0.05000  4.233E-05    0   0.5598   age150_m72            0.0000     1.7400E-04     9.9815  -1.0000   112.9363
 64      0.0000     0.0000E+00    0.0000E+00    6.250000E+09  0.05000  1.435E-05    0   0.5249   age166_m72            0.0000     3.4750E-04    19.9989  -1.0000   100.1894
 65      7.5178     3.6106E+01    3.5134E+01    1.300000E+10  0.05000  6.513E-06    0   0.5036   age193_m72            0.0000     5.4224E-04    26.4447  -1.0000    93.2982
 66      0.0000     0.0000E+00    0.0000E+00    1.800000E+10  0.05000  4.527E-06    0   0.4945   age213_m72            0.0000     6.7273E-04    29.8444  -1.0000    88.4156


## Synthesis Results - Average & Chains ##

# j      x_j: min, <> & last-chain-values for 1 ...  7 chains
  1      4.1385     11.0823      5.4096      8.4419      3.6416      2.3837      4.1571      6.3586      2.6123
  2      0.0000      1.1910      0.0000      0.4322      5.2249      2.4080      0.0883      1.0474      1.1101
  3      2.0637      1.2668      1.7054      0.9205      2.2502      0.6697      3.5046      3.6797      1.3479
  4      4.8744      1.3878      1.4412      0.7478      0.1133      1.8270      3.8127      0.0000      0.4179
  5      5.3275      0.9992      0.0000      0.4542      3.5973      0.1219      1.5909      0.0000      1.0194
  6      1.3001      0.9349      0.8122      1.6221      1.6718      1.8852      1.1981      0.0000      1.9218
  7      0.0000      1.4166      1.2023      0.0000      5.5084      0.8556      0.0000      0.2096      0.0000
  8      0.0000      1.5480      2.3327      1.8118      3.8221      1.2367      2.3426      1.5096      2.8287
  9      0.0000      1.3609      0.4973      4.5564      0.0000      0.1933      0.9901      6.6392      0.3458
 10      0.0000      1.0123      1.2470      1.5746      2.5625      0.0000      0.0000      4.8618      0.0000
 11      0.0000      1.1382      2.3474      0.0000      0.0000      0.0000      0.0000      1.5396      0.0000
 12      0.0000      1.3745      0.8724      0.8276      0.2868      1.5150      0.2953      0.0000      2.7991
 13      0.0000      0.7413      0.0000      2.0964      2.6846      2.0499      0.0000      1.7096      0.0000
 14      2.4882      1.1301      0.2077      0.1527      0.0013      0.0000      1.8565      0.0911      1.5150
 15      0.0000      3.1705      1.4007      0.0000      1.7730      1.5134      1.0643      1.4773      3.6467
 16      0.0000      4.9217      4.1382      2.2077      3.4834      2.3164      1.4892      2.0152      0.0000
 17      3.3931      9.0715      5.2273      7.0260      8.5661      2.0548      2.6701      7.2066      3.9047
 18      0.0000      5.0649      0.3112      4.5130      0.6239      3.5110      4.1675      3.9740      0.0000
 19      0.5516      2.0986      8.9042      0.0000      0.0000      6.5995      5.1690      5.3423      8.1784
 20      0.0000      1.2840      3.5334      4.9884      0.0000      1.9310      1.3311      1.2580      2.1167
 21      0.0000      1.0434      0.3827      0.9201      0.0000      0.6474      0.0000      0.0000      4.2048
 22      0.0000      1.3021      1.7548      0.4916      0.5198      0.1764      0.0000      0.3720      0.9075
 23      5.2406      1.5762      2.5768      2.4180      1.1327      4.5335      1.6697      0.0000      0.0000
 24      0.0000      1.3349      0.0000      1.7344      0.0000      1.6383      1.7606      1.6350      3.0550
 25      0.0000      1.1597      1.2913      0.3295      2.0959      1.2168      0.0000      1.2660      2.1055
 26      0.0000      1.2574      1.6840      0.0000      2.0692      1.3858      0.1671      0.0000      2.0518
 27      0.0000      1.4676      0.0000      1.4883      3.9408      0.0000      0.0000      0.0000      0.0000
 28      0.0000      1.3549      0.2969      1.2992      0.0000      2.8187      4.1898      1.6925      0.0000
 29      0.0000      1.5554      0.6901      1.4941      0.0000      4.8648      2.4587      0.0000      4.5243
 30      0.0000      1.2511      3.0070      0.0000      2.5667      4.5835      0.3060      0.5923      3.2544
 31      2.1299      1.3068      0.0000      1.2344      2.6822      7.5554      1.2878      2.1075      2.6501
 32      0.0000      1.2755      3.3330      2.9114      0.0987      1.8930      0.0000      0.0000      1.8518
 33      1.5995      1.8736      3.0383      1.3055      1.1542      2.2003      2.2993      4.7875      2.0134
 34      0.2954      1.6525      0.0809      2.5974      0.0000      0.7980      3.6796      1.3369      1.9476
 35     21.4442      2.2354      3.0730      5.8235      4.6258      0.0000      2.8979      0.9955      0.0000
 36      0.0000      1.2082      1.2272      0.7220      0.0000      2.1010      1.2623      0.0000      0.0000
 37      0.0000      0.9498      0.5475      0.0000      1.1675      0.0000      0.9358      0.6678      0.0000
 38      0.0000      1.1193      0.2566      0.4130      2.9616      0.3989      0.0000      1.4229      2.0913
 39      0.0000      1.0081      0.0790      0.0254      0.2800      3.3295      0.0000      0.5381      1.9665
 40      0.0000      1.3636      5.5203      0.3373      1.0886      1.7570      0.4670      2.2421      1.0043
 41      0.0000      0.9206      0.9854      0.0000      0.0000      0.0000      1.2639      6.0765      0.3324
 42      0.0000      1.3566      0.0000      1.4227      1.1304      0.0000      1.6836      0.0000      1.3271
 43      0.0000      1.3363      4.0438      0.0000      0.9795      0.6756      0.4368      2.6121      2.5166
 44      0.0000      1.4057      0.0000      0.7314      3.0203      0.0000      2.4629      0.0000      4.1364
 45      1.8814      1.2521      3.0686      1.7650      0.1417      0.0000      1.0779      1.9925      1.5457
 46      0.0000      1.1531      6.4586      1.9874      0.2319      0.2717      1.3764      3.2394      5.0500
 47     12.0315      1.5341      0.0000      0.9568      2.1624      0.5509      0.9093      1.8841      2.0812
 48      0.0000      1.2814      2.6611      0.8777      1.6466      0.0000      2.7299      2.6946      0.0000
 49      0.0000      1.3815      0.0000      1.7455      3.6217      0.8394      0.0000      1.0006      1.9797
 50      6.6865      1.7287      3.9054      1.4797      2.1182      4.0352      2.0328      4.7974      1.8414
 51      0.0000      1.6479      0.0000      2.9414      1.5234      0.6046      1.2020      0.0000      2.8745
 52      0.0000      1.7315      1.0533      5.6167      1.1596      4.4932      1.6419      3.5287      1.0571
 53      0.0095      1.6667      2.8402      0.6533      1.7898      1.3211      1.4514      4.5653      2.4837
 54      0.0000      1.1567      0.0000      0.7741      0.0000      1.2584      0.6366      0.0796      0.5521
 55      0.0000      1.5714      0.8831      1.0324      1.3821      1.1545      3.4324      0.0000      1.8030
 56      0.0000      1.7085      1.2885      1.6970      5.9826      2.9385      0.0000      2.2781      3.1129
 57      0.0000      2.0960      0.8372      0.2346      0.8620      0.4471      0.4202      0.0000      3.6097
 58      0.0000      1.1850      4.5373      2.6194      0.0000      0.0000      1.1378      0.0000      1.3800
 59      0.0000      1.0842      0.5684      2.1070      0.0000      2.4021      7.1029      0.7062      0.0000
 60      0.0000      1.1241      0.6805      2.1970      0.0000      0.7806      0.0000      0.0000      3.6308
 61     17.2866      1.4497      0.3209      3.3950      0.0000      0.1136      6.2126      6.9793      1.7717
 62      0.0000      1.2429      0.0000      0.5075      4.5647      2.2011      1.4563      0.0984      1.7606
 63     13.8687      1.7359      1.3586      2.2016      7.4565      3.3702      8.9374      0.8843      3.2998
 64      0.0000      1.1044      0.7620      1.8510      0.6691      4.1689      0.0000      0.0000      0.0000
 65      7.5178      1.6389      5.6103      3.2616      1.1859      1.0881      4.6290      0.0000      0.7826
 66      0.0000      1.9221      3.6178      5.5086      1.3441      4.5966      3.0687      4.4605      1.2650

# j      m_j: min, <> & last-chain-values for 1 ...  7 chains
  1  2.2864E-02  7.5895E-02  2.8377E-02  4.4519E-02  2.6846E-02  1.3726E-02  2.4854E-02  3.6597E-02  2.3710E-02
  2  0.0000E+00  2.2267E-03  0.0000E+00  6.2228E-04  1.0515E-02  3.7853E-03  1.4411E-04  1.6457E-03  2.7506E-03
  3  4.6612E-03  3.5466E-03  3.6574E-03  1.9846E-03  6.7814E-03  1.5766E-03  8.5659E-03  8.6582E-03  5.0012E-03
  4  1.0368E-02  3.6590E-03  2.9106E-03  1.5183E-03  3.2169E-04  4.0502E-03  8.7757E-03  0.0000E+00  1.4601E-03
  5  2.1585E-02  5.0180E-03  0.0000E+00  1.7567E-03  1.9448E-02  5.1462E-04  6.9751E-03  0.0000E+00  6.7848E-03
  6  8.5441E-03  7.6154E-03  5.0678E-03  1.0175E-02  1.4659E-02  1.2912E-02  8.5203E-03  0.0000E+00  2.0747E-02
  7  0.0000E+00  1.6522E-02  1.0741E-02  0.0000E+00  6.9153E-02  8.3898E-03  0.0000E+00  2.0547E-03  0.0000E+00
  8  0.0000E+00  2.4952E-02  2.8803E-02  2.2490E-02  6.6320E-02  1.6762E-02  3.2966E-02  2.0451E-02  6.0429E-02
  9  0.0000E+00  2.5108E-02  7.0284E-03  6.4735E-02  0.0000E+00  2.9980E-03  1.5946E-02  1.0295E-01  8.4553E-03
 10  0.0000E+00  2.4532E-02  2.3149E-02  2.9386E-02  6.6848E-02  0.0000E+00  0.0000E+00  9.9023E-02  0.0000E+00
 11  0.0000E+00  5.1868E-02  8.1939E-02  0.0000E+00  0.0000E+00  0.0000E+00  0.0000E+00  5.8963E-02  0.0000E+00
 12  0.0000E+00  9.9360E-02  4.8306E-02  4.6067E-02  2.2318E-02  9.2080E-02  1.8633E-02  0.0000E+00  2.6816E-01
 13  0.0000E+00  1.5104E-01  0.0000E+00  3.2892E-01  5.8880E-01  3.5118E-01  0.0000E+00  2.9275E-01  0.0000E+00
 14  1.3717E+00  7.7227E-01  1.0874E-01  8.0370E-02  9.7686E-04  0.0000E+00  1.1075E+00  5.2323E-02  1.3721E+00
 15  0.0000E+00  3.5271E+00  1.1937E+00  0.0000E+00  2.1233E+00  1.4156E+00  1.0336E+00  1.3812E+00  5.3766E+00
 16  0.0000E+00  9.2579E+00  5.9627E+00  3.1979E+00  7.0534E+00  3.6637E+00  2.4456E+00  3.1858E+00  0.0000E+00
 17  6.6795E+00  2.2136E+01  9.7708E+00  1.3203E+01  2.2501E+01  4.2160E+00  5.6881E+00  1.4779E+01  1.2628E+01
 18  0.0000E+00  3.0652E-02  1.4427E-03  2.1032E-02  4.0646E-03  1.7866E-02  2.2018E-02  2.0212E-02  0.0000E+00
 19  1.0809E-03  5.0975E-03  1.6567E-02  0.0000E+00  0.0000E+00  1.3478E-02  1.0961E-02  1.0906E-02  2.6327E-02
 20  0.0000E+00  3.4048E-03  7.1770E-03  1.0186E-02  0.0000E+00  4.3053E-03  3.0814E-03  2.8035E-03  7.4387E-03
 21  0.0000E+00  3.3584E-03  9.4350E-04  2.2807E-03  0.0000E+00  1.7521E-03  0.0000E+00  0.0000E+00  1.7937E-02
 22  0.0000E+00  7.0873E-03  7.3162E-03  2.0604E-03  3.0457E-03  8.0737E-04  0.0000E+00  1.7016E-03  6.5465E-03
 23  3.1075E-02  1.1586E-02  1.4508E-02  1.3686E-02  8.9623E-03  2.8019E-02  1.0714E-02  0.0000E+00  0.0000E+00
 24  0.0000E+00  1.4598E-02  0.0000E+00  1.4605E-02  0.0000E+00  1.5064E-02  1.6807E-02  1.5026E-02  4.4274E-02
 25  0.0000E+00  1.7487E-02  1.4914E-02  3.8259E-03  3.4019E-02  1.5426E-02  0.0000E+00  1.6044E-02  4.2074E-02
 26  0.0000E+00  3.1691E-02  3.2511E-02  0.0000E+00  5.6139E-02  2.9368E-02  3.6758E-03  0.0000E+00  6.8534E-02
 27  0.0000E+00  7.4037E-02  0.0000E+00  5.7819E-02  2.1400E-01  0.0000E+00  0.0000E+00  0.0000E+00  0.0000E+00
 28  0.0000E+00  1.9837E-01  3.3301E-02  1.4647E-01  0.0000E+00  3.4699E-01  5.3551E-01  2.0825E-01  0.0000E+00
 29  0.0000E+00  3.9678E-01  1.3484E-01  2.9349E-01  0.0000E+00  1.0435E+00  5.4755E-01  0.0000E+00  1.5296E+00
 30  0.0000E+00  6.6680E-01  1.2276E+00  0.0000E+00  1.4725E+00  2.0540E+00  1.4238E-01  2.6532E-01  2.2987E+00
 31  1.6109E+00  1.2252E+00  0.0000E+00  8.9117E-01  2.7069E+00  5.9560E+00  1.0541E+00  1.6606E+00  3.2928E+00
 32  0.0000E+00  1.6090E+00  3.2207E+00  2.8282E+00  1.3401E-01  2.0079E+00  0.0000E+00  0.0000E+00  3.0959E+00
 33  3.6035E+00  5.2322E+00  6.4993E+00  2.8075E+00  3.4695E+00  5.1666E+00  5.6055E+00  1.1236E+01  7.4517E+00
 34  9.0126E-01  6.2492E+00  2.3436E-01  7.5640E+00  0.0000E+00  2.5375E+00  1.2148E+01  4.2491E+00  9.7610E+00
 35  8.3945E-02  1.0847E-02  1.1422E-02  2.1760E-02  2.4162E-02  0.0000E+00  1.2276E-02  4.0599E-03  0.0000E+00
 36  0.0000E+00  2.3719E-03  1.8456E-03  1.0916E-03  0.0000E+00  3.4682E-03  2.1635E-03  0.0000E+00  0.0000E+00
 37  0.0000E+00  2.0170E-03  8.9052E-04  0.0000E+00  2.6688E-03  0.0000E+00  1.7347E-03  1.1919E-03  0.0000E+00
 38  0.0000E+00  6.4389E-03  1.1308E-03  1.8298E-03  1.8340E-02  1.9297E-03  0.0000E+00  6.8796E-03  1.5944E-02
 39  0.0000E+00  8.3500E-03  5.0126E-04  1.6188E-04  2.4966E-03  2.3189E-02  0.0000E+00  3.7460E-03  2.1587E-02
 40  0.0000E+00  1.8257E-02  5.6615E-02  3.4777E-03  1.5690E-02  1.9780E-02  5.4580E-03  2.5229E-02  1.7820E-02
 41  0.0000E+00  1.9167E-02  1.5715E-02  0.0000E+00  0.0000E+00  0.0000E+00  2.2973E-02  1.0633E-01  9.1732E-03
 42  0.0000E+00  5.1857E-02  0.0000E+00  4.1880E-02  4.6517E-02  0.0000E+00  5.6185E-02  0.0000E+00  6.7231E-02
 43  0.0000E+00  7.4576E-02  1.7287E-01  0.0000E+00  5.8844E-02  3.1705E-02  2.1283E-02  1.2252E-01  1.8614E-01
 44  0.0000E+00  1.3507E-01  0.0000E+00  5.4124E-02  3.1242E-01  0.0000E+00  2.0661E-01  0.0000E+00  5.2678E-01
 45  2.8938E-01  2.3873E-01  4.4816E-01  2.5915E-01  2.9091E-02  0.0000E+00  1.7942E-01  3.1928E-01  3.9058E-01
 46  0.0000E+00  4.0410E-01  1.7338E+00  5.3634E-01  8.7486E-02  8.0056E-02  4.2110E-01  9.5413E-01  2.3455E+00
 47  6.8929E+00  1.0894E+00  0.0000E+00  5.2323E-01  1.6530E+00  3.2897E-01  5.6371E-01  1.1245E+00  1.9588E+00
 48  0.0000E+00  1.6049E+00  2.5529E+00  8.4650E-01  2.2199E+00  0.0000E+00  2.9848E+00  2.8362E+00  0.0000E+00
 49  0.0000E+00  3.9322E+00  0.0000E+00  3.8261E+00  1.1097E+01  2.0090E+00  0.0000E+00  2.3937E+00  7.4682E+00
 50  2.8438E+01  9.1138E+00  1.5771E+01  6.0072E+00  1.2021E+01  1.7887E+01  9.3558E+00  2.1256E+01  1.2865E+01
 51  0.0000E+00  4.7621E-03  0.0000E+00  6.5457E-03  4.7389E-03  1.4691E-03  3.0324E-03  0.0000E+00  1.1009E-02
 52  0.0000E+00  2.5642E-03  1.1948E-03  6.4053E-03  1.8485E-03  5.5950E-03  2.1227E-03  4.3918E-03  2.0747E-03
 53  1.7025E-05  3.7180E-03  4.8533E-03  1.1223E-03  4.2979E-03  2.4780E-03  2.8265E-03  8.5591E-03  7.3431E-03
 54  0.0000E+00  5.2873E-03  0.0000E+00  2.7249E-03  0.0000E+00  4.8365E-03  2.5401E-03  3.0577E-04  3.3445E-03
 55  0.0000E+00  1.1059E-02  4.7607E-03  5.5950E-03  1.0470E-02  6.8317E-03  2.1089E-02  0.0000E+00  1.6818E-02
 56  0.0000E+00  2.3799E-02  1.3748E-02  1.8204E-02  8.9708E-02  3.4418E-02  0.0000E+00  2.6670E-02  5.7467E-02
 57  0.0000E+00  3.8751E-02  1.1857E-02  3.3406E-03  1.7156E-02  6.9511E-03  6.7820E-03  0.0000E+00  8.8447E-02
 58  0.0000E+00  3.7058E-02  1.0869E-01  6.3081E-02  0.0000E+00  0.0000E+00  3.1064E-02  0.0000E+00  5.7196E-02
 59  0.0000E+00  7.2970E-02  2.9304E-02  1.0920E-01  0.0000E+00  1.3593E-01  4.1732E-01  3.9941E-02  0.0000E+00
 60  0.0000E+00  1.4051E-01  6.5157E-02  2.1148E-01  0.0000E+00  8.2047E-02  0.0000E+00  0.0000E+00  6.0151E-01
 61  3.8090E+00  3.9597E-01  6.7145E-02  7.1407E-01  0.0000E+00  2.6084E-02  1.4813E+00  1.6021E+00  6.4130E-01
 62  0.0000E+00  6.1897E-01  0.0000E+00  1.9461E-01  2.4470E+00  9.2169E-01  6.3313E-01  4.1163E-02  1.1620E+00
 63  1.1085E+01  1.7200E+00  1.0311E+00  1.6798E+00  7.9527E+00  2.8077E+00  7.7306E+00  7.3639E-01  4.3329E+00
 64  0.0000E+00  3.0265E+00  1.5996E+00  3.9062E+00  1.9739E+00  9.6062E+00  0.0000E+00  0.0000E+00  0.0000E+00
 65  3.5134E+01  9.4944E+00  2.4895E+01  1.4550E+01  7.3949E+00  5.3003E+00  2.3410E+01  0.0000E+00  6.0080E+00
 66  0.0000E+00  1.5730E+01  2.2679E+01  3.4716E+01  1.1841E+01  3.1630E+01  2.1924E+01  3.0679E+01  1.3721E+01

# AV, chi2 & Mass for <> & i_chain = 1 ...  7 solutions
AV      -0.3257     -0.0562     -0.1259     -0.0683     -0.0594     -0.1310     -0.1242     -0.0859      0.0069
chi2 6.7214E-05  8.8762E-05  7.7923E-05  7.7752E-05  7.6074E-05  7.1216E-05  7.1071E-05  7.9361E-05  8.2704E-05
Mass 5.5720E-13  6.4560E-13  7.6742E-13  8.2483E-13  5.9717E-13  6.9437E-13  6.7495E-13  7.3809E-13  5.3019E-13
 245.90                                  [v0_min (km/s) before EX0s...]
 122.68                                  [vd_min (km/s) before EX0s...]


## Synthetic spectrum (Best Model) ##l_obs f_obs f_syn wei
 3478    [Nl_obs]
 3741.00    0.76667   0.76532    0.000
 3742.00    0.77285   0.81780    0.000
 3743.00    0.75141   0.85665    0.000
 3744.00    0.79303   0.87300    0.000
 3745.00    0.87140   0.86605    0.167
 3746.00    0.94726   0.84298    0.166
 3747.00    1.02186   0.81255    0.160
 3748.00    1.01040   0.77926    0.163
 3749.00    0.96109   0.74430    0.170
 3750.00    0.92686   0.70809    0.164
 3751.00    0.89831   0.67469    0.154
 3752.00    0.86599   0.65626    0.152
 3753.00    0.83247   0.66531    0.151
 3754.00    0.81471   0.70334    0.148
 3755.00    0.80119   0.75913    0.145
 3756.00    0.83405   0.81702    0.143
 3757.00    0.87709   0.86365    0.141
 3758.00    0.86549   0.88878    0.141
 3759.00    0.84435   0.88756    0.140
 3760.00    0.84294   0.86583    0.146
 3761.00    0.84414   0.84074    0.154
 3762.00    0.88645   0.82864    0.152
 3763.00    0.93263   0.83325    0.149
 3764.00    0.89782   0.84674    0.148
 3765.00    0.85833   0.85853    0.147
 3766.00    0.84009   0.86276    0.142
 3767.00    0.82175   0.85898    0.137
 3768.00    0.73055   0.84709    0.131
 3769.00    0.64239   0.82679    0.127
 3770.00    0.62835   0.80192    0.126
 3771.00    0.61615   0.77803    0.125
 3772.00    0.62813   0.75956    0.129
 3773.00    0.64500   0.75226    0.133
 3774.00    0.70486   0.76229    0.134
 3775.00    0.75460   0.78893    0.135
 3776.00    0.73872   0.82334    0.132
 3777.00    0.72250   0.85571    0.131
 3778.00    0.70461   0.88234    0.133
 3779.00    0.70658   0.90544    0.135
 3780.00    0.78987   0.92803    0.138
 3781.00    0.86562   0.95108    0.142
 3782.00    0.91581   0.97391    0.150
 3783.00    0.93942   0.99371    0.156
 3784.00    0.88701   1.00772    0.154
 3785.00    0.84999   1.01518    0.152
 3786.00    0.85058   1.01535    0.148
 3787.00    0.85675   1.00527    0.145
 3788.00    0.87472   0.98184    0.144
 3789.00    0.89555   0.94882    0.143
 3790.00    0.92164   0.91593    0.141
 3791.00    0.93577   0.89096    0.140
 3792.00    0.93078   0.87638    0.141
 3793.00    0.89486   0.86916    0.140
 3794.00    0.81551   0.86257    0.136
 3795.00    0.75533   0.84887    0.133
 3796.00    0.71883   0.82351    0.131
 3797.00    0.69988   0.78758    0.131
 3798.00    0.70006   0.74616    0.133
 3799.00    0.70086   0.70553    0.134
 3800.00    0.70225   0.67410    0.135
 3801.00    0.73158   0.66366    0.137
 3802.00    0.78459   0.68252    0.141
 3803.00    0.83854   0.72777    0.144
 3804.00    0.89320   0.78634    0.147
 3805.00    0.90371   0.84335    0.146
 3806.00    0.88528   0.88804    0.142
 3807.00    0.84787   0.91517    0.139
 3808.00    0.79956   0.92563    0.136
 3809.00    0.78213   0.92657    0.134
 3810.00    0.78011   0.92944    0.132
 3811.00    0.80249   0.94164    0.138
 3812.00    0.83542   0.96038    0.147
 3813.00    0.86233   0.97528    0.146
 3814.00    0.88701   0.97582    0.141
 3815.00    0.88503   0.95864    0.141
 3816.00    0.87466   0.93000    0.141
 3817.00    0.88105   0.90140    0.143
 3818.00    0.89183   0.88214    0.144
 3819.00    0.81686   0.87452    0.139
 3820.00    0.72352   0.87146    0.133
 3821.00    0.71197   0.86292    0.133
 3822.00    0.71431   0.84743    0.134
 3823.00    0.70038   0.83420    0.138
 3824.00    0.68437   0.83229    0.143
 3825.00    0.60281   0.83870    0.137
 3826.00    0.51536   0.84089    0.131
 3827.00    0.54047   0.83074    0.130
 3828.00    0.57163   0.81199    0.131
 3829.00    0.67113   0.79384    0.137
 3830.00    0.77090   0.78161    0.145
 3831.00    0.77906   0.77348    0.148
 3832.00    0.78867   0.76377    0.151
 3833.00    0.83055   0.74634    0.142
 3834.00    0.86616   0.71698    0.136
 3835.00    0.82380   0.67741    0.137
 3836.00    0.78407   0.63580    0.138
 3837.00    0.76663   0.60311    0.136
 3838.00    0.76164   0.58832    0.135
 3839.00    0.83502   0.59318    0.136
 3840.00    0.88271   0.61278    0.136
 3841.00    0.80366   0.64096    0.136
 3842.00    0.72977   0.67418    0.135
 3843.00    0.67651   0.71219    0.132
 3844.00    0.66608   0.75527    0.131
 3845.00    0.79803   0.79935    0.137
 3846.00    0.88029   0.83777    0.141
 3847.00    0.82305   0.86610    0.000
 3848.00    0.79274   0.88440    0.000
 3849.00    0.82714   0.89632    0.000
 3850.00    0.83920   0.90403    0.000
 3851.00    0.80494   0.90696    0.000
 3852.00    0.78894   0.90617    0.000
 3853.00    0.80587   0.90635    0.000
 3854.00    0.81637   0.91091    0.000
 3855.00    0.81673   0.91739    0.000
 3856.00    0.82239   0.92008    0.000
 3857.00    0.83536   0.91560    0.000
 3858.00    0.84628   0.90545    0.000
 3859.00    0.85469   0.89351    0.000
 3860.00    0.83557   0.88140    0.000
 3861.00    0.78689   0.86972    0.000
 3862.00    0.77093   0.86267    0.000
 3863.00    0.78599   0.86641    0.000
 3864.00    0.76035   0.88299    0.000
 3865.00    0.70072   0.90617    0.000
 3866.00    0.66697   0.92538    0.000
 3867.00    0.65225   0.93394    0.000
 3868.00    0.60847   0.93280    0.000
 3869.00    0.54590   0.92722    0.000
 3870.00    0.49017   0.92131    0.000
 3871.00    0.43830   0.91512    0.000
 3872.00    0.44730   0.90545    0.000
 3873.00    0.48624   0.89050    0.000
 3874.00    0.51133   0.87382    0.000
 3875.00    0.53053   0.86380    0.000
 3876.00    0.53330   0.86714    0.000
 3877.00    0.53008   0.88117    0.000
 3878.00    0.53612   0.89458    0.000
 3879.00    0.54501   0.89622    0.000
 3880.00    0.60213   0.88415    0.000
 3881.00    0.67162   0.86698    0.122
 3882.00    0.73934   0.85398    0.125
 3883.00    0.80668   0.84602    0.127
 3884.00    0.80029   0.83842    0.128
 3885.00    0.78173   0.82773    0.130
 3886.00    0.78834   0.81284    0.133
 3887.00    0.79806   0.79052    0.137
 3888.00    0.83221   0.75675    0.138
 3889.00    0.86844   0.71358    0.138
 3890.00    0.87835   0.67110    0.139
 3891.00    0.88693   0.64328    0.140
 3892.00    0.90111   0.64167    0.138
 3893.00    0.91455   0.66894    0.136
 3894.00    0.87374   0.71678    0.138
 3895.00    0.83036   0.76926    0.140
 3896.00    0.73431   0.81228    0.133
 3897.00    0.65164   0.84131    0.127
 3898.00    0.72729   0.86070    0.129
 3899.00    0.78749   0.87635    0.130
 3900.00    0.72186   0.88974    0.126
 3901.00    0.65677   0.90016    0.123
 3902.00    0.59497   0.90862    0.117
 3903.00    0.54524   0.91787    0.113
 3904.00    0.55365   0.92737    0.111
 3905.00    0.55475   0.93261    0.110
 3906.00    0.52727   0.93074    0.110
 3907.00    0.53289   0.92335    0.111
 3908.00    0.64639   0.91702    0.115
 3909.00    0.73806   0.91940    0.119
 3910.00    0.76957   0.93384    0.121
 3911.00    0.79128   0.95724    0.123
 3912.00    0.78982   0.98160    0.123
 3913.00    0.79650   1.00003    0.125
 3914.00    0.81979   1.01021    0.127
 3915.00    0.84337   1.01269    0.128
 3916.00    0.86746   1.00921    0.130
 3917.00    0.86959   1.00188    0.130
 3918.00    0.83760   0.99198    0.130
 3919.00    0.82642   0.98018    0.130
 3920.00    0.84363   0.96585    0.131
 3921.00    0.87940   0.94837    0.132
 3922.00    0.93746   0.92892    0.134
 3923.00    0.93279   0.91100    0.134
 3924.00    0.86168   0.89916    0.130
 3925.00    0.83327   0.89485    0.130
 3926.00    0.84474   0.89474    0.132
 3927.00    0.90467   0.89159    0.135
 3928.00    1.00450   0.87921    0.138
 3929.00    0.99675   0.85585    0.141
 3930.00    0.91100   0.82354    0.144
 3931.00    0.87481   0.78627    0.147
 3932.00    0.87015   0.74710    0.149
 3933.00    0.87573   0.70789    0.149
 3934.00    0.88701   0.67050    0.146
 3935.00    0.85738   0.63815    0.144
 3936.00    0.80795   0.61613    0.143
 3937.00    0.88454   0.61008    0.145
 3938.00    1.01381   0.62308    0.148
 3939.00    1.01013   0.65337    0.146
 3940.00    0.95891   0.69507    0.143
 3941.00    0.87505   0.74057    0.139
 3942.00    0.78134   0.78264    0.136
 3943.00    0.77543   0.81554    0.137
 3944.00    0.79158   0.83673    0.138
 3945.00    0.76944   0.84777    0.138
 3946.00    0.73950   0.85466    0.137
 3947.00    0.78686   0.86518    0.139
 3948.00    0.84661   0.88279    0.140
 3949.00    0.90992   0.90365    0.141
 3950.00    0.97365   0.92123    0.143
 3951.00    1.00342   0.93316    0.144
 3952.00    1.03043   0.94227    0.145
 3953.00    0.93266   0.95083    0.142
 3954.00    0.82916   0.95719    0.138
 3955.00    0.87920   0.96022    0.140
 3956.00    0.93042   0.96147    0.141
 3957.00    0.94139   0.96112    0.140
 3958.00    0.94646   0.95696    0.139
 3959.00    0.83977   0.94812    0.134
 3960.00    0.74639   0.93747    0.000
 3961.00    0.80307   0.92675    0.000
 3962.00    0.86111   0.91093    0.000
 3963.00    0.92996   0.88241    0.000
 3964.00    0.97318   0.84094    0.000
 3965.00    0.86437   0.79373    0.000
 3966.00    0.78490   0.74758    0.000
 3967.00    0.84319   0.70244    0.000
 3968.00    0.87520   0.65323    0.000
 3969.00    0.80647   0.59771    0.000
 3970.00    0.74914   0.54045    0.000
 3971.00    0.72827   0.49164    0.000
 3972.00    0.75122   0.46342    0.000
 3973.00    0.89283   0.46452    0.000
 3974.00    0.99042   0.49569    0.000
 3975.00    0.98581   0.54940    0.000
 3976.00    0.97268   0.61424    0.000
 3977.00    0.94243   0.68042    0.000
 3978.00    0.93617   0.74206    0.000
 3979.00    0.97190   0.79730    0.000
 3980.00    0.99163   0.84641    0.000
 3981.00    0.98687   0.88985    0.135
 3982.00    1.01548   0.92631    0.136
 3983.00    1.08898   0.95213    0.141
 3984.00    1.12177   0.96576    0.143
 3985.00    1.10634   0.97069    0.143
 3986.00    1.03272   0.97370    0.140
 3987.00    0.89833   0.98053    0.135
 3988.00    0.86167   0.99179    0.132
 3989.00    0.91503   1.00532    0.131
 3990.00    0.99463   1.01867    0.132
 3991.00    1.09554   1.02919    0.134
 3992.00    1.08788   1.03637    0.135
 3993.00    1.00265   1.04155    0.135
 3994.00    0.96888   1.04719    0.135
 3995.00    0.96739   1.05396    0.135
 3996.00    0.99586   1.05791    0.136
 3997.00    1.04075   1.05508    0.138
 3998.00    0.98469   1.04513    0.136
 3999.00    0.88055   1.03276    0.134
 4000.00    0.83190   1.02579    0.132
 4001.00    0.80606   1.03055    0.131
 4002.00    0.87364   1.04693    0.132
 4003.00    0.97403   1.06810    0.135
 4004.00    1.03555   1.08486    0.136
 4005.00    1.08555   1.09024    0.137
 4006.00    1.08137   1.08139    0.137
 4007.00    1.06386   1.06029    0.138
 4008.00    1.03493   1.03627    0.137
 4009.00    1.00372   1.02207    0.136
 4010.00    0.92457   1.02512    0.134
 4011.00    0.83798   1.04129    0.131
 4012.00    0.90103   1.06032    0.131
 4013.00    0.98128   1.07539    0.131
 4014.00    1.00000   1.08550    0.135
 4015.00    1.01396   1.09283    0.140
 4016.00    1.00979   1.09885    0.138
 4017.00    1.00486   1.10453    0.136
 4018.00    1.00446   1.10888    0.133
 4019.00    1.00397   1.11075    0.130
 4020.00    0.99756   1.11144    0.133
 4021.00    0.99321   1.11324    0.136
 4022.00    1.02524   1.11644    0.134
 4023.00    1.05898   1.11777    0.131
 4024.00    1.11114   1.11250    0.132
 4025.00    1.14885   1.09971    0.133
 4026.00    1.07699   1.08219    0.132
 4027.00    1.01448   1.06569    0.133
 4028.00    1.00597   1.05705    0.133
 4029.00    0.98865   1.06039    0.133
 4030.00    0.93101   1.07213    0.130
 4031.00    0.87236   1.08025    0.128
 4032.00    0.80992   1.07295    0.128
 4033.00    0.77509   1.04916    0.128
 4034.00    0.82683   1.01884    0.127
 4035.00    0.84635   0.99591    0.125
 4036.00    0.78013   0.99003    0.123
 4037.00    0.75370   1.00254    0.122
 4038.00    0.81813   1.03076    0.124
 4039.00    0.89564   1.06754    0.126
 4040.00    0.99901   1.10248    0.128
 4041.00    1.04546   1.12577    0.130
 4042.00    0.99388   1.13278    0.132
 4043.00    0.95319   1.12688    0.134
 4044.00    0.92895   1.11443    0.134
 4045.00    0.93878   1.09665    0.134
 4046.00    0.99378   1.06985    0.135
 4047.00    1.01146   1.03363    0.135
 4048.00    0.98558   0.99963    0.135
 4049.00    0.98674   0.98634    0.134
 4050.00    1.01572   1.00167    0.135
 4051.00    1.05100   1.03696    0.136
 4052.00    1.09200   1.07377    0.137
 4053.00    1.09276   1.09806    0.138
 4054.00    1.06132   1.10604    0.138
 4055.00    1.03195   1.09993    0.137
 4056.00    1.00406   1.08457    0.136
 4057.00    1.00595   1.06651    0.136
 4058.00    1.02624   1.05091    0.137
 4059.00    1.03072   1.03973    0.137
 4060.00    1.02667   1.03429    0.137
 4061.00    0.98410   1.03520    0.136
 4062.00    0.92348   1.04158    0.134
 4063.00    0.96117   1.04787    0.136
 4064.00    1.03857   1.04429    0.140
 4065.00    1.06730   1.02664    0.139
 4066.00    1.07924   1.00340    0.137
 4067.00    1.00832   0.98905    0.134
 4068.00    0.91332   0.99087    0.132
 4069.00    0.90278   1.00510    0.133
 4070.00    0.91251   1.02223    0.134
 4071.00    0.95364   1.03609    0.136
 4072.00    1.00084   1.04301    0.138
 4073.00    1.04456   1.04000    0.136
 4074.00    1.08776   1.03021    0.134
 4075.00    1.08364   1.02282    0.135
 4076.00    1.07429   1.02278    0.135
 4077.00    1.09224   1.02429    0.136
 4078.00    1.11218   1.01572    0.136
 4079.00    1.05224   0.99564    0.133
 4080.00    0.98923   0.97653    0.130
 4081.00    0.97929   0.97366    0.129
 4082.00    0.97234   0.99299    0.128
 4083.00    1.06704   1.02606    0.130
 4084.00    1.15445   1.05636    0.132
 4085.00    1.12173   1.07150    0.131
 4086.00    1.08569   1.06984    0.130
 4087.00    1.01542   1.05998    0.129
 4088.00    0.94879   1.05403    0.128
 4089.00    0.90880   1.05887    0.126
 4090.00    0.87877   1.07296    0.126
 4091.00    0.90453   1.08880    0.127
 4092.00    0.93319   1.09815    0.000
 4093.00    0.97481   1.09730    0.000
 4094.00    1.01302   1.08781    0.000
 4095.00    1.03878   1.07399    0.000
 4096.00    1.05445   1.05715    0.000
 4097.00    1.03912   1.03520    0.000
 4098.00    1.02867   1.00608    0.000
 4099.00    1.03097   0.97025    0.000
 4100.00    1.02617   0.93133    0.000
 4101.00    1.00543   0.89071    0.000
 4102.00    0.98323   0.84593    0.000
 4103.00    0.95816   0.79801    0.000
 4104.00    0.94936   0.75773    0.000
 4105.00    0.96818   0.74099    0.000
 4106.00    0.98363   0.75743    0.000
 4107.00    0.99408   0.80237    0.000
 4108.00    1.00384   0.85944    0.000
 4109.00    1.01271   0.91201    0.000
 4110.00    1.03034   0.95042    0.000
 4111.00    1.05805   0.97223    0.000
 4112.00    1.05580   0.98163    0.000
 4113.00    1.02316   0.98587    0.127
 4114.00    1.01939   0.99178    0.125
 4115.00    1.04147   1.00354    0.124
 4116.00    1.02953   1.02051    0.124
 4117.00    0.99075   1.03874    0.125
 4118.00    0.98668   1.05312    0.179
 4119.00    1.00670   1.05924    0.653
 4120.00    1.08362   1.05508   -1.000
 4121.00    1.19516   1.04303   -1.000
 4122.00    1.19825   1.02925   -1.000
 4123.00    1.14373   1.02008   -1.000
 4124.00    1.08989   1.01848   -1.000
 4125.00    1.03637   1.02283   -1.000
 4126.00    1.00091   1.03095    0.357
 4127.00    0.97263   1.04050    0.149
 4128.00    0.96227   1.04752    0.130
 4129.00    0.95798   1.04806    0.131
 4130.00    0.94984   1.04080    0.131
 4131.00    0.94060   1.02907    0.130
 4132.00    0.93288   1.01642    0.130
 4133.00    0.92551   1.00399    0.130
 4134.00    0.88614   0.99116    0.127
 4135.00    0.84073   0.98061    0.124
 4136.00    0.87669   0.97759    0.126
 4137.00    0.92453   0.98731    0.129
 4138.00    1.02580   1.00856    0.132
 4139.00    1.13275   1.03406    0.135
 4140.00    1.06637   1.05694    0.133
 4141.00    0.98801   1.07232    0.132
 4142.00    0.95043   1.07828    0.130
 4143.00    0.91426   1.07203    0.128
 4144.00    0.97839   1.05021    0.130
 4145.00    1.03952   1.01605    0.131
 4146.00    0.99506   0.98233    0.130
 4147.00    0.95727   0.96493    0.129
 4148.00    1.02247   0.97074    0.130
 4149.00    1.06945   0.99248    0.131
 4150.00    0.93690   1.01475    0.127
 4151.00    0.82862   1.02650    0.124
 4152.00    0.89260   1.02691    0.124
 4153.00    0.94682   1.02119    0.125
 4154.00    0.94777   1.01435    0.126
 4155.00    0.93276   1.00850    0.126
 4156.00    0.84800   1.00242    0.122
 4157.00    0.78329   0.99622    0.118
 4158.00    0.79070   0.99173    0.117
 4159.00    0.84787   0.99216    0.117
 4160.00    1.05520   0.99976    0.119
 4161.00    1.19034   1.01337    0.121
 4162.00    1.14011   1.02968    0.121
 4163.00    1.11068   1.04437    0.120
 4164.00    1.12722   1.05586    0.120
 4165.00    1.13207   1.06406    0.119
 4166.00    1.11452   1.06851    0.119
 4167.00    1.11364   1.06797    0.118
 4168.00    1.14065   1.06140    0.118
 4169.00    1.14145   1.05084    0.118
 4170.00    1.10385   1.04072    0.120
 4171.00    1.06377   1.03407    0.121
 4172.00    1.02050   1.02944    0.119
 4173.00    1.01504   1.02104    0.119
 4174.00    1.05251   1.00352    0.119
 4175.00    1.07600   0.97974    0.120
 4176.00    1.08549   0.95935    0.119
 4177.00    1.09563   0.95074    0.118
 4178.00    1.10634   0.95415    0.118
 4179.00    1.10127   0.96265    0.117
 4180.00    1.08393   0.97032    0.117
 4181.00    1.08046   0.97661    0.117
 4182.00    1.08648   0.98352    0.118
 4183.00    1.09273   0.99109    0.118
 4184.00    1.09912   0.99728    0.118
 4185.00    1.09566   1.00165    0.119
 4186.00    1.08704   1.00607    0.120
 4187.00    1.10394   1.01194    0.119
 4188.00    1.13240   1.01605    0.117
 4189.00    1.08952   1.01426    0.116
 4190.00    1.01881   1.00813    0.116
 4191.00    0.96930   1.00372    0.114
 4192.00    0.92683   1.00635    0.112
 4193.00    0.96977   1.01570    0.115
 4194.00    1.03650   1.02780    0.119
 4195.00    1.07222   1.03920    0.119
 4196.00    1.10083   1.04598    0.119
 4197.00    1.15382   1.04326    0.121
 4198.00    1.21129   1.02794    0.124
 4199.00    1.14090   1.00296    0.123
 4200.00    1.05244   0.97597    0.121
 4201.00    1.00383   0.95482    0.118
 4202.00    0.95928   0.94338    0.115
 4203.00    0.96113   0.94065    0.114
 4204.00    0.96601   0.94409    0.113
 4205.00    1.03320   0.95183    0.117
 4206.00    1.10216   0.96326    0.120
 4207.00    1.08333   0.97877    0.121
 4208.00    1.06352   0.99743    0.121
 4209.00    1.01511   1.01639    0.119
 4210.00    0.97626   1.03296    0.118
 4211.00    1.07670   1.04437    0.120
 4212.00    1.16745   1.04955    0.122
 4213.00    1.16664   1.05076    0.120
 4214.00    1.15986   1.05049    0.118
 4215.00    1.11204   1.04842    0.117
 4216.00    1.07133   1.04146    0.117
 4217.00    1.06837   1.02799    0.118
 4218.00    1.06076   1.01395    0.119
 4219.00    1.03332   1.01002    0.117
 4220.00    1.01235   1.02177    0.116
 4221.00    1.01418   1.04537    0.117
 4222.00    1.00453   1.06968    0.118
 4223.00    0.96086   1.08419    0.117
 4224.00    0.94390   1.08307    0.117
 4225.00    0.99439   1.06444    0.118
 4226.00    1.01690   1.02864    0.118
 4227.00    0.97859   0.97946    0.117
 4228.00    0.96724   0.92654    0.115
 4229.00    1.00670   0.88529    0.114
 4230.00    1.01431   0.87232    0.113
 4231.00    0.96947   0.89400    0.112
 4232.00    0.94686   0.94084    0.111
 4233.00    0.95634   0.99213    0.109
 4234.00    0.96551   1.02748    0.109
 4235.00    0.97426   1.03892    0.109
 4236.00    0.96195   1.03204    0.109
 4237.00    0.92608   1.01716    0.109
 4238.00    0.90790   1.00313    0.108
 4239.00    0.90718   0.99502    0.107
 4240.00    0.93904   0.99317    0.107
 4241.00    0.99928   0.99706    0.110
 4242.00    1.02408   1.00648    0.112
 4243.00    1.02171   1.02035    0.113
 4244.00    1.01899   1.03710    0.114
 4245.00    1.01604   1.05480    0.115
 4246.00    1.00523   1.07110    0.115
 4247.00    0.98978   1.08215    0.115
 4248.00    1.00222   1.08380    0.116
 4249.00    1.02902   1.07356    0.117
 4250.00    1.05376   1.05295    0.117
 4251.00    1.07757   1.02833    0.118
 4252.00    1.08818   1.00649    0.116
 4253.00    1.09372   0.99257    0.113
 4254.00    1.08074   0.98833    0.112
 4255.00    1.06173   0.99078    0.110
 4256.00    1.00945   0.99524    0.110
 4257.00    0.94810   0.99923    0.110
 4258.00    0.96741   1.00438    0.110
 4259.00    1.00480   1.01262    0.110
 4260.00    1.00943   1.01950    0.111
 4261.00    1.00821   1.01746    0.112
 4262.00    1.04221   1.00469    0.112
 4263.00    1.08104   0.99004    0.112
 4264.00    1.10382   0.98778    0.114
 4265.00    1.12503   1.00480    0.116
 4266.00    1.07520   1.03586    0.114
 4267.00    1.02103   1.06840    0.111
 4268.00    0.97134   1.09019    0.109
 4269.00    0.92183   1.09500    0.108
 4270.00    0.88229   1.08311    0.107
 4271.00    0.84503   1.05779    0.107
 4272.00    0.86791   1.02287    0.106
 4273.00    0.89151   0.98319    0.105
 4274.00    0.92496   0.94580    0.107
 4275.00    0.95957   0.91937    0.110
 4276.00    1.00470   0.90947    0.110
 4277.00    1.04356   0.91719    0.110
 4278.00    1.04063   0.93983    0.109
 4279.00    1.04061   0.97147    0.108
 4280.00    1.05576   1.00504    0.110
 4281.00    1.06809   1.03147    0.111
 4282.00    1.06869   1.04295   -2.000
 4283.00    1.05992   1.04037   -2.000
 4284.00    1.01876   1.03081   -2.000
 4285.00    0.99279   1.02156   -2.000
 4286.00    1.01095   1.01623   -2.000
 4287.00    1.03808   1.01207   -2.000
 4288.00    1.08742   1.00575   -2.000
 4289.00    1.12326   0.99563   -2.000
 4290.00    1.13026   0.98028   -2.000
 4291.00    1.11953   0.95995   -2.000
 4292.00    1.07587   0.93841   -2.000
 4293.00    1.08224   0.92390   -2.000
 4294.00    1.16976   0.92407   -2.000
 4295.00    1.17516   0.93901   -2.000
 4296.00    1.06373   0.95909   -2.000
 4297.00    0.98618   0.97296   -2.000
 4298.00    0.95102   0.97498    0.111
 4299.00    0.96990   0.96435    0.111
 4300.00    1.04839   0.94324    0.111
 4301.00    1.05439   0.91328    0.112
 4302.00    0.98987   0.87927    0.112
 4303.00    0.94336   0.85068    0.112
 4304.00    0.91229   0.83406    0.112
 4305.00    0.94081   0.83069    0.111
 4306.00    1.01436   0.83655    0.111
 4307.00    1.04039   0.84359    0.111
 4308.00    1.03486   0.84583    0.112
 4309.00    1.03136   0.84090    0.112
 4310.00    1.02903   0.82968    0.111
 4311.00    1.01875   0.81939    0.110
 4312.00    1.00444   0.81874    0.109
 4313.00    1.01603   0.83195    0.109
 4314.00    1.03899   0.85733    0.109
 4315.00    1.07342   0.88874    0.108
 4316.00    1.11218   0.92169    0.108
 4317.00    1.11933   0.95684    0.109
 4318.00    1.11637   0.99757    0.110
 4319.00    1.14936   1.04198    0.112
 4320.00    1.19196   1.08187    0.114
 4321.00    1.19642   1.10805    0.114
 4322.00    1.19252   1.11492    0.114
 4323.00    1.21493   1.10442    0.114
 4324.00    1.24191   1.08211    0.114
 4325.00    1.18325   1.05018    0.113
 4326.00    1.11326   1.00911    0.112
 4327.00    1.13401   0.96430    0.112
 4328.00    1.16324   0.92730    0.112
 4329.00    1.17924   0.91376    0.113
 4330.00    1.19449   0.93083    0.000
 4331.00    1.21844   0.96952    0.000
 4332.00    1.24181   1.01105    0.000
 4333.00    1.17631   1.03930    0.000
 4334.00    1.11305   1.05129    0.000
 4335.00    1.10373   1.05322    0.000
 4336.00    1.09532   1.05132    0.000
 4337.00    1.09866   1.04501    0.000
 4338.00    1.10358   1.02665    0.000
 4339.00    1.12224   0.98823    0.000
 4340.00    1.14171   0.92902    0.000
 4341.00    1.16636   0.85810    0.000
 4342.00    1.17167   0.79129    0.000
 4343.00    1.07933   0.74766    0.000
 4344.00    1.02348   0.73953    0.000
 4345.00    1.11655   0.76496    0.000
 4346.00    1.17565   0.81276    0.000
 4347.00    1.11979   0.86874    0.000
 4348.00    1.09542   0.92029    0.000
 4349.00    1.16093   0.96263    0.000
 4350.00    1.20537   0.99670    0.000
 4351.00    1.19845   1.02094    0.114
 4352.00    1.20246   1.03083    0.114
 4353.00    1.22944   1.02356    0.115
 4354.00    1.22503   1.00284    0.141
 4355.00    1.16326   0.98128    0.371
 4356.00    1.12121   0.97292   -1.000
 4357.00    1.11066   0.98395   -1.000
 4358.00    1.11690   1.00898   -1.000
 4359.00    1.14668   1.03528   -1.000
 4360.00    1.13610   1.05285   -1.000
 4361.00    1.07570   1.06016   -1.000
 4362.00    1.06730   1.06199    0.450
 4363.00    1.11545   1.06550    0.146
 4364.00    1.15589   1.07581    0.111
 4365.00    1.18895   1.09248    0.112
 4366.00    1.19075   1.11022    0.112
 4367.00    1.16611   1.12319    0.111
 4368.00    1.14859   1.12700    0.110
 4369.00    1.13639   1.11979    0.111
 4370.00    1.13329   1.10315    0.110
 4371.00    1.13616   1.08322    0.109
 4372.00    1.10856   1.06762    0.109
 4373.00    1.06350   1.05988    0.110
 4374.00    1.04524   1.05687    0.110
 4375.00    1.04035   1.05092    0.110
 4376.00    1.06046   1.03762    0.108
 4377.00    1.09136   1.02022    0.107
 4378.00    1.10545   1.00800    0.107
 4379.00    1.11331   1.00995    0.109
 4380.00    1.07562   1.02691    0.107
 4381.00    1.02366   1.04927    0.105
 4382.00    1.03575   1.06278    0.108
 4383.00    1.06460   1.05703    0.111
 4384.00    1.09320   1.02914    0.110
 4385.00    1.12176   0.98314    0.109
 4386.00    1.11908   0.93142    0.108
 4387.00    1.11111   0.89213    0.106
 4388.00    1.12875   0.87951    0.107
 4389.00    1.14965   0.89500    0.108
 4390.00    1.08947   0.92572    0.106
 4391.00    1.02206   0.95538    0.104
 4392.00    1.08347   0.97525    0.106
 4393.00    1.15173   0.98693    0.108
 4394.00    1.12682   0.99648    0.107
 4395.00    1.10032   1.00599    0.106
 4396.00    1.09314   1.01421    0.104
 4397.00    1.08644   1.02081    0.103
 4398.00    1.09034   1.02843    0.103
 4399.00    1.09472   1.04028    0.104
 4400.00    1.10509   1.05415    0.105
 4401.00    1.11199   1.06318    0.106
 4402.00    1.08966   1.06141    0.106
 4403.00    1.06596   1.04938    0.106
 4404.00    1.03369   1.03489    0.105
 4405.00    1.01102   1.02207    0.103
 4406.00    1.03553   1.00753    0.103
 4407.00    1.05877   0.98934    0.102
 4408.00    1.07689   0.97210    0.103
 4409.00    1.10644   0.96316    0.103
 4410.00    1.17392   0.96678    0.105
 4411.00    1.21751   0.98236    0.105
 4412.00    1.19417   1.00631    0.105
 4413.00    1.16266   1.03443    0.105
 4414.00    1.11153   1.06145    0.104
 4415.00    1.07851   1.07922    0.103
 4416.00    1.08300   1.07929    0.103
 4417.00    1.09290   1.06095    0.102
 4418.00    1.11258   1.03535    0.102
 4419.00    1.13087   1.01752    0.102
 4420.00    1.14698   1.01700    0.102
 4421.00    1.14945   1.03431    0.103
 4422.00    1.13307   1.05912    0.104
 4423.00    1.14403   1.07772    0.105
 4424.00    1.18825   1.08279    0.105
 4425.00    1.22632   1.07566    0.105
 4426.00    1.25781   1.06468    0.104
 4427.00    1.25383   1.05766    0.104
 4428.00    1.21631   1.05687    0.103
 4429.00    1.18511   1.06003    0.102
 4430.00    1.15918   1.06325    0.101
 4431.00    1.16999   1.06472    0.102
 4432.00    1.20776   1.06321    0.103
 4433.00    1.16866   1.05876    0.103
 4434.00    1.08000   1.05343    0.102
 4435.00    1.04819   1.04656    0.101
 4436.00    1.04844   1.03655    0.101
 4437.00    1.08032   1.02437    0.102
 4438.00    1.12771   1.01526    0.104
 4439.00    1.17083   1.01808    0.104
 4440.00    1.21213   1.03633    0.103
 4441.00    1.22973   1.06319    0.104
 4442.00    1.23872   1.08520    0.106
 4443.00    1.22490   1.09024    0.105
 4444.00    1.20407   1.07668    0.103
 4445.00    1.15698   1.05421    0.102
 4446.00    1.10316   1.03713    0.102
 4447.00    1.10596   1.03641    0.101
 4448.00    1.12055   1.05241    0.101
 4449.00    1.12063   1.07526    0.101
 4450.00    1.11832   1.09436    0.100
 4451.00    1.08106   1.10501    0.100
 4452.00    1.03950   1.10639    0.099
 4453.00    1.06031   1.10128    0.099
 4454.00    1.08643   1.09294    0.100
 4455.00    1.07080   1.08045    0.100
 4456.00    1.05311   1.06215    0.100
 4457.00    1.07439   1.03854    0.100
 4458.00    1.09535   1.01403    0.099
 4459.00    1.05646   0.99562    0.097
 4460.00    1.01964   0.98600    0.096
 4461.00    1.02463   0.98253    0.000
 4462.00    1.03146   0.98122    0.000
 4463.00    1.05998   0.97982    0.000
 4464.00    1.08464   0.97944    0.000
 4465.00    1.07795   0.98509    0.000
 4466.00    1.08230   0.99925    0.000
 4467.00    1.15384   1.01714    0.000
 4468.00    1.21205   1.03272    0.000
 4469.00    1.20632   1.04135    0.000
 4470.00    1.20068   1.04121    0.000
 4471.00    1.19543   1.03471    0.000
 4472.00    1.19294   1.02674    0.000
 4473.00    1.19945   1.02335    0.000
 4474.00    1.19596   1.02898    0.000
 4475.00    1.16499   1.04521    0.000
 4476.00    1.15082   1.06926    0.000
 4477.00    1.17623   1.09453    0.000
 4478.00    1.18906   1.11552    0.000
 4479.00    1.17626   1.13032    0.000
 4480.00    1.15461   1.13734    0.000
 4481.00    1.11728   1.13308    0.000
 4482.00    1.11916   1.11520    0.095
 4483.00    1.18184   1.08708    0.096
 4484.00    1.21858   1.05918    0.096
 4485.00    1.21998   1.04482    0.096
 4486.00    1.21226   1.05148    0.096
 4487.00    1.19359   1.07476    0.098
 4488.00    1.19177   1.10257    0.099
 4489.00    1.20776   1.12192    0.099
 4490.00    1.19656   1.12460    0.099
 4491.00    1.16000   1.11122    0.098
 4492.00    1.14197   1.09064    0.098
 4493.00    1.13917   1.07394    0.098
 4494.00    1.14468   1.06743    0.098
 4495.00    1.15621   1.06901    0.097
 4496.00    1.14616   1.07064    0.097
 4497.00    1.12241   1.06684    0.098
 4498.00    1.13789   1.06074    0.098
 4499.00    1.17516   1.05912    0.097
 4500.00    1.19869   1.06669    0.098
 4501.00    1.21558   1.08223    0.099
 4502.00    1.21121   1.09897    0.098
 4503.00    1.19797   1.11118    0.097
 4504.00    1.18895   1.11903    0.097
 4505.00    1.18144   1.12907    0.097
 4506.00    1.18573   1.14526    0.096
 4507.00    1.19359   1.16352    0.095
 4508.00    1.17619   1.17723    0.094
 4509.00    1.15246   1.18153    0.093
 4510.00    1.17320   1.17676    0.093
 4511.00    1.20297   1.16884    0.095
 4512.00    1.22821   1.16327    0.095
 4513.00    1.25273   1.16076    0.094
 4514.00    1.22849   1.15748    0.096
 4515.00    1.19845   1.14953    0.097
 4516.00    1.19781   1.13685    0.097
 4517.00    1.19955   1.12239    0.097
 4518.00    1.18899   1.11069    0.097
 4519.00    1.17788   1.10469    0.096
 4520.00    1.15574   1.10311    0.096
 4521.00    1.13492   1.10509    0.095
 4522.00    1.18796   1.11063    0.096
 4523.00    1.23699   1.11720    0.097
 4524.00    1.21077   1.12124    0.097
 4525.00    1.18247   1.11822    0.096
 4526.00    1.13090   1.10712    0.094
 4527.00    1.09134   1.09045    0.093
 4528.00    1.14569   1.06887    0.094
 4529.00    1.18592   1.04464    0.094
 4530.00    1.14263   1.02097    0.094
 4531.00    1.10915   1.00088    0.094
 4532.00    1.12161   0.98908    0.094
 4533.00    1.13551   0.98778    0.094
 4534.00    1.15492   0.99415    0.094
 4535.00    1.16226   1.00321    0.094
 4536.00    1.13107   1.00882    0.093
 4537.00    1.11874   1.01056    0.093
 4538.00    1.15737   1.01509    0.094
 4539.00    1.17605   1.02912    0.095
 4540.00    1.14851   1.05259    0.094
 4541.00    1.12568   1.07568    0.094
 4542.00    1.11228   1.08884    0.095
 4543.00    1.11168   1.08948    0.095
 4544.00    1.13345   1.08213    0.094
 4545.00    1.15216   1.07570    0.094
 4546.00    1.16621   1.07379    0.095
 4547.00    1.17412   1.07320    0.095
 4548.00    1.17380   1.07183    0.095
 4549.00    1.14438   1.06939    0.094
 4550.00    1.08057   1.06501    0.000
 4551.00    1.07543   1.05864    0.000
 4552.00    1.13146   1.05131    0.000
 4553.00    1.15468   1.04661    0.000
 4554.00    1.14773   1.04583    0.000
 4555.00    1.12741   1.04533    0.000
 4556.00    1.09625   1.04403    0.000
 4557.00    1.09798   1.04264    0.000
 4558.00    1.12317   1.04385    0.000
 4559.00    1.15338   1.05334    0.000
 4560.00    1.18674   1.07190    0.000
 4561.00    1.15891   1.09376    0.000
 4562.00    1.09761   1.11301    0.000
 4563.00    1.09049   1.12526    0.000
 4564.00    1.10912   1.12855    0.000
 4565.00    1.15098   1.12301    0.000
 4566.00    1.20237   1.10933    0.000
 4567.00    1.17880   1.09269    0.000
 4568.00    1.12897   1.08112    0.000
 4569.00    1.12604   1.08048    0.000
 4570.00    1.13697   1.09116    0.000
 4571.00    1.15937   1.10565    0.000
 4572.00    1.18459   1.11551    0.000
 4573.00    1.14798   1.11653    0.000
 4574.00    1.09913   1.10904    0.000
 4575.00    1.11799   1.10197    0.000
 4576.00    1.14733   1.10312    0.000
 4577.00    1.13836   1.10909    0.000
 4578.00    1.12501   1.11536    0.000
 4579.00    1.10885   1.11896    0.000
 4580.00    1.09248   1.11551    0.000
 4581.00    1.15210   1.10413    0.000
 4582.00    1.21490   1.08724    0.000
 4583.00    1.17658   1.06883    0.000
 4584.00    1.13814   1.05422    0.000
 4585.00    1.13228   1.04651    0.000
 4586.00    1.12992   1.04445    0.000
 4587.00    1.18873   1.04628    0.000
 4588.00    1.23960   1.05105    0.000
 4589.00    1.20564   1.05827    0.000
 4590.00    1.17410   1.06937    0.000
 4591.00    1.16079   1.08304    0.000
 4592.00    1.14536   1.09423    0.000
 4593.00    1.11767   1.09829    0.000
 4594.00    1.09881   1.09345    0.000
 4595.00    1.12033   1.08253    0.000
 4596.00    1.13610   1.07102    0.000
 4597.00    1.13031   1.06214    0.000
 4598.00    1.12894   1.05681    0.000
 4599.00    1.14140   1.05561    0.000
 4600.00    1.14058   1.05724    0.000
 4601.00    1.10453   1.06010    0.000
 4602.00    1.08432   1.06319    0.000
 4603.00    1.10021   1.06412    0.000
 4604.00    1.12518   1.06376    0.000
 4605.00    1.16806   1.06440    0.000
 4606.00    1.19460   1.06561    0.000
 4607.00    1.19304   1.06798    0.000
 4608.00    1.18662   1.07262    0.000
 4609.00    1.17287   1.08134    0.000
 4610.00    1.15531   1.09573    0.000
 4611.00    1.13270   1.11403    0.000
 4612.00    1.12879   1.13087    0.000
 4613.00    1.14668   1.13993    0.000
 4614.00    1.17156   1.13936    0.000
 4615.00    1.20363   1.13251    0.000
 4616.00    1.20106   1.12415    0.000
 4617.00    1.16710   1.11952    0.000
 4618.00    1.16234   1.11993    0.000
 4619.00    1.18090   1.12176    0.000
 4620.00    1.19907   1.12341    0.000
 4621.00    1.21696   1.12337    0.000
 4622.00    1.21510   1.12088    0.000
 4623.00    1.20105   1.12014    0.000
 4624.00    1.17903   1.12311    0.000
 4625.00    1.15271   1.12683    0.000
 4626.00    1.15141   1.12992    0.000
 4627.00    1.16182   1.13126    0.000
 4628.00    1.19295   1.12892    0.000
 4629.00    1.23243   1.12445    0.000
 4630.00    1.20378   1.12062    0.000
 4631.00    1.15168   1.11738    0.000
 4632.00    1.12317   1.11432    0.000
 4633.00    1.10150   1.11311    0.000
 4634.00    1.11356   1.11373    0.000
 4635.00    1.13371   1.11252    0.000
 4636.00    1.10927   1.10744    0.000
 4637.00    1.07623   1.09989    0.000
 4638.00    1.06367   1.09138    0.000
 4639.00    1.05417   1.08270    0.000
 4640.00    1.09627   1.07412    0.000
 4641.00    1.14405   1.06644    0.000
 4642.00    1.13325   1.06107    0.000
 4643.00    1.11819   1.05934    0.000
 4644.00    1.09478   1.06244    0.000
 4645.00    1.07105   1.06759    0.000
 4646.00    1.10551   1.06871    0.000
 4647.00    1.13950   1.06248    0.000
 4648.00    1.14461   1.04843    0.000
 4649.00    1.14985   1.02902    0.000
 4650.00    1.15712   1.01178    0.000
 4651.00    1.16228   1.00429    0.000
 4652.00    1.14585   1.00911    0.000
 4653.00    1.12504   1.02406    0.000
 4654.00    1.07222   1.04300    0.000
 4655.00    1.03187   1.05912    0.000
 4656.00    1.06122   1.06775    0.000
 4657.00    1.08998   1.06715    0.000
 4658.00    1.11608   1.06150    0.000
 4659.00    1.13910   1.05845    0.000
 4660.00    1.15087   1.06370    0.000
 4661.00    1.15799   1.07896    0.000
 4662.00    1.15088   1.09921    0.000
 4663.00    1.13006   1.11500    0.000
 4664.00    1.07348   1.11914    0.000
 4665.00    1.04890   1.11011    0.000
 4666.00    1.09605   1.09122    0.000
 4667.00    1.11415   1.06763    0.000
 4668.00    1.07585   1.04238    0.000
 4669.00    1.05502   1.01582    0.000
 4670.00    1.06376   0.99125    0.000
 4671.00    1.08714   0.97669    0.000
 4672.00    1.13223   0.97789    0.000
 4673.00    1.15424   0.99349    0.000
 4674.00    1.14613   1.01682    0.000
 4675.00    1.13613   1.03901    0.000
 4676.00    1.12395   1.05442    0.000
 4677.00    1.10288   1.06358    0.000
 4678.00    1.07281   1.06980    0.000
 4679.00    1.07886   1.07480    0.000
 4680.00    1.11719   1.07654    0.000
 4681.00    1.13262   1.07200    0.000
 4682.00    1.12999   1.06179    0.000
 4683.00    1.12830   1.04970    0.000
 4684.00    1.12726   1.04003    0.000
 4685.00    1.12315   1.03617    0.000
 4686.00    1.11719   1.03876    0.000
 4687.00    1.10677   1.04434    0.000
 4688.00    1.09400   1.04880    0.000
 4689.00    1.10569   1.05105    0.000
 4690.00    1.12864   1.05147    0.000
 4691.00    1.11965   1.05083    0.000
 4692.00    1.09799   1.05046    0.000
 4693.00    1.07310   1.05045    0.000
 4694.00    1.04710   1.05041    0.000
 4695.00    1.05621   1.05184    0.000
 4696.00    1.07528   1.05621    0.000
 4697.00    1.06929   1.06301    0.000
 4698.00    1.05743   1.07025    0.000
 4699.00    1.05996   1.07438    0.000
 4700.00    1.06519   1.07137    0.000
 4701.00    1.07268   1.06010    0.000
 4702.00    1.08049   1.04458    0.000
 4703.00    1.07584   1.03037    0.000
 4704.00    1.06988   1.01997    0.000
 4705.00    1.07861   1.01337    0.000
 4706.00    1.08834   1.01066    0.000
 4707.00    1.06468   1.01217    0.000
 4708.00    1.03988   1.01634    0.000
 4709.00    1.06360   1.01951    0.000
 4710.00    1.08677   1.01946    0.000
 4711.00    1.08921   1.01758    0.000
 4712.00    1.09326   1.01709    0.000
 4713.00    1.12185   1.02087    0.000
 4714.00    1.14646   1.02885    0.000
 4715.00    1.13200   1.03664    0.000
 4716.00    1.12001   1.04017    0.000
 4717.00    1.12549   1.04017    0.000
 4718.00    1.12656   1.04164    0.000
 4719.00    1.10366   1.04954    0.000
 4720.00    1.08540   1.06406    0.000
 4721.00    1.08733   1.08122    0.000
 4722.00    1.09527   1.09699    0.000
 4723.00    1.12475   1.10846    0.000
 4724.00    1.14226   1.11409    0.000
 4725.00    1.12373   1.11494    0.000
 4726.00    1.11729   1.11375    0.000
 4727.00    1.14180   1.11189    0.000
 4728.00    1.15797   1.10745    0.000
 4729.00    1.15576   1.09647    0.000
 4730.00    1.13627   1.07688    0.000
 4731.00    1.08372   1.05222    0.000
 4732.00    1.06078   1.03028    0.000
 4733.00    1.08724   1.01718    0.000
 4734.00    1.10250   1.01466    0.000
 4735.00    1.10139   1.02142    0.000
 4736.00    1.11155   1.03311    0.000
 4737.00    1.13620   1.04450    0.000
 4738.00    1.13505   1.05296    0.000
 4739.00    1.10468   1.05760    0.000
 4740.00    1.08154   1.05971    0.000
 4741.00    1.06563   1.06321    0.000
 4742.00    1.08489   1.06889    0.000
 4743.00    1.13515   1.07349    0.000
 4744.00    1.15318   1.07603    0.000
 4745.00    1.14617   1.07821    0.000
 4746.00    1.15556   1.08100    0.000
 4747.00    1.17613   1.08417    0.000
 4748.00    1.15543   1.08742    0.000
 4749.00    1.11003   1.09136    0.000
 4750.00    1.10491   1.09592    0.000
 4751.00    1.12081   1.09928    0.000
 4752.00    1.11878   1.10048    0.000
 4753.00    1.10864   1.09962    0.000
 4754.00    1.11354   1.09567    0.000
 4755.00    1.12430   1.08795    0.000
 4756.00    1.12280   1.07790    0.000
 4757.00    1.11725   1.06787    0.000
 4758.00    1.10007   1.05990    0.000
 4759.00    1.07966   1.05571    0.000
 4760.00    1.09747   1.05590    0.000
 4761.00    1.12402   1.05925    0.088
 4762.00    1.12984   1.06314    0.087
 4763.00    1.13186   1.06424    0.085
 4764.00    1.08951   1.05926    0.085
 4765.00    1.04092   1.04713    0.086
 4766.00    1.07635   1.03105    0.087
 4767.00    1.12031   1.01582    0.088
 4768.00    1.09837   1.00451    0.088
 4769.00    1.07216   0.99975    0.088
 4770.00    1.06768   1.00378    0.087
 4771.00    1.06387   1.01560    0.086
 4772.00    1.06991   1.03110    0.086
 4773.00    1.07567   1.04560    0.086
 4774.00    1.07308   1.05542    0.087
 4775.00    1.07165   1.06050    0.087
 4776.00    1.08693   1.06494    0.086
 4777.00    1.09842   1.07223    0.085
 4778.00    1.07419   1.08144    0.084
 4779.00    1.04687   1.08949    0.082
 4780.00    0.99838   1.09485    0.081
 4781.00    0.95835   1.09715    0.080
 4782.00    0.96310   1.09526    0.082
 4783.00    0.96158   1.08934    0.083
 4784.00    0.93336   1.08138    0.082
 4785.00    0.91544   1.07214    0.082
 4786.00    0.93368   1.06163    0.082
 4787.00    0.95940   1.05206    0.082
 4788.00    1.00720   1.04555    0.082
 4789.00    1.04312   1.04074    0.082
 4790.00    1.04912   1.03677    0.083
 4791.00    1.05970   1.03545    0.084
 4792.00    1.08020   1.03668    0.084
 4793.00    1.09370   1.03992    0.084
 4794.00    1.09404   1.04723    0.083
 4795.00    1.08636   1.05923    0.083
 4796.00    1.06550   1.07447    0.083
 4797.00    1.06782   1.09077    0.084
 4798.00    1.10353   1.10370    0.085
 4799.00    1.11647   1.10836    0.085
 4800.00    1.10058   1.10339    0.085
 4801.00    1.09178   1.09168    0.085
 4802.00    1.09090   1.07838    0.086
 4803.00    1.10274   1.06932    0.086
 4804.00    1.12708   1.06808    0.085
 4805.00    1.12054   1.07339    0.084
 4806.00    1.08715   1.07989    0.085
 4807.00    1.06243   1.08174    0.085
 4808.00    1.04432   1.07686    0.084
 4809.00    1.05445   1.06793    0.083
 4810.00    1.08357   1.05919    0.082
 4811.00    1.08356   1.05307    0.082
 4812.00    1.06640   1.05120    0.083
 4813.00    1.05080   1.05392    0.082
 4814.00    1.03600   1.05889    0.082
 4815.00    1.06896   1.06371    0.081
 4816.00    1.12317   1.06799    0.081
 4817.00    1.12271   1.07237    0.082
 4818.00    1.10133   1.07766    0.082
 4819.00    1.09587   1.08436    0.083
 4820.00    1.09557   1.09206    0.083
 4821.00    1.13406   1.09932    0.083
 4822.00    1.18311   1.10409    0.082
 4823.00    1.16169   1.10417    0.082
 4824.00    1.12452   1.09783    0.081
 4825.00    1.08103   1.08542    0.081
 4826.00    1.03641   1.06937    0.081
 4827.00    1.05122   1.05440    0.081
 4828.00    1.07412   1.04677    0.082
 4829.00    1.06384   1.04793    0.081
 4830.00    1.05033   1.05281    0.080
 4831.00    1.02819   1.05611    0.079
 4832.00    1.00553   1.05581    0.079
 4833.00    1.05219   1.05285    0.081
 4834.00    1.10030   1.04887    0.083
 4835.00    1.08058   1.04485    0.082
 4836.00    1.06237   1.04311    0.081
 4837.00    1.08372   1.04581    0.081
 4838.00    1.10112   1.05084    0.081
 4839.00    1.06455   1.05424    0.081
 4840.00    1.02952   1.05412    0.080
 4841.00    1.00843   1.05034    0.079
 4842.00    0.99810   1.04292    0.079
 4843.00    1.05919   1.03370    0.080
 4844.00    1.10685   1.02667    0.080
 4845.00    1.08530   1.02411    0.080
 4846.00    1.06789   1.02497    0.080
 4847.00    1.06773   1.02801    0.079
 4848.00    1.06648   1.03303    0.000
 4849.00    1.06143   1.03753    0.000
 4850.00    1.05849   1.03765    0.000
 4851.00    1.06161   1.03246    0.000
 4852.00    1.05815   1.02480    0.000
 4853.00    1.03838   1.01908    0.000
 4854.00    1.02926   1.01605    0.000
 4855.00    1.04285   1.01128    0.000
 4856.00    1.03262   1.00125    0.000
 4857.00    0.97824   0.98505    0.000
 4858.00    0.94201   0.96272    0.000
 4859.00    0.93513   0.93741    0.000
 4860.00    0.94060   0.91306    0.000
 4861.00    0.96362   0.88751    0.000
 4862.00    0.98861   0.85523    0.000
 4863.00    1.01606   0.81657    0.000
 4864.00    1.02105   0.77974    0.000
 4865.00    1.00131   0.75799    0.000
 4866.00    0.98957   0.76206    0.000
 4867.00    0.98561   0.78948    0.000
 4868.00    0.98178   0.82804    0.000
 4869.00    0.97807   0.86795    0.000
 4870.00    0.98064   0.90218    0.000
 4871.00    0.98795   0.92523    0.000
 4872.00    0.99638   0.93596    0.000
 4873.00    1.00555   0.93669    0.000
 4874.00    1.00076   0.93007    0.000
 4875.00    0.98787   0.92198    0.078
 4876.00    0.97817   0.92160    0.078
 4877.00    0.97009   0.93193    0.079
 4878.00    0.99369   0.94792    0.079
 4879.00    1.03118   0.96514    0.080
 4880.00    1.04152   0.98246    0.080
 4881.00    1.04167   0.99845    0.080
 4882.00    1.04207   1.01154    0.080
 4883.00    1.04256   1.02119    0.080
 4884.00    1.03135   1.02438    0.080
 4885.00    1.01702   1.01973    0.080
 4886.00    1.01818   1.01130    0.080
 4887.00    1.02273   1.00203    0.080
 4888.00    1.02259   0.99131    0.080
 4889.00    1.02165   0.98006    0.080
 4890.00    1.03656   0.97116    0.081
 4891.00    1.05355   0.96540    0.082
 4892.00    1.04314   0.96113    0.081
 4893.00    1.03018   0.95733    0.080
 4894.00    1.02824   0.95598    0.080
 4895.00    1.02693   0.96269    0.081
 4896.00    1.04881   0.98327    0.082
 4897.00    1.07109   1.01446    0.083
 4898.00    1.07837   1.04677    0.081
 4899.00    1.08418   1.07233    0.080
 4900.00    1.05496   1.08653    0.081
 4901.00    1.02946   1.08904    0.082
 4902.00    1.05204   1.08264    0.082
 4903.00    1.06923   1.07084    0.082
 4904.00    1.03943   1.05852    0.081
 4905.00    1.01996   1.05021    0.081
 4906.00    1.06694   1.04610    0.082
 4907.00    1.10168   1.04529    0.082
 4908.00    1.07489   1.04866    0.083
 4909.00    1.05218   1.05464    0.083
 4910.00    1.04610   1.05751    0.083
 4911.00    1.04102   1.05233    0.083
 4912.00    1.03933   1.03955    0.083
 4913.00    1.04573   1.02394    0.083
 4914.00    1.07520   1.01193    0.083
 4915.00    1.09537   1.00919    0.082
 4916.00    1.09292   1.01641    0.082
 4917.00    1.08238   1.02862    0.082
 4918.00    1.05487   1.03903    0.081
 4919.00    1.03828   1.04147    0.081
 4920.00    1.04162   1.03075    0.081
 4921.00    1.02569   1.00564    0.080
 4922.00    0.97902   0.97161    0.079
 4923.00    0.95700   0.93922    0.079
 4924.00    0.96949   0.91874    0.079
 4925.00    0.98823   0.91534    0.080
 4926.00    1.01467   0.92687    0.079
 4927.00    1.03481   0.94586    0.079
 4928.00    1.04812   0.96683    0.080
 4929.00    1.06292   0.98949    0.080
 4930.00    1.07913   1.01390    0.080
 4931.00    1.07599   1.03694    0.080
 4932.00    1.05651   1.05547    0.079
 4933.00    1.04645   1.06730    0.079
 4934.00    1.04340   1.07003    0.079
 4935.00    1.03917   1.06357    0.078
 4936.00    1.03417   1.05012    0.078
 4937.00    1.02228   1.03302    0.078
 4938.00    1.00645   1.01740    0.078
 4939.00    1.00995   1.00603    0.078
 4940.00    1.02307   0.99612    0.000
 4941.00    1.04148   0.98551    0.000
 4942.00    1.06217   0.97785    0.000
 4943.00    1.05968   0.97967    0.000
 4944.00    1.04864   0.99385    0.000
 4945.00    1.06124   1.01572    0.000
 4946.00    1.08123   1.03714    0.000
 4947.00    1.06188   1.05317    0.000
 4948.00    1.03225   1.06243    0.000
 4949.00    1.03185   1.06565    0.000
 4950.00    1.03767   1.06649    0.000
 4951.00    1.06345   1.06906    0.000
 4952.00    1.09260   1.07362    0.000
 4953.00    1.06474   1.07789    0.000
 4954.00    1.02962   1.08013    0.000
 4955.00    1.01414   1.07909    0.000
 4956.00    1.00039   1.07283    0.000
 4957.00    1.01002   1.06003    0.000
 4958.00    1.02088   1.04147    0.000
 4959.00    1.03335   1.01895    0.000
 4960.00    1.04556   0.99538    0.000
 4961.00    1.03561   0.97703    0.000
 4962.00    1.02634   0.97331    0.000
 4963.00    1.03188   0.98736    0.000
 4964.00    1.03464   1.01018    0.000
 4965.00    1.00312   1.02967    0.000
 4966.00    0.98004   1.03991    0.000
 4967.00    1.02771   1.04055    0.000
 4968.00    1.06765   1.03302    0.000
 4969.00    1.05931   1.02054    0.000
 4970.00    1.04698   1.00856    0.000
 4971.00    1.01508   1.00162    0.000
 4972.00    0.99351   1.00075    0.000
 4973.00    1.01305   1.00510    0.000
 4974.00    1.02557   1.01345    0.000
 4975.00    1.01487   1.02422    0.000
 4976.00    1.01003   1.03543    0.000
 4977.00    1.02154   1.04446    0.000
 4978.00    1.02894   1.04905    0.000
 4979.00    1.02647   1.04775    0.000
 4980.00    1.01667   1.04023    0.000
 4981.00    0.99172   1.02727    0.000
 4982.00    0.97990   1.00995    0.000
 4983.00    0.99171   0.98983    0.000
 4984.00    0.99457   0.96856    0.000
 4985.00    0.98338   0.94713    0.000
 4986.00    0.98820   0.92819    0.000
 4987.00    1.01512   0.91744    0.000
 4988.00    1.02412   0.91949    0.000
 4989.00    1.01137   0.93340    0.000
 4990.00    1.01550   0.95386    0.000
 4991.00    1.03767   0.97465    0.000
 4992.00    1.05306   0.99022    0.000
 4993.00    1.06203   0.99778    0.000
 4994.00    1.05032   0.99889    0.000
 4995.00    1.02140   0.99754    0.000
 4996.00    0.99892   0.99716    0.000
 4997.00    0.98118   0.99859    0.000
 4998.00    0.96688   1.00088    0.000
 4999.00    0.95479   1.00317    0.000
 5000.00    0.95760   1.00350    0.000
 5001.00    0.96880   0.99911    0.000
 5002.00    0.96310   0.98919    0.000
 5003.00    0.94911   0.97536    0.000
 5004.00    0.96567   0.96086    0.000
 5005.00    0.99516   0.94884    0.000
 5006.00    1.00485   0.94003    0.000
 5007.00    1.00736   0.93316    0.000
 5008.00    0.99610   0.92701    0.000
 5009.00    0.98063   0.92204    0.000
 5010.00    0.98082   0.92124    0.000
 5011.00    0.98501   0.92758    0.000
 5012.00    0.95430   0.93924    0.000
 5013.00    0.91634   0.94884    0.000
 5014.00    0.93461   0.94946    0.000
 5015.00    0.96209   0.93993    0.000
 5016.00    0.96457   0.92414    0.000
 5017.00    0.96398   0.90807    0.000
 5018.00    0.95858   0.89728    0.000
 5019.00    0.95277   0.89422    0.000
 5020.00    0.94647   0.89747    0.000
 5021.00    0.94015   0.90319    0.000
 5022.00    0.96413   0.90876    0.000
 5023.00    0.98819   0.91477    0.000
 5024.00    0.98861   0.92196    0.000
 5025.00    0.98850   0.92919    0.000
 5026.00    0.97792   0.93575    0.000
 5027.00    0.96750   0.94243    0.000
 5028.00    0.95896   0.94953    0.000
 5029.00    0.95145   0.95521    0.075
 5030.00    0.95227   0.95801    0.075
 5031.00    0.95600   0.95934    0.075
 5032.00    0.97740   0.96261    0.076
 5033.00    0.99499   0.97090    0.076
 5034.00    0.99430   0.98331    0.075
 5035.00    0.99125   0.99557    0.075
 5036.00    0.97896   1.00416    0.075
 5037.00    0.97008   1.00646    0.075
 5038.00    0.97222   1.00024    0.075
 5039.00    0.96758   0.98553    0.075
 5040.00    0.94431   0.96568    0.075
 5041.00    0.93696   0.94516    0.075
 5042.00    0.96708   0.92589    0.074
 5043.00    0.98693   0.90759    0.074
 5044.00    0.98590   0.89334    0.073
 5045.00    0.98176   0.88994    0.073
 5046.00    0.97212   0.90249    0.073
 5047.00    0.96653   0.92940    0.073
 5048.00    0.96721   0.96076    0.072
 5049.00    0.97081   0.98513    0.072
 5050.00    0.97838   0.99649    0.072
 5051.00    0.99005   0.99365    0.072
 5052.00    1.00664   0.97993    0.072
 5053.00    1.00542   0.96310    0.072
 5054.00    0.98539   0.95144    0.072
 5055.00    0.97714   0.94893    0.072
 5056.00    0.97986   0.95478    0.070
 5057.00    0.99320   0.96664    0.070
 5058.00    1.01526   0.98151    0.072
 5059.00    1.00479   0.99561    0.072
 5060.00    0.97083   1.00654    0.072
 5061.00    0.96098   1.01448    0.072
 5062.00    0.96641   1.02086    0.072
 5063.00    0.96217   1.02609    0.072
 5064.00    0.95255   1.02875    0.072
 5065.00    0.95829   1.02709    0.072
 5066.00    0.97143   1.01953    0.072
 5067.00    0.97903   1.00541    0.072
 5068.00    0.98432   0.98699    0.072
 5069.00    0.98709   0.96929    0.073
 5070.00    0.98897   0.95801    0.074
 5071.00    0.98770   0.95473    0.074
 5072.00    0.98547   0.95578    0.075
 5073.00    0.97862   0.95818    0.074
 5074.00    0.97061   0.96111    0.073
 5075.00    0.95873   0.96315    0.073
 5076.00    0.94606   0.96284    0.074
 5077.00    0.94173   0.96160    0.074
 5078.00    0.93873   0.96154    0.073
 5079.00    0.95501   0.96069    0.073
 5080.00    0.97356   0.95568    0.074
 5081.00    0.94987   0.94591    0.072
 5082.00    0.92278   0.93220    0.070
 5083.00    0.91518   0.91610    0.071
 5084.00    0.90846   0.90217    0.072
 5085.00    0.89810   0.89719    0.072
 5086.00    0.88885   0.90291    0.072
 5087.00    0.93752   0.91488    0.072
 5088.00    0.98189   0.92858    0.072
 5089.00    0.94656   0.94235    0.071
 5090.00    0.91471   0.95481    0.071
 5091.00    0.92161   0.96434    0.072
 5092.00    0.93206   0.97131    0.073
 5093.00    0.97021   0.97752    0.073
 5094.00    0.99795   0.98398    0.074
 5095.00    0.96440   0.99008    0.074
 5096.00    0.93900   0.99481    0.074
 5097.00    0.95165   0.99664    0.074
 5098.00    0.95847   0.99297    0.074
 5099.00    0.94310   0.98190    0.074
 5100.00    0.92904   0.96477    0.073
 5101.00    0.91910   0.94583    0.072
 5102.00    0.91098   0.93025    0.071
 5103.00    0.90775   0.92238    0.071
 5104.00    0.91120   0.92422    0.072
 5105.00    0.93008   0.93406    0.073
 5106.00    0.94502   0.94572    0.073
 5107.00    0.95207   0.95278    0.073
 5108.00    0.95800   0.95298    0.073
 5109.00    0.96195   0.94786    0.072
 5110.00    0.94721   0.93998    0.072
 5111.00    0.90395   0.93168    0.071
 5112.00    0.89237   0.92520    0.071
 5113.00    0.92322   0.92306    0.072
 5114.00    0.95551   0.92629    0.073
 5115.00    0.98948   0.93400    0.073
 5116.00    1.00395   0.94526    0.074
 5117.00    0.99812   0.95790    0.075
 5118.00    0.98199   0.96947    0.075
 5119.00    0.95640   0.97935    0.073
 5120.00    0.93680   0.98718    0.072
 5121.00    0.92204   0.99206    0.071
 5122.00    0.91657   0.99263    0.070
 5123.00    0.91771   0.98699    0.069
 5124.00    0.90110   0.97463    0.070
 5125.00    0.87339   0.95726    0.070
 5126.00    0.88639   0.93789    0.071
 5127.00    0.92160   0.91988    0.071
 5128.00    0.91964   0.90584    0.071
 5129.00    0.90005   0.89758    0.071
 5130.00    0.90519   0.89512    0.071
 5131.00    0.92045   0.89632    0.071
 5132.00    0.95270   0.89935    0.070
 5133.00    0.99088   0.90397    0.070
 5134.00    0.97483   0.91071    0.070
 5135.00    0.94279   0.91965    0.070
 5136.00    0.94568   0.92962    0.071
 5137.00    0.95710   0.93836    0.072
 5138.00    0.95316   0.94391    0.071
 5139.00    0.94618   0.94511    0.070
 5140.00    0.94376   0.94156    0.070
 5141.00    0.94204   0.93339    0.070
 5142.00    0.93834   0.92286    0.070
 5143.00    0.93441   0.91382    0.070
 5144.00    0.93051   0.90832    0.070
 5145.00    0.92661   0.90637    0.070
 5146.00    0.90958   0.90602    0.070
 5147.00    0.89201   0.90516    0.070
 5148.00    0.87493   0.90442    0.070
 5149.00    0.85898   0.90457    0.071
 5150.00    0.89078   0.90418    0.071
 5151.00    0.92254   0.90291    0.071
 5152.00    0.95374   0.90211    0.071
 5153.00    0.97979   0.90214    0.072
 5154.00    0.95089   0.90198    0.072
 5155.00    0.93063   0.90065    0.072
 5156.00    0.97533   0.89905    0.073
 5157.00    1.01131   0.89995    0.074
 5158.00    0.99733   0.90556    0.074
 5159.00    0.98304   0.91610    0.074
 5160.00    0.96728   0.93016    0.074
 5161.00    0.95112   0.94459    0.073
 5162.00    0.93348   0.95572    0.073
 5163.00    0.92220   0.96105    0.073
 5164.00    0.93078   0.95965    0.073
 5165.00    0.92779   0.95155    0.073
 5166.00    0.89413   0.93635    0.073
 5167.00    0.86418   0.91308    0.072
 5168.00    0.84266   0.88211    0.073
 5169.00    0.82761   0.84576    0.073
 5170.00    0.82530   0.80840    0.071
 5171.00    0.83544   0.77641    0.071
 5172.00    0.86693   0.75540    0.072
 5173.00    0.87851   0.74675    0.072
 5174.00    0.86016   0.74694    0.072
 5175.00    0.85769   0.75073    0.072
 5176.00    0.87617   0.75651    0.072
 5177.00    0.88936   0.76851    0.072
 5178.00    0.89639   0.79227    0.072
 5179.00    0.88767   0.82670    0.071
 5180.00    0.86277   0.86231    0.071
 5181.00    0.84651   0.88858    0.071
 5182.00    0.83806   0.90034    0.069
 5183.00    0.83471   0.89668    0.069
 5184.00    0.83543   0.87860    0.070
 5185.00    0.84001   0.84977    0.069
 5186.00    0.84729   0.81778    0.069
 5187.00    0.84833   0.79282    0.069
 5188.00    0.84553   0.78424    0.069
 5189.00    0.86083   0.79674    0.069
 5190.00    0.88585   0.82652    0.000
 5191.00    0.90529   0.86127    0.000
 5192.00    0.92212   0.88812    0.000
 5193.00    0.92679   0.90142    0.000
 5194.00    0.92657   0.90234    0.000
 5195.00    0.90380   0.89520    0.000
 5196.00    0.87330   0.88488    0.000
 5197.00    0.88607   0.87652    0.000
 5198.00    0.91134   0.87505    0.000
 5199.00    0.92072   0.88146    0.000
 5200.00    0.92630   0.89245    0.000
 5201.00    0.92617   0.90502    0.000
 5202.00    0.92494   0.91779    0.000
 5203.00    0.91091   0.92847    0.000
 5204.00    0.89497   0.93413    0.000
 5205.00    0.88521   0.93263    0.000
 5206.00    0.87611   0.92310    0.000
 5207.00    0.86242   0.90637    0.000
 5208.00    0.84840   0.88505    0.000
 5209.00    0.87204   0.86302    0.000
 5210.00    0.89709   0.84458    0.000
 5211.00    0.91234   0.83400    0.070
 5212.00    0.92684   0.83404    0.070
 5213.00    0.91534   0.84422    0.069
 5214.00    0.90604   0.86216    0.068
 5215.00    0.93249   0.88484    0.070
 5216.00    0.95727   0.90699    0.071
 5217.00    0.96513   0.92298    0.071
 5218.00    0.96848   0.93058    0.070
 5219.00    0.93908   0.93138    0.071
 5220.00    0.91703   0.93000    0.071
 5221.00    0.93589   0.93153    0.070
 5222.00    0.94750   0.93858    0.069
 5223.00    0.92689   0.94917    0.070
 5224.00    0.91269   0.95818    0.071
 5225.00    0.92186   0.96033    0.071
 5226.00    0.92724   0.95247    0.071
 5227.00    0.92103   0.93457    0.071
 5228.00    0.91317   0.90976    0.070
 5229.00    0.90102   0.88399    0.070
 5230.00    0.89810   0.86489    0.070
 5231.00    0.91583   0.85871    0.070
 5232.00    0.93372   0.86674    0.071
 5233.00    0.95195   0.88484    0.071
 5234.00    0.95991   0.90514    0.071
 5235.00    0.95050   0.91903    0.071
 5236.00    0.94859   0.92369    0.071
 5237.00    0.95776   0.92325    0.071
 5238.00    0.96457   0.92318    0.071
 5239.00    0.96832   0.92798    0.072
 5240.00    0.96313   0.93887    0.071
 5241.00    0.94770   0.95266    0.070
 5242.00    0.94458   0.96518    0.070
 5243.00    0.95390   0.97376    0.070
 5244.00    0.93592   0.97816    0.070
 5245.00    0.89360   0.97988    0.069
 5246.00    0.89621   0.98021    0.070
 5247.00    0.93416   0.97912    0.070
 5248.00    0.95078   0.97541    0.070
 5249.00    0.95266   0.96802    0.071
 5250.00    0.91936   0.95690    0.070
 5251.00    0.86473   0.94317    0.069
 5252.00    0.86843   0.92942    0.069
 5253.00    0.90300   0.91926    0.068
 5254.00    0.92283   0.91473    0.068
 5255.00    0.93588   0.91460    0.068
 5256.00    0.93119   0.91718    0.068
 5257.00    0.91948   0.92227    0.068
 5258.00    0.91521   0.92962    0.069
 5259.00    0.91344   0.93885    0.070
 5260.00    0.91287   0.94988    0.070
 5261.00    0.91264   0.96151    0.069
 5262.00    0.90608   0.97020    0.069
 5263.00    0.89804   0.97039    0.069
 5264.00    0.87622   0.95820    0.070
 5265.00    0.85182   0.93412    0.070
 5266.00    0.84258   0.90238    0.070
 5267.00    0.83553   0.86927    0.070
 5268.00    0.83721   0.84063    0.071
 5269.00    0.83981   0.81992    0.071
 5270.00    0.84947   0.80755    0.070
 5271.00    0.85961   0.80154    0.070
 5272.00    0.89223   0.79961    0.071
 5273.00    0.92561   0.80137    0.072
 5274.00    0.93205   0.80775    0.072
 5275.00    0.93817   0.82004    0.072
 5276.00    0.93517   0.83878    0.071
 5277.00    0.93214   0.86118    0.071
 5278.00    0.92852   0.88213    0.070
 5279.00    0.92420   0.89973    0.069
 5280.00    0.91305   0.91587    0.069
 5281.00    0.90460   0.93144    0.070
 5282.00    0.91529   0.94448    0.070
 5283.00    0.92365   0.95149    0.070
 5284.00    0.91942   0.95004    0.070
 5285.00    0.91381   0.94196    0.070
 5286.00    0.90222   0.93296    0.069
 5287.00    0.90203   0.92918    0.069
 5288.00    0.94258   0.93419    0.070
 5289.00    0.97169   0.94764    0.071
 5290.00    0.96643   0.96604    0.071
 5291.00    0.95964   0.98468    0.070
 5292.00    0.94897   0.99922    0.070
 5293.00    0.94726   1.00769    0.070
 5294.00    0.96524   1.01085    0.071
 5295.00    0.97489   1.01014    0.071
 5296.00    0.96863   1.00572    0.071
 5297.00    0.96851   0.99670    0.071
 5298.00    0.97860   0.98255    0.071
 5299.00    0.97720   0.96423    0.070
 5300.00    0.95903   0.94422    0.070
 5301.00    0.94596   0.92615    0.069
 5302.00    0.93944   0.91396    0.069
 5303.00    0.95003   0.91053    0.069
 5304.00    0.97998   0.91627    0.069
 5305.00    0.98949   0.92901    0.069
 5306.00    0.97863   0.94508    0.069
 5307.00    0.97684   0.96139    0.069
 5308.00    0.98303   0.97629    0.068
 5309.00    0.97717   0.98868    0.068
 5310.00    0.96200   0.99736    0.067
 5311.00    0.95715   1.00228    0.067
 5312.00    0.95934   1.00483    0.068
 5313.00    0.93850   1.00655    0.067
 5314.00    0.90390   1.00784    0.067
 5315.00    0.89708   1.00776    0.066
 5316.00    0.90474   1.00499    0.066
 5317.00    0.92396   0.99925    0.066
 5318.00    0.94839   0.99161    0.067
 5319.00    0.94943   0.98361    0.067
 5320.00    0.94137   0.97675    0.066
 5321.00    0.93033   0.97208    0.066
 5322.00    0.91830   0.96967    0.066
 5323.00    0.90216   0.96856    0.066
 5324.00    0.88487   0.96698    0.066
 5325.00    0.89672   0.96287    0.066
 5326.00    0.91521   0.95479    0.066
 5327.00    0.90152   0.94247    0.066
 5328.00    0.88195   0.92629    0.067
 5329.00    0.90744   0.90715    0.067
 5330.00    0.93925   0.88675    0.067
 5331.00    0.93030   0.86848    0.068
 5332.00    0.91725   0.85717    0.068
 5333.00    0.92164   0.85684    0.067
 5334.00    0.92715   0.86863    0.066
 5335.00    0.95076   0.89001    0.067
 5336.00    0.97475   0.91527    0.067
 5337.00    0.94010   0.93776    0.067
 5338.00    0.90661   0.95362    0.066
 5339.00    0.90644   0.96252    0.066
 5340.00    0.90729   0.96510    0.065
 5341.00    0.92272   0.96178    0.066
 5342.00    0.93846   0.95333    0.066
 5343.00    0.95716   0.94233    0.067
 5344.00    0.97139   0.93293    0.068
 5345.00    0.95517   0.92865    0.067
 5346.00    0.93976   0.93031    0.067
 5347.00    0.92871   0.93613    0.067
 5348.00    0.91893   0.94284    0.067
 5349.00    0.91454   0.94687    0.066
 5350.00    0.90989   0.94674    0.065
 5351.00    0.90431   0.94416    0.066
 5352.00    0.90749   0.94216    0.066
 5353.00    0.93648   0.94347    0.066
 5354.00    0.95321   0.94956    0.067
 5355.00    0.93910   0.96000    0.066
 5356.00    0.93089   0.97338    0.066
 5357.00    0.93543   0.98791    0.066
 5358.00    0.93635   1.00150    0.066
 5359.00    0.93047   1.01259    0.066
 5360.00    0.92740   1.02055    0.066
 5361.00    0.92895   1.02507    0.066
 5362.00    0.92410   1.02550    0.066
 5363.00    0.91005   1.02151    0.065
 5364.00    0.90399   1.01352    0.065
 5365.00    0.90803   1.00251    0.065
 5366.00    0.89895   0.98992    0.065
 5367.00    0.87524   0.97737    0.065
 5368.00    0.87060   0.96607   -2.000
 5369.00    0.88469   0.95641   -2.000
 5370.00    0.90433   0.94757   -2.000
 5371.00    0.92878   0.93789   -2.000
 5372.00    0.92896   0.92644   -2.000
 5373.00    0.91058   0.91423   -2.000
 5374.00    0.90129   0.90430   -2.000
 5375.00    0.89809   0.90096   -2.000
 5376.00    0.91617   0.90728   -2.000
 5377.00    0.94676   0.92273   -2.000
 5378.00    0.95466   0.94321   -2.000
 5379.00    0.95092   0.96292   -2.000
 5380.00    0.93755   0.97710   -2.000
 5381.00    0.91991   0.98405   -2.000
 5382.00    0.91879   0.98505   -2.000
 5383.00    0.92397   0.98227    0.065
 5384.00    0.92457   0.97759    0.065
 5385.00    0.92368   0.97257    0.065
 5386.00    0.94090   0.96844    0.065
 5387.00    0.96304   0.96621    0.065
 5388.00    0.94752   0.96630    0.065
 5389.00    0.92361   0.96777    0.064
 5390.00    0.91897   0.96860    0.064
 5391.00    0.91775   0.96685    0.065
 5392.00    0.90895   0.96160    0.064
 5393.00    0.89913   0.95324    0.064
 5394.00    0.90178   0.94349    0.064
 5395.00    0.90563   0.93422    0.065
 5396.00    0.88744   0.92630    0.064
 5397.00    0.86794   0.91943    0.064
 5398.00    0.87183   0.91289    0.064
 5399.00    0.87638   0.90631    0.064
 5400.00    0.88953   0.90044    0.065
 5401.00    0.90262   0.89726    0.065
 5402.00    0.91444   0.89854    0.065
 5403.00    0.92347   0.90392    0.065
 5404.00    0.89478   0.91057    0.065
 5405.00    0.86828   0.91446    0.064
 5406.00    0.86144   0.91213    0.064
 5407.00    0.85549   0.90259    0.065
 5408.00    0.85541   0.88845    0.065
 5409.00    0.85710   0.87453    0.065
 5410.00    0.86788   0.86516    0.065
 5411.00    0.87998   0.86242    0.064
 5412.00    0.89754   0.86582    0.064
 5413.00    0.91062   0.87339    0.064
 5414.00    0.90837   0.88349    0.064
 5415.00    0.90849   0.89539    0.064
 5416.00    0.91547   0.90866    0.064
 5417.00    0.91965   0.92250    0.064
 5418.00    0.91688   0.93573    0.063
 5419.00    0.91390   0.94719    0.063
 5420.00    0.91047   0.95594    0.063
 5421.00    0.90676   0.96149    0.063
 5422.00    0.90253   0.96367    0.063
 5423.00    0.90527   0.96259    0.062
 5424.00    0.91928   0.95887    0.062
 5425.00    0.92373   0.95379    0.063
 5426.00    0.91460   0.94886    0.063
 5427.00    0.90661   0.94538    0.063
 5428.00    0.90002   0.94403    0.063
 5429.00    0.90578   0.94445    0.063
 5430.00    0.92511   0.94505    0.063
 5431.00    0.91736   0.94340    0.063
 5432.00    0.88337   0.93782    0.063
 5433.00    0.87822   0.92888    0.063
 5434.00    0.89775   0.91878    0.063
 5435.00    0.90972   0.90990    0.063
 5436.00    0.91602   0.90336    0.063
 5437.00    0.91367   0.89928    0.063
 5438.00    0.90562   0.89828    0.063
 5439.00    0.90886   0.90156    0.063
 5440.00    0.91865   0.91035    0.063
 5441.00    0.93064   0.92497    0.063
 5442.00    0.94376   0.94356    0.063
 5443.00    0.93650   0.96241    0.063
 5444.00    0.92034   0.97758    0.064
 5445.00    0.92121   0.98609    0.064
 5446.00    0.92846   0.98629    0.064
 5447.00    0.93094   0.97793    0.064
 5448.00    0.93190   0.96259    0.064
 5449.00    0.92213   0.94386    0.063
 5450.00    0.90952   0.92692    0.063
 5451.00    0.91071   0.91691    0.063
 5452.00    0.91491   0.91633    0.063
 5453.00    0.88849   0.92354    0.063
 5454.00    0.85678   0.93349    0.063
 5455.00    0.87427   0.94033    0.063
 5456.00    0.89822   0.94032    0.063
 5457.00    0.91468   0.93333    0.063
 5458.00    0.93045   0.92281    0.064
 5459.00    0.92890   0.91405    0.063
 5460.00    0.92638   0.91144    0.063
 5461.00    0.91233   0.91612    0.063
 5462.00    0.89836   0.92534    0.062
 5463.00    0.91842   0.93411    0.063
 5464.00    0.93843   0.93834    0.063
 5465.00    0.95737   0.93683    0.063
 5466.00    0.97269   0.93150    0.063
 5467.00    0.94153   0.92613    0.063
 5468.00    0.91271   0.92392    0.062
 5469.00    0.90412   0.92574    0.062
 5470.00    0.89903   0.93019    0.062
 5471.00    0.91627   0.93493    0.062
 5472.00    0.92713   0.93801    0.061
 5473.00    0.90593   0.93828    0.062
 5474.00    0.88782   0.93557    0.063
 5475.00    0.88219   0.93036    0.063
 5476.00    0.87990   0.92299    0.063
 5477.00    0.88883   0.91364    0.062
 5478.00    0.89592   0.90303   -2.000
 5479.00    0.89782   0.89258   -2.000
 5480.00    0.89939   0.88434   -2.000
 5481.00    0.90014   0.88027   -2.000
 5482.00    0.90077   0.88110   -2.000
 5483.00    0.90114   0.88565   -2.000
 5484.00    0.88465   0.89168   -2.000
 5485.00    0.83745   0.89784   -2.000
 5486.00    0.81344   0.90433   -2.000
 5487.00    0.82636   0.91165   -2.000
 5488.00    0.85935   0.91934   -2.000
 5489.00    0.92038   0.92577   -2.000
 5490.00    0.93881   0.92921   -2.000
 5491.00    0.90487   0.92933   -2.000
 5492.00    0.88581   0.92760   -2.000
 5493.00    0.88288   0.92610   -2.000
 5494.00    0.89182   0.92611   -2.000
 5495.00    0.91209   0.92747   -2.000
 5496.00    0.91047   0.92913   -2.000
 5497.00    0.89037   0.93008   -2.000
 5498.00    0.88356   0.93000   -2.000
 5499.00    0.88659   0.92932   -2.000
 5500.00    0.88528   0.92868   -2.000
 5501.00    0.88112   0.92847   -2.000
 5502.00    0.87879   0.92865    0.191
 5503.00    0.87749   0.92859    0.074
 5504.00    0.88219   0.92731    0.062
 5505.00    0.88987   0.92417    0.063
 5506.00    0.88091   0.91953    0.062
 5507.00    0.86480   0.91454    0.062
 5508.00    0.87000   0.91023    0.061
 5509.00    0.88306   0.90712    0.061
 5510.00    0.87859   0.90555    0.061
 5511.00    0.86865   0.90559    0.061
 5512.00    0.86110   0.90654    0.061
 5513.00    0.85416   0.90704    0.060
 5514.00    0.85936   0.90567    0.060
 5515.00    0.86714   0.90204    0.061
 5516.00    0.87734   0.89738    0.061
 5517.00    0.88796   0.89399    0.061
 5518.00    0.88982   0.89411    0.061
 5519.00    0.89057   0.89886    0.061
 5520.00    0.88597   0.90770    0.062
 5521.00    0.88090   0.91890    0.062
 5522.00    0.87987   0.93023    0.061
 5523.00    0.87906   0.93966    0.061
 5524.00    0.88672   0.94590    0.060
 5525.00    0.89424   0.94854    0.059
 5526.00    0.87988   0.94785    0.060
 5527.00    0.86567   0.94414    0.060
 5528.00    0.85481   0.93753    0.060
 5529.00    0.84546   0.92839    0.060
 5530.00    0.85458   0.91794    0.060
 5531.00    0.86203   0.90838    0.060
 5532.00    0.85548   0.90230    0.059
 5533.00    0.85091   0.90142    0.059
 5534.00    0.85868   0.90534    0.060
 5535.00    0.86784   0.91162    0.061
 5536.00    0.88377   0.91726    0.061
 5537.00    0.89218   0.92035    0.061
 5538.00    0.87073   0.92092    0.060
 5539.00    0.85880   0.92048    0.059
 5540.00    0.87830   0.92090    0.060
 5541.00    0.89737   0.92332    0.061
 5542.00    0.91528   0.92771    0.061
 5543.00    0.91914   0.93305    0.061
 5544.00    0.88944   0.93784    0.061
 5545.00    0.86854   0.94070    0.061
 5546.00    0.86577   0.94095    0.060
 5547.00    0.87028   0.93907    0.060
 5548.00    0.88782   0.93659    0.060
 5549.00    0.89823   0.93534    0.060
 5550.00    0.89747   0.93657    0.060
 5551.00    0.89886   0.94048    0.059
 5552.00    0.90320   0.94613    0.060
 5553.00    0.90489   0.95176    0.060
 5554.00    0.90336   0.95551    0.060
 5555.00    0.90332   0.95616    0.060
 5556.00    0.90487   0.95364    0.061
 5557.00    0.90110   0.94897    0.060
 5558.00    0.89231   0.94375    0.060
 5559.00    0.89050   0.93942    0.060
 5560.00    0.89449   0.93668    0.060
 5561.00    0.88955   0.93535    0.060
 5562.00    0.87807   0.93460    0.060
 5563.00    0.87876   0.93352    0.060
 5564.00    0.88725   0.93146    0.059
 5565.00    0.87963   0.92817    0.059
 5566.00    0.86297   0.92383    0.060
 5567.00    0.85011   0.91904    0.059
 5568.00    0.83913   0.91445    0.058
 5569.00    0.84191   0.91050    0.059
 5570.00    0.85052   0.90743    0.059
 5571.00    0.85880   0.90543    0.059
 5572.00    0.86696   0.90446    0.059
 5573.00    0.86280   0.90434    0.059
 5574.00    0.85486   0.90488    0.059
 5575.00    0.86402   0.90579    0.059
 5576.00    0.87754   0.90699    0.059
 5577.00    0.89061   0.90880    0.059
 5578.00    0.90359   0.91156    0.060
 5579.00    0.90360   0.91525    0.060
 5580.00    0.90150   0.91943    0.059
 5581.00    0.89059   0.92339    0.059
 5582.00    0.87860   0.92648    0.059
 5583.00    0.89892   0.92838    0.059
 5584.00    0.92196   0.92882    0.060
 5585.00    0.90006   0.92749    0.060
 5586.00    0.87598   0.92392    0.060
 5587.00    0.86330   0.91751    0.060
 5588.00    0.85090   0.90776    0.060
 5589.00    0.84513   0.89480    0.059
 5590.00    0.83880   0.87996    0.059
 5591.00    0.82110   0.86581    0.059
 5592.00    0.80617   0.85538    0.059
 5593.00    0.82332   0.85079    0.060
 5594.00    0.84102   0.85224    0.060
 5595.00    0.86327   0.85818    0.061
 5596.00    0.88141   0.86642    0.062
 5597.00    0.87475   0.87515    0.062
 5598.00    0.87054   0.88341    0.062
 5599.00    0.87803   0.89060    0.061
 5600.00    0.88151   0.89578    0.060
 5601.00    0.86943   0.89761    0.060
 5602.00    0.85941   0.89532    0.060
 5603.00    0.85607   0.88960    0.060
 5604.00    0.85523   0.88263    0.060
 5605.00    0.86121   0.87737    0.060
 5606.00    0.86849   0.87654    0.059
 5607.00    0.87885   0.88174    0.059
 5608.00    0.88485   0.89274    0.058
 5609.00    0.88199   0.90743    0.058
 5610.00    0.87972   0.92260    0.058
 5611.00    0.87847   0.93530    0.058
 5612.00    0.87362   0.94394    0.058
 5613.00    0.86322   0.94844    0.058
 5614.00    0.85449   0.94928    0.058
 5615.00    0.84803   0.94651    0.058
 5616.00    0.83977   0.93963    0.058
 5617.00    0.82935   0.92841    0.057
 5618.00    0.82574   0.91392    0.057
 5619.00    0.82929   0.89916    0.056
 5620.00    0.83563   0.88795    0.057
 5621.00    0.84454   0.88294    0.058
 5622.00    0.85157   0.88418    0.058
 5623.00    0.85705   0.88935    0.057
 5624.00    0.85312   0.89516    0.057
 5625.00    0.84239   0.89888    0.057
 5626.00    0.83559   0.89908    0.057
 5627.00    0.83128   0.89587    0.057
 5628.00    0.84429   0.89095    0.057
 5629.00    0.86690   0.88715    0.057
 5630.00    0.87465   0.88712    0.057
 5631.00    0.87525   0.89196    0.057
 5632.00    0.87773   0.90072    0.057
 5633.00    0.88098   0.91105    0.057
 5634.00    0.87410   0.92031    0.057
 5635.00    0.86361   0.92644    0.057
 5636.00    0.85504   0.92843    0.057
 5637.00    0.84705   0.92631    0.057
 5638.00    0.85232   0.92100    0.057
 5639.00    0.86089   0.91392    0.057
 5640.00    0.86591   0.90659    0.058
 5641.00    0.87021   0.90025    0.058
 5642.00    0.87165   0.89559    0.058
 5643.00    0.87264   0.89268    0.058
 5644.00    0.86422   0.89115    0.057
 5645.00    0.85468   0.89069    0.057
 5646.00    0.85908   0.89130    0.057
 5647.00    0.86459   0.89315    0.057
 5648.00    0.86794   0.89623    0.057
 5649.00    0.87119   0.90006    0.057
 5650.00    0.87885   0.90394    0.057
 5651.00    0.88613   0.90723    0.057
 5652.00    0.87250   0.90964    0.057
 5653.00    0.85942   0.91134    0.057
 5654.00    0.85658   0.91259    0.057
 5655.00    0.85329   0.91341    0.057
 5656.00    0.84504   0.91335    0.056
 5657.00    0.83763   0.91148    0.055
 5658.00    0.83669   0.90694    0.056
 5659.00    0.83445   0.89958    0.057
 5660.00    0.82463   0.89011    0.057
 5661.00    0.81762   0.87991    0.057
 5662.00    0.82371   0.87082    0.056
 5663.00    0.82870   0.86475    0.055
 5664.00    0.82949   0.86284    0.056
 5665.00    0.83061   0.86496    0.056
 5666.00    0.83279   0.86998    0.056
 5667.00    0.83301   0.87649    0.056
 5668.00    0.82796   0.88321    0.056
 5669.00    0.82577   0.88906    0.056
 5670.00    0.83014   0.89319    0.056
 5671.00    0.83878   0.89542    0.056
 5672.00    0.85590   0.89660    0.056
 5673.00    0.87209   0.89821    0.056
 5674.00    0.88664   0.90154    0.057
 5675.00    0.89010   0.90699    0.058
 5676.00    0.87667   0.91390    0.058
 5677.00    0.86653   0.92096    0.058
 5678.00    0.86076   0.92681    0.058
 5679.00    0.84995   0.93059    0.058
 5680.00    0.83320   0.93213    0.058
 5681.00    0.82423   0.93161    0.057
 5682.00    0.82335   0.92917    0.056
 5683.00    0.83264   0.92490    0.056
 5684.00    0.85122   0.91902    0.057
 5685.00    0.85994   0.91210    0.057
 5686.00    0.86070   0.90503    0.056
 5687.00    0.85513   0.89881    0.056
 5688.00    0.84507   0.89408    0.055
 5689.00    0.84917   0.89088    0.055
 5690.00    0.86211   0.88894    0.056
 5691.00    0.87001   0.88825    0.056
 5692.00    0.87515   0.88933    0.055
 5693.00    0.87506   0.89285    0.055
 5694.00    0.87248   0.89884    0.055
 5695.00    0.86992   0.90633    0.056
 5696.00    0.86735   0.91371    0.056
 5697.00    0.87307   0.91941    0.057
 5698.00    0.88167   0.92240    0.057
 5699.00    0.86808   0.92244    0.057
 5700.00    0.84795   0.91977    0.057
 5701.00    0.84417   0.91480    0.057
 5702.00    0.84439   0.90809    0.057
 5703.00    0.84169   0.90048    0.057
 5704.00    0.83842   0.89304    0.056
 5705.00    0.83200   0.88686    0.056
 5706.00    0.82510   0.88259    0.056
 5707.00    0.83112   0.88002    0.055
 5708.00    0.83860   0.87795    0.055
 5709.00    0.84312   0.87474    0.055
 5710.00    0.84743   0.86932    0.056
 5711.00    0.83893   0.86184    0.056
 5712.00    0.82992   0.85383    0.055
 5713.00    0.82936   0.84752    0.055
 5714.00    0.82923   0.84495    0.056
 5715.00    0.84428   0.84724    0.056
 5716.00    0.85870   0.85434    0.056
 5717.00    0.86218   0.86511    0.055
 5718.00    0.86513   0.87765    0.055
 5719.00    0.86261   0.88999    0.055
 5720.00    0.86245   0.90066    0.055
 5721.00    0.88011   0.90911    0.055
 5722.00    0.89622   0.91566    0.056
 5723.00    0.90350   0.92109    0.056
 5724.00    0.90889   0.92601    0.056
 5725.00    0.90572   0.93058    0.056
 5726.00    0.90148   0.93436    0.055
 5727.00    0.89326   0.93658    0.055
 5728.00    0.88357   0.93662    0.054
 5729.00    0.86931   0.93436    0.055
 5730.00    0.85899   0.93042    0.055
 5731.00    0.85911   0.92589    0.055
 5732.00    0.85949   0.92186    0.055
 5733.00    0.86049   0.91893    0.055
 5734.00    0.86188   0.91713    0.055
 5735.00    0.86406   0.91638    0.055
 5736.00    0.86479   0.91680    0.055
 5737.00    0.86303   0.91853    0.055
 5738.00    0.86191   0.92124    0.055
 5739.00    0.86175   0.92406    0.055
 5740.00    0.85731   0.92601    0.000
 5741.00    0.84721   0.92656    0.000
 5742.00    0.84264   0.92585    0.000
 5743.00    0.84449   0.92443    0.000
 5744.00    0.85782   0.92286    0.000
 5745.00    0.88289   0.92163    0.000
 5746.00    0.89342   0.92103    0.000
 5747.00    0.89080   0.92116    0.000
 5748.00    0.88484   0.92176    0.000
 5749.00    0.87620   0.92221    0.000
 5750.00    0.87767   0.92180    0.000
 5751.00    0.88622   0.92019    0.000
 5752.00    0.88795   0.91767    0.000
 5753.00    0.88549   0.91476    0.000
 5754.00    0.87548   0.91158    0.000
 5755.00    0.86142   0.90775    0.000
 5756.00    0.86076   0.90314    0.000
 5757.00    0.86635   0.89862    0.000
 5758.00    0.86574   0.89604    0.000
 5759.00    0.86265   0.89695    0.000
 5760.00    0.86597   0.90130    0.000
 5761.00    0.87149   0.90705    0.000
 5762.00    0.87788   0.91122    0.000
 5763.00    0.88452   0.91156    0.000
 5764.00    0.87909   0.90790    0.000
 5765.00    0.87078   0.90216    0.000
 5766.00    0.87586   0.89744    0.000
 5767.00    0.88352   0.89647    0.000
 5768.00    0.89175   0.90030    0.000
 5769.00    0.90006   0.90786    0.000
 5770.00    0.88734   0.91671    0.000
 5771.00    0.87232   0.92426    0.000
 5772.00    0.87878   0.92884    0.000
 5773.00    0.88677   0.93008    0.000
 5774.00    0.88498   0.92855    0.000
 5775.00    0.88283   0.92531    0.000
 5776.00    0.88276   0.92150    0.000
 5777.00    0.88278   0.91810    0.000
 5778.00    0.88568   0.91572    0.000
 5779.00    0.88736   0.91439    0.000
 5780.00    0.86953   0.91342    0.000
 5781.00    0.85295   0.91142    0.000
 5782.00    0.84900   0.90687    0.000
 5783.00    0.84614   0.89885    0.000
 5784.00    0.85116   0.88772    0.000
 5785.00    0.85664   0.87521    0.000
 5786.00    0.86469   0.86374    0.000
 5787.00    0.87137   0.85551    0.000
 5788.00    0.87203   0.85169    0.000
 5789.00    0.87114   0.85251    0.000
 5790.00    0.86456   0.85740    0.000
 5791.00    0.85638   0.86511   -2.000
 5792.00    0.84327   0.87395   -2.000
 5793.00    0.83426   0.88217   -2.000
 5794.00    0.83589   0.88871   -2.000
 5795.00    0.83411   0.89363   -2.000
 5796.00    0.82473   0.89777   -2.000
 5797.00    0.82153   0.90183   -2.000
 5798.00    0.83029   0.90575   -2.000
 5799.00    0.83500   0.90885   -2.000
 5800.00    0.83288   0.91060   -2.000
 5801.00    0.83636   0.91133   -2.000
 5802.00    0.84811   0.91225   -2.000
 5803.00    0.85733   0.91456   -2.000
 5804.00    0.86325   0.91838   -2.000
 5805.00    0.86765   0.92246   -2.000
 5806.00    0.87030   0.92494   -2.000
 5807.00    0.87080   0.92455   -2.000
 5808.00    0.86913   0.92139   -2.000
 5809.00    0.86720   0.91686   -2.000
 5810.00    0.86504   0.91287   -2.000
 5811.00    0.85984   0.91076    0.000
 5812.00    0.85226   0.91092    0.000
 5813.00    0.84205   0.91280    0.000
 5814.00    0.83004   0.91533    0.000
 5815.00    0.82718   0.91739    0.000
 5816.00    0.82987   0.91807    0.000
 5817.00    0.83348   0.91694    0.000
 5818.00    0.83759   0.91432    0.000
 5819.00    0.84078   0.91129    0.000
 5820.00    0.84357   0.90939    0.000
 5821.00    0.85764   0.90992    0.000
 5822.00    0.87618   0.91323    0.000
 5823.00    0.87438   0.91842    0.000
 5824.00    0.86574   0.92385    0.000
 5825.00    0.86895   0.92804    0.000
 5826.00    0.87551   0.93033    0.000
 5827.00    0.87192   0.93100    0.000
 5828.00    0.86596   0.93083    0.000
 5829.00    0.87201   0.93059    0.000
 5830.00    0.88030   0.93064    0.000
 5831.00    0.88558   0.93099    0.000
 5832.00    0.89044   0.93145    0.000
 5833.00    0.87153   0.93174    0.000
 5834.00    0.85012   0.93156    0.000
 5835.00    0.84873   0.93068    0.000
 5836.00    0.84868   0.92900    0.000
 5837.00    0.85752   0.92668    0.000
 5838.00    0.86665   0.92411    0.000
 5839.00    0.87901   0.92182    0.000
 5840.00    0.89104   0.92027    0.000
 5841.00    0.89299   0.91975    0.000
 5842.00    0.89421   0.92038    0.000
 5843.00    0.88461   0.92214    0.000
 5844.00    0.87438   0.92480    0.000
 5845.00    0.85804   0.92779    0.000
 5846.00    0.84277   0.93019    0.000
 5847.00    0.83506   0.93101    0.000
 5848.00    0.82930   0.92967    0.000
 5849.00    0.83408   0.92622    0.000
 5850.00    0.83743   0.92136    0.000
 5851.00    0.83456   0.91613    0.000
 5852.00    0.83143   0.91133    0.000
 5853.00    0.82741   0.90719    0.000
 5854.00    0.82676   0.90330    0.000
 5855.00    0.83618   0.89900    0.000
 5856.00    0.84006   0.89388    0.000
 5857.00    0.82977   0.88801    0.000
 5858.00    0.82112   0.88186    0.000
 5859.00    0.81607   0.87593    0.000
 5860.00    0.81518   0.87059    0.000
 5861.00    0.82222   0.86640    0.000
 5862.00    0.83398   0.86415    0.000
 5863.00    0.85359   0.86458    0.000
 5864.00    0.85920   0.86774    0.000
 5865.00    0.84441   0.87277    0.000
 5866.00    0.83459   0.87823    0.000
 5867.00    0.83114   0.88292    0.000
 5868.00    0.83653   0.88631    0.000
 5869.00    0.85188   0.88855    0.000
 5870.00    0.85848   0.89024    0.000
 5871.00    0.85637   0.89214    0.000
 5872.00    0.84737   0.89477    0.000
 5873.00    0.83231   0.89808    0.000
 5874.00    0.83288   0.90140    0.000
 5875.00    0.84553   0.90381    0.000
 5876.00    0.84851   0.90462    0.000
 5877.00    0.84490   0.90376    0.000
 5878.00    0.84173   0.90165    0.000
 5879.00    0.83881   0.89881    0.000
 5880.00    0.83924   0.89557    0.000
 5881.00    0.84140   0.89203    0.000
 5882.00    0.83697   0.88825    0.000
 5883.00    0.82957   0.88440    0.000
 5884.00    0.81545   0.88084    0.000
 5885.00    0.79873   0.87785    0.000
 5886.00    0.79201   0.87545    0.000
 5887.00    0.78859   0.87299    0.000
 5888.00    0.77718   0.86904    0.000
 5889.00    0.76357   0.86142    0.000
 5890.00    0.74438   0.84763    0.000
 5891.00    0.72393   0.82612    0.000
 5892.00    0.72108   0.79775    0.000
 5893.00    0.72143   0.76679    0.000
 5894.00    0.72139   0.73974    0.000
 5895.00    0.72129   0.72231    0.000
 5896.00    0.74314   0.71615    0.000
 5897.00    0.76718   0.71823    0.000
 5898.00    0.79237   0.72344    0.000
 5899.00    0.81762   0.72853    0.000
 5900.00    0.82689   0.73414    0.000
 5901.00    0.83568   0.74351    0.053
 5902.00    0.83621   0.75917    0.053
 5903.00    0.83622   0.78062    0.053
 5904.00    0.82147   0.80463    0.052
 5905.00    0.80779   0.82712    0.052
 5906.00    0.80934   0.84522    0.051
 5907.00    0.81074   0.85795    0.051
 5908.00    0.81073   0.86592    0.051
 5909.00    0.81044   0.87051    0.052
 5910.00    0.80824   0.87325    0.051
 5911.00    0.80763   0.87539    0.051
 5912.00    0.81534   0.87754    0.052
 5913.00    0.82259   0.87964    0.051
 5914.00    0.82785   0.88110    0.051
 5915.00    0.83134   0.88113    0.051
 5916.00    0.82860   0.87917    0.051
 5917.00    0.82554   0.87528    0.051
 5918.00    0.82157   0.87038    0.050
 5919.00    0.81906   0.86598    0.050
 5920.00    0.82019   0.86362    0.051
 5921.00    0.82250   0.86404    0.051
 5922.00    0.82739   0.86693    0.051
 5923.00    0.83097   0.87113    0.051
 5924.00    0.83207   0.87530    0.051
 5925.00    0.83293   0.87857    0.051
 5926.00    0.83342   0.88074    0.051
 5927.00    0.83311   0.88213    0.051
 5928.00    0.83165   0.88315    0.051
 5929.00    0.82779   0.88382    0.051
 5930.00    0.82087   0.88377    0.051
 5931.00    0.81746   0.88257    0.051
 5932.00    0.81796   0.88019    0.051
 5933.00    0.82423   0.87725    0.051
 5934.00    0.83616   0.87472    0.051
 5935.00    0.83976   0.87333    0.051
 5936.00    0.83613   0.87318    0.052
 5937.00    0.82965   0.87377    0.051
 5938.00    0.82099   0.87459    0.051
 5939.00    0.81532   0.87556    0.051
 5940.00    0.81165   0.87694    0.051
 5941.00    0.80802   0.87880    0.051
 5942.00    0.80442   0.88064    0.051
 5943.00    0.81526   0.88168    0.051
 5944.00    0.83350   0.88141    0.052
 5945.00    0.83893   0.88009    0.052
 5946.00    0.83868   0.87866    0.052
 5947.00    0.83106   0.87812    0.051
 5948.00    0.82064   0.87882    0.051
 5949.00    0.81339   0.88019    0.051
 5950.00    0.80717   0.88111    0.050
 5951.00    0.80889   0.88065    0.050
 5952.00    0.81275   0.87863    0.050
 5953.00    0.81791   0.87567    0.050
 5954.00    0.82336   0.87271    0.051
 5955.00    0.83418   0.87045    0.051
 5956.00    0.84595   0.86902    0.051
 5957.00    0.84147   0.86824    0.050
 5958.00    0.83479   0.86785    0.050
 5959.00    0.82959   0.86773    0.051
 5960.00    0.82452   0.86788    0.051
 5961.00    0.82655   0.86853    0.051
 5962.00    0.82901   0.87011    0.051
 5963.00    0.83286   0.87298    0.051
 5964.00    0.83677   0.87708    0.050
 5965.00    0.84267   0.88170    0.050
 5966.00    0.84839   0.88581    0.051
 5967.00    0.84932   0.88851    0.051
 5968.00    0.84969   0.88956    0.051
 5969.00    0.84258   0.88940    0.050
 5970.00    0.83550   0.88896    0.050
 5971.00    0.82862   0.88914    0.050
 5972.00    0.82305   0.89041    0.050
 5973.00    0.82620   0.89264    0.050
 5974.00    0.82772   0.89514    0.050
 5975.00    0.82091   0.89701    0.050
 5976.00    0.81468   0.89738    0.050
 5977.00    0.81085   0.89564    0.050
 5978.00    0.80976   0.89169    0.050
 5979.00    0.81809   0.88605    0.050
 5980.00    0.82588   0.87985    0.051
 5981.00    0.83212   0.87452    0.051
 5982.00    0.83647   0.87122    0.051
 5983.00    0.83616   0.87018    0.051
 5984.00    0.83541   0.87055    0.051
 5985.00    0.83369   0.87076    0.051
 5986.00    0.83291   0.86946    0.051
 5987.00    0.83387   0.86634    0.050
 5988.00    0.83069   0.86234    0.050
 5989.00    0.82085   0.85917    0.050
 5990.00    0.81935   0.85825    0.050
 5991.00    0.82964   0.85995    0.050
 5992.00    0.83737   0.86353    0.050
 5993.00    0.84190   0.86773    0.050
 5994.00    0.84034   0.87156    0.050
 5995.00    0.83209   0.87464    0.050
 5996.00    0.82333   0.87707    0.050
 5997.00    0.81408   0.87899    0.050
 5998.00    0.80744   0.88021    0.050
 5999.00    0.80302   0.88021    0.050
 6000.00    0.80270   0.87865    0.050
 6001.00    0.80546   0.87578    0.050
 6002.00    0.80904   0.87248    0.050
 6003.00    0.81318   0.86976    0.050
 6004.00    0.81367   0.86810    0.050
 6005.00    0.81206   0.86732    0.050
 6006.00    0.81579   0.86681    0.050
 6007.00    0.82221   0.86594    0.051
 6008.00    0.83396   0.86436    0.051
 6009.00    0.84803   0.86195    0.051
 6010.00    0.84273   0.85891    0.051
 6011.00    0.83020   0.85582    0.050
 6012.00    0.80958   0.85361    0.050
 6013.00    0.78640   0.85308    0.049
 6014.00    0.78588   0.85429    0.049
 6015.00    0.79138   0.85635    0.050
 6016.00    0.79897   0.85798    0.051
 6017.00    0.80701   0.85832    0.051
 6018.00    0.80505   0.85738    0.051
 6019.00    0.80137   0.85576    0.051
 6020.00    0.79921   0.85408    0.050
 6021.00    0.79725   0.85253    0.050
 6022.00    0.79905   0.85106    0.051
 6023.00    0.80118   0.84960    0.051
 6024.00    0.81047   0.84832    0.052
 6025.00    0.82016   0.84765    0.052
 6026.00    0.82309   0.84811    0.052
 6027.00    0.82582   0.85000    0.052
 6028.00    0.82356   0.85324    0.051
 6029.00    0.82127   0.85746    0.050
 6030.00    0.81843   0.86216    0.050
 6031.00    0.81630   0.86690    0.050
 6032.00    0.82328   0.87142    0.050
 6033.00    0.83020   0.87560    0.050
 6034.00    0.83658   0.87935    0.050
 6035.00    0.84205   0.88264    0.051
 6036.00    0.84182   0.88543    0.050
 6037.00    0.84074   0.88771    0.049
 6038.00    0.83541   0.88947    0.050
 6039.00    0.82995   0.89066    0.050
 6040.00    0.82390   0.89120    0.050
 6041.00    0.81923   0.89104    0.050
 6042.00    0.81921   0.89020    0.050
 6043.00    0.81845   0.88880    0.050
 6044.00    0.81558   0.88718    0.050
 6045.00    0.81428   0.88588    0.050
 6046.00    0.81676   0.88544    0.050
 6047.00    0.82041   0.88615    0.050
 6048.00    0.82650   0.88793    0.050
 6049.00    0.83035   0.89030    0.049
 6050.00    0.83012   0.89264    0.049
 6051.00    0.82969   0.89447    0.049
 6052.00    0.82896   0.89554    0.049
 6053.00    0.82818   0.89578    0.049
 6054.00    0.82733   0.89514    0.049
 6055.00    0.82894   0.89353    0.050
 6056.00    0.83354   0.89083    0.050
 6057.00    0.83425   0.88714    0.050
 6058.00    0.83076   0.88285    0.050
 6059.00    0.82689   0.87869    0.050
 6060.00    0.82266   0.87549    0.050
 6061.00    0.82234   0.87389    0.050
 6062.00    0.82532   0.87402    0.050
 6063.00    0.82839   0.87537    0.050
 6064.00    0.83153   0.87685    0.050
 6065.00    0.82922   0.87725    0.050
 6066.00    0.82338   0.87572    0.050
 6067.00    0.81982   0.87230    0.050
 6068.00    0.81755   0.86813    0.050
 6069.00    0.81905   0.86501    0.050
 6070.00    0.82240   0.86464    0.049
 6071.00    0.82104   0.86782    0.049
 6072.00    0.81765   0.87401    0.050
 6073.00    0.81821   0.88162    0.050
 6074.00    0.82021   0.88885    0.049
 6075.00    0.82178   0.89447    0.049
 6076.00    0.82322   0.89798    0.048
 6077.00    0.81944   0.89942    0.048
 6078.00    0.81431   0.89890    0.048
 6079.00    0.81221   0.89649    0.048
 6080.00    0.81075   0.89225    0.049
 6081.00    0.82012   0.88653    0.049
 6082.00    0.83131   0.87999    0.048
 6083.00    0.83094   0.87348    0.049
 6084.00    0.82912   0.86776    0.049
 6085.00    0.81893   0.86328    0.049
 6086.00    0.80799   0.86015    0.049
 6087.00    0.81028   0.85828    0.050
 6088.00    0.81325   0.85751    0.050
 6089.00    0.81531   0.85766    0.050
 6090.00    0.81718   0.85838    0.050
 6091.00    0.80752   0.85918    0.050
 6092.00    0.79866   0.85953    0.050
 6093.00    0.80684   0.85906    0.049
 6094.00    0.81503   0.85786    0.049
 6095.00    0.82347   0.85651    0.049
 6096.00    0.83138   0.85589    0.049
 6097.00    0.83498   0.85665    0.049
 6098.00    0.83720   0.85892    0.050
 6099.00    0.83076   0.86217    0.049
 6100.00    0.82404   0.86549    0.049
 6101.00    0.81595   0.86793    0.049
 6102.00    0.80722   0.86870    0.049
 6103.00    0.79592   0.86716    0.049
 6104.00    0.78620   0.86294    0.049
 6105.00    0.78166   0.85629    0.049
 6106.00    0.77854   0.84852    0.048
 6107.00    0.77937   0.84190    0.048
 6108.00    0.78395   0.83869    0.048
 6109.00    0.79748   0.83989    0.049
 6110.00    0.81111   0.84473    0.050
 6111.00    0.82493   0.85124    0.049
 6112.00    0.83266   0.85743    0.049
 6113.00    0.82946   0.86222    0.048
 6114.00    0.82493   0.86547    0.048
 6115.00    0.81831   0.86761    0.049
 6116.00    0.80920   0.86914    0.049
 6117.00    0.79668   0.87036    0.049
 6118.00    0.78793   0.87122    0.049
 6119.00    0.78373   0.87138    0.049
 6120.00    0.78313   0.87039    0.050
 6121.00    0.78639   0.86788    0.050
 6122.00    0.79311   0.86362    0.050
 6123.00    0.80310   0.85762    0.050
 6124.00    0.81074   0.85036    0.050
 6125.00    0.81645   0.84298    0.050
 6126.00    0.82202   0.83713    0.050
 6127.00    0.82749   0.83432    0.050
 6128.00    0.83105   0.83504    0.050
 6129.00    0.83339   0.83840    0.049
 6130.00    0.83175   0.84273    0.049
 6131.00    0.82787   0.84659    0.048
 6132.00    0.81889   0.84952    0.049
 6133.00    0.80742   0.85191    0.049
 6134.00    0.79691   0.85424    0.049
 6135.00    0.78681   0.85629    0.050
 6136.00    0.77989   0.85689    0.050
 6137.00    0.77413   0.85436    0.049
 6138.00    0.77335   0.84751    0.050
 6139.00    0.77410   0.83657    0.050
 6140.00    0.78008   0.82373    0.050
 6141.00    0.78738   0.81252    0.049
 6142.00    0.79331   0.80637    0.049
 6143.00    0.79896   0.80681    0.049
 6144.00    0.80909   0.81297    0.048
 6145.00    0.81995   0.82231    0.048
 6146.00    0.82246   0.83228    0.049
 6147.00    0.82396   0.84133    0.049
 6148.00    0.81577   0.84886    0.049
 6149.00    0.80676   0.85450    0.049
 6150.00    0.79703   0.85778    0.048
 6151.00    0.78727   0.85838    0.048
 6152.00    0.79772   0.85659    0.048
 6153.00    0.80814   0.85341    0.049
 6154.00    0.79950   0.85021    0.048
 6155.00    0.79083   0.84799    0.048
 6156.00    0.78185   0.84698    0.048
 6157.00    0.77380   0.84668    0.049
 6158.00    0.77639   0.84627    0.049
 6159.00    0.77852   0.84509    0.049
 6160.00    0.77696   0.84276    0.049
 6161.00    0.77403   0.83890    0.049
 6162.00    0.76292   0.83284    0.049
 6163.00    0.75347   0.82384    0.049
 6164.00    0.75190   0.81177    0.048
 6165.00    0.75046   0.79784    0.048
 6166.00    0.74954   0.78475    0.048
 6167.00    0.74866   0.77566    0.048
 6168.00    0.74791   0.77265    0.048
 6169.00    0.75071   0.77550    0.048
 6170.00    0.76323   0.78188    0.048
 6171.00    0.77203   0.78853    0.049
 6172.00    0.77212   0.79307    0.048
 6173.00    0.77244   0.79506    0.048
 6174.00    0.77322   0.79587    0.049
 6175.00    0.77386   0.79745    0.049
 6176.00    0.77427   0.80101    0.049
 6177.00    0.77356   0.80641    0.049
 6178.00    0.77114   0.81246    0.049
 6179.00    0.76568   0.81795    0.049
 6180.00    0.75611   0.82228    0.048
 6181.00    0.75366   0.82562    0.048
 6182.00    0.75972   0.82847    0.048
 6183.00    0.76587   0.83126    0.048
 6184.00    0.77210   0.83412    0.048
 6185.00    0.77258   0.83690    0.048
 6186.00    0.76773   0.83918    0.048
 6187.00    0.76612   0.84045    0.048
 6188.00    0.76717   0.84014    0.049
 6189.00    0.77022   0.83785    0.049
 6190.00    0.77471   0.83350    0.049
 6191.00    0.78021   0.82739    0.048
 6192.00    0.78635   0.82013    0.048
 6193.00    0.78003   0.81250    0.048
 6194.00    0.76682   0.80550    0.049
 6195.00    0.74826   0.80040    0.050
 6196.00    0.72712   0.79849   -2.000
 6197.00    0.73882   0.80051   -2.000
 6198.00    0.76415   0.80613   -2.000
 6199.00    0.78603   0.81374   -2.000
 6200.00    0.80668   0.82113   -2.000
 6201.00    0.81226   0.82632   -2.000
 6202.00    0.81331   0.82848   -2.000
 6203.00    0.80648   0.82811   -2.000
 6204.00    0.79768   0.82674   -2.000
 6205.00    0.79702   0.82607   -2.000
 6206.00    0.79800   0.82720   -2.000
 6207.00    0.79811   0.83009   -2.000
 6208.00    0.79808   0.83391    0.051
 6209.00    0.78981   0.83755    0.050
 6210.00    0.78058   0.84020    0.049
 6211.00    0.76757   0.84145    0.048
 6212.00    0.75426   0.84115    0.047
 6213.00    0.75520   0.83911    0.047
 6214.00    0.75676   0.83510    0.047
 6215.00    0.76338   0.82893    0.047
 6216.00    0.77011   0.82076    0.047
 6217.00    0.77975   0.81131    0.047
 6218.00    0.78876   0.80189    0.047
 6219.00    0.78635   0.79401    0.047
 6220.00    0.78392   0.78876    0.047
 6221.00    0.78128   0.78639    0.048
 6222.00    0.77957   0.78622    0.048
 6223.00    0.78509   0.78727    0.048
 6224.00    0.78892   0.78882    0.048
 6225.00    0.78281   0.79073    0.048
 6226.00    0.77792   0.79315    0.048
 6227.00    0.77870   0.79608    0.049
 6228.00    0.77689   0.79919    0.049
 6229.00    0.76525   0.80179    0.049
 6230.00    0.75435   0.80307    0.049
 6231.00    0.74576   0.80228    0.049
 6232.00    0.73966   0.79899    0.049
 6233.00    0.74024   0.79347    0.048
 6234.00    0.74444   0.78695    0.048
 6235.00    0.75697   0.78151    0.048
 6236.00    0.76762   0.77923    0.048
 6237.00    0.77454   0.78125    0.048
 6238.00    0.77701   0.78702    0.048
 6239.00    0.77176   0.79444    0.048
 6240.00    0.76568   0.80087    0.048
 6241.00    0.75833   0.80415    0.048
 6242.00    0.75609   0.80352    0.047
 6243.00    0.76066   0.79957    0.047
 6244.00    0.76491   0.79374    0.047
 6245.00    0.76879   0.78753    0.047
 6246.00    0.77308   0.78197    0.047
 6247.00    0.77780   0.77768    0.047
 6248.00    0.77853   0.77504    0.047
 6249.00    0.77563   0.77443    0.047
 6250.00    0.77006   0.77610    0.047
 6251.00    0.76235   0.77984    0.047
 6252.00    0.75683   0.78472    0.047
 6253.00    0.75285   0.78918    0.047
 6254.00    0.74765   0.79155    0.048
 6255.00    0.74168   0.79074    0.048
 6256.00    0.73512   0.78670    0.048
 6257.00    0.72825   0.78041    0.048
 6258.00    0.72759   0.77331    0.049
 6259.00    0.72986   0.76671    0.050
 6260.00    0.73374   0.76147    0.052
 6261.00    0.73829   0.75812    0.055
 6262.00    0.74476   0.75721    0.057
 6263.00    0.75191   0.75925    0.058
 6264.00    0.75855   0.76441    0.058
 6265.00    0.76506   0.77210    0.057
 6266.00    0.76769   0.78101    0.054
 6267.00    0.76939   0.78944    0.051
 6268.00    0.78242   0.79603    0.049
 6269.00    0.79768   0.80022    0.048
 6270.00    0.80755   0.80233    0.047
 6271.00    0.81659   0.80313    0.047
 6272.00    0.80801   0.80343    0.047
 6273.00    0.79745   0.80376    0.047
 6274.00    0.79499   0.80441    0.047
 6275.00    0.79314   0.80552    0.047
 6276.00    0.79145   0.80708    0.047
 6277.00    0.78976   0.80892    0.047
 6278.00    0.78589   0.81068    0.047
 6279.00    0.78200   0.81192    0.048
 6280.00    0.77803   0.81225    0.000
 6281.00    0.77400   0.81142    0.000
 6282.00    0.76891   0.80946    0.000
 6283.00    0.76465   0.80670    0.000
 6284.00    0.76916   0.80385    0.000
 6285.00    0.77471   0.80181    0.000
 6286.00    0.78804   0.80138    0.000
 6287.00    0.79896   0.80293    0.000
 6288.00    0.79617   0.80621    0.000
 6289.00    0.79342   0.81058    0.000
 6290.00    0.79087   0.81528    0.000
 6291.00    0.79002   0.81957    0.000
 6292.00    0.79551   0.82285    0.000
 6293.00    0.79934   0.82462    0.000
 6294.00    0.79800   0.82463    0.000
 6295.00    0.79432   0.82297    0.000
 6296.00    0.78449   0.82007    0.000
 6297.00    0.77786   0.81651    0.000
 6298.00    0.77850   0.81270    0.000
 6299.00    0.78037   0.80876    0.000
 6300.00    0.78467   0.80467    0.000
 6301.00    0.78499   0.80053    0.000
 6302.00    0.77851   0.79661    0.000
 6303.00    0.77309   0.79323    0.000
 6304.00    0.76923   0.79063    0.000
 6305.00    0.76743   0.78900    0.000
 6306.00    0.76833   0.78859    0.000
 6307.00    0.76992   0.78971    0.000
 6308.00    0.77229   0.79257    0.000
 6309.00    0.77186   0.79700    0.000
 6310.00    0.76856   0.80242    0.000
 6311.00    0.76765   0.80789    0.000
 6312.00    0.76890   0.81236    0.000
 6313.00    0.76760   0.81495    0.000
 6314.00    0.76426   0.81522    0.000
 6315.00    0.76137   0.81326    0.000
 6316.00    0.75879   0.80959    0.000
 6317.00    0.76036   0.80484    0.000
 6318.00    0.76448   0.79956    0.000
 6319.00    0.77329   0.79418    0.000
 6320.00    0.78463   0.78912    0.000
 6321.00    0.79482   0.78491    0.046
 6322.00    0.80447   0.78218    0.046
 6323.00    0.80685   0.78151    0.046
 6324.00    0.80632   0.78319    0.046
 6325.00    0.80096   0.78703    0.046
 6326.00    0.79396   0.79242    0.046
 6327.00    0.79137   0.79852    0.046
 6328.00    0.79005   0.80454    0.046
 6329.00    0.78995   0.80984    0.046
 6330.00    0.79013   0.81404    0.047
 6331.00    0.79103   0.81700    0.047
 6332.00    0.79207   0.81882    0.047
 6333.00    0.79524   0.81971    0.047
 6334.00    0.79873   0.81987    0.048
 6335.00    0.79572   0.81932    0.048
 6336.00    0.79200   0.81785    0.047
 6337.00    0.78889   0.81509    0.047
 6338.00    0.78582   0.81082    0.047
 6339.00    0.78221   0.80538    0.047
 6340.00    0.77858   0.79984    0.047
 6341.00    0.77033   0.79559    0.047
 6342.00    0.76229   0.79368    0.047
 6343.00    0.76267   0.79426    0.047
 6344.00    0.76359   0.79644    0.047
 6345.00    0.77323   0.79885    0.047
 6346.00    0.78265   0.80026    0.046
 6347.00    0.78980   0.80022    0.046
 6348.00    0.79579   0.79920    0.046
 6349.00    0.79329   0.79828    0.046
 6350.00    0.79097   0.79845    0.046
 6351.00    0.78962   0.80023    0.046
 6352.00    0.78771   0.80343    0.046
 6353.00    0.78327   0.80730    0.046
 6354.00    0.77871   0.81086    0.046
 6355.00    0.77369   0.81321    0.047
 6356.00    0.77067   0.81372    0.047
 6357.00    0.77375   0.81217    0.047
 6358.00    0.77549   0.80871    0.048
 6359.00    0.77373   0.80382    0.048
 6360.00    0.76927   0.79805    0.048
 6361.00    0.75876   0.79180    0.049
 6362.00    0.75044   0.78532    0.049
 6363.00    0.74636   0.77886    0.049
 6364.00    0.74721   0.77286    0.049
 6365.00    0.75636   0.76795    0.049
 6366.00    0.76232   0.76488    0.049
 6367.00    0.76358   0.76430    0.048
 6368.00    0.76758   0.76652    0.047
 6369.00    0.77517   0.77136    0.047
 6370.00    0.78120   0.77811    0.047
 6371.00    0.78546   0.78577    0.047
 6372.00    0.78858   0.79329    0.047
 6373.00    0.79055   0.79991    0.047
 6374.00    0.79204   0.80535    0.047
 6375.00    0.79309   0.80978    0.046
 6376.00    0.79294   0.81352    0.046
 6377.00    0.79186   0.81678    0.046
 6378.00    0.78939   0.81945    0.046
 6379.00    0.78597   0.82120    0.046
 6380.00    0.78715   0.82170    0.046
 6381.00    0.79111   0.82083    0.046
 6382.00    0.79040   0.81883    0.046
 6383.00    0.78724   0.81624    0.047
 6384.00    0.78340   0.81373    0.047
 6385.00    0.77925   0.81185    0.047
 6386.00    0.77169   0.81093    0.047
 6387.00    0.76279   0.81096    0.047
 6388.00    0.76118   0.81175    0.047
 6389.00    0.76202   0.81308    0.047
 6390.00    0.76806   0.81471    0.047
 6391.00    0.77558   0.81633    0.047
 6392.00    0.77812   0.81747    0.047
 6393.00    0.77950   0.81753    0.047
 6394.00    0.77867   0.81595    0.048
 6395.00    0.77742   0.81258    0.048
 6396.00    0.77455   0.80787    0.048
 6397.00    0.77144   0.80296    0.047
 6398.00    0.77193   0.79925    0.047
 6399.00    0.77278   0.79762    0.046
 6400.00    0.77433   0.79792    0.046
 6401.00    0.77593   0.79904    0.046
 6402.00    0.78335   0.79965    0.046
 6403.00    0.79097   0.79911    0.046
 6404.00    0.78786   0.79799    0.046
 6405.00    0.78471   0.79767    0.046
 6406.00    0.78019   0.79920    0.046
 6407.00    0.77616   0.80259    0.047
 6408.00    0.77930   0.80668    0.047
 6409.00    0.78184   0.80984    0.047
 6410.00    0.77856   0.81092    0.047
 6411.00    0.77571   0.80972    0.048
 6412.00    0.77586   0.80699    0.048
 6413.00    0.77667   0.80382    0.048
 6414.00    0.78102   0.80110    0.048
 6415.00    0.78474   0.79927    0.048
 6416.00    0.78578   0.79848    0.048
 6417.00    0.78729   0.79863    0.048
 6418.00    0.79044   0.79955    0.048
 6419.00    0.79106   0.80086    0.048
 6420.00    0.78414   0.80196    0.047
 6421.00    0.77763   0.80221    0.047
 6422.00    0.77216   0.80120    0.046
 6423.00    0.77108   0.79912    0.046
 6424.00    0.77962   0.79680    0.046
 6425.00    0.78712   0.79549    0.046
 6426.00    0.79262   0.79626    0.046
 6427.00    0.79217   0.79947    0.047
 6428.00    0.78187   0.80453    0.047
 6429.00    0.77393   0.81018    0.047
 6430.00    0.76941   0.81492    0.048
 6431.00    0.76741   0.81752    0.048
 6432.00    0.76863   0.81733    0.047
 6433.00    0.77161   0.81442    0.047
 6434.00    0.77659   0.80968    0.048
 6435.00    0.78042   0.80464    0.048
 6436.00    0.78310   0.80093    0.048
 6437.00    0.78560   0.79959    0.048
 6438.00    0.78794   0.80056    0.048
 6439.00    0.78750   0.80276    0.048
 6440.00    0.78490   0.80472    0.049
 6441.00    0.78308   0.80540    0.048
 6442.00    0.78178   0.80479    0.048
 6443.00    0.77912   0.80391    0.047
 6444.00    0.77566   0.80418    0.047
 6445.00    0.77337   0.80654    0.047
 6446.00    0.77169   0.81096    0.046
 6447.00    0.77478   0.81643    0.046
 6448.00    0.78001   0.82142    0.046
 6449.00    0.78003   0.82435    0.047
 6450.00    0.77804   0.82404    0.047
 6451.00    0.76900   0.82002    0.047
 6452.00    0.75765   0.81266    0.046
 6453.00    0.74554   0.80340    0.046
 6454.00    0.73322   0.79445    0.046
 6455.00    0.72415   0.78802    0.046
 6456.00    0.71581   0.78538    0.046
 6457.00    0.70888   0.78642    0.046
 6458.00    0.70221   0.78986    0.046
 6459.00    0.70650   0.79419    0.047
 6460.00    0.71231   0.79844    0.048
 6461.00    0.72309   0.80226    0.048
 6462.00    0.73437   0.80551    0.048
 6463.00    0.74474   0.80781    0.048
 6464.00    0.75506   0.80847    0.048
 6465.00    0.76070   0.80703    0.048
 6466.00    0.76624   0.80384    0.048
 6467.00    0.77968   0.80023    0.047
 6468.00    0.79297   0.79791    0.047
 6469.00    0.80252   0.79797    0.047
 6470.00    0.81076   0.80044    0.046
 6471.00    0.80055   0.80422    0.046
 6472.00    0.79044   0.80780    0.046
 6473.00    0.78133   0.81002    0.047
 6474.00    0.77241   0.81052    0.048
 6475.00    0.76480   0.80972    0.055
 6476.00    0.75970   0.80845    0.063
 6477.00    0.76784   0.80746    0.067
 6478.00    0.77843   0.80712    0.071
 6479.00    0.79936   0.80741    0.072
 6480.00    0.81444   0.80808    0.069
 6481.00    0.80915   0.80867    0.056
 6482.00    0.80112   0.80865    0.050
 6483.00    0.78506   0.80755    0.049
 6484.00    0.77260   0.80508    0.048
 6485.00    0.76915   0.80145    0.047
 6486.00    0.76928   0.79740    0.047
 6487.00    0.77708   0.79402    0.047
 6488.00    0.78213   0.79231    0.048
 6489.00    0.78203   0.79263    0.048
 6490.00    0.77889   0.79455    0.047
 6491.00    0.77081   0.79698    0.047
 6492.00    0.76553   0.79851    0.046
 6493.00    0.76426   0.79781    0.046
 6494.00    0.75972   0.79390    0.046
 6495.00    0.75107   0.78629    0.045
 6496.00    0.74608   0.77510    0.045
 6497.00    0.74516   0.76117    0.045
 6498.00    0.74801   0.74616    0.046
 6499.00    0.75457   0.73235    0.046
 6500.00    0.76148   0.72213    0.046
 6501.00    0.76870   0.71724    0.047
 6502.00    0.77618   0.71827    0.047
 6503.00    0.78386   0.72457    0.047
 6504.00    0.78814   0.73464    0.047
 6505.00    0.79015   0.74663    0.047
 6506.00    0.79124   0.75891    0.047
 6507.00    0.79178   0.77024    0.047
 6508.00    0.79773   0.77985    0.047
 6509.00    0.80643   0.78736    0.048
 6510.00    0.80823   0.79271    0.048
 6511.00    0.80696   0.79611    0.047
 6512.00    0.80537   0.79796    0.047
 6513.00    0.80365   0.79883    0.047
 6514.00    0.80427   0.79923    0.047
 6515.00    0.80566   0.79941    0.047
 6516.00    0.80256   0.79932    0.047
 6517.00    0.79825   0.79866    0.046
 6518.00    0.79610   0.79708    0.046
 6519.00    0.79442   0.79448    0.046
 6520.00    0.79257   0.79116    0.046
 6521.00    0.79068   0.78781    0.045
 6522.00    0.79505   0.78529    0.045
 6523.00    0.80026   0.78431    0.046
 6524.00    0.80145   0.78518    0.046
 6525.00    0.80225   0.78761    0.046
 6526.00    0.78912   0.79088    0.046
 6527.00    0.77516   0.79402    0.046
 6528.00    0.76983   0.79625    0.000
 6529.00    0.76484   0.79715    0.000
 6530.00    0.77753   0.79678    0.000
 6531.00    0.79020   0.79557    0.000
 6532.00    0.80235   0.79408    0.000
 6533.00    0.81308   0.79275    0.000
 6534.00    0.80488   0.79172    0.000
 6535.00    0.79682   0.79094    0.000
 6536.00    0.79011   0.79034    0.000
 6537.00    0.78622   0.79000    0.000
 6538.00    0.80095   0.79011    0.000
 6539.00    0.81346   0.79089    0.000
 6540.00    0.81474   0.79235    0.000
 6541.00    0.81469   0.79424    0.000
 6542.00    0.80918   0.79618    0.000
 6543.00    0.80435   0.79771    0.000
 6544.00    0.80180   0.79840    0.000
 6545.00    0.80179   0.79781    0.000
 6546.00    0.80906   0.79565    0.000
 6547.00    0.81564   0.79189    0.000
 6548.00    0.82054   0.78686    0.000
 6549.00    0.82238   0.78122    0.000
 6550.00    0.81773   0.77585    0.000
 6551.00    0.81179   0.77157    0.000
 6552.00    0.80351   0.76879    0.000
 6553.00    0.79517   0.76732    0.000
 6554.00    0.78677   0.76641    0.000
 6555.00    0.78035   0.76509    0.000
 6556.00    0.77671   0.76256    0.000
 6557.00    0.77543   0.75846    0.000
 6558.00    0.77709   0.75294    0.000
 6559.00    0.77834   0.74645    0.000
 6560.00    0.77915   0.73932    0.000
 6561.00    0.77827   0.73129    0.000
 6562.00    0.77575   0.72129    0.000
 6563.00    0.77421   0.70799    0.000
 6564.00    0.77351   0.69066    0.000
 6565.00    0.77222   0.67010    0.000
 6566.00    0.77048   0.64923    0.000
 6567.00    0.76545   0.63266    0.000
 6568.00    0.75824   0.62491    0.000
 6569.00    0.75454   0.62839    0.000
 6570.00    0.75286   0.64231    0.000
 6571.00    0.75354   0.66298    0.000
 6572.00    0.75543   0.68539    0.000
 6573.00    0.76520   0.70518    0.000
 6574.00    0.77841   0.71987    0.000
 6575.00    0.78315   0.72910    0.000
 6576.00    0.78472   0.73405    0.000
 6577.00    0.78129   0.73653    0.000
 6578.00    0.77628   0.73836    0.000
 6579.00    0.78270   0.74090    0.000
 6580.00    0.79215   0.74479    0.000
 6581.00    0.80749   0.74994    0.000
 6582.00    0.82411   0.75561    0.000
 6583.00    0.83542   0.76085    0.000
 6584.00    0.84581   0.76489    0.000
 6585.00    0.84311   0.76749    0.000
 6586.00    0.83870   0.76895    0.000
 6587.00    0.83002   0.76985    0.000
 6588.00    0.82095   0.77074    0.000
 6589.00    0.80342   0.77191    0.000
 6590.00    0.78542   0.77338    0.000
 6591.00    0.78136   0.77491    0.000
 6592.00    0.77759   0.77600    0.000
 6593.00    0.77268   0.77598    0.000
 6594.00    0.76787   0.77426    0.000
 6595.00    0.76541   0.77060    0.000
 6596.00    0.76369   0.76533    0.000
 6597.00    0.77131   0.75956    0.000
 6598.00    0.77878   0.75473    0.000
 6599.00    0.78494   0.75207    0.000
 6600.00    0.78885   0.75213    0.000
 6601.00    0.77838   0.75463    0.000
 6602.00    0.77050   0.75877    0.000
 6603.00    0.77553   0.76360    0.000
 6604.00    0.77944   0.76831    0.000
 6605.00    0.77889   0.77231    0.000
 6606.00    0.77699   0.77512    0.000
 6607.00    0.77060   0.77637    0.000
 6608.00    0.76624   0.77582    0.000
 6609.00    0.76763   0.77353    0.047
 6610.00    0.76988   0.77000    0.047
 6611.00    0.77423   0.76601    0.047
 6612.00    0.77809   0.76250    0.047
 6613.00    0.78093   0.76030    0.046
 6614.00    0.78594   0.75994    0.046
 6615.00    0.79489   0.76152    0.046
 6616.00    0.80096   0.76462    0.046
 6617.00    0.80249   0.76855    0.045
 6618.00    0.80058   0.77261    0.045
 6619.00    0.79389   0.77626    0.046
 6620.00    0.79090   0.77926    0.046
 6621.00    0.79243   0.78158    0.047
 6622.00    0.79473   0.78329    0.047
 6623.00    0.79786   0.78441    0.048
 6624.00    0.79789   0.78481    0.049
 6625.00    0.79496   0.78430    0.048
 6626.00    0.79147   0.78273    0.048
 6627.00    0.78750   0.78016    0.048
 6628.00    0.78237   0.77691    0.048
 6629.00    0.77638   0.77357    0.048
 6630.00    0.77497   0.77073    0.048
 6631.00    0.77654   0.76873    0.048
 6632.00    0.77749   0.76745    0.050
 6633.00    0.77809   0.76637    0.053
 6634.00    0.78088   0.76489    0.053
 6635.00    0.78474   0.76263    0.052
 6636.00    0.78183   0.75965    0.051
 6637.00    0.77602   0.75652    0.050
 6638.00    0.77026   0.75408    0.048
 6639.00    0.76452   0.75306    0.047
 6640.00    0.77418   0.75377    0.047
 6641.00    0.78862   0.75597    0.047
 6642.00    0.78999   0.75891    0.048
 6643.00    0.78797   0.76167    0.048
 6644.00    0.77831   0.76354    0.048
 6645.00    0.76704   0.76421    0.047
 6646.00    0.76540   0.76377    0.048
 6647.00    0.76537   0.76264    0.048
 6648.00    0.76637   0.76140    0.048
 6649.00    0.76750   0.76057    0.048
 6650.00    0.76596   0.76048    0.048
 6651.00    0.76419   0.76113    0.047
 6652.00    0.76614   0.76232    0.047
 6653.00    0.76828   0.76371    0.046
 6654.00    0.77341   0.76493    0.047
 6655.00    0.77849   0.76577    0.048
 6656.00    0.77655   0.76619    0.047
 6657.00    0.77444   0.76625    0.047
 6658.00    0.76857   0.76609    0.046
 6659.00    0.76219   0.76584    0.046
 6660.00    0.74972   0.76553    0.046
 6661.00    0.73879   0.76507    0.046
 6662.00    0.74058   0.76425    0.046
 6663.00    0.74233   0.76279    0.046
 6664.00    0.74381   0.76051    0.047
 6665.00    0.74528   0.75739    0.047
 6666.00    0.74670   0.75364    0.047
 6667.00    0.74770   0.74977    0.048
 6668.00    0.74704   0.74641    0.047
 6669.00    0.74676   0.74419    0.047
 6670.00    0.74771   0.74350    0.047
 6671.00    0.75075   0.74442    0.047
 6672.00    0.75959   0.74675    0.047
 6673.00    0.76627   0.75008    0.048
 6674.00    0.76781   0.75387    0.048
 6675.00    0.76888   0.75757    0.048
 6676.00    0.76897   0.76061    0.047
 6677.00    0.76876   0.76236    0.047
 6678.00    0.76801   0.76234    0.047
 6679.00    0.76582   0.76034    0.047
 6680.00    0.76139   0.75653    0.047
 6681.00    0.75922   0.75154    0.046
 6682.00    0.76017   0.74644    0.046
 6683.00    0.76339   0.74248    0.047
 6684.00    0.76935   0.74061    0.047
 6685.00    0.76979   0.74117    0.048
 6686.00    0.76434   0.74383    0.047
 6687.00    0.75973   0.74777    0.047
 6688.00    0.75589   0.75196    0.047
 6689.00    0.75530   0.75563    0.047
 6690.00    0.75741   0.75837    0.047
 6691.00    0.76384   0.76011    0.047
 6692.00    0.77344   0.76105    0.048
 6693.00    0.77712   0.76147    0.048
 6694.00    0.77702   0.76158    0.048
 6695.00    0.76983   0.76139    0.048
 6696.00    0.75866   0.76077    0.000
 6697.00    0.75587   0.75951    0.000
 6698.00    0.75717   0.75751    0.000
 6699.00    0.76467   0.75485    0.000
 6700.00    0.77478   0.75193    0.000
 6701.00    0.77020   0.74934    0.000
 6702.00    0.76033   0.74763    0.000
 6703.00    0.75203   0.74711    0.000
 6704.00    0.74420   0.74766    0.000
 6705.00    0.74516   0.74881    0.000
 6706.00    0.74834   0.74994    0.000
 6707.00    0.75551   0.75057    0.000
 6708.00    0.76349   0.75060    0.000
 6709.00    0.76261   0.75020    0.000
 6710.00    0.76029   0.74971    0.000
 6711.00    0.75728   0.74939    0.000
 6712.00    0.75418   0.74927    0.000
 6713.00    0.76394   0.74912    0.000
 6714.00    0.77476   0.74863    0.000
 6715.00    0.78108   0.74747    0.000
 6716.00    0.78718   0.74542    0.000
 6717.00    0.78453   0.74241    0.000
 6718.00    0.78161   0.73856    0.000
 6719.00    0.77104   0.73429    0.000
 6720.00    0.76045   0.73015    0.000
 6721.00    0.74964   0.72684    0.000
 6722.00    0.73918   0.72504    0.000
 6723.00    0.73282   0.72516    0.000
 6724.00    0.72716   0.72712    0.000
 6725.00    0.72711   0.73043    0.000
 6726.00    0.72856   0.73433    0.000
 6727.00    0.73905   0.73801    0.000
 6728.00    0.74988   0.74093    0.000
 6729.00    0.76231   0.74290    0.000
 6730.00    0.77252   0.74407    0.000
 6731.00    0.77412   0.74476    0.000
 6732.00    0.77579   0.74536    0.000
 6733.00    0.77771   0.74611    0.000
 6734.00    0.77516   0.74703    0.000
 6735.00    0.76038   0.74794    0.000
 6736.00    0.74775   0.74864    0.000
 6737.00    0.74014   0.74895    0.000
 6738.00    0.73568   0.74875    0.000
 6739.00    0.73756   0.74802    0.000
 6740.00    0.74546   0.74680    0.000
 6741.00    0.76396   0.74521    0.000
 6742.00    0.77065   0.74333    0.000
 6743.00    0.75917   0.74131    0.000
 6744.00    0.74912   0.73937    0.000
 6745.00    0.74102   0.73768    0.000
 6746.00    0.73560   0.73635    0.000
 6747.00    0.73335   0.73540    0.000
 6748.00    0.73008   0.73474    0.000
 6749.00    0.72575   0.73422    0.000
 6750.00    0.72093   0.73364    0.000
 6751.00    0.71566   0.73288    0.000
 6752.00    0.72474   0.73190    0.000
 6753.00    0.74554   0.73078    0.051
 6754.00    0.75103   0.72976    0.053
 6755.00    0.74552   0.72904    0.054
 6756.00    0.73358   0.72886    0.054
 6757.00    0.71760   0.72944    0.053
 6758.00    0.70838   0.73091    0.053
 6759.00    0.70290   0.73323    0.053
 6760.00    0.74108   0.73625    0.055
 6761.00    0.80018   0.73973    0.056
 6762.00    0.83339   0.74330    0.057
 6763.00    0.85588   0.74657    0.058
 6764.00    0.86112   0.74924    0.058
 6765.00    0.86027   0.75102    0.057
 6766.00    0.86247   0.75174    0.057
 6767.00    0.86558   0.75137    0.057
 6768.00    0.86928   0.74997    0.056
 6769.00    0.87313   0.74771    0.055
 6770.00    0.85731   0.74483    0.055
 6771.00    0.83754   0.74167    0.054
 6772.00    0.82527   0.73865    0.053
 6773.00    0.81417   0.73624    0.052
 6774.00    0.79806   0.73478    0.052
 6775.00    0.78137   0.73452    0.052
 6776.00    0.76346   0.73555    0.052
 6777.00    0.74546   0.73773    0.052
 6778.00    0.76916   0.74080    0.053
 6779.00    0.79469   0.74433    0.054
 6780.00    0.80014   0.74781    0.054
 6781.00    0.80502   0.75081    0.054
 6782.00    0.79263   0.75295    0.053
 6783.00    0.78109   0.75382    0.053
 6784.00    0.78505   0.75313    0.053
 6785.00    0.78892   0.75084    0.052
 6786.00    0.79174   0.74717    0.052
 6787.00    0.79364   0.74259    0.052
 6788.00    0.78857   0.73784    0.053
 6789.00    0.78514   0.73375    0.053
 6790.00    0.79129   0.73101    0.054
 6791.00    0.79630   0.73003    0.054
 6792.00    0.79604   0.73073    0.054
 6793.00    0.79717   0.73256    0.054
 6794.00    0.80361   0.73477    0.054
 6795.00    0.80470   0.73662    0.054
 6796.00    0.78890   0.73761    0.052
 6797.00    0.78021   0.73767    0.052
 6798.00    0.79056   0.73704    0.052
 6799.00    0.79394   0.73612    0.053
 6800.00    0.78130   0.73539    0.052
 6801.00    0.76868   0.73517    0.051
 6802.00    0.75613   0.73555    0.051
 6803.00    0.75066   0.73647    0.051
 6804.00    0.75745   0.73772    0.052
 6805.00    0.75738   0.73902    0.052
 6806.00    0.74690   0.74004    0.051
 6807.00    0.74248   0.74064    0.051
 6808.00    0.74614   0.74077    0.051
 6809.00    0.75335   0.74048    0.051
 6810.00    0.76473   0.73991    0.051
 6811.00    0.75910   0.73919    0.052
 6812.00    0.73587   0.73848    0.053
 6813.00    0.73435   0.73786    0.054
 6814.00    0.75266   0.73737    0.055
 6815.00    0.76187   0.73695    0.055
 6816.00    0.76377   0.73659    0.055
 6817.00    0.77137   0.73634    0.054
 6818.00    0.78301   0.73623    0.053
 6819.00    0.78187   0.73629    0.052
 6820.00    0.77280   0.73660    0.052
 6821.00    0.76573   0.73715    0.051
 6822.00    0.75974   0.73784    0.051
 6823.00    0.76424   0.73863    0.051
 6824.00    0.77368   0.73951    0.050
 6825.00    0.77357   0.74052    0.050
 6826.00    0.76958   0.74160    0.050
 6827.00    0.76503   0.74265    0.051
 6828.00    0.76028   0.74353    0.052
 6829.00    0.75736   0.74407    0.052
 6830.00    0.75497   0.74405    0.052
 6831.00    0.76362   0.74333    0.053
 6832.00    0.77493   0.74202    0.053
 6833.00    0.77421   0.74053    0.053
 6834.00    0.77114   0.73938    0.053
 6835.00    0.76642   0.73890    0.054
 6836.00    0.76144   0.73913    0.054
 6837.00    0.76628   0.73985    0.055
 6838.00    0.77223   0.74067    0.056
 6839.00    0.76864   0.74102    0.055
 6840.00    0.76434   0.74036    0.055
 6841.00    0.75044   0.73837    0.055
 6842.00    0.73615   0.73508    0.054
 6843.00    0.73125   0.73077    0.053
 6844.00    0.72717   0.72595    0.052
 6845.00    0.75359   0.72136    0.051
 6846.00    0.77827   0.71789    0.051
 6847.00    0.77351   0.71629    0.051
 6848.00    0.76864   0.71684    0.051
 6849.00    0.76258   0.71934    0.051
 6850.00    0.75820   0.72316    0.052
 6851.00    0.76625   0.72746    0.052
 6852.00    0.77303   0.73142    0.053
 6853.00    0.77266   0.73440    0.053
 6854.00    0.76996   0.73605    0.053
 6855.00    0.75668   0.73633    0.053
 6856.00    0.74576   0.73543    0.053
 6857.00    0.74355   0.73356    0.054
 6858.00    0.74183   0.73091    0.054
 6859.00    0.74163   0.72783    0.054
 6860.00    0.74189   0.72471    0.054
 6861.00    0.74332   0.72191    0.054
 6862.00    0.74110   0.71970    0.053
 6863.00    0.73061   0.71828    0.052
 6864.00    0.72748   0.71776    0.052
 6865.00    0.73879   0.71815    0.052
 6866.00    0.74802   0.71916    0.052
 6867.00    0.75369   0.72047    0.053
 6868.00    0.75013   0.72192    0.053
 6869.00    0.73274   0.72321    0.053
 6870.00    0.72535   0.72407    0.052
 6871.00    0.73111   0.72434    0.051
 6872.00    0.74152   0.72388    0.051
 6873.00    0.75733   0.72274    0.052
 6874.00    0.77179   0.72133    0.052
 6875.00    0.78487   0.72022    0.053
 6876.00    0.78118   0.71970    0.053
 6877.00    0.76239   0.71987    0.054
 6878.00    0.74634   0.72060    0.054
 6879.00    0.73247   0.72164    0.053
 6880.00    0.73034   0.72286    0.053
 6881.00    0.73638   0.72431    0.053
 6882.00    0.74410   0.72583    0.053
 6883.00    0.75282   0.72695    0.053
 6884.00    0.74525   0.72733    0.052
 6885.00    0.72897   0.72695    0.051
 6886.00    0.73584   0.72601    0.051
 6887.00    0.75344   0.72484    0.052
 6888.00    0.75916   0.72399    0.052
 6889.00    0.76014   0.72397    0.052
 6890.00    0.75483   0.72504    0.052
 6891.00    0.74737   0.72720    0.053
 6892.00    0.74363   0.73013    0.053
 6893.00    0.74095   0.73326    0.052
 6894.00    0.74386   0.73606    0.053
 6895.00    0.74809   0.73827    0.053
 6896.00    0.75435   0.73979    0.054
 6897.00    0.76100   0.74047    0.054
 6898.00    0.75615   0.74036    0.055
 6899.00    0.74959   0.73971    0.055
 6900.00    0.74574   0.73880    0.055
 6901.00    0.74217   0.73793    0.055
 6902.00    0.74699   0.73737    0.055
 6903.00    0.75241   0.73717    0.055
 6904.00    0.74980   0.73729    0.054
 6905.00    0.74691   0.73770    0.054
 6906.00    0.74374   0.73830    0.053
 6907.00    0.74057   0.73893    0.052
 6908.00    0.73731   0.73960    0.052
 6909.00    0.73457   0.74040    0.052
 6910.00    0.74017   0.74132    0.052
 6911.00    0.74456   0.74211    0.052
 6912.00    0.73697   0.74266    0.052
 6913.00    0.72925   0.74288    0.052
 6914.00    0.72060   0.74259    0.052
 6915.00    0.71501   0.74157    0.052
 6916.00    0.72628   0.73971    0.053
 6917.00    0.73255   0.73715    0.053
 6918.00    0.71679   0.73432    0.053
 6919.00    0.71039   0.73173    0.054
 6920.00    0.73790   0.72988    0.055
 6921.00    0.75450   0.72913    0.056
 6922.00    0.73796   0.72959    0.055
 6923.00    0.72902   0.73109    0.054
 6924.00    0.73973   0.73303    0.054
 6925.00    0.74505   0.73466    0.054
 6926.00    0.73838   0.73552    0.054
 6927.00    0.73386   0.73531    0.053
 6928.00    0.73350   0.73400    0.053
 6929.00    0.73300   0.73193    0.053
 6930.00    0.73226   0.72971    0.052
 6931.00    0.73277   0.72798    0.052
 6932.00    0.73510   0.72715    0.053
 6933.00    0.73538   0.72735    0.053
 6934.00    0.73300   0.72831    0.053
 6935.00    0.73353   0.72947    0.053
 6936.00    0.73737   0.73025    0.054
 6937.00    0.73769   0.73051    0.054
 6938.00    0.73446   0.73051    0.055
 6939.00    0.73013   0.73059    0.056
 6940.00    0.72484   0.73097    0.055
 6941.00    0.72295   0.73180    0.055
 6942.00    0.72372   0.73306    0.055
 6943.00    0.72267   0.73436    0.055
 6944.00    0.72036   0.73513    0.054
 6945.00    0.72512   0.73509    0.054
 6946.00    0.73415   0.73424    0.054
 6947.00    0.73003   0.73264    0.054
 6948.00    0.71900   0.73044    0.053
 6949.00    0.72238   0.72805    0.054
 6950.00    0.73234   0.72599    0.054
 6951.00    0.73277   0.72475    0.054
 6952.00    0.72944   0.72452    0.053
 6953.00    0.73631   0.72511    0.053
 6954.00    0.74659   0.72607    0.053
 6955.00    0.74934   0.72671    0.053
 6956.00    0.74997   0.72660    0.053
 6957.00    0.73977   0.72595    0.053
 6958.00    0.72706   0.72523    0.054
 6959.00    0.72603   0.72496    0.054
 6960.00    0.72715   0.72559    0.055
 6961.00    0.72818   0.72708    0.055
 6962.00    0.72920   0.72907    0.055
 6963.00    0.72969   0.73127    0.055
 6964.00    0.73012   0.73338    0.055
 6965.00    0.71987   0.73508    0.055
 6966.00    0.70890   0.73627    0.054
 6967.00    0.73418   0.73714    0.055
 6968.00    0.76061   0.73780    0.056
 6969.00    0.74298   0.73834    0.056
 6970.00    0.72630   0.73876    0.055
 6971.00    0.73851   0.73907    0.055
 6972.00    0.74960   0.73935    0.054
 6973.00    0.74406   0.73956    0.054
 6974.00    0.73736   0.73971    0.054
 6975.00    0.71944   0.73971    0.054
 6976.00    0.70374   0.73909    0.054
 6977.00    0.70343   0.73738    0.054
 6978.00    0.70516   0.73441    0.054
 6979.00    0.71785   0.73031    0.055
 6980.00    0.72840   0.72537    0.055
 6981.00    0.72975   0.71980    0.055
 6982.00    0.73157   0.71411    0.055
 6983.00    0.73506   0.70955    0.055
 6984.00    0.73568   0.70731    0.055
 6985.00    0.72773   0.70791    0.056
 6986.00    0.72210   0.71128    0.056
 6987.00    0.72236   0.71704    0.055
 6988.00    0.72752   0.72389    0.055
 6989.00    0.74341   0.72995    0.055
 6990.00    0.74480   0.73420    0.054
 6991.00    0.71866   0.73659    0.054
 6992.00    0.70484   0.73743    0.054
 6993.00    0.71141   0.73726    0.055
 6994.00    0.71567   0.73668    0.055
 6995.00    0.71659   0.73612    0.055
 6996.00    0.71813   0.73583    0.055
 6997.00    0.72044   0.73594    0.055
 6998.00    0.72185   0.73638    0.055
 6999.00    0.72224   0.73670    0.055
 7000.00    0.71288   0.73635    0.055
 7001.00    0.69385   0.73515    0.055
 7002.00    0.69699   0.73332    0.055
 7003.00    0.71955   0.73115    0.055
 7004.00    0.72703   0.72882    0.055
 7005.00    0.72290   0.72641    0.056
 7006.00    0.71136   0.72414    0.056
 7007.00    0.69482   0.72233    0.055
 7008.00    0.68985   0.72132    0.055
 7009.00    0.69175   0.72102    0.055
 7010.00    0.68767   0.72096    0.055
 7011.00    0.68048   0.72093    0.055
 7012.00    0.68039   0.72125    0.056
 7013.00    0.68348   0.72221    0.056
 7014.00    0.69317   0.72352    0.057
 7015.00    0.70539   0.72457    0.056
 7016.00    0.70116   0.72476    0.056
 7017.00    0.69152   0.72377    0.056
 7018.00    0.69649   0.72165    0.056
 7019.00    0.70546   0.71890    0.056
 7020.00    0.70978   0.71625    0.055
 7021.00    0.71304   0.71424    0.055
 7022.00    0.69984   0.71321    0.056
 7023.00    0.68366   0.71350    0.056
 7024.00    0.68370   0.71539    0.058
 7025.00    0.68598   0.71842    0.061
 7026.00    0.70495   0.72110    0.061
 7027.00    0.72557   0.72219    0.062
 7028.00    0.71460   0.72174    0.062
 7029.00    0.70166   0.72047    0.062
 7030.00    0.70564   0.71924    0.063
 7031.00    0.71007   0.71890    0.063
 7032.00    0.70936   0.71995    0.061
 7033.00    0.70834   0.72209    0.058
 7034.00    0.69919   0.72447    0.058
 7035.00    0.69035   0.72649    0.057
 7036.00    0.68591   0.72803    0.058
 7037.00    0.68242   0.72901    0.058
 7038.00    0.68768   0.72928    0.058
 7039.00    0.69269   0.72892    0.057
 7040.00    0.69604   0.72829    0.057
 7041.00    0.70032   0.72777    0.057
 7042.00    0.70948   0.72777    0.057
 7043.00    0.72028   0.72860    0.057
 7044.00    0.73805   0.73029    0.057
 7045.00    0.74761   0.73279    0.057
 7046.00    0.72864   0.73646    0.058
 7047.00    0.71244   0.74109    0.058
 7048.00    0.70431   0.74542    0.058
 7049.00    0.70200   0.74840    0.058
 7050.00    0.71421   0.74997   -2.000
 7051.00    0.72527   0.75053   -2.000
 7052.00    0.73386   0.75050   -2.000
 7053.00    0.74234   0.75006   -2.000
 7054.00    0.75062   0.74886   -2.000
 7055.00    0.75989   0.74617   -2.000
 7056.00    0.77080   0.74164   -2.000
 7057.00    0.77354   0.73560   -2.000
 7058.00    0.76460   0.72878   -2.000
 7059.00    0.75866   0.72201   -2.000
 7060.00    0.75652   0.71618   -2.000
 7061.00    0.76427   0.71199   -2.000
 7062.00    0.78299   0.70937   -2.000
 7063.00    0.80442   0.70773   -2.000
 7064.00    0.82851   0.70643   -2.000
 7065.00    0.82393   0.70504   -2.000
 7066.00    0.79462   0.70351   -2.000
 7067.00    0.76692   0.70222   -2.000
 7068.00    0.74045   0.70146   -2.000
 7069.00    0.73897   0.70096   -2.000
 7070.00    0.75417   0.70024   -2.000
 7071.00    0.77717   0.69918   -2.000
 7072.00    0.80473   0.69789   -2.000
 7073.00    0.81427   0.69671   -2.000
 7074.00    0.81461   0.69635   -2.000
 7075.00    0.81074   0.69743   -2.000
 7076.00    0.80501   0.70014   -2.000
 7077.00    0.79436   0.70396   -2.000
 7078.00    0.78184   0.70776   -2.000
 7079.00    0.78365   0.71072   -2.000
 7080.00    0.79008   0.71287   -2.000
 7081.00    0.79314   0.71442   -2.000
 7082.00    0.79529   0.71540   -2.000
 7083.00    0.78854   0.71577   -2.000
 7084.00    0.77983   0.71540   -2.000
 7085.00    0.76629   0.71401   -2.000
 7086.00    0.75191   0.71130   -2.000
 7087.00    0.75710   0.70719   -2.000
 7088.00    0.76491   0.70180   -2.000
 7089.00    0.76858   0.69540   -2.000
 7090.00    0.77186   0.68864   -2.000
 7091.00    0.75466   0.68250   -2.000
 7092.00    0.73626   0.67788   -2.000
 7093.00    0.72159   0.67487   -2.000
 7094.00    0.70720   0.67266   -2.000
 7095.00    0.71815   0.67086   -2.000
 7096.00    0.72836   0.66959   -2.000
 7097.00    0.72026   0.66894   -2.000
 7098.00    0.71130   0.66899   -2.000
 7099.00    0.69093   0.66971   -2.000
 7100.00    0.67111   0.67082   -2.000
 7101.00    0.65619   0.67237   -2.000
 7102.00    0.64496   0.67426   -2.000
 7103.00    0.65784   0.67631   -2.000
 7104.00    0.66959   0.67845   -2.000
 7105.00    0.67554   0.68050   -2.000
 7106.00    0.67873   0.68228   -2.000
 7107.00    0.67058   0.68339   -2.000
 7108.00    0.66491   0.68384   -2.000
 7109.00    0.66770   0.68389   -2.000
 7110.00    0.67558   0.68381   -2.000
 7111.00    0.69804   0.68361   -2.000
 7112.00    0.70349   0.68293   -2.000
 7113.00    0.66722   0.68149   -2.000
 7114.00    0.64378   0.67967   -2.000
 7115.00    0.64751   0.67814   -2.000
 7116.00    0.65877   0.67709   -2.000
 7117.00    0.68390   0.67637   -2.000
 7118.00    0.70361   0.67625   -2.000
 7119.00    0.71463   0.67713   -2.000
 7120.00    0.72827   0.67871   -2.000
 7121.00    0.74560   0.68026   -2.000
 7122.00    0.75124   0.68127   -2.000
 7123.00    0.74238   0.68172   -2.000
 7124.00    0.73476   0.68157   -2.000
 7125.00    0.72850   0.68088   -2.000
 7126.00    0.72553   0.67982   -2.000
 7127.00    0.72573   0.67855   -2.000
 7128.00    0.72525   0.67716   -2.000
 7129.00    0.72417   0.67564   -2.000
 7130.00    0.71842   0.67413   -2.000
 7131.00    0.70917   0.67232   -2.000
 7132.00    0.69155   0.66981   -2.000
 7133.00    0.66843   0.66706   -2.000
 7134.00    0.67625   0.66479   -2.000
 7135.00    0.70188   0.66323   -2.000
 7136.00    0.70383   0.66232   -2.000
 7137.00    0.69390   0.66234   -2.000
 7138.00    0.71710   0.66391   -2.000
 7139.00    0.75468   0.66696   -2.000
 7140.00    0.74882   0.67054   -2.000
 7141.00    0.72677   0.67383   -2.000
 7142.00    0.70216   0.67637   -2.000
 7143.00    0.67674   0.67809   -2.000
 7144.00    0.68613   0.67919   -2.000
 7145.00    0.70469   0.67953   -2.000
 7146.00    0.70113   0.67938   -2.000
 7147.00    0.69279   0.67926   -2.000
 7148.00    0.68656   0.67898   -2.000
 7149.00    0.68068   0.67799   -2.000
 7150.00    0.66784   0.67633   -2.000
 7151.00    0.65410   0.67432   -2.000
 7152.00    0.65846   0.67228   -2.000
 7153.00    0.66447   0.67056   -2.000
 7154.00    0.66182   0.66947   -2.000
 7155.00    0.65870   0.66959   -2.000
 7156.00    0.66830   0.67154   -2.000
 7157.00    0.67798   0.67477   -2.000
 7158.00    0.67029   0.67830   -2.000
 7159.00    0.66521   0.68162   -2.000
 7160.00    0.71939   0.68421   -2.000
 7161.00    0.76951   0.68567   -2.000
 7162.00    0.76855   0.68633   -2.000
 7163.00    0.76984   0.68662   -2.000
 7164.00    0.79036   0.68623   -2.000
 7165.00    0.80573   0.68455   -2.000
 7166.00    0.78851   0.68189   -2.000
 7167.00    0.77371   0.67902   -2.000
 7168.00    0.77090   0.67641   -2.000
 7169.00    0.76687   0.67409   -2.000
 7170.00    0.75795   0.67212   -2.000
 7171.00    0.74762   0.67125   -2.000
 7172.00    0.73257   0.67254   -2.000
 7173.00    0.72122   0.67603   -2.000
 7174.00    0.72032   0.68045   -2.000
 7175.00    0.72182   0.68445   -2.000
 7176.00    0.72911   0.68747   -2.000
 7177.00    0.72854   0.68963   -2.000
 7178.00    0.71162   0.69109   -2.000
 7179.00    0.69885   0.69159   -2.000
 7180.00    0.69360   0.69081   -2.000
 7181.00    0.68976   0.68884   -2.000
 7182.00    0.68816   0.68617   -2.000
 7183.00    0.68461   0.68356   -2.000
 7184.00    0.67836   0.68147   -2.000
 7185.00    0.67664   0.67958   -2.000
 7186.00    0.68048   0.67751   -2.000
 7187.00    0.68267   0.67568   -2.000
 7188.00    0.68308   0.67484   -2.000
 7189.00    0.68260   0.67494   -2.000
 7190.00    0.68130   0.67493   -2.000
 7191.00    0.67718   0.67380   -2.000
 7192.00    0.67071   0.67156   -2.000
 7193.00    0.67254   0.66880   -2.000
 7194.00    0.68049   0.66648   -2.000
 7195.00    0.67538   0.66551   -2.000
 7196.00    0.66181   0.66595   -2.000
 7197.00    0.65429   0.66730   -2.000
 7198.00    0.65021   0.66894   -2.000
 7199.00    0.65255   0.67048   -2.000
 7200.00    0.65805   0.67209   -2.000
 7201.00    0.68824   0.67392   -2.000
 7202.00    0.72897   0.67551   -2.000
 7203.00    0.72843   0.67652   -2.000
 7204.00    0.71281   0.67739   -2.000
 7205.00    0.68503   0.67848   -2.000
 7206.00    0.65349   0.67937   -2.000
 7207.00    0.64714   0.67952   -2.000
 7208.00    0.64728   0.67894   -2.000
 7209.00    0.53583   0.67798   -2.000
 7210.00    0.40092   0.67677   -2.000
 7211.00    0.55803   0.67504   -2.000
 7212.00    0.76363   0.67258   -2.000
 7213.00    0.77903   0.67004   -2.000
 7214.00    0.77067   0.66884   -2.000
 7215.00    0.78173   0.66973   -2.000
 7216.00    0.79447   0.67211   -2.000
 7217.00    0.76940   0.67493   -2.000
 7218.00    0.74241   0.67726   -2.000
