###################################################################
## OUTPUT of StarlightChains_v04.for    [Cid@UFSC - 01/Apr/2007] ##
###################################################################

## Some input info
KUG0210-078._35_31.txt                   [arq_obs]
Base.CB07.vall.4m                        [arq_base]
Masks.EmLines.NEW.gm                     [arq_masks]
StCv04.C11.config                        [arq_config]
   66                                    [N_base]
    0                                    [N_YAV_components = # of components with extra extinction!]
    0                                    [i_FitPowerLaw (1/0 = Yes/No)]
-9.99                                    [alpha_PowerLaw]
CCM                                      [red_law_option]
 1.458241                                [q_norm = A(l_norm)/A(V)]

## (Re)Sampling Parameters
 3741.00                                 [l_ini (A)]
 7218.00                                 [l_fin (A)]
    1.00                                 [dl    (A)]     (OBS: dl_cushion =    50.00 A)

## Normalization info
 4020.00                                 [l_norm (A) - for base]
 4010.00                                 [llow_norm (A) - window for f_obs]
 4060.00                                 [lupp_norm (A) - window for f_obs]
4.966102E-17                             [fobs_norm (in input units)]

## S/N
 3691.00                                 [llow_SN (A) - window for S/N]
 7268.00                                 [lupp_SN (A) - window for S/N]
   3.659                                 [S/N in S/N window]
   2.699                                 [S/N in norm. window]
   0.117                                 [S/N_err in S/N window]
   0.087                                 [S/N_err in norm. window]
  1.0000                                 [fscale_chi2]

## etc...
    -2007566                             [idum_orig]
  2429                                   [NOl_eff]
  2361                                   [Nl_eff]
    68    NSIGMA                         [Ntot_cliped & clip_method]
  9978780                                [Nglobal_steps]
   7                                     [N_chains]
   9                                     [NEX0s_base = N_base in EX0s-fits]
 0   0   1       68   2.0   1.750E+04    [Clip-Bug, RC-Crash & Burn-In warning-flags, n_censored_weights, wei_nsig_threshold & wei_limit]
    58     56.909     56.298      0.612  [idt_all, wdt_TotTime, wdt_UsrTime & wdt_SysTime (sec)]

## Synthesis Results - Best model ##

 2.03219E-04                             [chi2/Nl_eff]
    12.59019                             [adev (%)]

   130.00000                             [sum-of-x (%)]
 1.68524E-17                             [Flux_tot (units of input spectrum!)]
 3.02361E-12                             [Mini_tot (???)]
 1.50346E-12                             [Mcor_tot (???)]

 -53.17                                  [v0_min  (km/s)]
 267.54                                  [vd_min  (km/s)]
-1.0000                                  [AV_min  (mag)]
 0.0000                                  [YAV_min (mag)]

# j     x_j(%)      Mini_j(%)     Mcor_j(%)     age_j(yr)     Z_j      (L/M)_j    YAV?  Mstars   component_j        a/Fe...       SSP_chi2r SSP_adev(%)   SSP_AV   SSP_x(%)
  1      0.0000     0.0000E+00    0.0000E+00    1.000000E+06  0.00400  1.094E-02    0   1.0000   age020_m42            0.0000     1.0191E-03    26.5850   3.5254   108.3122
  2      0.0000     0.0000E+00    0.0000E+00    3.160000E+06  0.00400  4.007E-02    0   0.9999   age045_m42            0.0000     9.3954E-04    25.5818   2.7968   115.7249
  3      0.0000     0.0000E+00    0.0000E+00    5.010000E+06  0.00400  2.539E-02    0   0.9488   age055_m42            0.0000     9.8651E-04    26.1276   3.1226   112.6698
  4      0.0000     0.0000E+00    0.0000E+00    6.610000E+06  0.00400  2.620E-02    0   0.9220   age061_m42            0.0000     9.5477E-04    25.7360   2.7288   115.6509
  5      0.0000     0.0000E+00    0.0000E+00    1.000000E+07  0.00400  1.322E-02    0   0.8862   age070_m42            0.0000     1.0804E-03    27.7636   2.4583   117.1879
  6      0.0000     0.0000E+00    0.0000E+00    1.445000E+07  0.00400  7.883E-03    0   0.8571   age078_m42            0.0000     1.0896E-03    27.7932   2.7827   114.3898
  7      0.0000     0.0000E+00    0.0000E+00    2.512000E+07  0.00400  5.251E-03    0   0.8174   age090_m42            0.0000     1.0991E-03    28.0834   2.3296   117.7281
  8      0.0000     0.0000E+00    0.0000E+00    4.000000E+07  0.00400  3.649E-03    0   0.7851   age104_m42            0.0000     1.0613E-03    27.6197   2.0984   118.9649
  9      0.0000     0.0000E+00    0.0000E+00    5.500000E+07  0.00400  3.098E-03    0   0.7629   age110_m42            0.0000     9.9350E-04    26.5203   2.2455   119.4107
 10      0.0000     0.0000E+00    0.0000E+00    1.015200E+08  0.00400  2.228E-03    0   0.7207   age116_m42            0.0000     9.5146E-04    25.7784   2.2624   119.8569
 11      0.0000     0.0000E+00    0.0000E+00    2.861200E+08  0.00400  1.093E-03    0   0.6648   age125_m42            0.0000     9.7530E-04    26.1417   1.6864   123.3049
 12      0.0000     0.0000E+00    0.0000E+00    5.088000E+08  0.00400  6.597E-04    0   0.6365   age130_m42            0.0000     8.8251E-04    24.7232   1.6667   125.1206
 13      0.0000     0.0000E+00    0.0000E+00    1.434000E+09  0.00400  2.132E-04    0   0.5798   age139_m42            0.0000     7.4270E-04    23.2332   0.6846   128.6859
 14      0.0000     0.0000E+00    0.0000E+00    4.250000E+09  0.00400  5.895E-05    0   0.5377   age158_m42            0.0000     6.3040E-04    21.4195   0.2282   124.9841
 15      0.0000     0.0000E+00    0.0000E+00    7.500000E+09  0.00400  3.510E-05    0   0.5212   age171_m42            0.0000     5.7704E-04    20.4489   0.0291   124.8237
 16      0.0000     0.0000E+00    0.0000E+00    1.300000E+10  0.00400  2.005E-05    0   0.5034   age193_m42            0.0000     5.3433E-04    19.5790  -0.1478   124.7947
 17      0.0000     0.0000E+00    0.0000E+00    1.800000E+10  0.00400  1.525E-05    0   0.4967   age213_m42            0.0000     5.4656E-04    19.7992  -0.1696   124.1492
 18      0.0000     0.0000E+00    0.0000E+00    1.000000E+06  0.00800  1.238E-02    0   1.0000   age020_m52            0.0000     1.0201E-03    26.5911   3.5218   108.5218
 19      0.0000     0.0000E+00    0.0000E+00    3.160000E+06  0.00800  3.074E-02    0   0.9966   age045_m52            0.0000     1.0141E-03    26.5091   3.4487   109.3641
 20      0.0000     0.0000E+00    0.0000E+00    5.010000E+06  0.00800  2.668E-02    0   0.9443   age055_m52            0.0000     1.0025E-03    26.3713   3.2077   111.5628
 21      0.0000     0.0000E+00    0.0000E+00    6.610000E+06  0.00800  2.136E-02    0   0.9177   age061_m52            0.0000     1.0144E-03    27.2372   1.9527   119.1330
 22      0.0000     0.0000E+00    0.0000E+00    1.000000E+07  0.00800  1.215E-02    0   0.8827   age070_m52            0.0000     1.1374E-03    28.5368   2.6379   116.7165
 23      0.0000     0.0000E+00    0.0000E+00    1.445000E+07  0.00800  8.717E-03    0   0.8552   age078_m52            0.0000     1.0863E-03    27.8188   2.7480   115.9674
 24      0.0000     0.0000E+00    0.0000E+00    2.512000E+07  0.00800  5.592E-03    0   0.8162   age090_m52            0.0000     1.1045E-03    28.1773   2.3903   119.1632
 25      0.0000     0.0000E+00    0.0000E+00    4.000000E+07  0.00800  3.896E-03    0   0.7841   age104_m52            0.0000     1.0569E-03    27.5132   2.2980   120.3473
 26      0.0000     0.0000E+00    0.0000E+00    1.015200E+08  0.00800  2.148E-03    0   0.7226   age116_m52            0.0000     9.7845E-04    26.2979   2.2336   120.4939
 27      0.0000     0.0000E+00    0.0000E+00    2.861200E+08  0.00800  9.925E-04    0   0.6683   age125_m52            0.0000     8.8238E-04    24.7465   1.7316   126.2608
 28      0.0000     0.0000E+00    0.0000E+00    9.047900E+08  0.00800  3.141E-04    0   0.6138   age135_m52            0.0000     6.7962E-04    22.0045   0.8988   133.8378
 29      0.0000     0.0000E+00    0.0000E+00    1.434000E+09  0.00800  1.719E-04    0   0.5853   age139_m52            0.0000     6.5444E-04    21.8384   0.3180   131.2032
 30      0.0000     0.0000E+00    0.0000E+00    2.500000E+09  0.00800  7.872E-05    0   0.5600   age150_m52            0.0000     5.3781E-04    19.8781   0.0383   128.8885
 31      0.0000     0.0000E+00    0.0000E+00    4.250000E+09  0.00800  4.336E-05    0   0.5426   age158_m52            0.0000     5.3150E-04    19.6999   0.0209   127.8387
 32      0.0000     0.0000E+00    0.0000E+00    6.250000E+09  0.00800  3.159E-05    0   0.5319   age166_m52            0.0000     4.6238E-04    18.3428  -0.1961   128.7639
 33      0.0000     0.0000E+00    0.0000E+00    1.300000E+10  0.00800  1.361E-05    0   0.5073   age193_m52            0.0000     3.7808E-04    16.5277  -0.6850   129.2417
 34      0.0000     0.0000E+00    0.0000E+00    1.800000E+10  0.00800  9.886E-06    0   0.4990   age213_m52            0.0000     3.2124E-04    15.1505  -0.8103   129.6365
 35      0.0000     0.0000E+00    0.0000E+00    1.000000E+06  0.02000  1.544E-02    0   1.0000   age020_m62            0.0000     1.0247E-03    26.6514   3.5204   108.6778
 36      0.0000     0.0000E+00    0.0000E+00    3.160000E+06  0.02000  3.762E-02    0   0.9858   age045_m62            0.0000     1.0240E-03    26.5816   3.4582   109.6760
 37      0.0000     0.0000E+00    0.0000E+00    5.010000E+06  0.02000  3.296E-02    0   0.9342   age055_m62            0.0000     9.6294E-04    25.7590   3.0835   114.0379
 38      0.0000     0.0000E+00    0.0000E+00    8.710000E+06  0.02000  1.154E-02    0   0.8861   age067_m62            0.0000     1.4670E-03    32.9685   2.0961   118.6510
 39      0.0000     0.0000E+00    0.0000E+00    1.445000E+07  0.02000  7.663E-03    0   0.8472   age078_m62            0.0000     1.2128E-03    29.7122   2.2779   119.2854
 40      0.0000     0.0000E+00    0.0000E+00    2.512000E+07  0.02000  4.532E-03    0   0.8099   age090_m62            0.0000     1.2375E-03    29.9587   2.2728   118.6651
 41      0.0000     0.0000E+00    0.0000E+00    5.500000E+07  0.02000  2.733E-03    0   0.7595   age110_m62            0.0000     1.0616E-03    27.5891   2.2852   119.3000
 42      0.0000     0.0000E+00    0.0000E+00    1.609000E+08  0.02000  1.369E-03    0   0.6985   age120_m62            0.0000     9.5161E-04    25.8113   2.1130   123.2875
 43      0.0000     0.0000E+00    0.0000E+00    2.861200E+08  0.02000  9.013E-04    0   0.6714   age125_m62            0.0000     8.7112E-04    24.6167   1.8499   127.6774
 44      0.0000     0.0000E+00    0.0000E+00    5.088000E+08  0.02000  5.028E-04    0   0.6449   age130_m62            0.0000     7.1189E-04    22.2718   1.4429   133.0480
 45      0.0000     0.0000E+00    0.0000E+00    9.047900E+08  0.02000  2.428E-04    0   0.6179   age135_m62            0.0000     6.0378E-04    20.9472   0.8413   133.3639
 46      0.0000     0.0000E+00    0.0000E+00    1.434000E+09  0.02000  1.263E-04    0   0.5908   age139_m62            0.0000     5.5719E-04    20.2690   0.3920   131.8933
 47      0.0000     0.0000E+00    0.0000E+00    2.500000E+09  0.02000  5.985E-05    0   0.5673   age150_m62            0.0000     4.6847E-04    18.5388   0.0093   131.3019
 48      0.0000     0.0000E+00    0.0000E+00    4.250000E+09  0.02000  3.271E-05    0   0.5468   age158_m62            0.0000     3.7130E-04    16.4715  -0.3188   131.6777
 49      0.0000     0.0000E+00    0.0000E+00    1.000000E+10  0.02000  1.360E-05    0   0.5167   age181_m62            0.0000     2.7563E-04    14.1309  -0.6993   133.0603
 50     66.9647     4.0301E+01    4.0630E+01    1.800000E+10  0.02000  7.124E-06    0   0.5013   age213_m62            0.0000     2.1934E-04    12.5103  -0.9330   133.3984
 51      0.0000     0.0000E+00    0.0000E+00    1.000000E+06  0.05000  2.592E-02    0   0.9998   age020_m72            0.0000     1.0405E-03    26.8776   3.5144   108.5986
 52      0.0000     0.0000E+00    0.0000E+00    3.160000E+06  0.05000  4.845E-02    0   0.9577   age045_m72            0.0000     9.9496E-04    26.1635   3.3445   110.9876
 53      0.0000     0.0000E+00    0.0000E+00    5.010000E+06  0.05000  3.072E-02    0   0.9147   age055_m72            0.0000     1.1556E-03    28.6007   2.8530   115.3136
 54      0.0000     0.0000E+00    0.0000E+00    6.610000E+06  0.05000  1.455E-02    0   0.8877   age061_m72            0.0000     1.7196E-03    35.2451   2.1080   119.4652
 55      0.0000     0.0000E+00    0.0000E+00    1.000000E+07  0.05000  9.074E-03    0   0.8524   age070_m72            0.0000     1.2093E-03    28.8875   3.0074   115.4126
 56      0.0000     0.0000E+00    0.0000E+00    2.512000E+07  0.05000  4.250E-03    0   0.7902   age090_m72            0.0000     1.1594E-03    28.5032   2.7288   117.0619
 57      0.0000     0.0000E+00    0.0000E+00    4.000000E+07  0.05000  3.087E-03    0   0.7618   age104_m72            0.0000     1.1717E-03    28.6907   2.5049   118.7448
 58      0.0000     0.0000E+00    0.0000E+00    1.015200E+08  0.05000  1.700E-03    0   0.7096   age116_m72            0.0000     1.0180E-03    26.6853   2.2564   122.3992
 59      0.0000     0.0000E+00    0.0000E+00    2.861200E+08  0.05000  7.384E-04    0   0.6633   age125_m72            0.0000     7.8310E-04    23.4147   1.7020   130.4906
 60      0.0000     0.0000E+00    0.0000E+00    5.088000E+08  0.05000  3.819E-04    0   0.6372   age130_m72            0.0000     6.3283E-04    21.4190   1.1907   134.2059
 61      0.0000     0.0000E+00    0.0000E+00    9.047900E+08  0.05000  1.676E-04    0   0.6110   age135_m72            0.0000     4.8254E-04    18.9753   0.4722   133.6293
 62      0.0000     0.0000E+00    0.0000E+00    1.434000E+09  0.05000  8.837E-05    0   0.5874   age139_m72            0.0000     4.4889E-04    18.1835   0.0005   133.6924
 63      0.0000     0.0000E+00    0.0000E+00    2.500000E+09  0.05000  4.233E-05    0   0.5598   age150_m72            0.0000     3.4005E-04    15.7757  -0.3324   133.6135
 64      0.0000     0.0000E+00    0.0000E+00    6.250000E+09  0.05000  1.435E-05    0   0.5249   age166_m72            0.0000     2.5467E-04    13.7051  -0.8053   133.0922
 65      0.0000     0.0000E+00    0.0000E+00    1.300000E+10  0.05000  6.513E-06    0   0.5036   age193_m72            0.0000     2.0515E-04    12.7752  -1.0000   131.2707
 66     63.0353     5.9699E+01    5.9370E+01    1.800000E+10  0.05000  4.527E-06    0   0.4945   age213_m72            0.0000     2.2983E-04    13.7906  -1.0000   124.4516


## Synthesis Results - Average & Chains ##

# j      x_j: min, <> & last-chain-values for 1 ...  7 chains
  1      0.0000      0.6544      0.0688      0.0000      0.0000      0.0000      0.0000      0.0173      0.8850
  2      0.0000      0.8338      0.0425      0.0000      0.7067      0.3490      0.2061      0.7588      0.0000
  3      0.0000      0.7162      0.0000      0.0000      0.3030      0.2636      0.2806      0.0000      0.4196
  4      0.0000      0.5713      0.2758      0.0000      0.9889      0.0000      0.4514      1.0844      0.0000
  5      0.0000      0.6462      0.4904      0.0197      0.1476      0.3488      0.0000      0.2459      1.0999
  6      0.0000      0.4553      0.0832      0.0140      0.0000      0.5039      0.0637      0.0000      0.0518
  7      0.0000      0.5894      0.0000      0.2360      0.7863      0.0065      0.0228      0.1241      0.0907
  8      0.0000      0.4347      0.0963      0.1537      0.2419      0.1445      0.0000      0.4238      0.4854
  9      0.0000      0.6535      0.0000      0.0204      0.0000      0.0404      0.2454      0.0339      0.1654
 10      0.0000      0.5948      0.5144      0.0577      0.3895      0.0000      0.1862      0.0166      0.0513
 11      0.0000      0.3690      0.1264      0.0000      0.0000      0.3054      0.0000      0.0000      0.0000
 12      0.0000      0.4915      0.3694      0.0483      0.2834      0.1652      0.2224      0.7730      0.1844
 13      0.0000      0.5480      0.2423      0.0000      0.0451      0.0215      0.0000      0.2304      0.4189
 14      0.0000      0.4736      0.0548      0.0000      0.2799      0.0943      0.2128      0.0000      0.0000
 15      0.0000      0.5500      0.0000      0.6328      0.1810      0.3691      0.1378      0.2468      0.0000
 16      0.0000      0.6558      0.0000      0.0000      0.3238      0.8536      0.1975      0.0562      0.5403
 17      0.0000      0.4409      0.2457      0.0265      0.0201      0.0766      0.1786      0.0000      0.4643
 18      0.0000      0.6028      0.0000      0.1668      0.0281      0.0228      0.0175      0.4030      0.0000
 19      0.0000      0.5660      0.0000      0.1193      0.0822      0.3060      0.0000      0.2734      0.0000
 20      0.0000      0.4119      0.0000      0.0407      0.2061      0.6015      0.2813      0.0589      0.0000
 21      0.0000      0.5317      0.5919      0.0464      0.3041      0.5529      0.1850      0.2822      0.0000
 22      0.0000      0.6490      0.0763      0.0000      0.2795      0.2679      0.6318      0.1237      0.1952
 23      0.0000      0.4189      0.1888      0.1594      0.1355      0.1517      0.3762      0.8869      0.0000
 24      0.0000      0.4180      0.0351      0.0445      0.1010      0.0000      0.2615      0.1298      0.7679
 25      0.0000      0.4623      0.0000      0.0000      0.1316      0.0290      0.0071      0.6727      0.0308
 26      0.0000      0.3911      0.0000      0.0000      0.0323      0.0665      0.0000      0.5914      0.0000
 27      0.0000      0.6094      0.1203      0.0000      1.0179      0.2875      0.5471      0.0348      0.2729
 28      0.0000      0.6476      0.7820      0.0412      0.4609      0.5076      0.0342      0.0000      0.2233
 29      0.0000      0.5937      0.1074      0.1100      0.0000      0.0885      0.1235      0.0000      0.2636
 30      0.0000      0.5338      0.1241      0.0640      0.1294      0.2850      0.3600      0.4624      0.2722
 31      0.0000      0.6908      0.0000      0.0000      0.2530      0.0034      0.0000      0.0590      0.0205
 32      0.0000      0.5048      0.0700      0.1687      0.2636      0.0000      0.0007      0.0000      0.0040
 33      0.0000      0.5726      0.8594      0.0000      0.0000      0.3683      0.4102      0.1473      0.0265
 34      0.0000      0.6347      0.0000      0.0717      0.0000      0.1529      0.6949      0.2340      0.6030
 35      0.0000      0.5202      0.0000      0.0434      0.0114      0.0000      0.2135      0.0467      0.0208
 36      0.0000      0.6519      0.1582      0.0000      0.3066      0.0000      0.3307      0.4056      0.1593
 37      0.0000      0.5236      0.0454      0.1494      0.0000      0.0000      0.1985      0.0000      0.2128
 38      0.0000      0.4455      0.0549      0.1005      0.0000      0.1991      0.1536      0.2651      0.0029
 39      0.0000      0.6356      0.0000      0.0265      0.0491      0.4320      0.0000      0.0000      0.9197
 40      0.0000      0.7253      0.0000      0.0584      0.0000      0.2498      0.3284      0.0000      0.0000
 41      0.0000      0.5334      0.1164      0.0112      0.0000      0.0842      0.3236      0.4200      0.0879
 42      0.0000      0.7411      0.0000      0.0000      0.4878      0.3060      0.2860      0.0000      0.0000
 43      0.0000      0.5892      0.4859      0.0742      0.3598      0.0712      0.1109      0.8250      0.4297
 44      0.0000      0.4799      0.9690      0.2689      0.1100      0.3671      0.4970      0.0856      0.0113
 45      0.0000      0.6378      0.2480      0.0000      0.3844      0.2598      0.0000      0.2917      0.0548
 46      0.0000      0.6711      0.8510      0.0000      0.0623      0.5982      0.1941      0.0000      0.3251
 47      0.0000      0.9025      1.1428      0.0501      0.0000      0.0000      1.1555      0.6658      0.0437
 48      0.0000      0.7135      0.5228      0.0953      0.0933      0.0832      0.0073      0.1228      0.3688
 49      0.0000      0.6999      0.1289      0.0144      0.1519      0.0833      0.5212      0.0671      0.2219
 50     66.9647      6.6547      6.8912      6.7599      6.6967      7.2588      6.9140     12.7890      7.3860
 51      0.0000      0.6025      0.0445      0.2847      0.0000      0.3733      0.4534      0.0907      0.0000
 52      0.0000      0.5911      0.0137      0.1775      0.1871      0.0329      0.2158      0.0246      0.0000
 53      0.0000      0.4348      0.2998      0.0000      0.2010      0.0000      0.0000      0.1915      0.2743
 54      0.0000      0.9279      0.3004      0.0247      0.0830      0.1563      0.3332      0.0000      0.8260
 55      0.0000      0.5678      0.0000      0.0254      0.0959      0.0000      0.1313      0.0000      0.0904
 56      0.0000      0.5894      0.1631      0.2366      0.0350      0.0368      0.3978      0.0000      0.2993
 57      0.0000      0.5562      0.0378      0.0000      0.0000      0.0496      0.1926      0.0008      0.0000
 58      0.0000      0.7013      0.6555      0.0318      0.0000      0.9522      0.0445      0.8950      0.0251
 59      0.0000      0.4712      0.3944      0.0243      0.0000      0.0000      0.0902      0.0408      0.0000
 60      0.0000      0.6835      0.0000      0.0000      0.0626      1.0718      0.2342      0.0000      0.1433
 61      0.0000      0.6025      0.0000      0.0886      0.1051      0.4810      0.0000      0.2295      0.3140
 62      0.0000      0.5733      0.6415      0.0010      0.1654      0.1956      0.3053      0.3264      0.0000
 63      0.0000      0.7452      0.0000      0.1019      0.6810      0.1362      0.1687      0.1311      0.1619
 64      0.0000      0.6160      0.1269      0.0709      0.4443      0.0971      0.2627      0.2638      0.4902
 65      0.0000      0.7095      0.5573      0.0000      0.0716      0.2664      0.2826      0.2072      0.0000
 66     63.0353     67.9867     91.7246    101.7761     94.5928     91.3187     92.0340     84.1146     91.3444

# j      m_j: min, <> & last-chain-values for 1 ...  7 chains
  1  0.0000E+00  7.3228E-04  5.9117E-05  0.0000E+00  0.0000E+00  0.0000E+00  0.0000E+00  1.5526E-05  7.6302E-04
  2  0.0000E+00  2.5472E-04  9.9821E-06  0.0000E+00  1.6223E-04  8.2308E-05  4.8169E-05  1.8636E-04  0.0000E+00
  3  0.0000E+00  3.2764E-04  0.0000E+00  0.0000E+00  1.0416E-04  9.3091E-05  9.8210E-05  0.0000E+00  1.4790E-04
  4  0.0000E+00  2.4611E-04  9.1280E-05  0.0000E+00  3.2014E-04  0.0000E+00  1.4876E-04  3.7560E-04  0.0000E+00
  5  0.0000E+00  5.3032E-04  3.0913E-04  1.1365E-05  9.1023E-05  2.2097E-04  0.0000E+00  1.6224E-04  6.9545E-04
  6  0.0000E+00  6.0597E-04  8.5027E-05  1.3095E-05  0.0000E+00  5.1771E-04  6.4886E-05  0.0000E+00  5.3161E-05
  7  0.0000E+00  1.1231E-03  0.0000E+00  3.1618E-04  1.1260E-03  9.5900E-06  3.3287E-05  1.9018E-04  1.3322E-04
  8  0.0000E+00  1.1450E-03  1.9477E-04  2.8461E-04  4.7875E-04  2.9386E-04  0.0000E+00  8.9755E-04  9.8502E-04
  9  0.0000E+00  1.9700E-03  0.0000E+00  4.3289E-05  0.0000E+00  9.3926E-05  5.6585E-04  8.2262E-05  3.8417E-04
 10  0.0000E+00  2.3552E-03  1.5648E-03  1.6054E-04  1.1592E-03  0.0000E+00  5.6392E-04  5.2865E-05  1.5666E-04
 11  0.0000E+00  2.7475E-03  7.2307E-04  0.0000E+00  0.0000E+00  1.7555E-03  0.0000E+00  0.0000E+00  0.0000E+00
 12  0.0000E+00  5.8050E-03  3.3520E-03  4.0140E-04  2.5151E-03  1.5064E-03  2.0094E-03  7.3409E-03  1.6782E-03
 13  0.0000E+00  1.8243E-02  6.1965E-03  0.0000E+00  1.1289E-03  5.5224E-04  0.0000E+00  6.1658E-03  1.0746E-02
 14  0.0000E+00  5.2884E-02  4.7028E-03  0.0000E+00  2.3490E-02  8.1276E-03  1.8180E-02  0.0000E+00  0.0000E+00
 15  0.0000E+00  9.9981E-02  0.0000E+00  8.0875E-02  2.4729E-02  5.1801E-02  1.9168E-02  3.6065E-02  0.0000E+00
 16  0.0000E+00  2.0157E-01  0.0000E+00  0.0000E+00  7.4797E-02  2.0253E-01  4.6432E-02  1.3879E-02  1.2795E-01
 17  0.0000E+00  1.7581E-01  7.5242E-02  7.4350E-03  6.0100E-03  2.3562E-02  5.4472E-02  0.0000E+00  1.4264E-01
 18  0.0000E+00  5.9608E-04  0.0000E+00  1.1597E-04  2.0860E-05  1.7371E-05  1.3220E-05  3.2038E-04  0.0000E+00
 19  0.0000E+00  2.2466E-04  0.0000E+00  3.3297E-05  2.4516E-05  9.3740E-05  0.0000E+00  8.7251E-05  0.0000E+00
 20  0.0000E+00  1.7847E-04  0.0000E+00  1.2408E-05  6.7092E-05  2.0119E-04  9.3235E-05  2.0519E-05  0.0000E+00
 21  0.0000E+00  2.7963E-04  2.3916E-04  1.7168E-05  1.2018E-04  2.2450E-04  7.4452E-05  1.1935E-04  0.0000E+00
 22  0.0000E+00  5.7717E-04  5.2125E-05  0.0000E+00  1.8680E-04  1.8391E-04  4.2983E-04  8.8429E-05  1.3375E-04
 23  0.0000E+00  5.0310E-04  1.7417E-04  1.3459E-04  1.2228E-04  1.4063E-04  3.4565E-04  8.5639E-04  0.0000E+00
 24  0.0000E+00  7.4693E-04  4.8151E-05  5.5888E-05  1.3558E-04  0.0000E+00  3.5750E-04  1.8641E-04  1.0572E-03
 25  0.0000E+00  1.1391E-03  0.0000E+00  0.0000E+00  2.4364E-04  5.5174E-05  1.3325E-05  1.3325E-03  5.8388E-05
 26  0.0000E+00  1.6106E-03  0.0000E+00  0.0000E+00  1.0001E-04  2.1156E-04  0.0000E+00  1.9582E-03  0.0000E+00
 27  0.0000E+00  5.0237E-03  7.6198E-04  0.0000E+00  6.3048E-03  1.8292E-03  3.4497E-03  2.3072E-04  1.7330E-03
 28  0.0000E+00  1.5492E-02  1.4371E-02  6.9328E-04  8.2849E-03  9.3744E-03  6.2644E-04  0.0000E+00  4.1167E-03
 29  0.0000E+00  2.4746E-02  3.4398E-03  3.2248E-03  0.0000E+00  2.8465E-03  3.9377E-03  0.0000E+00  8.4663E-03
 30  0.0000E+00  4.6486E-02  8.3051E-03  3.9179E-03  8.4676E-03  1.9163E-02  2.3984E-02  3.2375E-02  1.8265E-02
 31  0.0000E+00  1.0583E-01  0.0000E+00  0.0000E+00  2.9124E-02  4.0013E-04  0.0000E+00  7.2655E-03  2.4165E-03
 32  0.0000E+00  1.0406E-01  1.1082E-02  2.4443E-02  4.0823E-02  0.0000E+00  1.0829E-04  0.0000E+00  6.2828E-04
 33  0.0000E+00  2.6126E-01  3.0124E-01  0.0000E+00  0.0000E+00  1.2972E-01  1.4320E-01  5.4023E-02  9.3080E-03
 34  0.0000E+00  3.9218E-01  0.0000E+00  3.1166E-02  0.0000E+00  7.2951E-02  3.2848E-01  1.1627E-01  2.8709E-01
 35  0.0000E+00  4.1243E-04  0.0000E+00  2.4188E-05  6.7915E-06  0.0000E+00  1.2950E-04  2.9786E-05  1.2682E-05
 36  0.0000E+00  2.0911E-04  3.8991E-05  0.0000E+00  7.3899E-05  0.0000E+00  8.1159E-05  1.0461E-04  3.9373E-05
 37  0.0000E+00  1.8169E-04  1.2096E-05  3.6440E-05  0.0000E+00  0.0000E+00  5.2700E-05  0.0000E+00  5.6880E-05
 38  0.0000E+00  4.1874E-04  3.9609E-05  6.6394E-05  0.0000E+00  1.4449E-04  1.1043E-04  2.0032E-04  2.0700E-06
 39  0.0000E+00  8.6019E-04  0.0000E+00  2.5258E-05  4.9963E-05  4.5133E-04  0.0000E+00  0.0000E+00  9.5901E-04
 40  0.0000E+00  1.5867E-03  0.0000E+00  8.9791E-05  0.0000E+00  4.2191E-04  5.4968E-04  0.0000E+00  0.0000E+00
 41  0.0000E+00  1.8147E-03  3.0411E-04  2.6765E-05  0.0000E+00  2.2107E-04  8.4223E-04  1.1489E-03  2.3027E-04
 42  0.0000E+00  4.6287E-03  0.0000E+00  0.0000E+00  2.2896E-03  1.4753E-03  1.3668E-03  0.0000E+00  0.0000E+00
 43  0.0000E+00  5.3735E-03  3.4040E-03  4.7571E-04  2.4655E-03  5.0143E-04  7.7376E-04  6.0492E-03  3.0191E-03
 44  0.0000E+00  7.5346E-03  1.1687E-02  2.9687E-03  1.2976E-03  4.4496E-03  5.9694E-03  1.0804E-03  1.3698E-04
 45  0.0000E+00  1.9871E-02  5.9357E-03  0.0000E+00  8.9989E-03  6.2479E-03  0.0000E+00  7.3060E-03  1.3145E-03
 46  0.0000E+00  3.8433E-02  3.7437E-02  0.0000E+00  2.6787E-03  2.6446E-02  8.5037E-03  0.0000E+00  1.4342E-02
 47  0.0000E+00  1.0473E-01  1.0187E-01  4.0835E-03  0.0000E+00  0.0000E+00  1.0257E-01  6.2118E-02  3.9061E-03
 48  0.0000E+00  1.4602E-01  8.2186E-02  1.3711E-02  1.4353E-02  1.3139E-02  1.1482E-03  2.0213E-02  5.8156E-02
 49  0.0000E+00  3.2551E-01  4.6063E-02  4.7097E-03  5.3095E-02  2.9926E-02  1.8543E-01  2.5082E-02  7.9527E-02
 50  4.0630E+01  5.7326E+00  4.5602E+00  4.0942E+00  4.3349E+00  4.8270E+00  4.5563E+00  8.8577E+00  4.9022E+00
 51  0.0000E+00  2.8450E-04  1.6135E-05  9.4508E-05  0.0000E+00  1.3608E-04  1.6378E-04  3.4417E-05  0.0000E+00
 52  0.0000E+00  1.4303E-04  2.5468E-06  3.0205E-05  3.4025E-05  6.1415E-06  3.9952E-05  4.7771E-06  0.0000E+00
 53  0.0000E+00  1.5848E-04  8.3952E-05  0.0000E+00  5.5052E-05  0.0000E+00  0.0000E+00  5.6123E-05  7.7046E-05
 54  0.0000E+00  6.9305E-04  1.7236E-04  1.2953E-05  4.6588E-05  9.0108E-05  1.9040E-04  0.0000E+00  4.7535E-04
 55  0.0000E+00  6.5299E-04  0.0000E+00  2.0569E-05  8.2908E-05  0.0000E+00  1.1549E-04  0.0000E+00  8.0085E-05
 56  0.0000E+00  1.3416E-03  2.8521E-04  3.7871E-04  5.9933E-05  6.4678E-05  6.9267E-04  0.0000E+00  5.2492E-04
 57  0.0000E+00  1.6802E-03  8.7708E-05  0.0000E+00  0.0000E+00  1.1562E-04  4.4507E-04  2.0542E-06  0.0000E+00
 58  0.0000E+00  3.5833E-03  2.5733E-03  1.1423E-04  0.0000E+00  3.7559E-03  1.7414E-04  3.6770E-03  9.8648E-05
 59  0.0000E+00  5.1814E-03  3.3317E-03  1.8808E-04  0.0000E+00  0.0000E+00  7.5840E-04  3.6090E-04  0.0000E+00
 60  0.0000E+00  1.3961E-02  0.0000E+00  0.0000E+00  9.6095E-04  1.6899E-02  3.6597E-03  0.0000E+00  2.2557E-03
 61  0.0000E+00  2.6889E-02  0.0000E+00  2.7816E-03  3.5230E-03  1.6570E-02  0.0000E+00  8.2363E-03  1.0799E-02
 62  0.0000E+00  4.6648E-02  4.0102E-02  5.7060E-05  1.0116E-02  1.2289E-02  1.9007E-02  2.1354E-02  0.0000E+00
 63  0.0000E+00  1.2064E-01  0.0000E+00  1.1604E-02  8.2846E-02  1.7026E-02  2.0890E-02  1.7070E-02  2.0195E-02
 64  0.0000E+00  2.7585E-01  4.3636E-02  2.2334E-02  1.4952E-01  3.3580E-02  8.9991E-02  9.4977E-02  1.6913E-01
 65  0.0000E+00  6.7155E-01  4.0522E-01  0.0000E+00  5.0956E-02  1.9464E-01  2.0463E-01  1.5768E-01  0.0000E+00
 66  5.9370E+01  9.0913E+01  9.4223E+01  9.5689E+01  9.5051E+01  9.4266E+01  9.4149E+01  9.0435E+01  9.4113E+01

# AV, chi2 & Mass for <> & i_chain = 1 ...  7 solutions
AV      -1.0000     -0.6776     -0.6859     -0.8008     -0.7114     -0.6689     -0.6859     -0.6095     -0.6674
chi2 2.0322E-04  7.7992E-04  3.9697E-04  3.5754E-04  3.7899E-04  4.0214E-04  3.9506E-04  4.3411E-04  4.1053E-04
Mass 1.5035E-12  1.6328E-12  2.1018E-12  1.9680E-12  2.0763E-12  2.1401E-12  2.1108E-12  2.2254E-12  2.1483E-12
 -53.17                                  [v0_min (km/s) before EX0s...]
 267.54                                  [vd_min (km/s) before EX0s...]


## Synthetic spectrum (Best Model) ##l_obs f_obs f_syn wei
 3478    [Nl_obs]
 3741.00    0.30032   0.46950    0.000
 3742.00    0.27862   0.45969    0.000
 3743.00    0.24845   0.44205    0.000
 3744.00    0.22595   0.42239    0.000
 3745.00    0.20793   0.40818   -1.000
 3746.00    0.21826   0.40005   -1.000
 3747.00    0.24300   0.40094   -1.000
 3748.00    0.22198   0.41806   -1.000
 3749.00    0.18083   0.44891   -1.000
 3750.00    0.17083   0.48174   -1.000
 3751.00    0.17259   0.51359   -1.000
 3752.00    0.24220   0.54723   -1.000
 3753.00    0.33357   0.57543   -1.000
 3754.00    0.39104   0.58717   -1.000
 3755.00    0.43943   0.58264   -1.000
 3756.00    0.45305   0.57187   -1.000
 3757.00    0.45903   0.56036   -1.000
 3758.00    0.43033   0.54687   -1.000
 3759.00    0.39558   0.53275   -1.000
 3760.00    0.35515   0.52232   -1.000
 3761.00    0.31397   0.51784   -1.000
 3762.00    0.33980   0.52140   -1.000
 3763.00    0.37193   0.53166   -1.000
 3764.00    0.37059   0.54125   -1.000
 3765.00    0.36732   0.55298   -1.000
 3766.00    0.37147   0.57741   -1.000
 3767.00    0.37597   0.60920   -1.000
 3768.00    0.40208   0.63548   -1.000
 3769.00    0.42581   0.66101   -1.000
 3770.00    0.39167   0.69202   -1.000
 3771.00    0.36108   0.71884   -1.000
 3772.00    0.37696   0.73411   -1.000
 3773.00    0.39592   0.74534   -1.000
 3774.00    0.44183   0.75767   -1.000
 3775.00    0.47960   0.76621   -1.000
 3776.00    0.46450   0.76967   -1.000
 3777.00    0.45075   0.77533   -1.000
 3778.00    0.44384   0.78375   -1.000
 3779.00    0.43694   0.78686   -1.000
 3780.00    0.43009   0.78281   -1.000
 3781.00    0.42509   0.77633   -1.000
 3782.00    0.42632   0.76502   -1.000
 3783.00    0.42265   0.74121   -1.000
 3784.00    0.40497   0.70788   -1.000
 3785.00    0.40028   0.67594   -1.000
 3786.00    0.42733   0.64604   -1.000
 3787.00    0.42929   0.61427   -1.000
 3788.00    0.37835   0.58662   -1.000
 3789.00    0.35549   0.57010   -1.000
 3790.00    0.38404   0.55863   -1.000
 3791.00    0.38877   0.54640   -1.000
 3792.00    0.35535   0.53615   -1.000
 3793.00    0.33495   0.53042   -1.000
 3794.00    0.33284   0.52733   -1.000
 3795.00    0.32445   0.52387   -1.000
 3796.00    0.30827   0.52203   -1.000
 3797.00    0.27571   0.52843   -1.000
 3798.00    0.22532   0.54462   -1.000
 3799.00    0.22975   0.56353   -1.000
 3800.00    0.28688   0.58209   -1.000
 3801.00    0.33320   0.60326   -1.000
 3802.00    0.37037   0.62474   -1.000
 3803.00    0.37720   0.64040   -1.000
 3804.00    0.36141   0.64782   -1.000
 3805.00    0.35926   0.65038   -1.000
 3806.00    0.36604   0.65125   -1.000
 3807.00    0.37001   0.64803    0.501
 3808.00    0.37238   0.63849    0.195
 3809.00    0.40494   0.62492    0.165
 3810.00    0.45258   0.60808    0.171
 3811.00    0.36251   0.58611    0.172
 3812.00    0.21289   0.56040    0.170
 3813.00    0.21015   0.53157    0.170
 3814.00    0.26188   0.50130    0.171
 3815.00    0.24093   0.47473    0.172
 3816.00    0.19712   0.45214    0.174
 3817.00    0.07688   0.42923    0.170
 3818.00   -0.06340   0.40809    0.000
 3819.00    0.04443   0.39387    0.167
 3820.00    0.20542   0.38364    0.169
 3821.00    0.30316   0.37163    0.168
 3822.00    0.39017   0.35905    0.167
 3823.00    0.20296   0.35115    0.167
 3824.00   -0.01943   0.34748    0.000
 3825.00    0.16175   0.34416    0.169
 3826.00    0.37916   0.34097    0.171
 3827.00    0.27602   0.34085    0.166
 3828.00    0.15564   0.34369    0.161
 3829.00    0.19252   0.34649    0.163
 3830.00    0.23131   0.34811    0.164
 3831.00    0.16601   0.34989    0.163
 3832.00    0.10000   0.35230    0.162
 3833.00    0.01792   0.35547    0.158
 3834.00   -0.04333   0.35862    0.000
 3835.00    0.15421   0.36085    0.153
 3836.00    0.33779   0.36480    0.153
 3837.00    0.40325   0.37305    0.156
 3838.00    0.44938   0.38320    0.160
 3839.00    0.37380   0.39534    0.159
 3840.00    0.31884   0.41282    0.159
 3841.00    0.36556   0.43309    0.162
 3842.00    0.40299   0.45228    0.165
 3843.00    0.40323   0.46957    0.164
 3844.00    0.38582   0.48393    0.164
 3845.00    0.30975   0.49438    0.162
 3846.00    0.28000   0.50003    0.161
 3847.00    0.38033   0.49882    0.000
 3848.00    0.45934   0.49385    0.000
 3849.00    0.48712   0.49047    0.000
 3850.00    0.40991   0.48531    0.000
 3851.00    0.11492   0.47461    0.000
 3852.00   -0.04869   0.46364    0.000
 3853.00    0.02465   0.45422    0.000
 3854.00    0.09465   0.44208    0.000
 3855.00    0.15940   0.42934    0.000
 3856.00    0.25822   0.41993    0.000
 3857.00    0.40421   0.41322    0.000
 3858.00    0.39717   0.41032    0.000
 3859.00    0.20366   0.41454    0.000
 3860.00    0.10971   0.42433    0.000
 3861.00    0.12272   0.43532    0.000
 3862.00    0.17533   0.44592    0.000
 3863.00    0.26548   0.45584    0.000
 3864.00    0.29276   0.46352    0.000
 3865.00    0.26752   0.46635    0.000
 3866.00    0.25235   0.46431    0.000
 3867.00    0.24459   0.46025    0.000
 3868.00    0.21519   0.45638    0.000
 3869.00    0.17181   0.45400    0.000
 3870.00    0.21820   0.45379    0.000
 3871.00    0.31532   0.45680    0.000
 3872.00    0.35188   0.46294    0.000
 3873.00    0.35865   0.46996    0.000
 3874.00    0.29446   0.47601    0.000
 3875.00    0.20009   0.47966    0.000
 3876.00    0.22260   0.47995    0.000
 3877.00    0.28767   0.48031    0.000
 3878.00    0.31300   0.48259    0.000
 3879.00    0.32608   0.48220    0.000
 3880.00    0.30420   0.48016    0.000
 3881.00    0.27336   0.48609    0.144
 3882.00    0.23968   0.49779    0.144
 3883.00    0.20541   0.50390    0.143
 3884.00    0.18723   0.50996    0.144
 3885.00    0.17170   0.52746    0.145
 3886.00    0.23152   0.54975    0.150
 3887.00    0.30068   0.56990    0.156
 3888.00    0.44294   0.59512    0.157
 3889.00    0.59145   0.62639    0.157
 3890.00    0.42098   0.65475    0.153
 3891.00    0.23462   0.67823    0.149
 3892.00    0.20610   0.69760    0.149
 3893.00    0.18079   0.70834    0.150
 3894.00    0.19646   0.71290    0.147
 3895.00    0.21657   0.71568    0.145
 3896.00    0.32784   0.71298    0.148
 3897.00    0.42434   0.70447    0.149
 3898.00    0.34616   0.69926    0.141
 3899.00    0.27866   0.69889    0.134
 3900.00    0.29821   0.69318    0.131
 3901.00    0.31253   0.68641    0.127
 3902.00    0.29494   0.68901    0.124
 3903.00    0.27617   0.69423    0.120
 3904.00    0.25171   0.69774    0.118
 3905.00    0.24078   0.70939    0.117
 3906.00    0.28284   0.72980    0.119
 3907.00    0.33060   0.74948    0.121
 3908.00    0.39695   0.76850    0.123
 3909.00    0.47134   0.79021    0.126
 3910.00    0.56789   0.80866    0.129
 3911.00    0.66307   0.81780    0.131
 3912.00    0.75501   0.81970    0.132
 3913.00    0.80817   0.81593    0.132
 3914.00    0.78218   0.80230    0.132
 3915.00    0.75695   0.78016    0.135
 3916.00    0.73305   0.75500    0.141
 3917.00    0.71422   0.72615    0.143
 3918.00    0.70325   0.69352    0.138
 3919.00    0.65120   0.66343    0.135
 3920.00    0.54310   0.63669    0.133
 3921.00    0.46976   0.61021    0.134
 3922.00    0.43820   0.58544    0.137
 3923.00    0.49213   0.56130    0.139
 3924.00    0.63662   0.53463    0.140
 3925.00    0.65569   0.50471    0.141
 3926.00    0.55758   0.47173    0.141
 3927.00    0.48245   0.43625    0.139
 3928.00    0.42625   0.40061    0.136
 3929.00    0.36668   0.36739    0.134
 3930.00    0.30468   0.33910    0.134
 3931.00    0.22050   0.31936    0.133
 3932.00    0.12221   0.30923    0.133
 3933.00    0.13095   0.30887    0.134
 3934.00    0.19927   0.31945    0.135
 3935.00    0.26400   0.33913    0.135
 3936.00    0.32699   0.36498    0.134
 3937.00    0.31763   0.39599    0.132
 3938.00    0.27801   0.42863    0.130
 3939.00    0.28683   0.45978    0.132
 3940.00    0.31297   0.49198    0.134
 3941.00    0.49041   0.52390    0.137
 3942.00    0.71357   0.55197    0.139
 3943.00    0.70917   0.58171    0.137
 3944.00    0.64762   0.61640    0.133
 3945.00    0.57173   0.64959    0.132
 3946.00    0.49292   0.68006    0.132
 3947.00    0.56773   0.71195    0.134
 3948.00    0.66714   0.74400    0.136
 3949.00    0.68908   0.77092    0.137
 3950.00    0.70178   0.78882    0.137
 3951.00    0.68012   0.80157    0.136
 3952.00    0.65567   0.81264    0.135
 3953.00    0.66406   0.81427    0.134
 3954.00    0.67397   0.80348    0.133
 3955.00    0.66144   0.78765    0.132
 3956.00    0.64742   0.76641    0.131
 3957.00    0.57049   0.73506    0.130
 3958.00    0.49739   0.69566    0.130
 3959.00    0.49657   0.65109    0.130
 3960.00    0.49933   0.60348    0.000
 3961.00    0.54252   0.55541    0.000
 3962.00    0.57482   0.50719    0.000
 3963.00    0.52161   0.46123    0.000
 3964.00    0.46721   0.42237    0.000
 3965.00    0.40573   0.39198    0.000
 3966.00    0.34658   0.37047    0.000
 3967.00    0.29837   0.36032    0.000
 3968.00    0.28493   0.36320    0.000
 3969.00    0.40470   0.37970    0.000
 3970.00    0.50241   0.40912    0.000
 3971.00    0.52959   0.44871    0.000
 3972.00    0.53987   0.49760    0.000
 3973.00    0.50439   0.55426    0.000
 3974.00    0.48523   0.61354    0.000
 3975.00    0.50396   0.67260    0.000
 3976.00    0.53326   0.72993    0.000
 3977.00    0.58381   0.78278    0.000
 3978.00    0.67975   0.82925    0.000
 3979.00    0.85512   0.86852    0.000
 3980.00    0.94698   0.90152    0.000
 3981.00    0.91097   0.92844    0.139
 3982.00    0.91745   0.95104    0.139
 3983.00    0.98106   0.97239    0.141
 3984.00    0.99314   0.98989    0.141
 3985.00    0.94419   1.00489    0.140
 3986.00    0.88971   1.02251    0.137
 3987.00    0.82945   1.03747    0.133
 3988.00    0.84699   1.04671    0.133
 3989.00    0.93617   1.05623    0.137
 3990.00    0.94816   1.06555    0.137
 3991.00    0.89748   1.06929    0.134
 3992.00    0.88868   1.07022    0.133
 3993.00    0.90980   1.07306    0.134
 3994.00    0.91544   1.07742    0.133
 3995.00    0.91137   1.08130    0.131
 3996.00    0.90449   1.08554    0.129
 3997.00    0.89607   1.09568    0.128
 3998.00    0.89075   1.10903    0.127
 3999.00    0.88689   1.11584    0.127
 4000.00    0.93267   1.11911    0.129
 4001.00    0.99884   1.12513    0.131
 4002.00    1.02283   1.12590    0.129
 4003.00    1.03201   1.11792    0.125
 4004.00    1.02033   1.11367    0.128
 4005.00    1.00246   1.11649    0.134
 4006.00    0.93143   1.11903    0.133
 4007.00    0.84733   1.12524    0.130
 4008.00    0.81430   1.14082    0.130
 4009.00    0.79141   1.15874    0.129
 4010.00    0.84462   1.17585    0.130
 4011.00    0.90965   1.19414    0.130
 4012.00    1.00448   1.20915    0.130
 4013.00    1.10273   1.22202    0.130
 4014.00    1.06075   1.23480    0.130
 4015.00    1.00794   1.24093    0.130
 4016.00    0.93834   1.24303    0.133
 4017.00    0.86804   1.24834    0.135
 4018.00    0.95179   1.25008    0.136
 4019.00    1.03412   1.24482    0.137
 4020.00    0.99293   1.24270    0.134
 4021.00    0.95923   1.24255    0.131
 4022.00    1.05756   1.23576    0.132
 4023.00    1.15167   1.22894    0.133
 4024.00    1.20032   1.22423    0.136
 4025.00    1.23138   1.21087    0.139
 4026.00    1.12897   1.19198    0.136
 4027.00    1.02958   1.17261    0.134
 4028.00    0.94764   1.14447    0.140
 4029.00    0.88448   1.11266    0.145
 4030.00    0.90741   1.08932    0.141
 4031.00    0.91145   1.07179    0.137
 4032.00    0.84464   1.06192    0.132
 4033.00    0.82596   1.06847    0.129
 4034.00    0.95816   1.08769    0.132
 4035.00    1.07662   1.11115    0.135
 4036.00    1.15851   1.13651    0.137
 4037.00    1.18474   1.15962    0.138
 4038.00    1.08387   1.17189    0.135
 4039.00    1.01264   1.16932    0.134
 4040.00    1.00000   1.15481    0.135
 4041.00    0.99828   1.13182    0.136
 4042.00    1.01538   1.10365    0.136
 4043.00    0.99658   1.07555    0.134
 4044.00    0.92362   1.05526    0.128
 4045.00    0.90468   1.04962    0.126
 4046.00    0.95736   1.05616    0.130
 4047.00    1.00731   1.07069    0.132
 4048.00    1.05408   1.09524    0.134
 4049.00    1.10915   1.12235    0.136
 4050.00    1.17278   1.14056    0.139
 4051.00    1.16368   1.15273    0.138
 4052.00    1.08854   1.15765    0.133
 4053.00    1.01553   1.14989    0.130
 4054.00    0.94424   1.13723    0.127
 4055.00    0.94785   1.12261    0.127
 4056.00    1.00420   1.10295    0.130
 4057.00    0.97164   1.08429    0.129
 4058.00    0.88417   1.06744    0.126
 4059.00    0.88402   1.04975    0.128
 4060.00    0.93098   1.03576    0.133
 4061.00    0.94464   1.02372    0.132
 4062.00    0.94269   1.01327    0.130
 4063.00    0.92538   1.01247    0.130
 4064.00    0.90185   1.01832    0.130
 4065.00    0.99310   1.02458    0.133
 4066.00    1.12394   1.03535    0.138
 4067.00    1.10375   1.05111    0.138
 4068.00    1.03971   1.06369    0.136
 4069.00    0.99444   1.06887    0.132
 4070.00    0.95368   1.07242    0.127
 4071.00    0.94710   1.07688    0.126
 4072.00    0.94714   1.07611    0.127
 4073.00    0.89796   1.07299    0.125
 4074.00    0.84136   1.07560    0.122
 4075.00    0.85092   1.08200    0.125
 4076.00    0.86780   1.09196    0.127
 4077.00    0.93804   1.10857    0.130
 4078.00    1.01220   1.12999    0.132
 4079.00    0.99073   1.15617    0.134
 4080.00    0.96561   1.18457    0.135
 4081.00    1.02121   1.21041    0.136
 4082.00    1.07702   1.23655    0.137
 4083.00    1.12378   1.26261    0.133
 4084.00    1.17168   1.28352    0.130
 4085.00    1.23847   1.30288    0.134
 4086.00    1.30039   1.32238    0.139
 4087.00    1.31212   1.33486    0.141
 4088.00    1.30388   1.34087    0.142
 4089.00    1.14905   1.34338    0.134
 4090.00    1.03904   1.33534    0.129
 4091.00    1.18038   1.31763    0.132
 4092.00    1.27129   1.29723    0.000
 4093.00    1.13649   1.26953    0.000
 4094.00    1.04349   1.23609    0.000
 4095.00    1.10404   1.20567    0.000
 4096.00    1.11821   1.17536    0.000
 4097.00    0.98975   1.14691    0.000
 4098.00    0.92343   1.12726    0.000
 4099.00    1.01949   1.11274    0.000
 4100.00    1.09080   1.10555    0.000
 4101.00    1.10652   1.11053    0.000
 4102.00    1.11819   1.11988    0.000
 4103.00    1.12199   1.13255    0.000
 4104.00    1.12262   1.15197    0.000
 4105.00    1.11786   1.16975    0.000
 4106.00    1.12136   1.18216    0.000
 4107.00    1.13713   1.19326    0.000
 4108.00    1.12164   1.20133    0.000
 4109.00    1.06527   1.20498    0.000
 4110.00    1.04428   1.20684    0.000
 4111.00    1.06400   1.20941    0.000
 4112.00    1.10168   1.21280    0.000
 4113.00    1.15759   1.21369    0.125
 4114.00    1.19584   1.21325    0.125
 4115.00    1.21827   1.21432    0.127
 4116.00    1.21837   1.21175    0.128
 4117.00    1.20084   1.20507    0.128
 4118.00    1.19108   1.20122    0.182
 4119.00    1.18671   1.19834    0.664
 4120.00    1.22284   1.19347   -1.000
 4121.00    1.28362   1.19067   -1.000
 4122.00    1.29435   1.19001   -1.000
 4123.00    1.27851   1.18757   -1.000
 4124.00    1.28598   1.18169   -1.000
 4125.00    1.30421   1.17319   -1.000
 4126.00    1.27060   1.16157    0.359
 4127.00    1.21641   1.14530    0.150
 4128.00    1.12685   1.12762    0.128
 4129.00    1.02532   1.11109    0.124
 4130.00    1.08328   1.09639    0.126
 4131.00    1.18662   1.08854    0.129
 4132.00    1.23540   1.08715    0.128
 4133.00    1.27137   1.09069    0.126
 4134.00    1.26108   1.10144    0.127
 4135.00    1.24207   1.11263    0.129
 4136.00    1.19328   1.12054    0.130
 4137.00    1.14014   1.12617    0.132
 4138.00    1.16452   1.12243    0.130
 4139.00    1.19713   1.11082    0.127
 4140.00    1.16778   1.09706    0.127
 4141.00    1.13415   1.07801    0.126
 4142.00    1.06206   1.05927    0.127
 4143.00    0.98864   1.04866    0.127
 4144.00    1.11218   1.04135    0.132
 4145.00    1.23119   1.03690    0.136
 4146.00    1.18786   1.03992    0.137
 4147.00    1.14966   1.04423    0.138
 4148.00    1.19076   1.04556    0.136
 4149.00    1.22540   1.04752    0.134
 4150.00    1.19642   1.04915    0.135
 4151.00    1.16768   1.04903    0.136
 4152.00    1.14067   1.05001    0.137
 4153.00    1.12236   1.05459    0.138
 4154.00    1.15154   1.06327    0.137
 4155.00    1.17204   1.07495    0.136
 4156.00    1.15460   1.09049    0.132
 4157.00    1.14308   1.11032    0.131
 4158.00    1.15287   1.13040    0.135
 4159.00    1.16986   1.14720    0.136
 4160.00    1.20854   1.16198    0.131
 4161.00    1.19690   1.17344    0.126
 4162.00    1.05606   1.17567    0.122
 4163.00    1.00134   1.17193    0.121
 4164.00    1.13685   1.16669    0.125
 4165.00    1.21514   1.15454    0.127
 4166.00    1.18384   1.13848    0.125
 4167.00    1.16055   1.12395    0.124
 4168.00    1.15064   1.10678    0.125
 4169.00    1.14042   1.08896    0.125
 4170.00    1.12976   1.07291    0.122
 4171.00    1.11922   1.05721    0.122
 4172.00    1.10883   1.04521    0.125
 4173.00    1.12293   1.03637    0.129
 4174.00    1.16480   1.03097    0.135
 4175.00    1.17351   1.03163    0.135
 4176.00    1.14903   1.03507    0.128
 4177.00    1.14202   1.04165    0.126
 4178.00    1.15042   1.05230    0.126
 4179.00    1.16066   1.06237    0.124
 4180.00    1.17232   1.07320    0.121
 4181.00    1.14906   1.08585    0.120
 4182.00    1.10191   1.09485    0.119
 4183.00    1.09528   1.10248    0.119
 4184.00    1.11294   1.11150    0.119
 4185.00    1.12201   1.11613    0.120
 4186.00    1.12659   1.11888    0.120
 4187.00    1.15390   1.12421    0.120
 4188.00    1.19152   1.12748    0.119
 4189.00    1.19605   1.12770    0.118
 4190.00    1.18767   1.12742    0.118
 4191.00    1.18788   1.12481    0.118
 4192.00    1.19095   1.11682    0.118
 4193.00    1.25119   1.10366    0.118
 4194.00    1.32737   1.08791    0.118
 4195.00    1.27907   1.07147    0.118
 4196.00    1.20221   1.05440    0.117
 4197.00    1.14739   1.03926    0.117
 4198.00    1.09663   1.03267    0.116
 4199.00    1.11851   1.03314    0.116
 4200.00    1.15068   1.03786    0.116
 4201.00    1.17578   1.05328    0.117
 4202.00    1.20017   1.07549    0.118
 4203.00    1.16948   1.09783    0.116
 4204.00    1.13521   1.12430    0.115
 4205.00    1.10651   1.14976    0.114
 4206.00    1.07804   1.16924    0.113
 4207.00    1.09063   1.18574    0.116
 4208.00    1.10306   1.19499    0.118
 4209.00    1.11078   1.19799    0.116
 4210.00    1.12272   1.19886    0.115
 4211.00    1.19619   1.19506    0.115
 4212.00    1.26560   1.19266    0.115
 4213.00    1.29656   1.19472    0.118
 4214.00    1.31721   1.19737    0.119
 4215.00    1.26694   1.20546    0.117
 4216.00    1.23544   1.21638    0.115
 4217.00    1.30376   1.22160    0.116
 4218.00    1.36313   1.22130    0.116
 4219.00    1.38427   1.21170    0.118
 4220.00    1.37309   1.18765    0.120
 4221.00    1.24806   1.15195    0.118
 4222.00    1.15612   1.10897    0.117
 4223.00    1.16222   1.06476    0.118
 4224.00    1.16411   1.02661    0.118
 4225.00    1.15539   0.99861    0.118
 4226.00    1.15117   0.98859    0.118
 4227.00    1.15675   0.99730    0.117
 4228.00    1.20433   1.01502    0.117
 4229.00    1.33112   1.04360    0.117
 4230.00    1.39323   1.07921    0.116
 4231.00    1.34886   1.10637    0.115
 4232.00    1.31547   1.12989    0.114
 4233.00    1.29796   1.15309    0.116
 4234.00    1.25140   1.16626    0.117
 4235.00    1.16799   1.17809    0.115
 4236.00    1.15174   1.19592    0.113
 4237.00    1.21065   1.21303    0.111
 4238.00    1.25228   1.23220    0.111
 4239.00    1.27686   1.25759    0.112
 4240.00    1.31443   1.28254    0.113
 4241.00    1.36330   1.30219    0.114
 4242.00    1.36191   1.31843    0.114
 4243.00    1.32199   1.32671    0.114
 4244.00    1.33155   1.32260    0.115
 4245.00    1.37446   1.30989    0.116
 4246.00    1.35963   1.28818    0.117
 4247.00    1.31072   1.26064    0.117
 4248.00    1.23626   1.23214    0.119
 4249.00    1.14865   1.20342    0.122
 4250.00    1.14734   1.18096    0.122
 4251.00    1.18453   1.16541    0.121
 4252.00    1.22011   1.15489    0.120
 4253.00    1.25508   1.15227    0.119
 4254.00    1.27645   1.15470    0.116
 4255.00    1.29338   1.16075    0.113
 4256.00    1.29632   1.16968    0.113
 4257.00    1.29544   1.18073    0.113
 4258.00    1.28056   1.19672    0.114
 4259.00    1.26255   1.21435    0.115
 4260.00    1.32985   1.23372    0.115
 4261.00    1.41240   1.25731    0.115
 4262.00    1.38526   1.27759    0.115
 4263.00    1.34311   1.29060    0.115
 4264.00    1.29784   1.29625    0.115
 4265.00    1.25226   1.28910    0.115
 4266.00    1.31412   1.26715    0.116
 4267.00    1.38256   1.23402    0.117
 4268.00    1.36049   1.19504    0.117
 4269.00    1.33594   1.15410    0.116
 4270.00    1.30180   1.11585    0.115
 4271.00    1.26898   1.09149    0.113
 4272.00    1.27077   1.08110    0.116
 4273.00    1.26785   1.08136    0.118
 4274.00    1.20013   1.10026    0.114
 4275.00    1.14188   1.12732    0.111
 4276.00    1.16965   1.15412    0.112
 4277.00    1.20670   1.18665    0.113
 4278.00    1.30553   1.21132    0.116
 4279.00    1.38503   1.22609    0.118
 4280.00    1.36447   1.23828    0.117
 4281.00    1.35279   1.23768    0.116
 4282.00    1.37822   1.23012   -2.000
 4283.00    1.39922   1.22075   -2.000
 4284.00    1.40500   1.20263   -2.000
 4285.00    1.40871   1.18349   -2.000
 4286.00    1.40645   1.16603   -2.000
 4287.00    1.37984   1.14604   -2.000
 4288.00    1.29281   1.13098   -2.000
 4289.00    1.22318   1.12111   -2.000
 4290.00    1.19076   1.11084   -2.000
 4291.00    1.19306   1.10615   -2.000
 4292.00    1.25979   1.10144   -2.000
 4293.00    1.33072   1.09086   -2.000
 4294.00    1.40846   1.08011   -2.000
 4295.00    1.43113   1.06035   -2.000
 4296.00    1.37545   1.03423   -2.000
 4297.00    1.30331   1.00894   -2.000
 4298.00    1.21056   0.97634    0.117
 4299.00    1.15327   0.94620    0.116
 4300.00    1.13510   0.92202    0.116
 4301.00    1.13022   0.89602    0.115
 4302.00    1.13827   0.87793    0.115
 4303.00    1.10353   0.86535    0.116
 4304.00    1.03208   0.85349    0.117
 4305.00    1.00895   0.85246    0.116
 4306.00    1.02234   0.85951    0.113
 4307.00    1.01170   0.87396    0.111
 4308.00    0.98510   0.90452    0.111
 4309.00    1.03256   0.94940    0.112
 4310.00    1.12307   1.00475    0.114
 4311.00    1.24013   1.07331    0.114
 4312.00    1.37064   1.15154    0.114
 4313.00    1.39211   1.22828    0.114
 4314.00    1.36574   1.30260    0.114
 4315.00    1.38057   1.36969    0.114
 4316.00    1.41092   1.41683    0.114
 4317.00    1.48624   1.44686    0.115
 4318.00    1.57594   1.45851    0.117
 4319.00    1.50919   1.44581    0.117
 4320.00    1.40063   1.42146    0.117
 4321.00    1.42727   1.38963    0.118
 4322.00    1.48350   1.35185    0.120
 4323.00    1.36675   1.32441    0.118
 4324.00    1.21990   1.30991    0.116
 4325.00    1.27276   1.30900    0.116
 4326.00    1.35204   1.32628    0.117
 4327.00    1.45390   1.35639    0.118
 4328.00    1.55786   1.39557    0.119
 4329.00    1.53868   1.43596    0.118
 4330.00    1.51245   1.46985    0.000
 4331.00    1.58150   1.49664    0.000
 4332.00    1.65149   1.51008    0.000
 4333.00    1.57401   1.50579    0.000
 4334.00    1.50108   1.49136    0.000
 4335.00    1.53718   1.46791    0.000
 4336.00    1.57186   1.43484    0.000
 4337.00    1.58810   1.40518    0.000
 4338.00    1.59176   1.38277    0.000
 4339.00    1.48545   1.36599    0.000
 4340.00    1.38988   1.36376    0.000
 4341.00    1.36367   1.37475    0.000
 4342.00    1.35627   1.39206    0.000
 4343.00    1.44379   1.41655    0.000
 4344.00    1.52855   1.44153    0.000
 4345.00    1.60205   1.46133    0.000
 4346.00    1.63986   1.47793    0.000
 4347.00    1.55687   1.48423    0.000
 4348.00    1.46931   1.48038    0.000
 4349.00    1.36869   1.47509    0.000
 4350.00    1.34226   1.46606    0.000
 4351.00    1.49671   1.45456    0.117
 4352.00    1.61733   1.44837    0.118
 4353.00    1.66676   1.44949    0.118
 4354.00    1.66425   1.45594    0.116
 4355.00    1.56681   1.46642    0.112
 4356.00    1.50331   1.48159    0.109
 4357.00    1.49403   1.50188    0.110
 4358.00    1.52802   1.52268    0.111
 4359.00    1.62265   1.54036    0.111
 4360.00    1.69176   1.55822    0.112
 4361.00    1.72937   1.57500    0.116
 4362.00    1.74132   1.58524    0.117
 4363.00    1.72537   1.58886    0.117
 4364.00    1.71503   1.58729    0.116
 4365.00    1.71006   1.58066    0.114
 4366.00    1.68896   1.56636    0.113
 4367.00    1.65420   1.54631    0.114
 4368.00    1.60962   1.52499    0.115
 4369.00    1.55773   1.50163    0.116
 4370.00    1.51933   1.47822    0.116
 4371.00    1.48978   1.45543    0.114
 4372.00    1.46105   1.43472    0.113
 4373.00    1.43279   1.41860    0.112
 4374.00    1.45413   1.40301    0.113
 4375.00    1.50019   1.38652    0.114
 4376.00    1.48733   1.36854    0.114
 4377.00    1.44903   1.34780    0.114
 4378.00    1.46704   1.32208    0.114
 4379.00    1.50590   1.28898    0.116
 4380.00    1.45541   1.25444    0.115
 4381.00    1.37692   1.22285    0.113
 4382.00    1.30386   1.19641    0.111
 4383.00    1.23222   1.17816    0.110
 4384.00    1.27783   1.17158    0.110
 4385.00    1.34849   1.17938    0.111
 4386.00    1.38019   1.19707    0.112
 4387.00    1.40530   1.22164    0.112
 4388.00    1.39950   1.25145    0.110
 4389.00    1.38976   1.28396    0.108
 4390.00    1.45600   1.31697    0.109
 4391.00    1.52901   1.34581    0.111
 4392.00    1.57198   1.37402    0.112
 4393.00    1.61336   1.40041    0.114
 4394.00    1.55953   1.41947    0.113
 4395.00    1.50489   1.43546    0.112
 4396.00    1.53645   1.44252    0.111
 4397.00    1.56543   1.43954    0.111
 4398.00    1.53774   1.43340    0.112
 4399.00    1.50726   1.41536    0.113
 4400.00    1.44228   1.38775    0.112
 4401.00    1.38113   1.36231    0.112
 4402.00    1.35222   1.33831    0.111
 4403.00    1.33571   1.31779    0.110
 4404.00    1.39689   1.30495    0.111
 4405.00    1.45395   1.30389    0.112
 4406.00    1.49075   1.31723    0.114
 4407.00    1.51559   1.33774    0.116
 4408.00    1.49270   1.36209    0.116
 4409.00    1.50516   1.39169    0.116
 4410.00    1.63486   1.41860    0.115
 4411.00    1.72170   1.43970    0.114
 4412.00    1.68848   1.45802    0.116
 4413.00    1.64741   1.46981    0.117
 4414.00    1.58752   1.47933    0.115
 4415.00    1.54639   1.48809    0.114
 4416.00    1.54408   1.49365    0.115
 4417.00    1.56055   1.50244    0.115
 4418.00    1.61083   1.50843    0.116
 4419.00    1.67687   1.51082    0.116
 4420.00    1.76772   1.51642    0.116
 4421.00    1.79707   1.51726    0.117
 4422.00    1.74143   1.51439    0.116
 4423.00    1.69587   1.51101    0.117
 4424.00    1.66258   1.50812    0.117
 4425.00    1.63936   1.50597    0.117
 4426.00    1.62696   1.49789    0.115
 4427.00    1.61685   1.49339    0.115
 4428.00    1.60889   1.49180    0.116
 4429.00    1.60151   1.48416    0.117
 4430.00    1.59462   1.47824    0.117
 4431.00    1.60390   1.47189    0.117
 4432.00    1.62505   1.46909    0.117
 4433.00    1.63351   1.47287    0.117
 4434.00    1.63379   1.47465    0.116
 4435.00    1.63841   1.48269    0.117
 4436.00    1.64549   1.49568    0.118
 4437.00    1.64416   1.50629    0.118
 4438.00    1.63870   1.51886    0.118
 4439.00    1.64680   1.53023    0.118
 4440.00    1.66065   1.54107    0.119
 4441.00    1.71577   1.55502    0.121
 4442.00    1.78588   1.56670    0.122
 4443.00    1.77530   1.57589    0.123
 4444.00    1.73989   1.58982    0.123
 4445.00    1.71029   1.60148    0.121
 4446.00    1.68217   1.60532    0.118
 4447.00    1.69990   1.60892    0.119
 4448.00    1.72718   1.60445    0.120
 4449.00    1.70987   1.59089    0.119
 4450.00    1.68524   1.57195    0.118
 4451.00    1.65310   1.54140    0.117
 4452.00    1.62004   1.51095    0.115
 4453.00    1.62699   1.48173    0.114
 4454.00    1.63734   1.44717    0.113
 4455.00    1.62490   1.41873    0.114
 4456.00    1.61134   1.39947    0.115
 4457.00    1.57302   1.38369    0.115
 4458.00    1.53517   1.37481    0.115
 4459.00    1.55148   1.37859    0.115
 4460.00    1.56988   1.38801    0.114
 4461.00    1.63068   1.40152    0.000
 4462.00    1.68369   1.42120    0.000
 4463.00    1.64525   1.44200    0.000
 4464.00    1.61338   1.46640    0.000
 4465.00    1.63481   1.48849    0.000
 4466.00    1.64769   1.50882    0.000
 4467.00    1.60852   1.53373    0.000
 4468.00    1.59231   1.55667    0.000
 4469.00    1.68630   1.57986    0.000
 4470.00    1.76282   1.60358    0.000
 4471.00    1.77118   1.62571    0.000
 4472.00    1.77552   1.64910    0.000
 4473.00    1.76678   1.66891    0.000
 4474.00    1.77697   1.68363    0.000
 4475.00    1.83922   1.69224    0.000
 4476.00    1.86112   1.69333    0.000
 4477.00    1.78796   1.69149    0.000
 4478.00    1.73732   1.68576    0.000
 4479.00    1.73255   1.67895    0.000
 4480.00    1.73048   1.67399    0.000
 4481.00    1.73321   1.67046    0.000
 4482.00    1.72763   1.67193    0.114
 4483.00    1.70914   1.67301    0.115
 4484.00    1.72319   1.67275    0.115
 4485.00    1.78157   1.67260    0.116
 4486.00    1.82863   1.66858    0.116
 4487.00    1.86212   1.66360    0.116
 4488.00    1.83607   1.65611    0.116
 4489.00    1.74705   1.64420    0.115
 4490.00    1.70038   1.63050    0.114
 4491.00    1.69319   1.62062    0.112
 4492.00    1.70419   1.61508    0.112
 4493.00    1.73015   1.61280    0.113
 4494.00    1.78556   1.61796    0.114
 4495.00    1.86228   1.62882    0.115
 4496.00    1.85054   1.64675    0.115
 4497.00    1.78260   1.66782    0.113
 4498.00    1.73963   1.69146    0.112
 4499.00    1.71055   1.72297    0.111
 4500.00    1.77662   1.75178    0.111
 4501.00    1.88866   1.77860    0.113
 4502.00    1.93164   1.80381    0.114
 4503.00    1.94580   1.82242    0.115
 4504.00    1.91519   1.83840    0.114
 4505.00    1.86859   1.84594    0.113
 4506.00    1.92340   1.84722    0.113
 4507.00    2.00877   1.84640    0.113
 4508.00    1.98135   1.83736    0.112
 4509.00    1.92569   1.82487    0.110
 4510.00    1.89253   1.81061    0.111
 4511.00    1.86395   1.79459    0.112
 4512.00    1.87975   1.78184    0.114
 4513.00    1.90261   1.76768    0.115
 4514.00    1.87659   1.75543    0.114
 4515.00    1.84477   1.75002    0.113
 4516.00    1.79377   1.74351    0.112
 4517.00    1.74123   1.73924    0.112
 4518.00    1.79113   1.73299    0.111
 4519.00    1.84569   1.72097    0.111
 4520.00    1.81608   1.71088    0.110
 4521.00    1.78575   1.69070    0.109
 4522.00    1.77110   1.66204    0.109
 4523.00    1.75877   1.63288    0.110
 4524.00    1.79012   1.59784    0.110
 4525.00    1.81730   1.56538    0.110
 4526.00    1.79784   1.53556    0.110
 4527.00    1.77521   1.50745    0.110
 4528.00    1.72776   1.49288    0.109
 4529.00    1.68745   1.48440    0.108
 4530.00    1.68934   1.48145    0.108
 4531.00    1.69016   1.48916    0.108
 4532.00    1.68590   1.50190    0.109
 4533.00    1.68360   1.52463    0.109
 4534.00    1.68874   1.54716    0.108
 4535.00    1.70831   1.56770    0.108
 4536.00    1.77387   1.59267    0.109
 4537.00    1.80231   1.61264    0.110
 4538.00    1.73046   1.63147    0.109
 4539.00    1.71825   1.64547    0.108
 4540.00    1.84424   1.65110    0.108
 4541.00    1.91773   1.65662    0.108
 4542.00    1.88598   1.65914    0.109
 4543.00    1.84450   1.65653    0.109
 4544.00    1.78606   1.65295    0.110
 4545.00    1.75616   1.64640    0.110
 4546.00    1.76987   1.64134    0.111
 4547.00    1.76046   1.64093    0.111
 4548.00    1.72001   1.63616    0.108
 4549.00    1.69894   1.63385    0.107
 4550.00    1.70079   1.63648    0.000
 4551.00    1.71039   1.64003    0.000
 4552.00    1.72808   1.65047    0.000
 4553.00    1.74965   1.66287    0.000
 4554.00    1.77480   1.67661    0.000
 4555.00    1.80518   1.69560    0.000
 4556.00    1.83979   1.71257    0.000
 4557.00    1.85171   1.72849    0.000
 4558.00    1.84743   1.74432    0.000
 4559.00    1.84295   1.75154    0.000
 4560.00    1.83834   1.75545    0.000
 4561.00    1.84507   1.75788    0.000
 4562.00    1.85800   1.75539    0.000
 4563.00    1.86767   1.75522    0.000
 4564.00    1.87579   1.75336    0.000
 4565.00    1.87035   1.75094    0.000
 4566.00    1.85934   1.75476    0.000
 4567.00    1.90459   1.75562    0.000
 4568.00    1.96955   1.75774    0.000
 4569.00    2.01528   1.76410    0.000
 4570.00    2.05533   1.76348    0.000
 4571.00    2.05429   1.76307    0.000
 4572.00    2.04319   1.76308    0.000
 4573.00    2.00253   1.75733    0.000
 4574.00    1.95601   1.75126    0.000
 4575.00    1.96636   1.73981    0.000
 4576.00    1.98551   1.72467    0.000
 4577.00    1.95543   1.71250    0.000
 4578.00    1.91972   1.69968    0.000
 4579.00    1.81599   1.68608    0.000
 4580.00    1.70704   1.67557    0.000
 4581.00    1.78365   1.67033    0.000
 4582.00    1.86797   1.66844    0.000
 4583.00    1.83674   1.67190    0.000
 4584.00    1.80546   1.67854    0.000
 4585.00    1.81488   1.68485    0.000
 4586.00    1.82169   1.69337    0.000
 4587.00    1.78296   1.69929    0.000
 4588.00    1.75383   1.70201    0.000
 4589.00    1.82735   1.70263    0.000
 4590.00    1.89740   1.69782    0.000
 4591.00    1.94119   1.68930    0.000
 4592.00    1.96746   1.68072    0.000
 4593.00    1.89312   1.67139    0.000
 4594.00    1.82171   1.66160    0.000
 4595.00    1.76371   1.65579    0.000
 4596.00    1.72319   1.64962    0.000
 4597.00    1.74802   1.64731    0.000
 4598.00    1.77782   1.65146    0.000
 4599.00    1.82318   1.65339    0.000
 4600.00    1.86303   1.66118    0.000
 4601.00    1.88823   1.67086    0.000
 4602.00    1.90132   1.68213    0.000
 4603.00    1.88683   1.70080    0.000
 4604.00    1.88730   1.71812    0.000
 4605.00    1.91729   1.73818    0.000
 4606.00    1.95145   1.75907    0.000
 4607.00    1.99277   1.77751    0.000
 4608.00    2.01928   1.79683    0.000
 4609.00    2.02348   1.81099    0.000
 4610.00    2.03767   1.82116    0.000
 4611.00    2.06507   1.83101    0.000
 4612.00    2.04505   1.83535    0.000
 4613.00    1.96978   1.83987    0.000
 4614.00    1.95023   1.84444    0.000
 4615.00    1.98794   1.84451    0.000
 4616.00    2.01956   1.84793    0.000
 4617.00    2.04566   1.85048    0.000
 4618.00    2.03597   1.84961    0.000
 4619.00    1.99768   1.85071    0.000
 4620.00    1.97872   1.84996    0.000
 4621.00    1.97336   1.84705    0.000
 4622.00    1.97826   1.84568    0.000
 4623.00    1.98948   1.84188    0.000
 4624.00    1.99831   1.83714    0.000
 4625.00    2.00585   1.83335    0.000
 4626.00    2.01270   1.82766    0.000
 4627.00    2.01923   1.82265    0.000
 4628.00    2.01032   1.81558    0.000
 4629.00    1.99517   1.80567    0.000
 4630.00    1.98645   1.79605    0.000
 4631.00    1.97994   1.78333    0.000
 4632.00    1.98156   1.76941    0.000
 4633.00    1.98554   1.75314    0.000
 4634.00    1.93865   1.73417    0.000
 4635.00    1.87957   1.71848    0.000
 4636.00    1.84913   1.70126    0.000
 4637.00    1.82423   1.68512    0.000
 4638.00    1.78380   1.67124    0.000
 4639.00    1.74105   1.65569    0.000
 4640.00    1.77891   1.64353    0.000
 4641.00    1.82565   1.63154    0.000
 4642.00    1.80753   1.61861    0.000
 4643.00    1.78469   1.60863    0.000
 4644.00    1.74610   1.60002    0.000
 4645.00    1.70692   1.59347    0.000
 4646.00    1.73023   1.59284    0.000
 4647.00    1.75237   1.59580    0.000
 4648.00    1.71948   1.60280    0.000
 4649.00    1.69193   1.61616    0.000
 4650.00    1.75161   1.62957    0.000
 4651.00    1.80950   1.64536    0.000
 4652.00    1.84907   1.66356    0.000
 4653.00    1.87412   1.67925    0.000
 4654.00    1.79308   1.69665    0.000
 4655.00    1.73810   1.71084    0.000
 4656.00    1.82884   1.72212    0.000
 4657.00    1.91668   1.73118    0.000
 4658.00    1.99155   1.73384    0.000
 4659.00    2.02822   1.73139    0.000
 4660.00    1.92492   1.72099    0.000
 4661.00    1.83632   1.70334    0.000
 4662.00    1.79279   1.68001    0.000
 4663.00    1.75867   1.65425    0.000
 4664.00    1.74912   1.63069    0.000
 4665.00    1.74992   1.61045    0.000
 4666.00    1.77392   1.59494    0.000
 4667.00    1.77878   1.58683    0.000
 4668.00    1.74647   1.58661    0.000
 4669.00    1.72401   1.59412    0.000
 4670.00    1.71825   1.60811    0.000
 4671.00    1.73116   1.62238    0.000
 4672.00    1.77176   1.63686    0.000
 4673.00    1.79116   1.64916    0.000
 4674.00    1.78290   1.65726    0.000
 4675.00    1.78056   1.66377    0.000
 4676.00    1.78502   1.66534    0.000
 4677.00    1.80496   1.66442    0.000
 4678.00    1.84057   1.66158    0.000
 4679.00    1.85530   1.65753    0.000
 4680.00    1.85136   1.65529    0.000
 4681.00    1.83427   1.65301    0.000
 4682.00    1.80682   1.65322    0.000
 4683.00    1.78282   1.65414    0.000
 4684.00    1.76122   1.65526    0.000
 4685.00    1.77691   1.65765    0.000
 4686.00    1.81526   1.65845    0.000
 4687.00    1.82538   1.65952    0.000
 4688.00    1.82053   1.66125    0.000
 4689.00    1.82742   1.66253    0.000
 4690.00    1.83972   1.66410    0.000
 4691.00    1.86562   1.66548    0.000
 4692.00    1.89693   1.66454    0.000
 4693.00    1.85080   1.66287    0.000
 4694.00    1.77853   1.65987    0.000
 4695.00    1.76820   1.65383    0.000
 4696.00    1.77545   1.64655    0.000
 4697.00    1.78575   1.63524    0.000
 4698.00    1.79678   1.62366    0.000
 4699.00    1.79451   1.61323    0.000
 4700.00    1.78975   1.60371    0.000
 4701.00    1.80694   1.59727    0.000
 4702.00    1.82732   1.59165    0.000
 4703.00    1.76826   1.58890    0.000
 4704.00    1.70081   1.58953    0.000
 4705.00    1.71597   1.59336    0.000
 4706.00    1.73681   1.59820    0.000
 4707.00    1.73169   1.60522    0.000
 4708.00    1.72569   1.61200    0.000
 4709.00    1.72759   1.62131    0.000
 4710.00    1.73147   1.63477    0.000
 4711.00    1.79969   1.64760    0.000
 4712.00    1.86205   1.66433    0.000
 4713.00    1.83445   1.68070    0.000
 4714.00    1.81394   1.69825    0.000
 4715.00    1.86294   1.71932    0.000
 4716.00    1.90902   1.73816    0.000
 4717.00    1.93434   1.75700    0.000
 4718.00    1.95906   1.77289    0.000
 4719.00    1.98055   1.78317    0.000
 4720.00    1.99108   1.78957    0.000
 4721.00    1.95385   1.78771    0.000
 4722.00    1.91555   1.77954    0.000
 4723.00    1.87345   1.76642    0.000
 4724.00    1.85600   1.74852    0.000
 4725.00    1.91274   1.72906    0.000
 4726.00    1.95795   1.70776    0.000
 4727.00    1.97362   1.68759    0.000
 4728.00    1.96426   1.67114    0.000
 4729.00    1.89974   1.66090    0.000
 4730.00    1.85055   1.65590    0.000
 4731.00    1.83068   1.65693    0.000
 4732.00    1.81957   1.66307    0.000
 4733.00    1.82306   1.67113    0.000
 4734.00    1.83174   1.68334    0.000
 4735.00    1.84803   1.69446    0.000
 4736.00    1.86676   1.70625    0.000
 4737.00    1.88865   1.71960    0.000
 4738.00    1.91473   1.73012    0.000
 4739.00    1.94555   1.74110    0.000
 4740.00    1.95063   1.75133    0.000
 4741.00    1.92999   1.75936    0.000
 4742.00    1.94220   1.76804    0.000
 4743.00    1.98336   1.77551    0.000
 4744.00    1.96956   1.78157    0.000
 4745.00    1.91310   1.78722    0.000
 4746.00    1.90624   1.78865    0.000
 4747.00    1.93323   1.78884    0.000
 4748.00    1.92442   1.78639    0.000
 4749.00    1.89418   1.78122    0.000
 4750.00    1.88220   1.77418    0.000
 4751.00    1.87974   1.76458    0.000
 4752.00    1.87725   1.75545    0.000
 4753.00    1.87473   1.74477    0.000
 4754.00    1.88387   1.73571    0.000
 4755.00    1.89756   1.72571    0.000
 4756.00    1.89129   1.71585    0.000
 4757.00    1.87841   1.70665    0.000
 4758.00    1.89929   1.69569    0.000
 4759.00    1.92955   1.68508    0.000
 4760.00    1.92497   1.67244    0.000
 4761.00    1.91243   1.66078    0.104
 4762.00    1.85121   1.65083    0.104
 4763.00    1.78107   1.64300    0.104
 4764.00    1.83136   1.63978    0.104
 4765.00    1.89861   1.63904    0.105
 4766.00    1.87738   1.64403    0.105
 4767.00    1.84718   1.65311    0.105
 4768.00    1.89094   1.66710    0.104
 4769.00    1.93949   1.68435    0.103
 4770.00    1.95592   1.69974    0.104
 4771.00    1.97139   1.71704    0.105
 4772.00    1.99556   1.73160    0.106
 4773.00    2.01889   1.74529    0.107
 4774.00    2.01796   1.75703    0.107
 4775.00    2.01767   1.76339    0.107
 4776.00    2.02663   1.76709    0.107
 4777.00    2.02869   1.76389    0.106
 4778.00    1.96576   1.75836    0.105
 4779.00    1.90768   1.75133    0.104
 4780.00    1.88280   1.73940    0.104
 4781.00    1.86589   1.72794    0.103
 4782.00    1.89113   1.71579    0.103
 4783.00    1.90810   1.70519    0.102
 4784.00    1.88985   1.69889    0.103
 4785.00    1.87152   1.69399    0.103
 4786.00    1.85291   1.69528    0.102
 4787.00    1.83437   1.70043    0.102
 4788.00    1.81599   1.70859    0.103
 4789.00    1.81654   1.72167    0.104
 4790.00    1.86478   1.73486    0.104
 4791.00    1.89111   1.74966    0.104
 4792.00    1.86992   1.76342    0.102
 4793.00    1.87665   1.77483    0.101
 4794.00    1.93594   1.78435    0.104
 4795.00    1.98887   1.79004    0.105
 4796.00    2.03134   1.79288    0.104
 4797.00    2.04181   1.79213    0.104
 4798.00    2.00619   1.78918    0.105
 4799.00    2.00657   1.78454    0.105
 4800.00    2.05257   1.78121    0.106
 4801.00    2.06423   1.77708    0.107
 4802.00    2.03756   1.77202    0.108
 4803.00    2.00929   1.76779    0.108
 4804.00    1.97944   1.76203    0.106
 4805.00    1.96035   1.75766    0.105
 4806.00    1.95060   1.75312    0.105
 4807.00    1.91859   1.75115    0.105
 4808.00    1.86955   1.75228    0.105
 4809.00    1.87258   1.75471    0.105
 4810.00    1.91065   1.75997    0.104
 4811.00    1.93246   1.76723    0.104
 4812.00    1.94470   1.77517    0.104
 4813.00    1.94737   1.78463    0.104
 4814.00    1.94514   1.79284    0.105
 4815.00    1.94786   1.80034    0.106
 4816.00    1.95278   1.80641    0.106
 4817.00    1.98211   1.80715    0.106
 4818.00    2.02078   1.80656    0.105
 4819.00    2.00602   1.80288    0.105
 4820.00    1.97389   1.79641    0.105
 4821.00    1.96478   1.78797    0.105
 4822.00    1.96194   1.77625    0.106
 4823.00    1.91450   1.76609    0.104
 4824.00    1.85709   1.75741    0.101
 4825.00    1.91103   1.74930    0.102
 4826.00    1.98482   1.74283    0.103
 4827.00    1.94597   1.73791    0.103
 4828.00    1.89178   1.73389    0.103
 4829.00    1.88522   1.73136    0.102
 4830.00    1.88329   1.72882    0.101
 4831.00    1.89768   1.72807    0.101
 4832.00    1.91307   1.72826    0.102
 4833.00    1.92620   1.72666    0.103
 4834.00    1.93879   1.72625    0.104
 4835.00    1.86743   1.72528    0.103
 4836.00    1.79841   1.72428    0.101
 4837.00    1.79021   1.72099    0.100
 4838.00    1.78444   1.71782    0.100
 4839.00    1.81172   1.71658    0.101
 4840.00    1.83823   1.71570    0.102
 4841.00    1.85775   1.71606    0.101
 4842.00    1.87537   1.71582    0.100
 4843.00    1.88035   1.71762    0.100
 4844.00    1.88347   1.72057    0.099
 4845.00    1.87703   1.72173    0.100
 4846.00    1.87234   1.72228    0.101
 4847.00    1.87492   1.71990    0.100
 4848.00    1.86773   1.71404    0.000
 4849.00    1.82690   1.70561    0.000
 4850.00    1.80886   1.69398    0.000
 4851.00    1.85691   1.68144    0.000
 4852.00    1.87947   1.66457    0.000
 4853.00    1.83896   1.64272    0.000
 4854.00    1.79035   1.61851    0.000
 4855.00    1.72445   1.59327    0.000
 4856.00    1.68268   1.57040    0.000
 4857.00    1.68562   1.54995    0.000
 4858.00    1.68082   1.53135    0.000
 4859.00    1.66349   1.51688    0.000
 4860.00    1.63434   1.50594    0.000
 4861.00    1.58838   1.50195    0.000
 4862.00    1.59451   1.50418    0.000
 4863.00    1.66573   1.51021    0.000
 4864.00    1.71489   1.52013    0.000
 4865.00    1.73977   1.52711    0.000
 4866.00    1.73891   1.53471    0.000
 4867.00    1.71305   1.54151    0.000
 4868.00    1.69620   1.54765    0.000
 4869.00    1.68705   1.55264    0.000
 4870.00    1.69031   1.55633    0.000
 4871.00    1.70292   1.56373    0.000
 4872.00    1.70418   1.57238    0.000
 4873.00    1.69793   1.58518    0.000
 4874.00    1.72411   1.59983    0.000
 4875.00    1.76912   1.61423    0.099
 4876.00    1.77308   1.62807    0.098
 4877.00    1.75628   1.63843    0.097
 4878.00    1.77941   1.64760    0.098
 4879.00    1.82003   1.65065    0.099
 4880.00    1.85095   1.64837    0.099
 4881.00    1.87821   1.64274    0.098
 4882.00    1.83164   1.63299    0.098
 4883.00    1.76152   1.62103    0.097
 4884.00    1.74111   1.60932    0.098
 4885.00    1.73394   1.59771    0.098
 4886.00    1.72698   1.59140    0.098
 4887.00    1.72006   1.59013    0.097
 4888.00    1.73061   1.59514    0.098
 4889.00    1.74419   1.60767    0.098
 4890.00    1.77458   1.62314    0.099
 4891.00    1.80718   1.64661    0.100
 4892.00    1.85508   1.67249    0.100
 4893.00    1.90441   1.70076    0.100
 4894.00    1.91550   1.72842    0.101
 4895.00    1.92443   1.75038    0.102
 4896.00    1.93683   1.76736    0.102
 4897.00    1.94916   1.77773    0.103
 4898.00    1.94603   1.78300    0.103
 4899.00    1.94316   1.78384    0.103
 4900.00    1.94667   1.78201    0.101
 4901.00    1.95231   1.77648    0.099
 4902.00    1.98573   1.76939    0.101
 4903.00    2.00920   1.76208    0.103
 4904.00    1.94628   1.75385    0.102
 4905.00    1.88237   1.74676    0.100
 4906.00    1.81209   1.73881    0.100
 4907.00    1.75260   1.73115    0.101
 4908.00    1.74742   1.72227    0.100
 4909.00    1.76003   1.71278    0.101
 4910.00    1.84500   1.70388    0.102
 4911.00    1.90757   1.69396    0.102
 4912.00    1.89454   1.68285    0.101
 4913.00    1.88255   1.66943    0.100
 4914.00    1.87350   1.65454    0.100
 4915.00    1.84502   1.63693    0.100
 4916.00    1.76928   1.61897    0.101
 4917.00    1.71329   1.60050    0.101
 4918.00    1.69872   1.58501    0.100
 4919.00    1.71663   1.57462    0.099
 4920.00    1.79377   1.57252    0.099
 4921.00    1.82374   1.58042    0.099
 4922.00    1.77848   1.59493    0.099
 4923.00    1.74637   1.61635    0.099
 4924.00    1.73265   1.63998    0.100
 4925.00    1.75975   1.66503    0.100
 4926.00    1.83712   1.68895    0.100
 4927.00    1.86047   1.70982    0.100
 4928.00    1.82517   1.72653    0.101
 4929.00    1.83083   1.73499    0.101
 4930.00    1.87570   1.73697    0.100
 4931.00    1.89644   1.73247    0.100
 4932.00    1.89680   1.72184    0.100
 4933.00    1.85531   1.71004    0.100
 4934.00    1.78270   1.69818    0.100
 4935.00    1.76293   1.68802    0.100
 4936.00    1.77767   1.68188    0.099
 4937.00    1.80197   1.67916    0.099
 4938.00    1.83175   1.68172    0.100
 4939.00    1.85104   1.69059    0.101
 4940.00    1.86510   1.70521    0.000
 4941.00    1.87326   1.72327    0.000
 4942.00    1.87889   1.74322    0.000
 4943.00    1.89549   1.76225    0.000
 4944.00    1.91614   1.77860    0.000
 4945.00    1.92485   1.79198    0.000
 4946.00    1.92984   1.80204    0.000
 4947.00    1.95953   1.80682    0.000
 4948.00    1.99568   1.80753    0.000
 4949.00    2.02124   1.80080    0.000
 4950.00    2.04455   1.78981    0.000
 4951.00    1.99379   1.77374    0.000
 4952.00    1.93054   1.75438    0.000
 4953.00    1.94439   1.73405    0.000
 4954.00    1.96805   1.71214    0.000
 4955.00    1.95820   1.69431    0.000
 4956.00    1.94538   1.67682    0.000
 4957.00    1.86307   1.66554    0.000
 4958.00    1.77709   1.65973    0.000
 4959.00    1.80078   1.65795    0.000
 4960.00    1.82659   1.66105    0.000
 4961.00    1.85387   1.66362    0.000
 4962.00    1.87880   1.66624    0.000
 4963.00    1.85247   1.66783    0.000
 4964.00    1.82873   1.66901    0.000
 4965.00    1.83670   1.67015    0.000
 4966.00    1.84531   1.67245    0.000
 4967.00    1.85925   1.67526    0.000
 4968.00    1.86726   1.68074    0.000
 4969.00    1.83822   1.68550    0.000
 4970.00    1.81386   1.68991    0.000
 4971.00    1.81245   1.69390    0.000
 4972.00    1.81246   1.69408    0.000
 4973.00    1.81813   1.69152    0.000
 4974.00    1.81934   1.68257    0.000
 4975.00    1.80576   1.66927    0.000
 4976.00    1.79002   1.65256    0.000
 4977.00    1.76825   1.63119    0.000
 4978.00    1.75907   1.60989    0.000
 4979.00    1.77998   1.58916    0.000
 4980.00    1.78078   1.57093    0.000
 4981.00    1.74003   1.55659    0.000
 4982.00    1.69817   1.54761    0.000
 4983.00    1.65433   1.54466    0.000
 4984.00    1.63104   1.54817    0.000
 4985.00    1.64006   1.55679    0.000
 4986.00    1.66236   1.56907    0.000
 4987.00    1.70295   1.58238    0.000
 4988.00    1.73911   1.59561    0.000
 4989.00    1.76988   1.60751    0.000
 4990.00    1.78730   1.61542    0.000
 4991.00    1.79043   1.62175    0.000
 4992.00    1.79493   1.62414    0.000
 4993.00    1.80072   1.62280    0.000
 4994.00    1.80021   1.61903    0.000
 4995.00    1.79444   1.61041    0.000
 4996.00    1.77480   1.59932    0.000
 4997.00    1.74498   1.58572    0.000
 4998.00    1.75549   1.56872    0.000
 4999.00    1.79197   1.55212    0.000
 5000.00    1.78049   1.53592    0.000
 5001.00    1.74201   1.52075    0.000
 5002.00    1.72076   1.50789    0.000
 5003.00    1.70795   1.49735    0.000
 5004.00    1.73237   1.48833    0.000
 5005.00    1.77257   1.48133    0.000
 5006.00    1.74441   1.47597    0.000
 5007.00    1.69147   1.47273    0.000
 5008.00    1.66187   1.46977    0.000
 5009.00    1.63942   1.46657    0.000
 5010.00    1.67145   1.46277    0.000
 5011.00    1.71738   1.45685    0.000
 5012.00    1.70460   1.45268    0.000
 5013.00    1.67962   1.44834    0.000
 5014.00    1.61303   1.44673    0.000
 5015.00    1.53964   1.44822    0.000
 5016.00    1.52534   1.45194    0.000
 5017.00    1.51828   1.45748    0.000
 5018.00    1.57572   1.46509    0.000
 5019.00    1.63861   1.47299    0.000
 5020.00    1.63159   1.48309    0.000
 5021.00    1.62115   1.49365    0.000
 5022.00    1.62371   1.50506    0.000
 5023.00    1.62613   1.51815    0.000
 5024.00    1.60839   1.53055    0.000
 5025.00    1.59283   1.54533    0.000
 5026.00    1.62075   1.55731    0.000
 5027.00    1.65032   1.56954    0.000
 5028.00    1.69915   1.58068    0.000
 5029.00    1.74359   1.58887    0.099
 5030.00    1.75257   1.59496    0.099
 5031.00    1.75849   1.59556    0.099
 5032.00    1.74590   1.59178    0.098
 5033.00    1.74062   1.58236    0.098
 5034.00    1.77028   1.56936    0.099
 5035.00    1.77961   1.55277    0.099
 5036.00    1.70979   1.53697    0.097
 5037.00    1.64196   1.52226    0.095
 5038.00    1.58061   1.51139    0.095
 5039.00    1.53392   1.50585    0.095
 5040.00    1.52751   1.50347    0.095
 5041.00    1.54110   1.50892    0.095
 5042.00    1.60174   1.51854    0.097
 5043.00    1.64653   1.53125    0.098
 5044.00    1.65911   1.54555    0.096
 5045.00    1.65850   1.55779    0.096
 5046.00    1.63454   1.56790    0.096
 5047.00    1.62908   1.57512    0.096
 5048.00    1.65225   1.58076    0.096
 5049.00    1.67204   1.58594    0.097
 5050.00    1.68722   1.59242    0.097
 5051.00    1.70480   1.60084    0.098
 5052.00    1.72524   1.61159    0.099
 5053.00    1.73338   1.62338    0.099
 5054.00    1.72852   1.63614    0.099
 5055.00    1.72573   1.64798    0.099
 5056.00    1.72486   1.65798    0.098
 5057.00    1.76240   1.66503    0.098
 5058.00    1.83147   1.66830    0.098
 5059.00    1.83782   1.66739    0.098
 5060.00    1.79885   1.66289    0.096
 5061.00    1.77921   1.65372    0.095
 5062.00    1.77181   1.64223    0.095
 5063.00    1.75291   1.62804    0.095
 5064.00    1.72764   1.61294    0.096
 5065.00    1.71258   1.60006    0.096
 5066.00    1.70245   1.58773    0.096
 5067.00    1.70890   1.57911    0.095
 5068.00    1.72225   1.57196    0.094
 5069.00    1.70212   1.56614    0.093
 5070.00    1.67007   1.56121    0.092
 5071.00    1.65099   1.55558    0.093
 5072.00    1.63582   1.55011    0.093
 5073.00    1.64597   1.54255    0.094
 5074.00    1.66244   1.53398    0.094
 5075.00    1.67399   1.52481    0.093
 5076.00    1.68454   1.51451    0.093
 5077.00    1.65823   1.50511    0.093
 5078.00    1.62607   1.49585    0.094
 5079.00    1.58184   1.49049    0.092
 5080.00    1.53618   1.48823    0.090
 5081.00    1.55872   1.49080    0.090
 5082.00    1.58673   1.49824    0.089
 5083.00    1.63388   1.50950    0.090
 5084.00    1.68189   1.52344    0.090
 5085.00    1.66623   1.53866    0.090
 5086.00    1.65092   1.55461    0.089
 5087.00    1.69007   1.56924    0.090
 5088.00    1.72803   1.58188    0.090
 5089.00    1.74393   1.59123    0.088
 5090.00    1.75600   1.59734    0.087
 5091.00    1.72552   1.59960    0.089
 5092.00    1.69776   1.59805    0.092
 5093.00    1.69118   1.59250    0.091
 5094.00    1.68289   1.58409    0.090
 5095.00    1.66447   1.57381    0.091
 5096.00    1.64949   1.56220    0.092
 5097.00    1.65049   1.55142    0.091
 5098.00    1.64650   1.54095    0.091
 5099.00    1.62352   1.53380    0.090
 5100.00    1.61257   1.52742    0.090
 5101.00    1.63989   1.52358    0.090
 5102.00    1.65903   1.52030    0.091
 5103.00    1.65618   1.51727    0.090
 5104.00    1.63885   1.51474    0.091
 5105.00    1.58808   1.51308    0.093
 5106.00    1.56541   1.51282    0.094
 5107.00    1.59896   1.51439    0.093
 5108.00    1.61313   1.51877    0.093
 5109.00    1.59352   1.52456    0.092
 5110.00    1.60302   1.53398    0.093
 5111.00    1.65692   1.54452    0.096
 5112.00    1.67940   1.55538    0.097
 5113.00    1.65976   1.56622    0.096
 5114.00    1.66269   1.57433    0.095
 5115.00    1.69227   1.57915    0.096
 5116.00    1.70869   1.58046    0.097
 5117.00    1.71142   1.57627    0.098
 5118.00    1.69375   1.56766    0.098
 5119.00    1.65735   1.55498    0.098
 5120.00    1.63761   1.53857    0.097
 5121.00    1.63135   1.52153    0.094
 5122.00    1.60134   1.50374    0.094
 5123.00    1.55444   1.48846    0.094
 5124.00    1.53977   1.47624    0.095
 5125.00    1.54522   1.46824    0.095
 5126.00    1.52059   1.46466    0.094
 5127.00    1.47954   1.46513    0.094
 5128.00    1.51593   1.46885    0.095
 5129.00    1.58905   1.47467    0.096
 5130.00    1.61063   1.48267    0.095
 5131.00    1.61110   1.48991    0.094
 5132.00    1.61397   1.49677    0.094
 5133.00    1.61767   1.50070    0.095
 5134.00    1.62508   1.50295    0.096
 5135.00    1.63359   1.50173    0.097
 5136.00    1.61365   1.49790    0.095
 5137.00    1.58676   1.49269    0.094
 5138.00    1.61854   1.48455    0.095
 5139.00    1.66190   1.47763    0.097
 5140.00    1.58957   1.47042    0.095
 5141.00    1.49941   1.46293    0.092
 5142.00    1.51104   1.45715    0.093
 5143.00    1.53427   1.45173    0.094
 5144.00    1.54569   1.44699    0.093
 5145.00    1.55621   1.44437    0.092
 5146.00    1.53291   1.44255    0.092
 5147.00    1.50823   1.44189    0.092
 5148.00    1.52689   1.44395    0.092
 5149.00    1.54396   1.44730    0.092
 5150.00    1.47892   1.45315    0.091
 5151.00    1.41968   1.46052    0.090
 5152.00    1.46118   1.46940    0.090
 5153.00    1.50531   1.47902    0.091
 5154.00    1.57748   1.48877    0.091
 5155.00    1.63947   1.49641    0.090
 5156.00    1.62483   1.50072    0.091
 5157.00    1.60945   1.49977    0.092
 5158.00    1.58974   1.49169    0.091
 5159.00    1.56641   1.47585    0.091
 5160.00    1.52661   1.45206    0.090
 5161.00    1.49021   1.41996    0.090
 5162.00    1.46647   1.38287    0.090
 5163.00    1.44619   1.34112    0.090
 5164.00    1.43670   1.29761    0.090
 5165.00    1.40398   1.25619    0.090
 5166.00    1.30975   1.21788    0.088
 5167.00    1.22626   1.18757    0.087
 5168.00    1.16717   1.16591    0.086
 5169.00    1.13473   1.15495    0.086
 5170.00    1.15475   1.15267    0.087
 5171.00    1.17715   1.15808    0.087
 5172.00    1.20362   1.16998    0.087
 5173.00    1.22256   1.18687    0.086
 5174.00    1.23015   1.20657    0.085
 5175.00    1.25866   1.22591    0.085
 5176.00    1.31479   1.24224    0.088
 5177.00    1.36604   1.25366    0.089
 5178.00    1.41161   1.26027    0.090
 5179.00    1.39889   1.26361    0.089
 5180.00    1.32636   1.26475    0.087
 5181.00    1.29235   1.26594    0.087
 5182.00    1.29318   1.26903    0.087
 5183.00    1.30371   1.27609    0.088
 5184.00    1.32197   1.28904    0.088
 5185.00    1.36573   1.30580    0.089
 5186.00    1.42740   1.32681    0.090
 5187.00    1.45134   1.34768    0.091
 5188.00    1.45207   1.36753    0.090
 5189.00    1.46001   1.38596    0.091
 5190.00    1.47182   1.40107    0.000
 5191.00    1.46345   1.41475    0.000
 5192.00    1.44565   1.42643    0.000
 5193.00    1.46718   1.43714    0.000
 5194.00    1.50454   1.44681    0.000
 5195.00    1.53106   1.45603    0.000
 5196.00    1.55387   1.46251    0.000
 5197.00    1.56070   1.46596    0.000
 5198.00    1.56292   1.46617    0.000
 5199.00    1.56920   1.46139    0.000
 5200.00    1.57644   1.45237    0.000
 5201.00    1.57094   1.43911    0.000
 5202.00    1.56298   1.42391    0.000
 5203.00    1.54410   1.40734    0.000
 5204.00    1.52358   1.39274    0.000
 5205.00    1.49759   1.38156    0.000
 5206.00    1.47101   1.37653    0.000
 5207.00    1.49397   1.37710    0.000
 5208.00    1.52050   1.38544    0.000
 5209.00    1.49421   1.39936    0.000
 5210.00    1.46595   1.41752    0.000
 5211.00    1.49464   1.43998    0.092
 5212.00    1.52472   1.46187    0.091
 5213.00    1.59605   1.48397    0.091
 5214.00    1.66192   1.50218    0.091
 5215.00    1.63930   1.51769    0.091
 5216.00    1.62113   1.52871    0.091
 5217.00    1.64835   1.53556    0.091
 5218.00    1.67310   1.53825    0.091
 5219.00    1.67999   1.53580    0.091
 5220.00    1.68139   1.52980    0.090
 5221.00    1.65218   1.51992    0.091
 5222.00    1.62079   1.50844    0.092
 5223.00    1.57970   1.49671    0.090
 5224.00    1.54664   1.48629    0.090
 5225.00    1.54295   1.47931    0.090
 5226.00    1.53473   1.47625    0.090
 5227.00    1.51267   1.47931    0.089
 5228.00    1.50240   1.48691    0.088
 5229.00    1.52280   1.49860    0.089
 5230.00    1.54400   1.51379    0.090
 5231.00    1.56699   1.52966    0.089
 5232.00    1.59189   1.54625    0.089
 5233.00    1.62051   1.56393    0.089
 5234.00    1.64843   1.58025    0.090
 5235.00    1.67519   1.59701    0.090
 5236.00    1.68556   1.61163    0.091
 5237.00    1.67163   1.62394    0.090
 5238.00    1.67483   1.63308    0.090
 5239.00    1.70033   1.63836    0.090
 5240.00    1.71489   1.63998    0.089
 5241.00    1.71690   1.63767    0.089
 5242.00    1.71502   1.63176    0.089
 5243.00    1.70922   1.62315    0.089
 5244.00    1.70268   1.61194    0.090
 5245.00    1.69550   1.59951    0.089
 5246.00    1.66789   1.58668    0.089
 5247.00    1.62423   1.57535    0.090
 5248.00    1.61076   1.56623    0.090
 5249.00    1.61818   1.56015    0.089
 5250.00    1.63373   1.55791    0.090
 5251.00    1.65422   1.55835    0.091
 5252.00    1.63492   1.56065    0.091
 5253.00    1.59457   1.56469    0.091
 5254.00    1.61631   1.56676    0.092
 5255.00    1.66656   1.56736    0.092
 5256.00    1.70155   1.56341    0.093
 5257.00    1.73051   1.55437    0.093
 5258.00    1.72246   1.53967    0.094
 5259.00    1.70195   1.51778    0.096
 5260.00    1.67598   1.49116    0.096
 5261.00    1.64847   1.46008    0.096
 5262.00    1.60597   1.42837    0.096
 5263.00    1.55998   1.39723    0.096
 5264.00    1.48918   1.37051    0.096
 5265.00    1.41372   1.34901    0.095
 5266.00    1.37205   1.33624    0.095
 5267.00    1.33526   1.33124    0.095
 5268.00    1.38903   1.33441    0.095
 5269.00    1.45233   1.34612    0.095
 5270.00    1.40118   1.36483    0.095
 5271.00    1.34224   1.38962    0.094
 5272.00    1.44553   1.41861    0.095
 5273.00    1.55427   1.44967    0.096
 5274.00    1.60882   1.47920    0.096
 5275.00    1.66132   1.50736    0.096
 5276.00    1.65023   1.53327    0.095
 5277.00    1.64067   1.55539    0.094
 5278.00    1.65443   1.57507    0.094
 5279.00    1.66738   1.59101    0.094
 5280.00    1.67248   1.60517    0.092
 5281.00    1.67901   1.61789    0.090
 5282.00    1.69558   1.63102    0.091
 5283.00    1.70205   1.64409    0.092
 5284.00    1.65372   1.65848    0.091
 5285.00    1.63176   1.67208    0.090
 5286.00    1.72446   1.68481    0.091
 5287.00    1.80282   1.69467    0.091
 5288.00    1.82989   1.70053    0.091
 5289.00    1.85421   1.70204    0.090
 5290.00    1.87029   1.69869    0.090
 5291.00    1.87021   1.69105    0.090
 5292.00    1.82880   1.67943    0.090
 5293.00    1.78793   1.66535    0.090
 5294.00    1.74825   1.65071    0.090
 5295.00    1.72070   1.63686    0.089
 5296.00    1.71629   1.62624    0.089
 5297.00    1.71004   1.61951    0.090
 5298.00    1.70070   1.61890    0.091
 5299.00    1.68609   1.62386    0.091
 5300.00    1.66377   1.63421    0.091
 5301.00    1.66138   1.64893    0.090
 5302.00    1.68453   1.66588    0.091
 5303.00    1.71571   1.68439    0.091
 5304.00    1.75597   1.70273    0.090
 5305.00    1.78947   1.71940    0.090
 5306.00    1.81623   1.73312    0.091
 5307.00    1.81093   1.74353    0.091
 5308.00    1.77745   1.75056    0.091
 5309.00    1.79300   1.75397    0.092
 5310.00    1.84655   1.75425    0.094
 5311.00    1.89317   1.75123    0.096
 5312.00    1.93507   1.74538    0.098
 5313.00    1.95535   1.73727    0.100
 5314.00    1.96271   1.72707    0.101
 5315.00    1.98232   1.71506    0.101
 5316.00    2.00830   1.70115    0.100
 5317.00    1.95630   1.68562    0.098
 5318.00    1.86906   1.66790    0.095
 5319.00    1.80817   1.64861    0.094
 5320.00    1.75751   1.62771    0.093
 5321.00    1.73447   1.60531    0.092
 5322.00    1.72055   1.58337    0.092
 5323.00    1.73745   1.56129    0.093
 5324.00    1.76290   1.54312    0.094
 5325.00    1.67308   1.52759    0.093
 5326.00    1.55697   1.51839    0.091
 5327.00    1.53136   1.51398    0.091
 5328.00    1.52227   1.51698    0.090
 5329.00    1.55078   1.52540    0.091
 5330.00    1.58456   1.53929    0.091
 5331.00    1.60527   1.55652    0.091
 5332.00    1.62466   1.57387    0.090
 5333.00    1.62691   1.59057    0.090
 5334.00    1.62807   1.60440    0.089
 5335.00    1.70351   1.61537    0.091
 5336.00    1.78084   1.62252    0.092
 5337.00    1.72148   1.62628    0.092
 5338.00    1.66496   1.62726    0.091
 5339.00    1.68955   1.62648    0.090
 5340.00    1.71086   1.62532    0.089
 5341.00    1.68490   1.62472    0.088
 5342.00    1.66258   1.62528    0.088
 5343.00    1.67434   1.62776    0.088
 5344.00    1.68423   1.63209    0.088
 5345.00    1.68145   1.63769    0.087
 5346.00    1.67726   1.64651    0.087
 5347.00    1.66572   1.65659    0.086
 5348.00    1.66100   1.66978    0.085
 5349.00    1.68530   1.68448    0.086
 5350.00    1.70650   1.70081    0.087
 5351.00    1.71678   1.71769    0.087
 5352.00    1.73290   1.73432    0.088
 5353.00    1.76623   1.74905    0.088
 5354.00    1.79557   1.76141    0.088
 5355.00    1.81488   1.76965    0.088
 5356.00    1.83835   1.77434    0.089
 5357.00    1.87081   1.77368    0.090
 5358.00    1.88249   1.76877    0.090
 5359.00    1.85513   1.75920    0.091
 5360.00    1.83228   1.74584    0.091
 5361.00    1.81682   1.72936    0.089
 5362.00    1.80503   1.71067    0.088
 5363.00    1.79851   1.69110    0.088
 5364.00    1.75829   1.67117    0.089
 5365.00    1.67544   1.65309    0.089
 5366.00    1.63241   1.63665    0.090
 5367.00    1.63379   1.62405    0.090
 5368.00    1.62197   1.61560   -2.000
 5369.00    1.59717   1.61136   -2.000
 5370.00    1.55317   1.61266   -2.000
 5371.00    1.49252   1.61788   -2.000
 5372.00    1.49200   1.62819   -2.000
 5373.00    1.53740   1.64040   -2.000
 5374.00    1.62358   1.65481   -2.000
 5375.00    1.73715   1.66808   -2.000
 5376.00    1.77466   1.67990   -2.000
 5377.00    1.76745   1.68958   -2.000
 5378.00    1.76399   1.69614   -2.000
 5379.00    1.76247   1.70011   -2.000
 5380.00    1.73399   1.70088   -2.000
 5381.00    1.69353   1.69914   -2.000
 5382.00    1.70277   1.69460   -2.000
 5383.00    1.73098   1.68831    0.092
 5384.00    1.74345   1.68008    0.092
 5385.00    1.75082   1.67003    0.093
 5386.00    1.71211   1.65876    0.091
 5387.00    1.66089   1.64586    0.090
 5388.00    1.66622   1.63209    0.089
 5389.00    1.68416   1.61777    0.088
 5390.00    1.69507   1.60352    0.089
 5391.00    1.70473   1.58994    0.090
 5392.00    1.65617   1.57729    0.089
 5393.00    1.59970   1.56645    0.089
 5394.00    1.61405   1.55667    0.089
 5395.00    1.63524   1.54911    0.089
 5396.00    1.63045   1.54183    0.089
 5397.00    1.62409   1.53688    0.089
 5398.00    1.60521   1.53143    0.088
 5399.00    1.58635   1.52706    0.086
 5400.00    1.62515   1.52232    0.086
 5401.00    1.66015   1.51742    0.086
 5402.00    1.59716   1.51269    0.086
 5403.00    1.54000   1.50865    0.085
 5404.00    1.56180   1.50682    0.086
 5405.00    1.58029   1.50698    0.087
 5406.00    1.56896   1.51165    0.085
 5407.00    1.55791   1.51950    0.084
 5408.00    1.54874   1.53201    0.085
 5409.00    1.54422   1.54685    0.085
 5410.00    1.56360   1.56480    0.086
 5411.00    1.58102   1.58344    0.087
 5412.00    1.59024   1.60292    0.087
 5413.00    1.60380   1.62107    0.087
 5414.00    1.63231   1.63723    0.087
 5415.00    1.66336   1.65043    0.087
 5416.00    1.70174   1.66072    0.087
 5417.00    1.73547   1.66739    0.088
 5418.00    1.75770   1.67124    0.090
 5419.00    1.76097   1.67147    0.091
 5420.00    1.72389   1.66963    0.089
 5421.00    1.71347   1.66526    0.088
 5422.00    1.75233   1.65952    0.089
 5423.00    1.75180   1.65179    0.089
 5424.00    1.68759   1.64342    0.089
 5425.00    1.65563   1.63350    0.089
 5426.00    1.66935   1.62370    0.090
 5427.00    1.67064   1.61352    0.090
 5428.00    1.65641   1.60398    0.091
 5429.00    1.64561   1.59552    0.091
 5430.00    1.63858   1.58998    0.090
 5431.00    1.60105   1.58698    0.089
 5432.00    1.53396   1.58853    0.088
 5433.00    1.55175   1.59327    0.087
 5434.00    1.64211   1.60129    0.088
 5435.00    1.69263   1.61253    0.088
 5436.00    1.71315   1.62493    0.088
 5437.00    1.72965   1.63836    0.088
 5438.00    1.74349   1.64972    0.089
 5439.00    1.75352   1.65915    0.088
 5440.00    1.76135   1.66427    0.088
 5441.00    1.75864   1.66594    0.087
 5442.00    1.75062   1.66310    0.087
 5443.00    1.73293   1.65773    0.087
 5444.00    1.71102   1.64917    0.086
 5445.00    1.69868   1.64041    0.086
 5446.00    1.68993   1.63011    0.086
 5447.00    1.70151   1.62218    0.086
 5448.00    1.71956   1.61378    0.086
 5449.00    1.67217   1.60853    0.084
 5450.00    1.60739   1.60300    0.083
 5451.00    1.57863   1.59961    0.084
 5452.00    1.55770   1.59623    0.085
 5453.00    1.54804   1.59454    0.085
 5454.00    1.54032   1.59328    0.084
 5455.00    1.56322   1.59332    0.085
 5456.00    1.59012   1.59436    0.086
 5457.00    1.60022   1.59599    0.086
 5458.00    1.60876   1.59860    0.087
 5459.00    1.59829   1.60087    0.086
 5460.00    1.58676   1.60311    0.086
 5461.00    1.59050   1.60483    0.086
 5462.00    1.59482   1.60595    0.085
 5463.00    1.62349   1.60673    0.085
 5464.00    1.65060   1.60647    0.084
 5465.00    1.64095   1.60537    0.085
 5466.00    1.63362   1.60296    0.086
 5467.00    1.65599   1.59918    0.086
 5468.00    1.67483   1.59361    0.086
 5469.00    1.66310   1.58701    0.087
 5470.00    1.65497   1.57893    0.087
 5471.00    1.66994   1.57060    0.089
 5472.00    1.67053   1.56174    0.089
 5473.00    1.59901   1.55411    0.088
 5474.00    1.54102   1.54722    0.088
 5475.00    1.53797   1.54251    0.090
 5476.00    1.53050   1.53966    0.091
 5477.00    1.50818   1.53990    0.090
 5478.00    1.49321   1.54176   -2.000
 5479.00    1.49910   1.54669   -2.000
 5480.00    1.50253   1.55251   -2.000
 5481.00    1.49995   1.55985   -2.000
 5482.00    1.49242   1.56736   -2.000
 5483.00    1.47449   1.57514   -2.000
 5484.00    1.43123   1.58288   -2.000
 5485.00    1.34182   1.58930   -2.000
 5486.00    1.26028   1.59537   -2.000
 5487.00    1.19127   1.59957   -2.000
 5488.00    1.21095   1.60365   -2.000
 5489.00    1.35456   1.60604   -2.000
 5490.00    1.54493   1.60863   -2.000
 5491.00    1.79277   1.60984   -2.000
 5492.00    1.89206   1.61082   -2.000
 5493.00    1.83037   1.61093   -2.000
 5494.00    1.85797   1.61059   -2.000
 5495.00    1.97092   1.60934   -2.000
 5496.00    2.00159   1.60767   -2.000
 5497.00    1.96293   1.60500   -2.000
 5498.00    1.83094   1.60195   -2.000
 5499.00    1.62968   1.59776   -2.000
 5500.00    1.56677   1.59374   -2.000
 5501.00    1.59406   1.58854   -2.000
 5502.00    1.61254   1.58383    0.084
 5503.00    1.62597   1.57837    0.086
 5504.00    1.60581   1.57402    0.086
 5505.00    1.56895   1.56912    0.085
 5506.00    1.56402   1.56551    0.085
 5507.00    1.57281   1.56187    0.084
 5508.00    1.57627   1.55968    0.084
 5509.00    1.57778   1.55830    0.084
 5510.00    1.55899   1.55859    0.084
 5511.00    1.53388   1.56009    0.084
 5512.00    1.54249   1.56375    0.085
 5513.00    1.55986   1.56910    0.085
 5514.00    1.57470   1.57614    0.086
 5515.00    1.58899   1.58469    0.088
 5516.00    1.56272   1.59347    0.087
 5517.00    1.52963   1.60246    0.086
 5518.00    1.52980   1.61000    0.086
 5519.00    1.53418   1.61623    0.086
 5520.00    1.53604   1.61998    0.087
 5521.00    1.53768   1.62148    0.089
 5522.00    1.58876   1.62067    0.089
 5523.00    1.64243   1.61807    0.088
 5524.00    1.68892   1.61425    0.089
 5525.00    1.73362   1.60985    0.089
 5526.00    1.65215   1.60567    0.087
 5527.00    1.57462   1.60215    0.085
 5528.00    1.58196   1.59991    0.087
 5529.00    1.59062   1.59906    0.088
 5530.00    1.61541   1.59967    0.087
 5531.00    1.63532   1.60180    0.086
 5532.00    1.61466   1.60475    0.087
 5533.00    1.60252   1.60867    0.087
 5534.00    1.64348   1.61306    0.087
 5535.00    1.67112   1.61795    0.086
 5536.00    1.63373   1.62308    0.085
 5537.00    1.61004   1.62813    0.085
 5538.00    1.64077   1.63346    0.085
 5539.00    1.66866   1.63825    0.084
 5540.00    1.68718   1.64325    0.084
 5541.00    1.68905   1.64771    0.083
 5542.00    1.64447   1.65219    0.082
 5543.00    1.61577   1.65620    0.081
 5544.00    1.62497   1.66008    0.081
 5545.00    1.63755   1.66353    0.081
 5546.00    1.65709   1.66663    0.082
 5547.00    1.68339   1.66894    0.083
 5548.00    1.72179   1.67042    0.084
 5549.00    1.73540   1.67090    0.085
 5550.00    1.71014   1.67021    0.084
 5551.00    1.69803   1.66820    0.083
 5552.00    1.70403   1.66519    0.083
 5553.00    1.70626   1.66103    0.083
 5554.00    1.70391   1.65620    0.084
 5555.00    1.69087   1.65054    0.084
 5556.00    1.66639   1.64465    0.084
 5557.00    1.65069   1.63820    0.084
 5558.00    1.64326   1.63172    0.085
 5559.00    1.64000   1.62487    0.086
 5560.00    1.64021   1.61825    0.085
 5561.00    1.62475   1.61158    0.085
 5562.00    1.59784   1.60536    0.086
 5563.00    1.61038   1.59954    0.086
 5564.00    1.64828   1.59459    0.086
 5565.00    1.64594   1.59048    0.086
 5566.00    1.62101   1.58771    0.087
 5567.00    1.61458   1.58582    0.086
 5568.00    1.61721   1.58558    0.084
 5569.00    1.61203   1.58622    0.085
 5570.00    1.60356   1.58823    0.086
 5571.00    1.61189   1.59075    0.086
 5572.00    1.62631   1.59407    0.086
 5573.00    1.59663   1.59727    0.085
 5574.00    1.55346   1.60009    0.085
 5575.00    1.57033   1.60210    0.085
 5576.00    1.60249   1.60268    0.085
 5577.00    1.62089   1.60133    0.085
 5578.00    1.63645   1.59782    0.084
 5579.00    1.64060   1.59184    0.083
 5580.00    1.64290   1.58354    0.082
 5581.00    1.65253   1.57310    0.083
 5582.00    1.66305   1.56117    0.084
 5583.00    1.63464   1.54834    0.083
 5584.00    1.60296   1.53571    0.082
 5585.00    1.57759   1.52399    0.082
 5586.00    1.55253   1.51429    0.082
 5587.00    1.55158   1.50699    0.082
 5588.00    1.55055   1.50279    0.082
 5589.00    1.52287   1.50134    0.081
 5590.00    1.49735   1.50280    0.081
 5591.00    1.51471   1.50612    0.082
 5592.00    1.52944   1.51115    0.083
 5593.00    1.51361   1.51672    0.084
 5594.00    1.50048   1.52254    0.084
 5595.00    1.50908   1.52821    0.082
 5596.00    1.52412   1.53332    0.082
 5597.00    1.57811   1.53879    0.084
 5598.00    1.61361   1.54385    0.086
 5599.00    1.56104   1.55042    0.085
 5600.00    1.52287   1.55706    0.084
 5601.00    1.54064   1.56600    0.085
 5602.00    1.55411   1.57503    0.085
 5603.00    1.55372   1.58580    0.085
 5604.00    1.56129   1.59574    0.086
 5605.00    1.59066   1.60567    0.085
 5606.00    1.60930   1.61332    0.085
 5607.00    1.60275   1.61901    0.085
 5608.00    1.60518   1.62127    0.085
 5609.00    1.62581   1.62059    0.084
 5610.00    1.62765   1.61648    0.084
 5611.00    1.59629   1.60998    0.082
 5612.00    1.58781   1.60125    0.082
 5613.00    1.61470   1.59171    0.084
 5614.00    1.60417   1.58190    0.084
 5615.00    1.54287   1.57278    0.082
 5616.00    1.49824   1.56493    0.081
 5617.00    1.47355   1.55852    0.080
 5618.00    1.48483   1.55410    0.080
 5619.00    1.53401   1.55114    0.079
 5620.00    1.55035   1.55020    0.079
 5621.00    1.53618   1.55040    0.079
 5622.00    1.51711   1.55236    0.079
 5623.00    1.49405   1.55529    0.078
 5624.00    1.49436   1.55966    0.078
 5625.00    1.51152   1.56464    0.078
 5626.00    1.52153   1.57052    0.078
 5627.00    1.52700   1.57606    0.077
 5628.00    1.52963   1.58164    0.077
 5629.00    1.53068   1.58585    0.076
 5630.00    1.55652   1.58912    0.077
 5631.00    1.59428   1.59032    0.078
 5632.00    1.62292   1.59019    0.078
 5633.00    1.64777   1.58818    0.077
 5634.00    1.61280   1.58518    0.077
 5635.00    1.55658   1.58124    0.077
 5636.00    1.52149   1.57715    0.078
 5637.00    1.49275   1.57327    0.079
 5638.00    1.50076   1.57018    0.079
 5639.00    1.51792   1.56795    0.078
 5640.00    1.51096   1.56699    0.079
 5641.00    1.49914   1.56700    0.079
 5642.00    1.54665   1.56844    0.080
 5643.00    1.60356   1.57028    0.080
 5644.00    1.60269   1.57311    0.080
 5645.00    1.59501   1.57563    0.079
 5646.00    1.58595   1.57833    0.079
 5647.00    1.57678   1.58002    0.079
 5648.00    1.55002   1.58102    0.080
 5649.00    1.52248   1.58049    0.082
 5650.00    1.56579   1.57881    0.082
 5651.00    1.60869   1.57541    0.081
 5652.00    1.59202   1.57088    0.081
 5653.00    1.57430   1.56502    0.081
 5654.00    1.53749   1.55877    0.081
 5655.00    1.50377   1.55235    0.080
 5656.00    1.50434   1.54660    0.079
 5657.00    1.50090   1.54170    0.078
 5658.00    1.46646   1.53846    0.077
 5659.00    1.43998   1.53739    0.077
 5660.00    1.46022   1.53790    0.077
 5661.00    1.48007   1.54070    0.076
 5662.00    1.49809   1.54473    0.077
 5663.00    1.51314   1.55086    0.078
 5664.00    1.51689   1.55740    0.076
 5665.00    1.52559   1.56538    0.075
 5666.00    1.54996   1.57313    0.076
 5667.00    1.56969   1.58177    0.076
 5668.00    1.57695   1.58995    0.076
 5669.00    1.57442   1.59832    0.075
 5670.00    1.54927   1.60596    0.075
 5671.00    1.54853   1.61300    0.076
 5672.00    1.59651   1.61896    0.076
 5673.00    1.62854   1.62337    0.077
 5674.00    1.63283   1.62626    0.077
 5675.00    1.62850   1.62709    0.077
 5676.00    1.61107   1.62646    0.077
 5677.00    1.60428   1.62367    0.077
 5678.00    1.61173   1.61987    0.078
 5679.00    1.60839   1.61470    0.079
 5680.00    1.59232   1.60938    0.079
 5681.00    1.57415   1.60378    0.079
 5682.00    1.55378   1.59891    0.079
 5683.00    1.56401   1.59516    0.079
 5684.00    1.60226   1.59252    0.080
 5685.00    1.59762   1.59170    0.080
 5686.00    1.55834   1.59179    0.080
 5687.00    1.53455   1.59379    0.079
 5688.00    1.52177   1.59603    0.077
 5689.00    1.53034   1.59935    0.077
 5690.00    1.55223   1.60184    0.078
 5691.00    1.56955   1.60401    0.078
 5692.00    1.58439   1.60453    0.078
 5693.00    1.60348   1.60338    0.078
 5694.00    1.62458   1.60041    0.079
 5695.00    1.61388   1.59531    0.080
 5696.00    1.59019   1.58874    0.080
 5697.00    1.59766   1.58029    0.080
 5698.00    1.61600   1.57110    0.080
 5699.00    1.60050   1.56108    0.079
 5700.00    1.57505   1.55084    0.079
 5701.00    1.54744   1.54081    0.078
 5702.00    1.51931   1.53134    0.077
 5703.00    1.49658   1.52289    0.076
 5704.00    1.47491   1.51561    0.076
 5705.00    1.49406   1.51007    0.075
 5706.00    1.51947   1.50646    0.074
 5707.00    1.48975   1.50551    0.073
 5708.00    1.45379   1.50709    0.073
 5709.00    1.46222   1.51188    0.073
 5710.00    1.47402   1.51945    0.073
 5711.00    1.50078   1.52952    0.074
 5712.00    1.52815   1.54214    0.074
 5713.00    1.55639   1.55601    0.075
 5714.00    1.58391   1.57097    0.075
 5715.00    1.58149   1.58588    0.076
 5716.00    1.57849   1.60038    0.076
 5717.00    1.56539   1.61350    0.077
 5718.00    1.55597   1.62527    0.077
 5719.00    1.58542   1.63486    0.078
 5720.00    1.61430   1.64246    0.078
 5721.00    1.63895   1.64789    0.077
 5722.00    1.65779   1.65121    0.076
 5723.00    1.64343   1.65278    0.077
 5724.00    1.63199   1.65273    0.078
 5725.00    1.63377   1.65177    0.079
 5726.00    1.63712   1.64986    0.079
 5727.00    1.64625   1.64809    0.079
 5728.00    1.64637   1.64633    0.079
 5729.00    1.61842   1.64501    0.078
 5730.00    1.59881   1.64403    0.077
 5731.00    1.60124   1.64360    0.078
 5732.00    1.61088   1.64378    0.079
 5733.00    1.63686   1.64413    0.078
 5734.00    1.64575   1.64480    0.078
 5735.00    1.62102   1.64529    0.077
 5736.00    1.60958   1.64572    0.076
 5737.00    1.62089   1.64587    0.076
 5738.00    1.63277   1.64586    0.075
 5739.00    1.64551   1.64544    0.075
 5740.00    1.64178   1.64491    0.000
 5741.00    1.61633   1.64377    0.000
 5742.00    1.59819   1.64255    0.000
 5743.00    1.58853   1.64061    0.000
 5744.00    1.58840   1.63873    0.000
 5745.00    1.59804   1.63590    0.000
 5746.00    1.60589   1.63315    0.000
 5747.00    1.61213   1.62945    0.000
 5748.00    1.61912   1.62631    0.000
 5749.00    1.62671   1.62281    0.000
 5750.00    1.63121   1.61988    0.000
 5751.00    1.63354   1.61703    0.000
 5752.00    1.61585   1.61469    0.000
 5753.00    1.58586   1.61293    0.000
 5754.00    1.56820   1.61175    0.000
 5755.00    1.55714   1.61155    0.000
 5756.00    1.56140   1.61138    0.000
 5757.00    1.57279   1.61232    0.000
 5758.00    1.59584   1.61297    0.000
 5759.00    1.62357   1.61487    0.000
 5760.00    1.60498   1.61668    0.000
 5761.00    1.57053   1.61994    0.000
 5762.00    1.55035   1.62325    0.000
 5763.00    1.53429   1.62788    0.000
 5764.00    1.55406   1.63227    0.000
 5765.00    1.58237   1.63663    0.000
 5766.00    1.62244   1.64036    0.000
 5767.00    1.66477   1.64283    0.000
 5768.00    1.67288   1.64422    0.000
 5769.00    1.67589   1.64363    0.000
 5770.00    1.65568   1.64179    0.000
 5771.00    1.63294   1.63764    0.000
 5772.00    1.62499   1.63219    0.000
 5773.00    1.61809   1.62475    0.000
 5774.00    1.60558   1.61581    0.000
 5775.00    1.59285   1.60574    0.000
 5776.00    1.58738   1.59432    0.000
 5777.00    1.58205   1.58270    0.000
 5778.00    1.58079   1.57060    0.000
 5779.00    1.57980   1.55946    0.000
 5780.00    1.58334   1.54911    0.000
 5781.00    1.58461   1.54139    0.000
 5782.00    1.56298   1.53596    0.000
 5783.00    1.54142   1.53374    0.000
 5784.00    1.52031   1.53435    0.000
 5785.00    1.50448   1.53797    0.000
 5786.00    1.51801   1.54436    0.000
 5787.00    1.53002   1.55249    0.000
 5788.00    1.53532   1.56242    0.000
 5789.00    1.53535   1.57283    0.000
 5790.00    1.51623   1.58345    0.000
 5791.00    1.50952   1.59413   -2.000
 5792.00    1.54075   1.60422   -2.000
 5793.00    1.56283   1.61359   -2.000
 5794.00    1.56115   1.62226   -2.000
 5795.00    1.56036   1.62952   -2.000
 5796.00    1.56155   1.63594   -2.000
 5797.00    1.56671   1.64089   -2.000
 5798.00    1.57953   1.64536   -2.000
 5799.00    1.59290   1.64851   -2.000
 5800.00    1.60720   1.65088   -2.000
 5801.00    1.63177   1.65216   -2.000
 5802.00    1.67150   1.65258   -2.000
 5803.00    1.68112   1.65201   -2.000
 5804.00    1.65160   1.65124   -2.000
 5805.00    1.63078   1.65005   -2.000
 5806.00    1.61992   1.64901   -2.000
 5807.00    1.60124   1.64798   -2.000
 5808.00    1.57465   1.64720   -2.000
 5809.00    1.55507   1.64653   -2.000
 5810.00    1.54172   1.64635   -2.000
 5811.00    1.54369   1.64625    0.000
 5812.00    1.55768   1.64682    0.000
 5813.00    1.56906   1.64766    0.000
 5814.00    1.57866   1.64909    0.000
 5815.00    1.57450   1.65107    0.000
 5816.00    1.56201   1.65367    0.000
 5817.00    1.57850   1.65698    0.000
 5818.00    1.61030   1.66054    0.000
 5819.00    1.62385   1.66415    0.000
 5820.00    1.62903   1.66775    0.000
 5821.00    1.65046   1.67060    0.000
 5822.00    1.67830   1.67342    0.000
 5823.00    1.68461   1.67516    0.000
 5824.00    1.68370   1.67690    0.000
 5825.00    1.65548   1.67746    0.000
 5826.00    1.61957   1.67789    0.000
 5827.00    1.60526   1.67735    0.000
 5828.00    1.59597   1.67665    0.000
 5829.00    1.61085   1.67540    0.000
 5830.00    1.63024   1.67392    0.000
 5831.00    1.60379   1.67235    0.000
 5832.00    1.57072   1.67080    0.000
 5833.00    1.58891   1.66930    0.000
 5834.00    1.61245   1.66817    0.000
 5835.00    1.61511   1.66731    0.000
 5836.00    1.61635   1.66689    0.000
 5837.00    1.61678   1.66620    0.000
 5838.00    1.61719   1.66585    0.000
 5839.00    1.59038   1.66487    0.000
 5840.00    1.56556   1.66351    0.000
 5841.00    1.60400   1.66120    0.000
 5842.00    1.63962   1.65777    0.000
 5843.00    1.63247   1.65318    0.000
 5844.00    1.62446   1.64711    0.000
 5845.00    1.60826   1.64015    0.000
 5846.00    1.59657   1.63183    0.000
 5847.00    1.61664   1.62312    0.000
 5848.00    1.63142   1.61370    0.000
 5849.00    1.61766   1.60422    0.000
 5850.00    1.60234   1.59473    0.000
 5851.00    1.58025   1.58548    0.000
 5852.00    1.55934   1.57693    0.000
 5853.00    1.54264   1.56923    0.000
 5854.00    1.52692   1.56331    0.000
 5855.00    1.51412   1.55817    0.000
 5856.00    1.50926   1.55538    0.000
 5857.00    1.52468   1.55319    0.000
 5858.00    1.54139   1.55403    0.000
 5859.00    1.56095   1.55502    0.000
 5860.00    1.57092   1.55886    0.000
 5861.00    1.56260   1.56218    0.000
 5862.00    1.55934   1.56723    0.000
 5863.00    1.56449   1.57195    0.000
 5864.00    1.56787   1.57723    0.000
 5865.00    1.56866   1.58219    0.000
 5866.00    1.55880   1.58665    0.000
 5867.00    1.53529   1.59110    0.000
 5868.00    1.52902   1.59414    0.000
 5869.00    1.54219   1.59698    0.000
 5870.00    1.54229   1.59784    0.000
 5871.00    1.52936   1.59785    0.000
 5872.00    1.50861   1.59577    0.000
 5873.00    1.48099   1.59244    0.000
 5874.00    1.47943   1.58738    0.000
 5875.00    1.49804   1.58022    0.000
 5876.00    1.51564   1.57145    0.000
 5877.00    1.53257   1.56003    0.000
 5878.00    1.54537   1.54673    0.000
 5879.00    1.55570   1.53033    0.000
 5880.00    1.53880   1.51175    0.000
 5881.00    1.50775   1.49009    0.000
 5882.00    1.47469   1.46576    0.000
 5883.00    1.44073   1.43860    0.000
 5884.00    1.40269   1.40969    0.000
 5885.00    1.36308   1.37930    0.000
 5886.00    1.33641   1.34915    0.000
 5887.00    1.31401   1.31985    0.000
 5888.00    1.28410   1.29328    0.000
 5889.00    1.25212   1.27063    0.000
 5890.00    1.22764   1.25491    0.000
 5891.00    1.20486   1.24589    0.000
 5892.00    1.18966   1.24409    0.000
 5893.00    1.17584   1.24945    0.000
 5894.00    1.17089   1.26026    0.000
 5895.00    1.16718   1.27649    0.000
 5896.00    1.21030   1.29846    0.000
 5897.00    1.25812   1.32396    0.000
 5898.00    1.27377   1.35186    0.000
 5899.00    1.28738   1.38087    0.000
 5900.00    1.33480   1.40876    0.000
 5901.00    1.38318   1.43511    0.071
 5902.00    1.41966   1.45884    0.071
 5903.00    1.45507   1.47977    0.071
 5904.00    1.46019   1.49715    0.071
 5905.00    1.46566   1.51138    0.070
 5906.00    1.47609   1.52252    0.071
 5907.00    1.48663   1.53074    0.071
 5908.00    1.49823   1.53665    0.070
 5909.00    1.50708   1.54025    0.070
 5910.00    1.49728   1.54263    0.070
 5911.00    1.48610   1.54346    0.069
 5912.00    1.46765   1.54405    0.068
 5913.00    1.45341   1.54376    0.068
 5914.00    1.45696   1.54423    0.068
 5915.00    1.46399   1.54461    0.068
 5916.00    1.48315   1.54596    0.068
 5917.00    1.49830   1.54792    0.068
 5918.00    1.50165   1.54993    0.068
 5919.00    1.50198   1.55273    0.067
 5920.00    1.49476   1.55482    0.067
 5921.00    1.49613   1.55726    0.067
 5922.00    1.51605   1.55890    0.067
 5923.00    1.53161   1.56060    0.067
 5924.00    1.53899   1.56136    0.067
 5925.00    1.53791   1.56213    0.068
 5926.00    1.52300   1.56212    0.067
 5927.00    1.50587   1.56173    0.068
 5928.00    1.48556   1.56134    0.068
 5929.00    1.46896   1.56043    0.069
 5930.00    1.45706   1.56030    0.069
 5931.00    1.46821   1.56008    0.069
 5932.00    1.50501   1.56019    0.070
 5933.00    1.51662   1.56045    0.070
 5934.00    1.50351   1.56054    0.070
 5935.00    1.50144   1.56139    0.070
 5936.00    1.50893   1.56191    0.071
 5937.00    1.49700   1.56288    0.071
 5938.00    1.47026   1.56367    0.070
 5939.00    1.46403   1.56421    0.070
 5940.00    1.47153   1.56436    0.070
 5941.00    1.47790   1.56443    0.070
 5942.00    1.48359   1.56428    0.069
 5943.00    1.48357   1.56381    0.069
 5944.00    1.48064   1.56336    0.068
 5945.00    1.47177   1.56225    0.067
 5946.00    1.46028   1.56095    0.067
 5947.00    1.46730   1.55906    0.066
 5948.00    1.48139   1.55707    0.066
 5949.00    1.49175   1.55535    0.066
 5950.00    1.50091   1.55393    0.066
 5951.00    1.49071   1.55294    0.067
 5952.00    1.47527   1.55233    0.067
 5953.00    1.46413   1.55278    0.067
 5954.00    1.45394   1.55379    0.066
 5955.00    1.45027   1.55575    0.067
 5956.00    1.44776   1.55830    0.067
 5957.00    1.45691   1.56171    0.067
 5958.00    1.46764   1.56543    0.067
 5959.00    1.49255   1.56998    0.068
 5960.00    1.51882   1.57434    0.069
 5961.00    1.51331   1.57895    0.069
 5962.00    1.50592   1.58288    0.068
 5963.00    1.49116   1.58663    0.069
 5964.00    1.47629   1.58972    0.070
 5965.00    1.47524   1.59199    0.070
 5966.00    1.47468   1.59413    0.070
 5967.00    1.48645   1.59496    0.070
 5968.00    1.49929   1.59540    0.070
 5969.00    1.52658   1.59454    0.070
 5970.00    1.55024   1.59295    0.070
 5971.00    1.54146   1.59006    0.070
 5972.00    1.53463   1.58659    0.069
 5973.00    1.54062   1.58214    0.070
 5974.00    1.54425   1.57728    0.070
 5975.00    1.53582   1.57199    0.069
 5976.00    1.52390   1.56686    0.068
 5977.00    1.49755   1.56201    0.067
 5978.00    1.47684   1.55773    0.066
 5979.00    1.47545   1.55430    0.066
 5980.00    1.47905   1.55148    0.066
 5981.00    1.49709   1.54936    0.066
 5982.00    1.50569   1.54801    0.066
 5983.00    1.49103   1.54720    0.066
 5984.00    1.47909   1.54762    0.065
 5985.00    1.47295   1.54915    0.066
 5986.00    1.47233   1.55106    0.066
 5987.00    1.48193   1.55393    0.065
 5988.00    1.49277   1.55649    0.065
 5989.00    1.50562   1.55916    0.066
 5990.00    1.51745   1.56121    0.066
 5991.00    1.52782   1.56267    0.066
 5992.00    1.53455   1.56370    0.067
 5993.00    1.53675   1.56371    0.067
 5994.00    1.53129   1.56308    0.068
 5995.00    1.51742   1.56152    0.068
 5996.00    1.50553   1.55902    0.068
 5997.00    1.49555   1.55613    0.068
 5998.00    1.49122   1.55287    0.068
 5999.00    1.49171   1.54962    0.068
 6000.00    1.47320   1.54633    0.068
 6001.00    1.44042   1.54298    0.068
 6002.00    1.42902   1.53948    0.068
 6003.00    1.43176   1.53648    0.068
 6004.00    1.43365   1.53364    0.068
 6005.00    1.43506   1.53093    0.068
 6006.00    1.42800   1.52883    0.067
 6007.00    1.41668   1.52636    0.065
 6008.00    1.41725   1.52488    0.065
 6009.00    1.42301   1.52375    0.065
 6010.00    1.42811   1.52266    0.064
 6011.00    1.43296   1.52187    0.063
 6012.00    1.43836   1.52057    0.064
 6013.00    1.44393   1.51964    0.065
 6014.00    1.43928   1.51910    0.065
 6015.00    1.43193   1.51869    0.064
 6016.00    1.41494   1.51915    0.064
 6017.00    1.39585   1.51992    0.064
 6018.00    1.40421   1.52180    0.064
 6019.00    1.41728   1.52393    0.065
 6020.00    1.41588   1.52787    0.065
 6021.00    1.41259   1.53183    0.065
 6022.00    1.40711   1.53764    0.066
 6023.00    1.40144   1.54348    0.068
 6024.00    1.41509   1.55043    0.067
 6025.00    1.42982   1.55762    0.067
 6026.00    1.45683   1.56435    0.067
 6027.00    1.48387   1.57195    0.067
 6028.00    1.48709   1.57813    0.067
 6029.00    1.49006   1.58485    0.067
 6030.00    1.48713   1.58995    0.068
 6031.00    1.48586   1.59518    0.069
 6032.00    1.50588   1.59900    0.068
 6033.00    1.52556   1.60257    0.067
 6034.00    1.54221   1.60522    0.068
 6035.00    1.55526   1.60733    0.068
 6036.00    1.54526   1.60919    0.067
 6037.00    1.53489   1.61041    0.067
 6038.00    1.52265   1.61198    0.066
 6039.00    1.50964   1.61270    0.066
 6040.00    1.49348   1.61433    0.065
 6041.00    1.48213   1.61505    0.065
 6042.00    1.48693   1.61660    0.065
 6043.00    1.49200   1.61763    0.065
 6044.00    1.49783   1.61831    0.065
 6045.00    1.50552   1.61894    0.064
 6046.00    1.51772   1.61829    0.065
 6047.00    1.52954   1.61774    0.065
 6048.00    1.54058   1.61552    0.065
 6049.00    1.54727   1.61369    0.065
 6050.00    1.54606   1.61037    0.065
 6051.00    1.53568   1.60711    0.065
 6052.00    1.51076   1.60321    0.065
 6053.00    1.48844   1.59900    0.066
 6054.00    1.46977   1.59532    0.066
 6055.00    1.45791   1.59113    0.066
 6056.00    1.45443   1.58827    0.066
 6057.00    1.46300   1.58508    0.067
 6058.00    1.48461   1.58333    0.069
 6059.00    1.50457   1.58185    0.069
 6060.00    1.52294   1.58126    0.069
 6061.00    1.51379   1.58153    0.068
 6062.00    1.48147   1.58217    0.067
 6063.00    1.45850   1.58434    0.067
 6064.00    1.44246   1.58653    0.067
 6065.00    1.45035   1.59035    0.067
 6066.00    1.47380   1.59473    0.068
 6067.00    1.47638   1.59922    0.067
 6068.00    1.46707   1.60375    0.066
 6069.00    1.47396   1.60711    0.065
 6070.00    1.48887   1.60937    0.064
 6071.00    1.49623   1.61022    0.064
 6072.00    1.50036   1.60968    0.064
 6073.00    1.50264   1.60747    0.064
 6074.00    1.50425   1.60392    0.065
 6075.00    1.50251   1.59895    0.064
 6076.00    1.49974   1.59315    0.064
 6077.00    1.48413   1.58661    0.064
 6078.00    1.46520   1.57971    0.064
 6079.00    1.44860   1.57355    0.064
 6080.00    1.43249   1.56738    0.064
 6081.00    1.43219   1.56197    0.064
 6082.00    1.43452   1.55754    0.064
 6083.00    1.45534   1.55387    0.065
 6084.00    1.47848   1.55097    0.065
 6085.00    1.48430   1.54894    0.066
 6086.00    1.48860   1.54757    0.067
 6087.00    1.45822   1.54675    0.066
 6088.00    1.42604   1.54653    0.065
 6089.00    1.42820   1.54619    0.067
 6090.00    1.43069   1.54627    0.068
 6091.00    1.41119   1.54625    0.068
 6092.00    1.39262   1.54663    0.067
 6093.00    1.39358   1.54678    0.067
 6094.00    1.39550   1.54711    0.067
 6095.00    1.40899   1.54622    0.067
 6096.00    1.42131   1.54551    0.067
 6097.00    1.42390   1.54393    0.066
 6098.00    1.42890   1.54254    0.065
 6099.00    1.44878   1.54102    0.065
 6100.00    1.46191   1.53967    0.066
 6101.00    1.44210   1.53856    0.066
 6102.00    1.42134   1.53764    0.065
 6103.00    1.39683   1.53912    0.064
 6104.00    1.38262   1.54069    0.063
 6105.00    1.40233   1.54415    0.063
 6106.00    1.42221   1.54761    0.063
 6107.00    1.44256   1.55077    0.063
 6108.00    1.44999   1.55405    0.063
 6109.00    1.42668   1.55668    0.063
 6110.00    1.40706   1.55816    0.064
 6111.00    1.39505   1.55905    0.063
 6112.00    1.39999   1.55867    0.064
 6113.00    1.43529   1.55709    0.064
 6114.00    1.46108   1.55440    0.065
 6115.00    1.47196   1.55033    0.065
 6116.00    1.46404   1.54561    0.065
 6117.00    1.43028   1.54059    0.065
 6118.00    1.40385   1.53546    0.065
 6119.00    1.38629   1.53047    0.066
 6120.00    1.38231   1.52651    0.066
 6121.00    1.39281   1.52256    0.066
 6122.00    1.40610   1.52070    0.065
 6123.00    1.42201   1.52003    0.065
 6124.00    1.43354   1.51941    0.065
 6125.00    1.44142   1.51962    0.066
 6126.00    1.45747   1.51907    0.066
 6127.00    1.47950   1.51805    0.065
 6128.00    1.48465   1.51682    0.065
 6129.00    1.47898   1.51471    0.065
 6130.00    1.46501   1.51232    0.064
 6131.00    1.44639   1.50879    0.064
 6132.00    1.41659   1.50530    0.064
 6133.00    1.38133   1.50139    0.064
 6134.00    1.36228   1.49774    0.065
 6135.00    1.35008   1.49511    0.065
 6136.00    1.35796   1.49308    0.066
 6137.00    1.37309   1.49405    0.066
 6138.00    1.38653   1.49698    0.065
 6139.00    1.39945   1.50165    0.065
 6140.00    1.41957   1.50731    0.065
 6141.00    1.44153   1.51263    0.066
 6142.00    1.43725   1.51833    0.065
 6143.00    1.42754   1.52336    0.065
 6144.00    1.41090   1.52757    0.064
 6145.00    1.39312   1.53070    0.064
 6146.00    1.39620   1.53171    0.065
 6147.00    1.40181   1.53136    0.066
 6148.00    1.38949   1.52899    0.066
 6149.00    1.37566   1.52514    0.066
 6150.00    1.36787   1.51977    0.066
 6151.00    1.36036   1.51264    0.066
 6152.00    1.36283   1.50451    0.065
 6153.00    1.36530   1.49445    0.065
 6154.00    1.35956   1.48351    0.065
 6155.00    1.35416   1.47166    0.065
 6156.00    1.35558   1.45901    0.064
 6157.00    1.35657   1.44643    0.064
 6158.00    1.35251   1.43403    0.064
 6159.00    1.34674   1.42218    0.064
 6160.00    1.32723   1.41085    0.064
 6161.00    1.30751   1.40184    0.063
 6162.00    1.28646   1.39528    0.062
 6163.00    1.26917   1.39148    0.062
 6164.00    1.26973   1.39092    0.062
 6165.00    1.27092   1.39207    0.062
 6166.00    1.27458   1.39553    0.062
 6167.00    1.27864   1.39999    0.062
 6168.00    1.28398   1.40509    0.063
 6169.00    1.28829   1.41160    0.064
 6170.00    1.28977   1.41897    0.063
 6171.00    1.27903   1.42726    0.064
 6172.00    1.23970   1.43550    0.067
 6173.00    1.20848   1.44406    0.069
 6174.00    1.19371   1.45134    0.070
 6175.00    1.18151   1.45813    0.071
 6176.00    1.17386   1.46359    0.070
 6177.00    1.18792   1.46834    0.069
 6178.00    1.23546   1.47178    0.067
 6179.00    1.27930   1.47340    0.066
 6180.00    1.31813   1.47424    0.065
 6181.00    1.33746   1.47288    0.064
 6182.00    1.33352   1.47068    0.064
 6183.00    1.33020   1.46724    0.064
 6184.00    1.32752   1.46318    0.063
 6185.00    1.32079   1.45802    0.063
 6186.00    1.31030   1.45303    0.063
 6187.00    1.30284   1.44866    0.063
 6188.00    1.29785   1.44462    0.063
 6189.00    1.28849   1.44227    0.063
 6190.00    1.27598   1.43999    0.063
 6191.00    1.26524   1.43990    0.062
 6192.00    1.25562   1.44189    0.062
 6193.00    1.25698   1.44434    0.062
 6194.00    1.26439   1.44865    0.062
 6195.00    1.27387   1.45275    0.066
 6196.00    1.28434   1.45722   -2.000
 6197.00    1.23151   1.46142   -2.000
 6198.00    1.15245   1.46513   -2.000
 6199.00    1.10512   1.46844   -2.000
 6200.00    1.06905   1.47153   -2.000
 6201.00    1.12560   1.47391   -2.000
 6202.00    1.20987   1.47578   -2.000
 6203.00    1.32581   1.47616   -2.000
 6204.00    1.44961   1.47486   -2.000
 6205.00    1.44125   1.47207   -2.000
 6206.00    1.40629   1.46770   -2.000
 6207.00    1.35227   1.46230   -2.000
 6208.00    1.29524   1.45549    0.067
 6209.00    1.27163   1.44746    0.066
 6210.00    1.25193   1.43847    0.065
 6211.00    1.26653   1.42977    0.064
 6212.00    1.28387   1.42063    0.063
 6213.00    1.28318   1.41218    0.063
 6214.00    1.28169   1.40460    0.062
 6215.00    1.25872   1.39816    0.061
 6216.00    1.23588   1.39400    0.060
 6217.00    1.22988   1.39085    0.060
 6218.00    1.22530   1.38868    0.059
 6219.00    1.24669   1.38716    0.060
 6220.00    1.26642   1.38604    0.062
 6221.00    1.26783   1.38532    0.061
 6222.00    1.26631   1.38581    0.061
 6223.00    1.24220   1.38541    0.061
 6224.00    1.22318   1.38578    0.060
 6225.00    1.23391   1.38569    0.062
 6226.00    1.24252   1.38551    0.063
 6227.00    1.24125   1.38551    0.063
 6228.00    1.23886   1.38498    0.063
 6229.00    1.23226   1.38441    0.064
 6230.00    1.22835   1.38339    0.064
 6231.00    1.23293   1.38437    0.063
 6232.00    1.23601   1.38445    0.063
 6233.00    1.23504   1.38586    0.064
 6234.00    1.23554   1.38656    0.064
 6235.00    1.23946   1.38655    0.063
 6236.00    1.24536   1.38608    0.063
 6237.00    1.25520   1.38443    0.062
 6238.00    1.26328   1.38283    0.062
 6239.00    1.26831   1.38023    0.063
 6240.00    1.27182   1.37840    0.063
 6241.00    1.27304   1.37658    0.063
 6242.00    1.27124   1.37407    0.062
 6243.00    1.26541   1.37284    0.061
 6244.00    1.26638   1.37099    0.061
 6245.00    1.27535   1.36934    0.060
 6246.00    1.28073   1.36807    0.060
 6247.00    1.28237   1.36631    0.061
 6248.00    1.27916   1.36383    0.061
 6249.00    1.27151   1.36105    0.060
 6250.00    1.26683   1.35809    0.061
 6251.00    1.26454   1.35381    0.063
 6252.00    1.25535   1.35111    0.063
 6253.00    1.24125   1.34823    0.062
 6254.00    1.22602   1.34710    0.062
 6255.00    1.21009   1.34673    0.062
 6256.00    1.19965   1.34775    0.062
 6257.00    1.19218   1.35018    0.063
 6258.00    1.20903   1.35367    0.064
 6259.00    1.23737   1.35991    0.067
 6260.00    1.23492   1.36583    0.069
 6261.00    1.21992   1.37370    0.073
 6262.00    1.22339   1.38124    0.075
 6263.00    1.23330   1.38857    0.077
 6264.00    1.27406   1.39513    0.076
 6265.00    1.32386   1.40129    0.074
 6266.00    1.35277   1.40691    0.071
 6267.00    1.37660   1.41168    0.068
 6268.00    1.34976   1.41629    0.066
 6269.00    1.31298   1.41982    0.063
 6270.00    1.30133   1.42271    0.062
 6271.00    1.29353   1.42505    0.061
 6272.00    1.29761   1.42714    0.060
 6273.00    1.30304   1.42840    0.060
 6274.00    1.30714   1.42997    0.060
 6275.00    1.31115   1.43088    0.060
 6276.00    1.31573   1.43222    0.060
 6277.00    1.32034   1.43334    0.060
 6278.00    1.32133   1.43501    0.061
 6279.00    1.32233   1.43636    0.061
 6280.00    1.32492   1.43823    0.000
 6281.00    1.32718   1.44074    0.000
 6282.00    1.32396   1.44277    0.000
 6283.00    1.32074   1.44599    0.000
 6284.00    1.31751   1.44778    0.000
 6285.00    1.31619   1.44992    0.000
 6286.00    1.32900   1.45099    0.000
 6287.00    1.34073   1.45123    0.000
 6288.00    1.34627   1.45078    0.000
 6289.00    1.35328   1.44890    0.000
 6290.00    1.36687   1.44626    0.000
 6291.00    1.37888   1.44285    0.000
 6292.00    1.38501   1.43872    0.000
 6293.00    1.38392   1.43458    0.000
 6294.00    1.36045   1.43058    0.000
 6295.00    1.33569   1.42641    0.000
 6296.00    1.30753   1.42303    0.000
 6297.00    1.28901   1.42031    0.000
 6298.00    1.29233   1.41859    0.000
 6299.00    1.29741   1.41838    0.000
 6300.00    1.30595   1.41849    0.000
 6301.00    1.32159   1.41942    0.000
 6302.00    1.34936   1.42090    0.000
 6303.00    1.36972   1.42299    0.000
 6304.00    1.37896   1.42521    0.000
 6305.00    1.37900   1.42697    0.000
 6306.00    1.36692   1.42894    0.000
 6307.00    1.36131   1.42930    0.000
 6308.00    1.36319   1.42942    0.000
 6309.00    1.36197   1.42833    0.000
 6310.00    1.35758   1.42573    0.000
 6311.00    1.34524   1.42332    0.000
 6312.00    1.32574   1.42079    0.000
 6313.00    1.30561   1.41859    0.000
 6314.00    1.28497   1.41612    0.000
 6315.00    1.28261   1.41493    0.000
 6316.00    1.29305   1.41491    0.000
 6317.00    1.29820   1.41466    0.000
 6318.00    1.30011   1.41712    0.000
 6319.00    1.29268   1.41964    0.000
 6320.00    1.28026   1.42359    0.000
 6321.00    1.29345   1.42867    0.061
 6322.00    1.31854   1.43293    0.060
 6323.00    1.33566   1.43825    0.060
 6324.00    1.34958   1.44207    0.061
 6325.00    1.34658   1.44660    0.061
 6326.00    1.33781   1.44887    0.060
 6327.00    1.34321   1.45018    0.060
 6328.00    1.35269   1.45132    0.059
 6329.00    1.35666   1.45039    0.060
 6330.00    1.35933   1.45001    0.062
 6331.00    1.33762   1.44785    0.061
 6332.00    1.31125   1.44586    0.060
 6333.00    1.30768   1.44369    0.061
 6334.00    1.30749   1.44010    0.061
 6335.00    1.30882   1.43730    0.061
 6336.00    1.31032   1.43432    0.061
 6337.00    1.31440   1.43344    0.062
 6338.00    1.31866   1.43270    0.063
 6339.00    1.31612   1.43311    0.063
 6340.00    1.31334   1.43399    0.063
 6341.00    1.30004   1.43460    0.063
 6342.00    1.28703   1.43601    0.062
 6343.00    1.28553   1.43635    0.062
 6344.00    1.28449   1.43783    0.062
 6345.00    1.29083   1.43911    0.061
 6346.00    1.29703   1.43994    0.060
 6347.00    1.30180   1.44022    0.060
 6348.00    1.30827   1.43933    0.060
 6349.00    1.32687   1.43757    0.060
 6350.00    1.34296   1.43398    0.059
 6351.00    1.34511   1.42935    0.060
 6352.00    1.34740   1.42389    0.060
 6353.00    1.35030   1.41751    0.061
 6354.00    1.35091   1.41055    0.061
 6355.00    1.34320   1.40382    0.061
 6356.00    1.33249   1.39779    0.061
 6357.00    1.31260   1.39224    0.060
 6358.00    1.29680   1.38810    0.060
 6359.00    1.29159   1.38541    0.061
 6360.00    1.28560   1.38476    0.062
 6361.00    1.27784   1.38594    0.062
 6362.00    1.27360   1.38911    0.062
 6363.00    1.27616   1.39414    0.063
 6364.00    1.27973   1.40122    0.064
 6365.00    1.28500   1.40974    0.064
 6366.00    1.28695   1.41830    0.063
 6367.00    1.28400   1.42741    0.064
 6368.00    1.29335   1.43628    0.064
 6369.00    1.31866   1.44462    0.063
 6370.00    1.34068   1.45161    0.063
 6371.00    1.35894   1.45779    0.063
 6372.00    1.37005   1.46327    0.063
 6373.00    1.37397   1.46718    0.063
 6374.00    1.36917   1.47023    0.061
 6375.00    1.35663   1.47199    0.059
 6376.00    1.34221   1.47283    0.059
 6377.00    1.32633   1.47272    0.060
 6378.00    1.31847   1.47235    0.060
 6379.00    1.31612   1.47191    0.059
 6380.00    1.30786   1.47093    0.059
 6381.00    1.29602   1.47059    0.059
 6382.00    1.29871   1.46992    0.060
 6383.00    1.30905   1.46865    0.060
 6384.00    1.31750   1.46738    0.060
 6385.00    1.32508   1.46502    0.061
 6386.00    1.31697   1.46314    0.061
 6387.00    1.30269   1.46150    0.061
 6388.00    1.31527   1.45973    0.062
 6389.00    1.33687   1.45778    0.063
 6390.00    1.35276   1.45515    0.063
 6391.00    1.36705   1.45254    0.063
 6392.00    1.36332   1.44789    0.063
 6393.00    1.35542   1.44601    0.063
 6394.00    1.34086   1.44543    0.063
 6395.00    1.32506   1.44494    0.062
 6396.00    1.30781   1.44581    0.063
 6397.00    1.29036   1.44576    0.063
 6398.00    1.28098   1.44639    0.063
 6399.00    1.27244   1.44541    0.062
 6400.00    1.28647   1.44601    0.062
 6401.00    1.30201   1.44775    0.061
 6402.00    1.31729   1.44944    0.061
 6403.00    1.33256   1.45172    0.061
 6404.00    1.33578   1.45194    0.061
 6405.00    1.33867   1.45234    0.061
 6406.00    1.33141   1.45169    0.060
 6407.00    1.32455   1.45039    0.059
 6408.00    1.32352   1.45028    0.060
 6409.00    1.32287   1.44988    0.061
 6410.00    1.32575   1.44961    0.061
 6411.00    1.32826   1.44883    0.061
 6412.00    1.32819   1.44747    0.061
 6413.00    1.32863   1.44637    0.062
 6414.00    1.33180   1.44628    0.062
 6415.00    1.33499   1.44732    0.062
 6416.00    1.33824   1.44742    0.063
 6417.00    1.33993   1.44836    0.064
 6418.00    1.33607   1.44941    0.064
 6419.00    1.33183   1.45006    0.064
 6420.00    1.32641   1.45131    0.063
 6421.00    1.32138   1.45305    0.062
 6422.00    1.31734   1.45508    0.061
 6423.00    1.32443   1.45606    0.061
 6424.00    1.35591   1.45795    0.061
 6425.00    1.37148   1.45909    0.062
 6426.00    1.35680   1.45974    0.062
 6427.00    1.33884   1.46039    0.062
 6428.00    1.31546   1.46041    0.061
 6429.00    1.29933   1.46019    0.061
 6430.00    1.29375   1.45883    0.061
 6431.00    1.29314   1.45858    0.061
 6432.00    1.29888   1.45894    0.060
 6433.00    1.30647   1.46015    0.060
 6434.00    1.31612   1.46180    0.060
 6435.00    1.32710   1.46307    0.060
 6436.00    1.33941   1.46454    0.060
 6437.00    1.33543   1.46531    0.061
 6438.00    1.31719   1.46620    0.062
 6439.00    1.31061   1.46766    0.063
 6440.00    1.31304   1.46899    0.064
 6441.00    1.32163   1.46906    0.064
 6442.00    1.33439   1.46816    0.064
 6443.00    1.33606   1.46682    0.064
 6444.00    1.33113   1.46457    0.065
 6445.00    1.32183   1.46267    0.064
 6446.00    1.31026   1.46010    0.064
 6447.00    1.29764   1.45681    0.063
 6448.00    1.28454   1.45327    0.062
 6449.00    1.28347   1.44994    0.062
 6450.00    1.28704   1.44895    0.062
 6451.00    1.29191   1.44832    0.061
 6452.00    1.29720   1.45006    0.060
 6453.00    1.29116   1.45213    0.059
 6454.00    1.28199   1.45237    0.059
 6455.00    1.27925   1.45346    0.058
 6456.00    1.27797   1.45480    0.058
 6457.00    1.29349   1.45676    0.059
 6458.00    1.31206   1.45942    0.060
 6459.00    1.31897   1.46190    0.060
 6460.00    1.32427   1.46395    0.061
 6461.00    1.32253   1.46381    0.062
 6462.00    1.32010   1.46387    0.063
 6463.00    1.33072   1.46462    0.063
 6464.00    1.34216   1.46502    0.063
 6465.00    1.33306   1.46754    0.063
 6466.00    1.32336   1.46864    0.063
 6467.00    1.31248   1.46962    0.063
 6468.00    1.30191   1.46950    0.063
 6469.00    1.29978   1.46953    0.063
 6470.00    1.29657   1.46927    0.064
 6471.00    1.27813   1.46849    0.063
 6472.00    1.26212   1.46910    0.062
 6473.00    1.26862   1.46752    0.061
 6474.00    1.27581   1.46586    0.061
 6475.00    1.28761   1.46334    0.061
 6476.00    1.29963   1.46085    0.060
 6477.00    1.31278   1.45816    0.060
 6478.00    1.32436   1.45526    0.060
 6479.00    1.32935   1.45244    0.060
 6480.00    1.33020   1.44825    0.059
 6481.00    1.31667   1.44361    0.058
 6482.00    1.30647   1.43856    0.058
 6483.00    1.30604   1.43315    0.060
 6484.00    1.31150   1.42739    0.060
 6485.00    1.33169   1.42103    0.060
 6486.00    1.34764   1.41268    0.060
 6487.00    1.35445   1.40364    0.060
 6488.00    1.35011   1.39342    0.061
 6489.00    1.32491   1.38309    0.061
 6490.00    1.29986   1.37371    0.061
 6491.00    1.27506   1.36407    0.062
 6492.00    1.25382   1.35652    0.062
 6493.00    1.23769   1.34871    0.062
 6494.00    1.22297   1.34366    0.062
 6495.00    1.21002   1.34153    0.062
 6496.00    1.20879   1.34141    0.062
 6497.00    1.22056   1.34606    0.062
 6498.00    1.24966   1.35111    0.062
 6499.00    1.29574   1.35923    0.063
 6500.00    1.32067   1.36784    0.062
 6501.00    1.32733   1.37704    0.062
 6502.00    1.32430   1.38769    0.061
 6503.00    1.31388   1.39716    0.060
 6504.00    1.30759   1.40715    0.060
 6505.00    1.30407   1.41561    0.059
 6506.00    1.30399   1.42284    0.060
 6507.00    1.30593   1.42854    0.061
 6508.00    1.30948   1.43273    0.061
 6509.00    1.31386   1.43616    0.060
 6510.00    1.31030   1.43824    0.060
 6511.00    1.30324   1.43972    0.060
 6512.00    1.31057   1.44084    0.061
 6513.00    1.32337   1.44105    0.063
 6514.00    1.32910   1.44122    0.063
 6515.00    1.33255   1.44102    0.063
 6516.00    1.32740   1.44119    0.063
 6517.00    1.31992   1.44120    0.062
 6518.00    1.31640   1.44133    0.062
 6519.00    1.31376   1.44232    0.062
 6520.00    1.32724   1.44288    0.062
 6521.00    1.34355   1.44389    0.063
 6522.00    1.33861   1.44491    0.062
 6523.00    1.33081   1.44580    0.062
 6524.00    1.33261   1.44649    0.061
 6525.00    1.33532   1.44665    0.061
 6526.00    1.33629   1.44680    0.061
 6527.00    1.33715   1.44742    0.061
 6528.00    1.32881   1.44791    0.000
 6529.00    1.32042   1.44880    0.000
 6530.00    1.33768   1.44955    0.000
 6531.00    1.35447   1.44960    0.000
 6532.00    1.35936   1.44993    0.000
 6533.00    1.36422   1.44999    0.000
 6534.00    1.36871   1.45074    0.000
 6535.00    1.37160   1.45094    0.000
 6536.00    1.36027   1.45040    0.000
 6537.00    1.34797   1.44933    0.000
 6538.00    1.32933   1.44699    0.000
 6539.00    1.31298   1.44475    0.000
 6540.00    1.30828   1.44132    0.000
 6541.00    1.30596   1.43785    0.000
 6542.00    1.31347   1.43372    0.000
 6543.00    1.32481   1.42844    0.000
 6544.00    1.34930   1.42335    0.000
 6545.00    1.36942   1.41673    0.000
 6546.00    1.37701   1.41095    0.000
 6547.00    1.38203   1.40447    0.000
 6548.00    1.38075   1.39756    0.000
 6549.00    1.37048   1.39046    0.000
 6550.00    1.34114   1.38185    0.000
 6551.00    1.31358   1.37405    0.000
 6552.00    1.28932   1.36499    0.000
 6553.00    1.27593   1.35553    0.000
 6554.00    1.28006   1.34491    0.000
 6555.00    1.27951   1.33359    0.000
 6556.00    1.27234   1.32280    0.000
 6557.00    1.26642   1.31194    0.000
 6558.00    1.26204   1.30537    0.000
 6559.00    1.25901   1.29987    0.000
 6560.00    1.25746   1.29471    0.000
 6561.00    1.25669   1.28994    0.000
 6562.00    1.25667   1.28646    0.000
 6563.00    1.24666   1.28852    0.000
 6564.00    1.22813   1.29230    0.000
 6565.00    1.22256   1.29985    0.000
 6566.00    1.22672   1.30849    0.000
 6567.00    1.23247   1.31528    0.000
 6568.00    1.23927   1.32219    0.000
 6569.00    1.24673   1.32908    0.000
 6570.00    1.25456   1.33848    0.000
 6571.00    1.26792   1.34754    0.000
 6572.00    1.28406   1.35506    0.000
 6573.00    1.28802   1.36179    0.000
 6574.00    1.28668   1.36705    0.000
 6575.00    1.27757   1.37234    0.000
 6576.00    1.26555   1.37798    0.000
 6577.00    1.28189   1.38368    0.000
 6578.00    1.30720   1.38837    0.000
 6579.00    1.33497   1.39170    0.000
 6580.00    1.36339   1.39367    0.000
 6581.00    1.38685   1.39615    0.000
 6582.00    1.40924   1.39855    0.000
 6583.00    1.43298   1.40009    0.000
 6584.00    1.45696   1.40094    0.000
 6585.00    1.45921   1.39955    0.000
 6586.00    1.45863   1.39787    0.000
 6587.00    1.42447   1.39528    0.000
 6588.00    1.38724   1.39337    0.000
 6589.00    1.35147   1.39261    0.000
 6590.00    1.31578   1.39029    0.000
 6591.00    1.29841   1.38776    0.000
 6592.00    1.28137   1.38454    0.000
 6593.00    1.25888   1.38288    0.000
 6594.00    1.23778   1.38305    0.000
 6595.00    1.24875   1.38354    0.000
 6596.00    1.25961   1.38470    0.000
 6597.00    1.26927   1.38514    0.000
 6598.00    1.27845   1.38543    0.000
 6599.00    1.28343   1.38591    0.000
 6600.00    1.28653   1.38698    0.000
 6601.00    1.27768   1.38827    0.000
 6602.00    1.27354   1.38913    0.000
 6603.00    1.29289   1.38884    0.000
 6604.00    1.30889   1.38881    0.000
 6605.00    1.31135   1.38947    0.000
 6606.00    1.30845   1.38997    0.000
 6607.00    1.28755   1.39096    0.000
 6608.00    1.27668   1.39133    0.000
 6609.00    1.29414   1.39341    0.062
 6610.00    1.30485   1.39581    0.062
 6611.00    1.29923   1.39781    0.062
 6612.00    1.29462   1.40047    0.062
 6613.00    1.29213   1.40259    0.063
 6614.00    1.29415   1.40494    0.064
 6615.00    1.30435   1.40639    0.064
 6616.00    1.30735   1.40737    0.064
 6617.00    1.29894   1.40801    0.062
 6618.00    1.28933   1.40711    0.061
 6619.00    1.27808   1.40526    0.062
 6620.00    1.27365   1.40379    0.062
 6621.00    1.27759   1.40144    0.060
 6622.00    1.28070   1.39835    0.060
 6623.00    1.28291   1.39438    0.060
 6624.00    1.27602   1.38987    0.060
 6625.00    1.26046   1.38652    0.061
 6626.00    1.25028   1.38238    0.061
 6627.00    1.24463   1.37886    0.061
 6628.00    1.24518   1.37562    0.061
 6629.00    1.25033   1.37264    0.061
 6630.00    1.25909   1.37049    0.061
 6631.00    1.27021   1.36816    0.062
 6632.00    1.26989   1.36698    0.063
 6633.00    1.26308   1.36579    0.063
 6634.00    1.25697   1.36508    0.064
 6635.00    1.25120   1.36564    0.064
 6636.00    1.25106   1.36646    0.064
 6637.00    1.25332   1.36680    0.064
 6638.00    1.25050   1.36695    0.064
 6639.00    1.24580   1.36767    0.064
 6640.00    1.24369   1.36868    0.064
 6641.00    1.24238   1.36948    0.062
 6642.00    1.22664   1.37002    0.061
 6643.00    1.20716   1.37076    0.060
 6644.00    1.21780   1.37131    0.060
 6645.00    1.23479   1.37131    0.060
 6646.00    1.24354   1.37156    0.061
 6647.00    1.25093   1.37197    0.061
 6648.00    1.24423   1.37200    0.062
 6649.00    1.23576   1.37162    0.062
 6650.00    1.24377   1.37058    0.062
 6651.00    1.25321   1.37001    0.062
 6652.00    1.25023   1.36898    0.062
 6653.00    1.24661   1.36719    0.061
 6654.00    1.25917   1.36542    0.063
 6655.00    1.27189   1.36298    0.064
 6656.00    1.27516   1.36076    0.064
 6657.00    1.27762   1.35748    0.064
 6658.00    1.26313   1.35475    0.064
 6659.00    1.24699   1.35292    0.064
 6660.00    1.21084   1.35043    0.064
 6661.00    1.17978   1.34865    0.063
 6662.00    1.19068   1.34649    0.063
 6663.00    1.20032   1.34575    0.063
 6664.00    1.20217   1.34593    0.063
 6665.00    1.20494   1.34578    0.062
 6666.00    1.21212   1.34655    0.062
 6667.00    1.21924   1.34689    0.062
 6668.00    1.22613   1.34787    0.062
 6669.00    1.22984   1.34885    0.061
 6670.00    1.22310   1.34935    0.060
 6671.00    1.21695   1.34981    0.060
 6672.00    1.21242   1.34841    0.061
 6673.00    1.21053   1.34839    0.061
 6674.00    1.21493   1.34889    0.061
 6675.00    1.21035   1.34821    0.061
 6676.00    1.18736   1.34773    0.062
 6677.00    1.17385   1.34629    0.062
 6678.00    1.17728   1.34648    0.063
 6679.00    1.18125   1.34687    0.064
 6680.00    1.18606   1.34757    0.065
 6681.00    1.19327   1.34942    0.065
 6682.00    1.20379   1.34997    0.065
 6683.00    1.20901   1.35101    0.064
 6684.00    1.20783   1.35162    0.065
 6685.00    1.20575   1.35280    0.064
 6686.00    1.20270   1.35430    0.064
 6687.00    1.21341   1.35410    0.063
 6688.00    1.23702   1.35402    0.064
 6689.00    1.23817   1.35339    0.063
 6690.00    1.22072   1.35178    0.061
 6691.00    1.21550   1.35060    0.060
 6692.00    1.21918   1.34907    0.061
 6693.00    1.21889   1.34754    0.061
 6694.00    1.21607   1.34641    0.061
 6695.00    1.20446   1.34445    0.061
 6696.00    1.18793   1.34319    0.000
 6697.00    1.18556   1.34141    0.000
 6698.00    1.19007   1.33990    0.000
 6699.00    1.19263   1.33967    0.000
 6700.00    1.19437   1.33912    0.000
 6701.00    1.20945   1.33875    0.000
 6702.00    1.22933   1.33708    0.000
 6703.00    1.24540   1.33562    0.000
 6704.00    1.26031   1.33388    0.000
 6705.00    1.22673   1.33214    0.000
 6706.00    1.18088   1.33082    0.000
 6707.00    1.17695   1.32813    0.000
 6708.00    1.18164   1.32560    0.000
 6709.00    1.18762   1.32170    0.000
 6710.00    1.19381   1.31828    0.000
 6711.00    1.18217   1.31491    0.000
 6712.00    1.16838   1.31184    0.000
 6713.00    1.19443   1.31089    0.000
 6714.00    1.22378   1.30856    0.000
 6715.00    1.23569   1.30707    0.000
 6716.00    1.24677   1.30562    0.000
 6717.00    1.22408   1.30571    0.000
 6718.00    1.20096   1.30793    0.000
 6719.00    1.17993   1.30907    0.000
 6720.00    1.15991   1.31101    0.000
 6721.00    1.15946   1.31317    0.000
 6722.00    1.15948   1.31564    0.000
 6723.00    1.16484   1.31827    0.000
 6724.00    1.17118   1.32086    0.000
 6725.00    1.18527   1.32367    0.000
 6726.00    1.19308   1.32563    0.000
 6727.00    1.16320   1.32633    0.000
 6728.00    1.14209   1.32725    0.000
 6729.00    1.16260   1.32841    0.000
 6730.00    1.18582   1.32923    0.000
 6731.00    1.21956   1.32879    0.000
 6732.00    1.24193   1.32684    0.000
 6733.00    1.22771   1.32556    0.000
 6734.00    1.21644   1.32435    0.000
 6735.00    1.21321   1.32327    0.000
 6736.00    1.20741   1.32124    0.000
 6737.00    1.19558   1.31832    0.000
 6738.00    1.19362   1.31629    0.000
 6739.00    1.21158   1.31398    0.000
 6740.00    1.21641   1.31209    0.000
 6741.00    1.19812   1.31042    0.000
 6742.00    1.17174   1.30840    0.000
 6743.00    1.13289   1.30735    0.000
 6744.00    1.12181   1.30543    0.000
 6745.00    1.14826   1.30504    0.000
 6746.00    1.17767   1.30548    0.000
 6747.00    1.21060   1.30482    0.000
 6748.00    1.21772   1.30624    0.000
 6749.00    1.19774   1.30664    0.000
 6750.00    1.17116   1.30876    0.000
 6751.00    1.13847   1.31153    0.000
 6752.00    1.11800   1.31334    0.000
 6753.00    1.10750   1.31686    0.070
 6754.00    1.09740   1.31911    0.071
 6755.00    1.08757   1.32215    0.072
 6756.00    1.09002   1.32464    0.072
 6757.00    1.10021   1.32681    0.072
 6758.00    1.14417   1.32942    0.073
 6759.00    1.20676   1.33032    0.075
 6760.00    1.25688   1.33091    0.076
 6761.00    1.30101   1.33062    0.076
 6762.00    1.35328   1.33034    0.077
 6763.00    1.40891   1.33064    0.079
 6764.00    1.41810   1.32995    0.079
 6765.00    1.41086   1.32894    0.079
 6766.00    1.38672   1.32792    0.079
 6767.00    1.35753   1.32765    0.079
 6768.00    1.35617   1.32825    0.077
 6769.00    1.36170   1.32864    0.076
 6770.00    1.33657   1.32971    0.076
 6771.00    1.30529   1.33013    0.075
 6772.00    1.29026   1.33064    0.075
 6773.00    1.27778   1.33184    0.075
 6774.00    1.26122   1.33253    0.074
 6775.00    1.24419   1.33349    0.073
 6776.00    1.21103   1.33274    0.072
 6777.00    1.17660   1.33124    0.072
 6778.00    1.19505   1.32957    0.073
 6779.00    1.21581   1.32779    0.075
 6780.00    1.21065   1.32620    0.075
 6781.00    1.20563   1.32376    0.075
 6782.00    1.21976   1.32134    0.075
 6783.00    1.23227   1.31834    0.074
 6784.00    1.21547   1.31613    0.073
 6785.00    1.20170   1.31474    0.072
 6786.00    1.22104   1.31387    0.072
 6787.00    1.23625   1.31313    0.073
 6788.00    1.21968   1.31223    0.072
 6789.00    1.20564   1.31232    0.071
 6790.00    1.20639   1.31228    0.073
 6791.00    1.20601   1.31323    0.073
 6792.00    1.20038   1.31397    0.072
 6793.00    1.20217   1.31450    0.072
 6794.00    1.23198   1.31571    0.074
 6795.00    1.25025   1.31624    0.076
 6796.00    1.23209   1.31744    0.075
 6797.00    1.21860   1.31841    0.074
 6798.00    1.21762   1.31888    0.074
 6799.00    1.21522   1.31976    0.074
 6800.00    1.20956   1.32020    0.074
 6801.00    1.20470   1.32059    0.073
 6802.00    1.20141   1.32137    0.074
 6803.00    1.20728   1.32110    0.073
 6804.00    1.22899   1.32085    0.073
 6805.00    1.23298   1.32104    0.072
 6806.00    1.21008   1.32083    0.071
 6807.00    1.19412   1.32145    0.070
 6808.00    1.18742   1.32083    0.070
 6809.00    1.18822   1.31997    0.070
 6810.00    1.19782   1.32068    0.069
 6811.00    1.18820   1.32103    0.070
 6812.00    1.15867   1.32210    0.073
 6813.00    1.14208   1.32245    0.075
 6814.00    1.13731   1.32225    0.075
 6815.00    1.13571   1.32362    0.074
 6816.00    1.13666   1.32458    0.074
 6817.00    1.15011   1.32599    0.074
 6818.00    1.17241   1.32741    0.073
 6819.00    1.17202   1.32787    0.073
 6820.00    1.15755   1.32898    0.074
 6821.00    1.16726   1.32946    0.074
 6822.00    1.19009   1.32985    0.073
 6823.00    1.20967   1.33074    0.073
 6824.00    1.22772   1.33092    0.073
 6825.00    1.23119   1.33091    0.073
 6826.00    1.22874   1.33024    0.073
 6827.00    1.21306   1.32917    0.073
 6828.00    1.19278   1.32844    0.072
 6829.00    1.20123   1.32736    0.072
 6830.00    1.21807   1.32576    0.072
 6831.00    1.23592   1.32389    0.073
 6832.00    1.25400   1.32174    0.074
 6833.00    1.23619   1.31929    0.074
 6834.00    1.21135   1.31685    0.073
 6835.00    1.18885   1.31396    0.074
 6836.00    1.16670   1.31153    0.075
 6837.00    1.19113   1.30949    0.077
 6838.00    1.22080   1.30728    0.079
 6839.00    1.16274   1.30578    0.080
 6840.00    1.09813   1.30431    0.081
 6841.00    1.13586   1.30362    0.080
 6842.00    1.17766   1.30369    0.078
 6843.00    1.17051   1.30359    0.077
 6844.00    1.16332   1.30386    0.076
 6845.00    1.16815   1.30432    0.075
 6846.00    1.17113   1.30468    0.074
 6847.00    1.14295   1.30513    0.073
 6848.00    1.12159   1.30494    0.072
 6849.00    1.17162   1.30391    0.073
 6850.00    1.21419   1.30301    0.074
 6851.00    1.20131   1.30152    0.074
 6852.00    1.18922   1.30027    0.073
 6853.00    1.18167   1.29918    0.073
 6854.00    1.17413   1.29684    0.072
 6855.00    1.16659   1.29483    0.072
 6856.00    1.15062   1.29258    0.073
 6857.00    1.10350   1.29115    0.073
 6858.00    1.07889   1.29127    0.074
 6859.00    1.12398   1.29055    0.075
 6860.00    1.14467   1.28973    0.076
 6861.00    1.10119   1.28847    0.077
 6862.00    1.07850   1.28771    0.078
 6863.00    1.10281   1.28878    0.077
 6864.00    1.12201   1.28958    0.077
 6865.00    1.13121   1.28986    0.077
 6866.00    1.14171   1.28958    0.078
 6867.00    1.15444   1.28913    0.079
 6868.00    1.16520   1.29006    0.080
 6869.00    1.17301   1.29129    0.079
 6870.00    1.17622   1.29215    0.078
 6871.00    1.17340   1.29302    0.077
 6872.00    1.17072   1.29344    0.076
 6873.00    1.16821   1.29466    0.074
 6874.00    1.14088   1.29637    0.073
 6875.00    1.08822   1.29762    0.074
 6876.00    1.07519   1.29924    0.073
 6877.00    1.09784   1.30040    0.073
 6878.00    1.12623   1.30217    0.073
 6879.00    1.15916   1.30445    0.074
 6880.00    1.15997   1.30615    0.074
 6881.00    1.13836   1.30832    0.074
 6882.00    1.12829   1.31020    0.075
 6883.00    1.12529   1.31274    0.077
 6884.00    1.13611   1.31566    0.078
 6885.00    1.15430   1.31820    0.078
 6886.00    1.14739   1.32085    0.078
 6887.00    1.12883   1.32312    0.078
 6888.00    1.12963   1.32568    0.078
 6889.00    1.13816   1.32778    0.078
 6890.00    1.14724   1.32994    0.077
 6891.00    1.15649   1.33178    0.076
 6892.00    1.15399   1.33309    0.075
 6893.00    1.14813   1.33462    0.074
 6894.00    1.15150   1.33505    0.075
 6895.00    1.15707   1.33610    0.076
 6896.00    1.14381   1.33715    0.075
 6897.00    1.12697   1.33764    0.074
 6898.00    1.13357   1.33871    0.074
 6899.00    1.14364   1.33875    0.074
 6900.00    1.13546   1.33922    0.074
 6901.00    1.12531   1.34005    0.074
 6902.00    1.14847   1.34010    0.075
 6903.00    1.17399   1.34061    0.076
 6904.00    1.15423   1.34045    0.077
 6905.00    1.13283   1.33990    0.077
 6906.00    1.15440   1.33962    0.078
 6907.00    1.17426   1.33876    0.080
 6908.00    1.13006   1.33761    0.079
 6909.00    1.08862   1.33673    0.079
 6910.00    1.09087   1.33520    0.078
 6911.00    1.09347   1.33379    0.077
 6912.00    1.09959   1.33278    0.076
 6913.00    1.10685   1.33070    0.076
 6914.00    1.12224   1.32977    0.078
 6915.00    1.13243   1.32851    0.079
 6916.00    1.11390   1.32728    0.077
 6917.00    1.10085   1.32686    0.075
 6918.00    1.11196   1.32504    0.076
 6919.00    1.12604   1.32422    0.076
 6920.00    1.15086   1.32320    0.075
 6921.00    1.16451   1.32240    0.075
 6922.00    1.14419   1.32197    0.075
 6923.00    1.12976   1.32078    0.075
 6924.00    1.13056   1.32023    0.075
 6925.00    1.13060   1.31952    0.076
 6926.00    1.12899   1.31951    0.078
 6927.00    1.12370   1.31934    0.079
 6928.00    1.11134   1.31942    0.078
 6929.00    1.08794   1.31996    0.078
 6930.00    1.04599   1.32025    0.077
 6931.00    1.03301   1.32121    0.077
 6932.00    1.06271   1.32144    0.078
 6933.00    1.07949   1.32207    0.079
 6934.00    1.07954   1.32279    0.078
 6935.00    1.07636   1.32327    0.077
 6936.00    1.06949   1.32390    0.076
 6937.00    1.06959   1.32357    0.075
 6938.00    1.07672   1.32334    0.076
 6939.00    1.07691   1.32271    0.075
 6940.00    1.07096   1.32224    0.074
 6941.00    1.07337   1.32192    0.073
 6942.00    1.08233   1.32078    0.074
 6943.00    1.08122   1.32013    0.074
 6944.00    1.07319   1.31895    0.075
 6945.00    1.05750   1.31807    0.075
 6946.00    1.03717   1.31810    0.076
 6947.00    1.04558   1.31749    0.077
 6948.00    1.06909   1.31774    0.079
 6949.00    1.08853   1.31793    0.079
 6950.00    1.10612   1.31808    0.079
 6951.00    1.09554   1.31945    0.079
 6952.00    1.07390   1.32048    0.080
 6953.00    1.09781   1.32215    0.081
 6954.00    1.13696   1.32391    0.081
 6955.00    1.13775   1.32563    0.081
 6956.00    1.12776   1.32794    0.080
 6957.00    1.12279   1.33004    0.078
 6958.00    1.11898   1.33253    0.076
 6959.00    1.11189   1.33445    0.075
 6960.00    1.10420   1.33607    0.074
 6961.00    1.12461   1.33779    0.075
 6962.00    1.14904   1.33898    0.076
 6963.00    1.13092   1.34026    0.076
 6964.00    1.10839   1.34066    0.075
 6965.00    1.10818   1.33984    0.076
 6966.00    1.10946   1.33914    0.076
 6967.00    1.14023   1.33784    0.077
 6968.00    1.17194   1.33613    0.077
 6969.00    1.12950   1.33406    0.078
 6970.00    1.08807   1.33058    0.079
 6971.00    1.07774   1.32770    0.079
 6972.00    1.06817   1.32471    0.079
 6973.00    1.06977   1.32154    0.079
 6974.00    1.06749   1.31929    0.079
 6975.00    1.02792   1.31670    0.079
 6976.00    0.99951   1.31572    0.079
 6977.00    1.04883   1.31522    0.079
 6978.00    1.09189   1.31479    0.079
 6979.00    1.10140   1.31618    0.080
 6980.00    1.10601   1.31758    0.080
 6981.00    1.08956   1.32034    0.078
 6982.00    1.07604   1.32349    0.077
 6983.00    1.07290   1.32555    0.077
 6984.00    1.07038   1.32866    0.076
 6985.00    1.06969   1.33119    0.076
 6986.00    1.06914   1.33367    0.076
 6987.00    1.06894   1.33646    0.076
 6988.00    1.07551   1.33720    0.076
 6989.00    1.09689   1.33797    0.077
 6990.00    1.12274   1.33827    0.078
 6991.00    1.15709   1.33797    0.079
 6992.00    1.16360   1.33839    0.080
 6993.00    1.12402   1.33700    0.080
 6994.00    1.09093   1.33521    0.080
 6995.00    1.06724   1.33358    0.080
 6996.00    1.07211   1.33169    0.081
 6997.00    1.11345   1.33075    0.082
 6998.00    1.12818   1.32883    0.082
 6999.00    1.11300   1.32647    0.081
 7000.00    1.10240   1.32462    0.081
 7001.00    1.09635   1.32308    0.081
 7002.00    1.08237   1.32212    0.080
 7003.00    1.06146   1.32104    0.080
 7004.00    1.07592   1.31972    0.079
 7005.00    1.11764   1.31830    0.079
 7006.00    1.11891   1.31745    0.080
 7007.00    1.09277   1.31646    0.083
 7008.00    1.06620   1.31591    0.084
 7009.00    1.03937   1.31552    0.083
 7010.00    1.06387   1.31388    0.083
 7011.00    1.11497   1.31296    0.084
 7012.00    1.09058   1.31218    0.085
 7013.00    1.03230   1.31182    0.085
 7014.00    1.02640   1.31223    0.084
 7015.00    1.04072   1.31109    0.084
 7016.00    1.04493   1.31070    0.085
 7017.00    1.04581   1.31140    0.086
 7018.00    1.08830   1.31179    0.087
 7019.00    1.14224   1.31292    0.088
 7020.00    1.12671   1.31345    0.087
 7021.00    1.09547   1.31419    0.086
 7022.00    1.09465   1.31614    0.086
 7023.00    1.09932   1.31725    0.086
 7024.00    1.07951   1.31856    0.085
 7025.00    1.05632   1.32055    0.084
 7026.00    1.06301   1.32223    0.083
 7027.00    1.07267   1.32448    0.082
 7028.00    1.07280   1.32617    0.083
 7029.00    1.07234   1.32748    0.083
 7030.00    1.05175   1.33025    0.083
 7031.00    1.03065   1.33282    0.083
 7032.00    1.02606   1.33509    0.084
 7033.00    1.02297   1.33746    0.084
 7034.00    1.06106   1.33932    0.086
 7035.00    1.09896   1.34260    0.087
 7036.00    1.13416   1.34617    0.087
 7037.00    1.16175   1.34877    0.088
 7038.00    1.11922   1.35137    0.088
 7039.00    1.08329   1.35362    0.087
 7040.00    1.09190   1.35637    0.087
 7041.00    1.10862   1.35853    0.087
 7042.00    1.16773   1.35963    0.088
 7043.00    1.20816   1.35957    0.089
 7044.00    1.16996   1.35822    0.086
 7045.00    1.13775   1.35688    0.085
 7046.00    1.12630   1.35352    0.084
 7047.00    1.11192   1.34939    0.084
 7048.00    1.08893   1.34399    0.085
 7049.00    1.07226   1.33651    0.086
 7050.00    1.07136   1.32988   -2.000
 7051.00    1.07444   1.32171   -2.000
 7052.00    1.08607   1.31348   -2.000
 7053.00    1.09671   1.30550   -2.000
 7054.00    1.10550   1.29608   -2.000
 7055.00    1.11271   1.28862   -2.000
 7056.00    1.11733   1.28130   -2.000
 7057.00    1.11714   1.27423   -2.000
 7058.00    1.11004   1.26864   -2.000
 7059.00    1.12141   1.26236   -2.000
 7060.00    1.15600   1.25820   -2.000
 7061.00    1.17167   1.25545   -2.000
 7062.00    1.16635   1.25226   -2.000
 7063.00    1.16910   1.25057   -2.000
 7064.00    1.17975   1.24911   -2.000
 7065.00    1.18116   1.24882   -2.000
 7066.00    1.17459   1.25015   -2.000
 7067.00    1.15406   1.25078   -2.000
 7068.00    1.12294   1.25189   -2.000
 7069.00    1.11132   1.25393   -2.000
 7070.00    1.11274   1.25581   -2.000
 7071.00    1.14298   1.25790   -2.000
 7072.00    1.19008   1.25969   -2.000
 7073.00    1.22008   1.26029   -2.000
 7074.00    1.24137   1.26106   -2.000
 7075.00    1.20835   1.26081   -2.000
 7076.00    1.15135   1.25911   -2.000
 7077.00    1.15675   1.25773   -2.000
 7078.00    1.18582   1.25403   -2.000
 7079.00    1.20428   1.24941   -2.000
 7080.00    1.21933   1.24491   -2.000
 7081.00    1.21529   1.23849   -2.000
 7082.00    1.20611   1.23323   -2.000
 7083.00    1.15784   1.22672   -2.000
 7084.00    1.10093   1.21889   -2.000
 7085.00    1.11157   1.21390   -2.000
 7086.00    1.13408   1.20776   -2.000
 7087.00    1.10458   1.20247   -2.000
 7088.00    1.06812   1.19861   -2.000
 7089.00    1.04656   1.19324   -2.000
 7090.00    1.02641   1.19176   -2.000
 7091.00    1.02663   1.19031   -2.000
 7092.00    1.02805   1.18806   -2.000
 7093.00    1.01861   1.18845   -2.000
 7094.00    1.00909   1.18746   -2.000
 7095.00    1.02301   1.18897   -2.000
 7096.00    1.03613   1.19080   -2.000
 7097.00    1.02942   1.19063   -2.000
 7098.00    1.01802   1.19234   -2.000
 7099.00    0.94441   1.19326   -2.000
 7100.00    0.88147   1.19495   -2.000
 7101.00    0.91317   1.19631   -2.000
 7102.00    0.93933   1.19587   -2.000
 7103.00    0.92936   1.19659   -2.000
 7104.00    0.92304   1.19727   -2.000
 7105.00    0.93534   1.19779   -2.000
 7106.00    0.94567   1.19748   -2.000
 7107.00    0.94787   1.19671   -2.000
 7108.00    0.94470   1.19682   -2.000
 7109.00    0.92320   1.19718   -2.000
 7110.00    0.92411   1.19727   -2.000
 7111.00    0.98936   1.19625   -2.000
 7112.00    1.03108   1.19596   -2.000
 7113.00    1.01504   1.19579   -2.000
 7114.00    1.01603   1.19544   -2.000
 7115.00    1.05308   1.19530   -2.000
 7116.00    1.06290   1.19319   -2.000
 7117.00    1.02265   1.19199   -2.000
 7118.00    1.03378   1.19059   -2.000
 7119.00    1.12746   1.18850   -2.000
 7120.00    1.18786   1.18731   -2.000
 7121.00    1.20132   1.18342   -2.000
 7122.00    1.16427   1.18043   -2.000
 7123.00    1.06455   1.17872   -2.000
 7124.00    0.99306   1.17589   -2.000
 7125.00    0.95244   1.17409   -2.000
 7126.00    0.92225   1.17092   -2.000
 7127.00    0.90213   1.16877   -2.000
 7128.00    0.90345   1.16930   -2.000
 7129.00    0.92300   1.16832   -2.000
 7130.00    0.92157   1.16758   -2.000
 7131.00    0.90443   1.16784   -2.000
 7132.00    0.91105   1.16880   -2.000
 7133.00    0.93330   1.17122   -2.000
 7134.00    0.98844   1.17205   -2.000
 7135.00    1.06252   1.17247   -2.000
 7136.00    1.09982   1.17440   -2.000
 7137.00    1.11866   1.17662   -2.000
 7138.00    1.05304   1.17814   -2.000
 7139.00    0.95075   1.17803   -2.000
 7140.00    0.96778   1.17884   -2.000
 7141.00    1.02926   1.17993   -2.000
 7142.00    1.02472   1.18052   -2.000
 7143.00    0.99933   1.18132   -2.000
 7144.00    0.96289   1.18053   -2.000
 7145.00    0.92354   1.18167   -2.000
 7146.00    0.93597   1.18270   -2.000
 7147.00    0.95956   1.18226   -2.000
 7148.00    0.94888   1.18452   -2.000
 7149.00    0.93234   1.18536   -2.000
 7150.00    0.96965   1.18636   -2.000
 7151.00    1.01393   1.18790   -2.000
 7152.00    0.98897   1.18802   -2.000
 7153.00    0.95773   1.19096   -2.000
 7154.00    0.97738   1.19221   -2.000
 7155.00    0.99981   1.19162   -2.000
 7156.00    1.00000   1.19244   -2.000
 7157.00    0.99946   1.19287   -2.000
 7158.00    0.97459   1.19443   -2.000
 7159.00    0.94918   1.19469   -2.000
 7160.00    0.91151   1.19342   -2.000
 7161.00    0.87713   1.19402   -2.000
 7162.00    0.88432   1.19528   -2.000
 7163.00    0.90354   1.19642   -2.000
 7164.00    1.02552   1.19709   -2.000
 7165.00    1.12888   1.19777   -2.000
 7166.00    1.11424   1.19946   -2.000
 7167.00    1.10034   1.20126   -2.000
 7168.00    1.09019   1.20274   -2.000
 7169.00    1.06839   1.20418   -2.000
 7170.00    0.99973   1.20528   -2.000
 7171.00    0.96187   1.20629   -2.000
 7172.00    1.02688   1.20639   -2.000
 7173.00    1.06660   1.20621   -2.000
 7174.00    1.03501   1.20679   -2.000
 7175.00    1.01949   1.20553   -2.000
 7176.00    1.04274   1.20398   -2.000
 7177.00    1.04726   1.20292   -2.000
 7178.00    1.01278   1.20049   -2.000
 7179.00    0.99846   1.19916   -2.000
 7180.00    1.02065   1.19661   -2.000
 7181.00    1.00915   1.19389   -2.000
 7182.00    0.94434   1.19384   -2.000
 7183.00    0.92737   1.19127   -2.000
 7184.00    0.97687   1.18866   -2.000
 7185.00    1.00101   1.18737   -2.000
 7186.00    0.99415   1.18594   -2.000
 7187.00    0.97776   1.18688   -2.000
 7188.00    0.95109   1.18577   -2.000
 7189.00    0.94617   1.18442   -2.000
 7190.00    0.96193   1.18565   -2.000
 7191.00    0.98422   1.18619   -2.000
 7192.00    1.01200   1.18717   -2.000
 7193.00    1.00439   1.18726   -2.000
 7194.00    0.97066   1.18838   -2.000
 7195.00    0.97477   1.19096   -2.000
 7196.00    1.00341   1.19177   -2.000
 7197.00    1.01979   1.19223   -2.000
 7198.00    1.02921   1.19168   -2.000
 7199.00    0.94138   1.19307   -2.000
 7200.00    0.80553   1.19496   -2.000
 7201.00    0.78849   1.19437   -2.000
 7202.00    0.82219   1.19490   -2.000
 7203.00    0.90483   1.19416   -2.000
 7204.00    1.00538   1.19452   -2.000
 7205.00    1.04926   1.19575   -2.000
 7206.00    1.07559   1.19468   -2.000
 7207.00    1.05434   1.19595   -2.000
 7208.00    1.02080   1.19730   -2.000
 7209.00    0.99669   1.19836   -2.000
 7210.00    0.97456   1.20046   -2.000
 7211.00    0.92570   1.20091   -2.000
 7212.00    0.87241   1.20274   -2.000
 7213.00    0.68374   1.20607   -2.000
 7214.00    0.47815   1.20840   -2.000
 7215.00    0.46414   1.21093   -2.000
 7216.00    0.46671   1.21347   -2.000
 7217.00    0.48296   1.21556   -2.000
 7218.00    0.49990   1.21897   -2.000
