###################################################################
## OUTPUT of StarlightChains_v04.for    [Cid@UFSC - 01/Apr/2007] ##
###################################################################

## Some input info
KUG0210-078._28_36.txt                   [arq_obs]
Base.CB07.vall.4m                        [arq_base]
Masks.EmLines.NEW.gm                     [arq_masks]
StCv04.C11.config                        [arq_config]
   66                                    [N_base]
    0                                    [N_YAV_components = # of components with extra extinction!]
    0                                    [i_FitPowerLaw (1/0 = Yes/No)]
-9.99                                    [alpha_PowerLaw]
CCM                                      [red_law_option]
 1.458241                                [q_norm = A(l_norm)/A(V)]

## (Re)Sampling Parameters
 3741.00                                 [l_ini (A)]
 7218.00                                 [l_fin (A)]
    1.00                                 [dl    (A)]     (OBS: dl_cushion =    50.00 A)

## Normalization info
 4020.00                                 [l_norm (A) - for base]
 4010.00                                 [llow_norm (A) - window for f_obs]
 4060.00                                 [lupp_norm (A) - window for f_obs]
1.295393E-16                             [fobs_norm (in input units)]

## S/N
 3691.00                                 [llow_SN (A) - window for S/N]
 7268.00                                 [lupp_SN (A) - window for S/N]
   5.991                                 [S/N in S/N window]
   4.690                                 [S/N in norm. window]
   0.323                                 [S/N_err in S/N window]
   0.253                                 [S/N_err in norm. window]
  1.0000                                 [fscale_chi2]

## etc...
    -2007384                             [idum_orig]
  2432                                   [NOl_eff]
  2378                                   [Nl_eff]
    54    NSIGMA                         [Ntot_cliped & clip_method]
 16274580                                [Nglobal_steps]
   7                                     [N_chains]
  45                                     [NEX0s_base = N_base in EX0s-fits]
 0   0   1       54   2.0   4.041E+04    [Clip-Bug, RC-Crash & Burn-In warning-flags, n_censored_weights, wei_nsig_threshold & wei_limit]
   464    145.319    144.224      1.095  [idt_all, wdt_TotTime, wdt_UsrTime & wdt_SysTime (sec)]

## Synthesis Results - Best model ##

 6.37218E-04                             [chi2/Nl_eff]
     4.86915                             [adev (%)]

    97.21430                             [sum-of-x (%)]
 9.11755E-15                             [Flux_tot (units of input spectrum!)]
 1.49678E-11                             [Mini_tot (???)]
 8.19539E-12                             [Mcor_tot (???)]

 323.68                                  [v0_min  (km/s)]
 149.82                                  [vd_min  (km/s)]
 3.1883                                  [AV_min  (mag)]
 0.0000                                  [YAV_min (mag)]

# j     x_j(%)      Mini_j(%)     Mcor_j(%)     age_j(yr)     Z_j      (L/M)_j    YAV?  Mstars   component_j        a/Fe...       SSP_chi2r SSP_adev(%)   SSP_AV   SSP_x(%)
  1     14.0296     8.0356E-01    1.4676E+00    1.000000E+06  0.00400  1.094E-02    0   1.0000   age020_m42            0.0000     6.8001E-04     5.1300   3.6700    93.4995
  2      0.0000     0.0000E+00    0.0000E+00    3.160000E+06  0.00400  4.007E-02    0   0.9999   age045_m42            0.0000     1.1541E-03     6.0161   2.9380   100.2576
  3      0.0000     0.0000E+00    0.0000E+00    5.010000E+06  0.00400  2.539E-02    0   0.9488   age055_m42            0.0000     9.1660E-04     5.4596   3.2623    97.5992
  4      0.0000     0.0000E+00    0.0000E+00    6.610000E+06  0.00400  2.620E-02    0   0.9220   age061_m42            0.0000     1.2217E-03     5.9747   2.8676   100.3592
  5      0.0000     0.0000E+00    0.0000E+00    1.000000E+07  0.00400  1.322E-02    0   0.8862   age070_m42            0.0000     1.0846E-03     5.7445   2.5972   102.0512
  6      0.0000     0.0000E+00    0.0000E+00    1.445000E+07  0.00400  7.883E-03    0   0.8571   age078_m42            0.0000     9.2965E-04     5.3801   2.9238    99.4432
  7      0.0000     0.0000E+00    0.0000E+00    2.512000E+07  0.00400  5.251E-03    0   0.8174   age090_m42            0.0000     1.1204E-03     5.8815   2.4693   102.5805
  8      0.0000     0.0000E+00    0.0000E+00    4.000000E+07  0.00400  3.649E-03    0   0.7851   age104_m42            0.0000     1.2252E-03     6.0892   2.2395   103.5880
  9      0.0000     0.0000E+00    0.0000E+00    5.500000E+07  0.00400  3.098E-03    0   0.7629   age110_m42            0.0000     1.4415E-03     6.3528   2.3880   103.7666
 10      0.0000     0.0000E+00    0.0000E+00    1.015200E+08  0.00400  2.228E-03    0   0.7207   age116_m42            0.0000     1.6733E-03     6.5945   2.4072   103.9912
 11      0.0000     0.0000E+00    0.0000E+00    2.861200E+08  0.00400  1.093E-03    0   0.6648   age125_m42            0.0000     1.9606E-03     7.4267   1.8367   107.0723
 12      0.0000     0.0000E+00    0.0000E+00    5.088000E+08  0.00400  6.597E-04    0   0.6365   age130_m42            0.0000     2.2860E-03     7.6880   1.8243   108.1037
 13      0.1389     4.0837E-01    4.3244E-01    1.434000E+09  0.00400  2.132E-04    0   0.5798   age139_m42            0.0000     2.3650E-03     7.8927   0.8486   110.8015
 14      0.0000     0.0000E+00    0.0000E+00    4.250000E+09  0.00400  5.895E-05    0   0.5377   age158_m42            0.0000     2.1378E-03     7.9229   0.3932   107.2948
 15      0.0000     0.0000E+00    0.0000E+00    7.500000E+09  0.00400  3.510E-05    0   0.5212   age171_m42            0.0000     2.3269E-03     8.3990   0.2004   106.7720
 16      0.0000     0.0000E+00    0.0000E+00    1.300000E+10  0.00400  2.005E-05    0   0.5034   age193_m42            0.0000     2.5266E-03     8.8504   0.0322   106.2884
 17      0.0000     0.0000E+00    0.0000E+00    1.800000E+10  0.00400  1.525E-05    0   0.4967   age213_m42            0.0000     2.4536E-03     8.7227   0.0100   105.8055
 18     42.3265     2.1423E+00    3.9126E+00    1.000000E+06  0.00800  1.238E-02    0   1.0000   age020_m52            0.0000     6.8091E-04     5.1326   3.6671    93.6578
 19     24.3862     4.9709E-01    9.0477E-01    3.160000E+06  0.00800  3.074E-02    0   0.9966   age045_m52            0.0000     7.0821E-04     5.1222   3.5912    94.4894
 20      0.0000     0.0000E+00    0.0000E+00    5.010000E+06  0.00800  2.668E-02    0   0.9443   age055_m52            0.0000     8.4023E-04     5.2563   3.3459    96.6897
 21      1.5870     4.6555E-02    7.8028E-02    6.610000E+06  0.00800  2.136E-02    0   0.9177   age061_m52            0.0000     9.3484E-04     5.4944   2.0961   103.4205
 22      0.0000     0.0000E+00    0.0000E+00    1.000000E+07  0.00800  1.215E-02    0   0.8827   age070_m52            0.0000     9.9249E-04     5.7419   2.7790   101.6637
 23      0.0000     0.0000E+00    0.0000E+00    1.445000E+07  0.00800  8.717E-03    0   0.8552   age078_m52            0.0000     9.7658E-04     5.5058   2.8891   100.8518
 24      0.0000     0.0000E+00    0.0000E+00    2.512000E+07  0.00800  5.592E-03    0   0.8162   age090_m52            0.0000     1.1774E-03     6.1413   2.5314   103.8439
 25      0.0000     0.0000E+00    0.0000E+00    4.000000E+07  0.00800  3.896E-03    0   0.7841   age104_m52            0.0000     1.3388E-03     6.4671   2.4397   104.8147
 26      0.0000     0.0000E+00    0.0000E+00    1.015200E+08  0.00800  2.148E-03    0   0.7226   age116_m52            0.0000     1.5761E-03     6.6475   2.3733   104.8740
 27      0.0000     0.0000E+00    0.0000E+00    2.861200E+08  0.00800  9.925E-04    0   0.6683   age125_m52            0.0000     2.3156E-03     7.7889   1.8878   109.1641
 28      0.0000     0.0000E+00    0.0000E+00    9.047900E+08  0.00800  3.141E-04    0   0.6138   age135_m52            0.0000     2.8232E-03     8.8718   1.0770   114.4628
 29      0.0000     0.0000E+00    0.0000E+00    1.434000E+09  0.00800  1.719E-04    0   0.5853   age139_m52            0.0000     2.4421E-03     8.6429   0.4876   112.6973
 30      0.0000     0.0000E+00    0.0000E+00    2.500000E+09  0.00800  7.872E-05    0   0.5600   age150_m52            0.0000     2.6107E-03     8.9717   0.2137   110.0217
 31      0.0000     0.0000E+00    0.0000E+00    4.250000E+09  0.00800  4.336E-05    0   0.5426   age158_m52            0.0000     2.6003E-03     8.9618   0.1985   109.0000
 32      0.0000     0.0000E+00    0.0000E+00    6.250000E+09  0.00800  3.159E-05    0   0.5319   age166_m52            0.0000     3.0030E-03     9.6409  -0.0071   109.1416
 33      0.0000     0.0000E+00    0.0000E+00    1.300000E+10  0.00800  1.361E-05    0   0.5073   age193_m52            0.0000     3.6022E-03    10.4816  -0.4772   108.5710
 34      0.0000     0.0000E+00    0.0000E+00    1.800000E+10  0.00800  9.886E-06    0   0.4990   age213_m52            0.0000     4.0943E-03    11.1822  -0.5886   108.1551
 35      9.1846     3.7274E-01    6.8076E-01    1.000000E+06  0.02000  1.544E-02    0   1.0000   age020_m62            0.0000     6.7710E-04     5.1164   3.6642    93.8332
 36      0.9272     1.5444E-02    2.7806E-02    3.160000E+06  0.02000  3.762E-02    0   0.9858   age045_m62            0.0000     6.9396E-04     5.1271   3.6031    94.6650
 37      0.0000     0.0000E+00    0.0000E+00    5.010000E+06  0.02000  3.296E-02    0   0.9342   age055_m62            0.0000     1.0573E-03     5.7254   3.2203    98.8993
 38      0.0000     0.0000E+00    0.0000E+00    8.710000E+06  0.02000  1.154E-02    0   0.8861   age067_m62            0.0000     1.1323E-03     7.4324   2.2514   103.5205
 39      0.0000     0.0000E+00    0.0000E+00    1.445000E+07  0.02000  7.663E-03    0   0.8472   age078_m62            0.0000     1.0224E-03     6.3863   2.4273   103.8715
 40      0.0000     0.0000E+00    0.0000E+00    2.512000E+07  0.02000  4.532E-03    0   0.8099   age090_m62            0.0000     1.1207E-03     6.6950   2.4199   103.5374
 41      0.0000     0.0000E+00    0.0000E+00    5.500000E+07  0.02000  2.733E-03    0   0.7595   age110_m62            0.0000     1.2877E-03     6.2947   2.4241   104.0047
 42      0.0000     0.0000E+00    0.0000E+00    1.609000E+08  0.02000  1.369E-03    0   0.6985   age120_m62            0.0000     1.9564E-03     7.0916   2.2578   107.0646
 43      0.0000     0.0000E+00    0.0000E+00    2.861200E+08  0.02000  9.013E-04    0   0.6714   age125_m62            0.0000     2.5194E-03     7.7409   2.0075   110.1868
 44      0.0722     8.9958E-02    1.0595E-01    5.088000E+08  0.02000  5.028E-04    0   0.6449   age130_m62            0.0000     3.0023E-03     8.6240   1.6201   113.6230
 45      0.0000     0.0000E+00    0.0000E+00    9.047900E+08  0.02000  2.428E-04    0   0.6179   age135_m62            0.0000     2.7858E-03     8.8685   1.0157   113.9637
 46      0.0000     0.0000E+00    0.0000E+00    1.434000E+09  0.02000  1.263E-04    0   0.5908   age139_m62            0.0000     2.6771E-03     8.9044   0.5659   112.6690
 47      0.0000     0.0000E+00    0.0000E+00    2.500000E+09  0.02000  5.985E-05    0   0.5673   age150_m62            0.0000     2.9600E-03     9.5671   0.1937   111.4444
 48      0.6004     1.1501E+01    1.1486E+01    4.250000E+09  0.02000  3.271E-05    0   0.5468   age158_m62            0.0000     3.5717E-03    10.5575  -0.1155   110.6980
 49      1.1758     5.4171E+01    5.1120E+01    1.000000E+10  0.02000  1.360E-05    0   0.5167   age181_m62            0.0000     4.5177E-03    11.7791  -0.4676   110.4023
 50      0.0730     6.4244E+00    5.8819E+00    1.800000E+10  0.02000  7.124E-06    0   0.5013   age213_m62            0.0000     5.2590E-03    12.6916  -0.6795   109.5721
 51      0.0000     0.0000E+00    0.0000E+00    1.000000E+06  0.05000  2.592E-02    0   0.9998   age020_m72            0.0000     6.4801E-04     5.0225   3.6576    93.7874
 52      0.0000     0.0000E+00    0.0000E+00    3.160000E+06  0.05000  4.845E-02    0   0.9577   age045_m72            0.0000     8.2315E-04     5.3497   3.4834    96.0612
 53      0.0000     0.0000E+00    0.0000E+00    5.010000E+06  0.05000  3.072E-02    0   0.9147   age055_m72            0.0000     9.1533E-04     5.9044   3.0051   100.0563
 54      0.0000     0.0000E+00    0.0000E+00    6.610000E+06  0.05000  1.455E-02    0   0.8877   age061_m72            0.0000     1.8178E-03     9.6990   2.2861   104.1738
 55      0.0000     0.0000E+00    0.0000E+00    1.000000E+07  0.05000  9.074E-03    0   0.8524   age070_m72            0.0000     1.1370E-03     6.8718   3.1745    99.9525
 56      0.0000     0.0000E+00    0.0000E+00    2.512000E+07  0.05000  4.250E-03    0   0.7902   age090_m72            0.0000     1.2572E-03     6.8300   2.8795   101.8999
 57      0.0000     0.0000E+00    0.0000E+00    4.000000E+07  0.05000  3.087E-03    0   0.7618   age104_m72            0.0000     1.4273E-03     7.2174   2.6534   103.5756
 58      0.0000     0.0000E+00    0.0000E+00    1.015200E+08  0.05000  1.700E-03    0   0.7096   age116_m72            0.0000     1.8509E-03     7.1454   2.3999   106.5610
 59      0.0000     0.0000E+00    0.0000E+00    2.861200E+08  0.05000  7.384E-04    0   0.6633   age125_m72            0.0000     2.8010E-03     8.2426   1.8691   112.0371
 60      0.0000     0.0000E+00    0.0000E+00    5.088000E+08  0.05000  3.819E-04    0   0.6372   age130_m72            0.0000     2.8696E-03     8.6708   1.3621   114.7502
 61      2.2204     8.3015E+00    9.2637E+00    9.047900E+08  0.05000  1.676E-04    0   0.6110   age135_m72            0.0000     2.9706E-03     9.5047   0.6481   113.7444
 62      0.0000     0.0000E+00    0.0000E+00    1.434000E+09  0.05000  8.837E-05    0   0.5874   age139_m72            0.0000     3.1642E-03     9.9385   0.1858   113.4433
 63      0.3637     5.3839E+00    5.5045E+00    2.500000E+09  0.05000  4.233E-05    0   0.5598   age150_m72            0.0000     3.7940E-03    10.9514  -0.1226   111.9508
 64      0.0481     2.1022E+00    2.0153E+00    6.250000E+09  0.05000  1.435E-05    0   0.5249   age166_m72            0.0000     4.6675E-03    12.1657  -0.5716   110.2900
 65      0.0804     7.7397E+00    7.1186E+00    1.300000E+10  0.05000  6.513E-06    0   0.5036   age193_m72            0.0000     5.6318E-03    13.2954  -0.8517   111.2388
 66      0.0000     0.0000E+00    0.0000E+00    1.800000E+10  0.05000  4.527E-06    0   0.4945   age213_m72            0.0000     6.2117E-03    13.9328  -1.0000   110.4648


## Synthesis Results - Average & Chains ##

# j      x_j: min, <> & last-chain-values for 1 ...  7 chains
  1     14.0296      0.4558      2.3410      2.4554      0.3453      0.6307      0.2349      0.0000      1.4533
  2      0.0000      0.3755      2.4222      0.0000      0.0000      0.0000      0.0000      0.0000      0.0000
  3      0.0000      0.3326      0.2867      0.6084      0.0000      0.0000      0.7534      0.0000      0.0000
  4      0.0000      0.4687      2.9383      3.4367      0.0000      0.0000      0.2688      0.0000      2.1266
  5      0.0000      0.4111      1.4927      1.6965      2.0261      0.3797      1.2829      1.3388      0.9987
  6      0.0000      0.5359      1.5517      2.9065      0.7269      1.9194      0.2965      0.0000      3.8227
  7      0.0000      0.5058      0.9396      0.3710      1.1063      1.3084      0.4731      2.3784      4.0007
  8      0.0000      0.3791      0.0000      0.0000      0.0000      1.2783      0.7114      0.7927      1.4398
  9      0.0000      0.4879      0.7782      0.0000      1.7209      0.7893      2.5823      0.0000      0.4100
 10      0.0000      0.3996      2.0373      4.0331      0.5116      0.0000      0.0000      0.0000      1.3358
 11      0.0000      0.3193      0.0000      0.0000      0.9372      1.5531      0.0000      2.2078      0.9676
 12      0.0000      0.4481      0.0000      0.0000      2.4338      0.0000      1.4400      0.4758      0.6320
 13      0.1389      0.4827      0.0000      0.0000      2.4803      0.3401      0.4103      0.0000      2.5669
 14      0.0000      0.5414      1.4133      0.0000      0.0000      2.4848      0.0000      0.8611      3.1448
 15      0.0000      0.6194      0.0000      0.0000      0.0000      0.1573      0.5665      0.0000      0.0636
 16      0.0000      0.4501      0.3874      2.4980      0.8985      0.0000      1.1357      1.8453      2.1009
 17      0.0000      0.4756      0.5410      0.0000      0.2352      0.0000      1.6200      2.7605      0.2654
 18     42.3265      0.7218      1.0126      0.5366      5.9757      2.1815      3.3838      0.3862      1.3137
 19     24.3862      0.6272      0.6592      0.0000      0.2525      2.9507      0.0000      0.1952      0.5460
 20      0.0000      0.4627      4.2307      1.3569      0.0000      1.8242      3.9622      0.0000      2.0545
 21      1.5870      0.5753      2.3298      1.8294      0.7317      0.8515      1.9490      1.6006      1.3928
 22      0.0000      0.4460      0.0000      1.8040      0.3870      2.7173      3.0566      4.8870      0.0000
 23      0.0000      0.5271      0.9161      1.8562      0.2978      1.9171      3.2477      0.9355      5.2556
 24      0.0000      0.4540      0.0000      0.0000      0.0000      2.1388      2.1859      3.0806      1.0766
 25      0.0000      0.3972      0.0000      0.5098      0.7051      0.0000      0.7890      1.8622      0.1666
 26      0.0000      0.4410      1.0271      0.5558      0.0000      1.2813      1.1510      3.8207      0.5038
 27      0.0000      0.4919      0.1308      0.2347      0.9372      0.0000      0.0000      0.6835      0.0000
 28      0.0000      0.4069      2.5984      1.3403      0.0000      0.7073      1.9070      0.0000      0.3754
 29      0.0000      0.4186      0.0000      0.0000      0.0000      0.0000      1.3219      0.0000      0.4968
 30      0.0000      0.6316      0.6906      0.4925      2.8273      0.6392      0.2707      0.5595      0.1375
 31      0.0000      0.4723      0.0000      1.3546      0.0000      2.1201      2.7114      0.8821      0.0000
 32      0.0000      0.5650      1.1684      0.0000      1.0426      0.8595      1.7650      0.0000      0.2540
 33      0.0000      0.4939      2.9094      1.6621      1.2929      0.5112      0.0000      0.3565      0.5885
 34      0.0000      0.6157      3.8983      0.0000      0.0000      0.0000      0.0000      0.0000      0.2899
 35      9.1846      0.3689      0.0000      1.5700      2.2434      0.0000      3.5860      3.1988      1.1975
 36      0.9272      0.5426      1.1461      1.5112      0.0000      0.0000      1.0930      4.1361      1.3630
 37      0.0000      0.3742      0.6039      0.0000      3.0629      0.3758      0.0000      1.1435      3.9135
 38      0.0000      0.5184      0.0000      1.6852      0.4683      8.0062      6.3685      1.7076      6.2302
 39      0.0000      0.4231      0.8358      1.3766      0.0000      0.0000      0.8700      0.5415      0.2597
 40      0.0000      0.4653      0.2744      1.9055      0.9599      0.0000      1.2238      0.0000      0.0165
 41      0.0000      0.4714      0.0000      2.3960      1.4376      0.0000      3.4036      0.0000      1.2229
 42      0.0000      0.4294      1.3908      0.0000      0.6406      0.0000      0.5583      0.0000      0.0000
 43      0.0000      0.3857      0.0000      0.9071      2.3895      6.9288      0.0393      0.9301      0.0000
 44      0.0722      0.4670      0.0000      1.6972      0.0000      0.4761      0.0000      0.4857      0.9918
 45      0.0000      0.4388      0.3258      1.0320      0.4306      1.5887      0.4692      1.3093      0.4317
 46      0.0000      0.4954      1.4133      0.6594      3.8991      0.7741      0.3416      0.1599      3.1267
 47      0.0000     10.8150      2.9652      6.8690      2.8857      1.1828      4.1186      7.9484      5.7858
 48      0.6004      7.7211      6.6527      1.2115      6.5995      3.7244      0.0000      4.7793      1.8013
 49      1.1758      0.8055      1.0911      3.0397      0.0000      2.9810      2.8832      1.8714      0.6692
 50      0.0730      0.6892      0.3795      3.0011      1.7103      1.6035      0.9624      0.2559      0.3796
 51      0.0000      0.4547      0.0000      0.8092      0.0000      1.8386      1.5297      1.3368      0.0000
 52      0.0000      0.3769      2.1866      2.4542      2.1289      3.6849      0.3449      4.4856      0.0000
 53      0.0000      0.5213      5.6914      2.1988      2.0879      0.8134      0.0000      0.7183      0.0000
 54      0.0000      0.3844      0.2364      0.2679      1.4273      0.2460      0.7014      2.0690      0.0000
 55      0.0000      0.4588      0.0000      5.3786      0.5712      0.4481      0.0000      0.0000      3.4641
 56      0.0000      0.4971      4.9940      1.5583      0.0000      2.1035      3.1802      0.3430      2.0630
 57      0.0000      0.5219      0.0000      3.5766      0.9892      5.4518      0.8193      0.7314      2.1170
 58      0.0000      0.5305      0.0000      0.1849      0.0000      0.3074      0.0000      0.3931      0.0000
 59      0.0000      0.4975      0.5473      0.0000      1.3005      0.0198      0.9777      0.0534      0.4004
 60      0.0000      0.7670      0.0000      0.0000      4.3612      0.0000      0.0000      3.1606      0.9739
 61      2.2204     27.9047     11.5547      5.0809      9.2289      5.6638      0.8872      5.5713      2.6970
 62      0.0000      2.9075      2.6595      2.3641      3.0081      0.0000      0.0000      2.0108      2.6280
 63      0.3637     22.3552     21.0348     18.5970     22.0421     20.0118     19.6281     23.0743     16.7025
 64      0.0481      1.5683      0.0000      0.0000      1.0778      0.0000      0.9001      1.6099      0.6441
 65      0.0804      1.0048      0.0000      0.0000      0.0000      1.9802      4.4988      0.0000      2.2022
 66      0.0000      0.8397      2.0292      0.4662      1.3609      0.8555      4.8498      0.9586      3.3576

# j      m_j: min, <> & last-chain-values for 1 ...  7 chains
  1  1.4676E+00  3.8675E-03  1.8531E-02  2.4776E-02  3.3208E-03  6.1138E-03  1.3713E-03  0.0000E+00  1.1926E-02
  2  0.0000E+00  8.6975E-04  5.2343E-03  0.0000E+00  0.0000E+00  0.0000E+00  0.0000E+00  0.0000E+00  0.0000E+00
  3  0.0000E+00  1.1538E-03  9.2781E-04  2.5096E-03  0.0000E+00  0.0000E+00  1.7984E-03  0.0000E+00  0.0000E+00
  4  0.0000E+00  1.5310E-03  8.9545E-03  1.3351E-02  0.0000E+00  0.0000E+00  6.0429E-04  0.0000E+00  6.7183E-03
  5  0.0000E+00  2.5583E-03  8.6651E-03  1.2554E-02  1.4289E-02  2.6996E-03  5.4935E-03  9.5814E-03  6.0102E-03
  6  0.0000E+00  5.4091E-03  1.4611E-02  3.4885E-02  8.3149E-03  2.2133E-02  2.0596E-03  0.0000E+00  3.7313E-02
  7  0.0000E+00  7.3088E-03  1.2666E-02  6.3748E-03  1.8117E-02  2.1600E-02  4.7040E-03  3.9527E-02  5.5908E-02
  8  0.0000E+00  7.5724E-03  0.0000E+00  0.0000E+00  0.0000E+00  2.9167E-02  9.7779E-03  1.8208E-02  2.7809E-02
  9  0.0000E+00  1.1153E-02  1.6595E-02  0.0000E+00  4.4581E-02  2.0613E-02  4.0621E-02  0.0000E+00  9.0650E-03
 10  0.0000E+00  1.1999E-02  5.7070E-02  1.4401E-01  1.7410E-02  0.0000E+00  0.0000E+00  0.0000E+00  3.8791E-02
 11  0.0000E+00  1.8029E-02  0.0000E+00  0.0000E+00  5.9970E-02  1.0018E-01  0.0000E+00  1.4337E-01  5.2835E-02
 12  0.0000E+00  4.0139E-02  0.0000E+00  0.0000E+00  2.4703E-01  0.0000E+00  8.8751E-02  4.9009E-02  5.4738E-02
 13  4.3244E-01  1.2187E-01  0.0000E+00  0.0000E+00  7.0960E-01  9.8086E-02  7.1270E-02  0.0000E+00  6.2669E-01
 14  0.0000E+00  4.5843E-01  1.1164E+00  0.0000E+00  0.0000E+00  2.4036E+00  0.0000E+00  8.3854E-01  2.5751E+00
 15  0.0000E+00  8.5382E-01  0.0000E+00  0.0000E+00  0.0000E+00  2.4776E-01  5.3738E-01  0.0000E+00  8.4818E-02
 16  0.0000E+00  1.0490E+00  8.4240E-01  6.9234E+00  2.3732E+00  0.0000E+00  1.8215E+00  4.9464E+00  4.7353E+00
 17  0.0000E+00  1.4381E+00  1.5258E+00  0.0000E+00  8.0598E-01  0.0000E+00  3.3704E+00  9.5989E+00  7.7614E-01
 18  3.9126E+00  5.4123E-03  7.0832E-03  4.7845E-03  5.0779E-02  1.8688E-02  1.7459E-02  3.3305E-03  9.5260E-03
 19  9.0477E-01  1.8878E-03  1.8507E-03  0.0000E+00  8.6114E-04  1.0145E-02  0.0000E+00  6.7571E-04  1.5890E-03
 20  0.0000E+00  1.5203E-03  1.2967E-02  5.3014E-03  0.0000E+00  6.8475E-03  8.9580E-03  0.0000E+00  6.5280E-03
 21  7.8028E-02  2.2944E-03  8.6682E-03  8.6765E-03  3.3069E-03  3.8800E-03  5.3488E-03  7.3417E-03  5.3720E-03
 22  0.0000E+00  3.0082E-03  0.0000E+00  1.4468E-02  2.9574E-03  2.0937E-02  1.4185E-02  3.7904E-02  0.0000E+00
 23  0.0000E+00  4.8007E-03  7.7835E-03  2.0102E-02  3.0732E-03  1.9946E-02  2.0353E-02  9.7988E-03  4.6288E-02
 24  0.0000E+00  6.1519E-03  0.0000E+00  0.0000E+00  0.0000E+00  3.3107E-02  2.0381E-02  4.8003E-02  1.4107E-02
 25  0.0000E+00  7.4212E-03  0.0000E+00  1.1326E-02  1.4929E-02  0.0000E+00  1.0144E-02  4.0013E-02  3.0104E-03
 26  0.0000E+00  1.3771E-02  2.9922E-02  2.0640E-02  0.0000E+00  4.5713E-02  2.4734E-02  1.3722E-01  1.5215E-02
 27  0.0000E+00  3.0745E-02  7.6243E-03  1.7448E-02  6.6391E-02  0.0000E+00  0.0000E+00  4.9137E-02  0.0000E+00
 28  0.0000E+00  7.3821E-02  4.3972E-01  2.8914E-01  0.0000E+00  1.4658E-01  2.3804E-01  0.0000E+00  6.5862E-02
 29  0.0000E+00  1.3230E-01  0.0000E+00  0.0000E+00  0.0000E+00  0.0000E+00  2.8751E-01  0.0000E+00  1.5186E-01
 30  0.0000E+00  4.1707E-01  4.2545E-01  3.8680E-01  2.1159E+00  4.8222E-01  1.2303E-01  4.2494E-01  8.7794E-02
 31  0.0000E+00  5.4868E-01  0.0000E+00  1.8713E+00  0.0000E+00  2.8137E+00  2.1674E+00  1.1785E+00  0.0000E+00
 32  0.0000E+00  8.8306E-01  1.7036E+00  0.0000E+00  1.8467E+00  1.5348E+00  1.8984E+00  0.0000E+00  3.8396E-01
 33  0.0000E+00  1.7090E+00  9.3915E+00  6.8391E+00  5.0699E+00  2.0206E+00  0.0000E+00  1.4185E+00  1.9691E+00
 34  0.0000E+00  2.8849E+00  1.7040E+01  0.0000E+00  0.0000E+00  0.0000E+00  0.0000E+00  0.0000E+00  1.3137E+00
 35  6.8076E-01  2.2182E-03  0.0000E+00  1.1225E-02  1.5286E-02  0.0000E+00  1.4836E-02  2.2118E-02  6.9628E-03
 36  2.7806E-02  1.3199E-03  2.6008E-03  4.3713E-03  0.0000E+00  0.0000E+00  1.8295E-03  1.1571E-02  3.2065E-03
 37  0.0000E+00  9.8449E-04  1.4823E-03  0.0000E+00  9.1328E-03  1.1296E-03  0.0000E+00  3.4602E-03  9.9580E-03
 38  0.0000E+00  3.6950E-03  0.0000E+00  1.4284E-02  3.7828E-03  6.5197E-02  3.1237E-02  1.3998E-02  4.2946E-02
 39  0.0000E+00  4.3428E-03  8.0019E-03  1.6800E-02  0.0000E+00  0.0000E+00  6.1444E-03  6.3913E-03  2.5771E-03
 40  0.0000E+00  7.7188E-03  4.2463E-03  3.7591E-02  1.8046E-02  0.0000E+00  1.3970E-02  0.0000E+00  2.6548E-04
 41  0.0000E+00  1.2160E-02  0.0000E+00  7.3504E-02  4.2029E-02  0.0000E+00  6.0420E-02  0.0000E+00  3.0509E-02
 42  0.0000E+00  2.0337E-02  6.1452E-02  0.0000E+00  3.4385E-02  0.0000E+00  1.8196E-02  0.0000E+00  0.0000E+00
 43  0.0000E+00  2.6674E-02  0.0000E+00  7.4589E-02  1.8726E-01  5.4739E-01  1.8712E-03  7.3967E-02  0.0000E+00
 44  1.0595E-01  5.5609E-02  0.0000E+00  2.4031E-01  0.0000E+00  6.4764E-02  0.0000E+00  6.6514E-02  1.1420E-01
 45  0.0000E+00  1.0366E-01  7.1791E-02  2.8993E-01  1.1529E-01  4.2879E-01  7.6270E-02  3.5574E-01  9.8625E-02
 46  0.0000E+00  2.1513E-01  5.7250E-01  3.4048E-01  1.9188E+00  3.8403E-01  1.0208E-01  7.9872E-02  1.3130E+00
 47  0.0000E+00  9.5164E+00  2.4340E+00  7.1874E+00  2.8775E+00  1.1891E+00  2.4938E+00  8.0434E+00  4.9234E+00
 48  1.1486E+01  1.1982E+01  9.6308E+00  2.2356E+00  1.1606E+01  6.6029E+00  0.0000E+00  8.5294E+00  2.7032E+00
 49  5.1120E+01  2.8410E+00  3.5897E+00  1.2749E+01  0.0000E+00  1.2011E+01  6.9971E+00  7.5908E+00  2.2825E+00
 50  5.8819E+00  4.5020E+00  2.3128E+00  2.3312E+01  1.2661E+01  1.1966E+01  4.3258E+00  1.9223E+00  2.3982E+00
 51  0.0000E+00  1.6280E-03  0.0000E+00  3.4457E-03  0.0000E+00  7.5213E-03  3.7690E-03  5.5048E-03  0.0000E+00
 52  0.0000E+00  6.9169E-04  3.7430E-03  5.3552E-03  4.4269E-03  7.7248E-03  4.3551E-04  9.4660E-03  0.0000E+00
 53  0.0000E+00  1.4409E-03  1.4675E-02  7.2272E-03  6.5403E-03  2.5684E-03  0.0000E+00  2.2835E-03  0.0000E+00
 54  0.0000E+00  2.1772E-03  1.2491E-03  1.8042E-03  9.1611E-03  1.5918E-03  2.7334E-03  1.3476E-02  0.0000E+00
 55  0.0000E+00  4.0011E-03  0.0000E+00  5.5775E-02  5.6451E-03  4.4639E-03  0.0000E+00  0.0000E+00  2.9214E-02
 56  0.0000E+00  8.5796E-03  8.0411E-02  3.1984E-02  0.0000E+00  4.1478E-02  3.7770E-02  6.8091E-03  3.4435E-02
 57  0.0000E+00  1.1956E-02  0.0000E+00  9.7434E-02  2.5680E-02  1.4268E-01  1.2915E-02  1.9269E-02  4.6901E-02
 58  0.0000E+00  2.0558E-02  0.0000E+00  8.5209E-03  0.0000E+00  1.3607E-02  0.0000E+00  1.7519E-02  0.0000E+00
 59  0.0000E+00  4.1484E-02  4.2579E-02  0.0000E+00  1.2290E-01  1.8858E-03  5.6102E-02  5.1256E-03  3.2288E-02
 60  0.0000E+00  1.1880E-01  0.0000E+00  0.0000E+00  7.6551E-01  0.0000E+00  0.0000E+00  5.6299E-01  1.4588E-01
 61  9.2637E+00  9.4437E+00  3.6479E+00  2.0448E+00  3.5395E+00  2.1898E+00  2.0660E-01  2.1684E+00  8.8267E-01
 62  0.0000E+00  1.7941E+00  1.5309E+00  1.7347E+00  2.1035E+00  0.0000E+00  0.0000E+00  1.4269E+00  1.5682E+00
 63  5.5045E+00  2.7445E+01  2.4090E+01  2.7149E+01  3.0666E+01  2.8067E+01  1.6581E+01  3.2578E+01  1.9830E+01
 64  2.0153E+00  5.3255E+00  0.0000E+00  0.0000E+00  4.1476E+00  0.0000E+00  2.1032E+00  6.2867E+00  2.1152E+00
 65  7.1186E+00  7.2126E+00  0.0000E+00  0.0000E+00  0.0000E+00  1.6238E+01  2.2220E+01  0.0000E+00  1.5287E+01
 66  0.0000E+00  8.5145E+00  1.9195E+01  5.6217E+00  1.5639E+01  9.9111E+00  3.3840E+01  1.1179E+01  3.2926E+01

# AV, chi2 & Mass for <> & i_chain = 1 ...  7 solutions
AV       3.1883      0.5320      0.8010      1.0974      0.8638      1.0919      0.8872      0.8839      1.0233
chi2 6.3722E-04  2.6524E-03  1.6491E-03  1.5012E-03  1.8858E-03  1.5687E-03  1.5131E-03  1.5606E-03  1.4715E-03
Mass 8.1954E-12  2.8512E-12  4.3863E-12  5.1240E-12  3.9286E-12  5.2938E-12  6.6767E-12  3.9769E-12  5.7039E-12
 323.68                                  [v0_min (km/s) before EX0s...]
 149.82                                  [vd_min (km/s) before EX0s...]


## Synthetic spectrum (Best Model) ##l_obs f_obs f_syn wei
 3478    [Nl_obs]
 3741.00    0.91679   0.81771    0.000
 3742.00    0.93595   0.83595    0.000
 3743.00    0.93728   0.85303    0.000
 3744.00    0.91576   0.86617    0.000
 3745.00    0.88095   0.87404    0.587
 3746.00    0.87256   0.87628    0.591
 3747.00    0.87760   0.87311    0.583
 3748.00    0.89085   0.86499    0.561
 3749.00    0.90770   0.85214    0.536
 3750.00    0.93374   0.83504    0.514
 3751.00    0.96325   0.81509    0.494
 3752.00    0.96765   0.79512    0.489
 3753.00    0.96400   0.77944    0.489
 3754.00    0.95986   0.77282    0.476
 3755.00    0.95558   0.77740    0.460
 3756.00    0.95112   0.79116    0.460
 3757.00    0.94661   0.80944    0.464
 3758.00    0.95278   0.82765    0.477
 3759.00    0.96081   0.84347    0.493
 3760.00    0.95349   0.85581    0.493
 3761.00    0.94414   0.86413    0.491
 3762.00    0.89726   0.86968    0.460
 3763.00    0.84684   0.87362    0.431
 3764.00    0.87067   0.87711    0.435
 3765.00    0.89878   0.88101    0.441
 3766.00    0.88463   0.88352    0.470
 3767.00    0.86936   0.88242    0.503
 3768.00    0.84163   0.87645    0.488
 3769.00    0.81296   0.86453    0.473
 3770.00    0.76128   0.84633    0.450
 3771.00    0.71242   0.82288    0.429
 3772.00    0.70032   0.79697    0.422
 3773.00    0.68707   0.77331    0.414
 3774.00    0.66375   0.75760    0.394
 3775.00    0.64572   0.75485    0.381
 3776.00    0.66202   0.76623    0.401
 3777.00    0.68184   0.78790    0.421
 3778.00    0.71945   0.81415    0.437
 3779.00    0.76120   0.84041    0.457
 3780.00    0.81985   0.86354    0.488
 3781.00    0.87421   0.88225    0.505
 3782.00    0.91401   0.89680    0.466
 3783.00    0.95318   0.90791    0.451
 3784.00    0.99056   0.91625    0.491
 3785.00    1.02699   0.92219    0.520
 3786.00    1.06109   0.92593    0.508
 3787.00    1.07434   0.92770    0.491
 3788.00    1.04363   0.92769    0.465
 3789.00    1.01697   0.92606    0.460
 3790.00    0.99775   0.92298    0.492
 3791.00    0.99092   0.91847    0.522
 3792.00    1.00390   0.91226    0.542
 3793.00    1.01789   0.90401    0.535
 3794.00    1.03327   0.89336    0.495
 3795.00    1.03639   0.87991    0.484
 3796.00    1.02434   0.86319    0.504
 3797.00    0.99917   0.84213    0.520
 3798.00    0.95970   0.81573    0.528
 3799.00    0.94584   0.78535    0.527
 3800.00    0.95659   0.75561    0.515
 3801.00    0.96559   0.73330    0.501
 3802.00    0.97312   0.72533    0.485
 3803.00    0.98792   0.73505    0.479
 3804.00    1.00815   0.75952    0.479
 3805.00    1.03595   0.79143    0.468
 3806.00    1.06872   0.82353    0.451
 3807.00    1.06389   0.85112    0.440
 3808.00    1.03750   0.87247    0.432
 3809.00    1.01212   0.88812    0.451
 3810.00    0.98725   0.89975    0.489
 3811.00    0.97105   0.90923    0.489
 3812.00    0.95858   0.91757    0.472
 3813.00    0.94389   0.92461    0.464
 3814.00    0.92837   0.92977    0.459
 3815.00    0.93009   0.93275    0.472
 3816.00    0.93724   0.93360    0.492
 3817.00    0.94170   0.93261    0.503
 3818.00    0.94545   0.93006    0.513
 3819.00    0.93015   0.92551    0.509
 3820.00    0.91076   0.91791    0.502
 3821.00    0.88446   0.90718    0.488
 3822.00    0.85700   0.89517    0.473
 3823.00    0.81307   0.88525    0.442
 3824.00    0.76704   0.88181    0.414
 3825.00    0.73877   0.88684    0.447
 3826.00    0.71210   0.89676    0.494
 3827.00    0.75801   0.90585    0.481
 3828.00    0.80781   0.91074    0.465
 3829.00    0.80542   0.91063    0.453
 3830.00    0.80220   0.90610    0.442
 3831.00    0.81663   0.89798    0.470
 3832.00    0.83323   0.88630    0.500
 3833.00    0.89810   0.87025    0.507
 3834.00    0.95888   0.84867    0.513
 3835.00    0.96883   0.82067    0.490
 3836.00    0.97753   0.78693    0.472
 3837.00    0.97581   0.75117    0.470
 3838.00    0.97175   0.72013    0.470
 3839.00    0.95300   0.70152    0.476
 3840.00    0.93733   0.70125    0.486
 3841.00    0.93687   0.71972    0.515
 3842.00    0.93387   0.75094    0.540
 3843.00    0.92072   0.78674    0.536
 3844.00    0.91302   0.82097    0.526
 3845.00    0.92343   0.85024    0.496
 3846.00    0.93204   0.87358    0.478
 3847.00    0.93556   0.89152    0.000
 3848.00    0.94748   0.90498    0.000
 3849.00    0.97957   0.91501    0.000
 3850.00    0.99631   0.92255    0.000
 3851.00    0.98123   0.92826    0.000
 3852.00    0.96311   0.93258    0.000
 3853.00    0.93948   0.93583    0.000
 3854.00    0.93473   0.93828    0.000
 3855.00    0.95975   0.94022    0.000
 3856.00    0.96780   0.94163    0.000
 3857.00    0.95235   0.94215    0.000
 3858.00    0.93900   0.94167    0.000
 3859.00    0.92820   0.94055    0.000
 3860.00    0.91857   0.93930    0.000
 3861.00    0.91017   0.93846    0.000
 3862.00    0.89237   0.93839    0.000
 3863.00    0.86566   0.93895    0.000
 3864.00    0.81736   0.93998    0.000
 3865.00    0.75102   0.94138    0.000
 3866.00    0.68068   0.94273    0.000
 3867.00    0.60740   0.94338    0.000
 3868.00    0.54510   0.94286    0.000
 3869.00    0.48988   0.94122    0.000
 3870.00    0.46401   0.93905    0.000
 3871.00    0.45473   0.93693    0.000
 3872.00    0.47659   0.93524    0.000
 3873.00    0.51376   0.93419    0.000
 3874.00    0.57037   0.93306    0.000
 3875.00    0.63524   0.93124    0.000
 3876.00    0.70017   0.92931    0.000
 3877.00    0.76512   0.92832    0.000
 3878.00    0.83015   0.92822    0.000
 3879.00    0.89521   0.92781    0.000
 3880.00    0.92455   0.92610    0.000
 3881.00    0.94473   0.92305    0.460
 3882.00    0.93522   0.91878    0.449
 3883.00    0.91950   0.91301    0.431
 3884.00    0.95678   0.90529    0.444
 3885.00    1.00281   0.89482    0.463
 3886.00    0.99533   0.88050    0.455
 3887.00    0.98123   0.86129    0.445
 3888.00    0.96729   0.83624    0.431
 3889.00    0.95337   0.80460    0.417
 3890.00    0.93763   0.76750    0.406
 3891.00    0.92181   0.73004    0.396
 3892.00    0.90661   0.70029    0.408
 3893.00    0.89181   0.68624    0.421
 3894.00    0.90208   0.69314    0.425
 3895.00    0.91194   0.71970    0.429
 3896.00    0.91337   0.75734    0.422
 3897.00    0.91076   0.79643    0.414
 3898.00    0.86019   0.83102    0.393
 3899.00    0.80918   0.85878    0.375
 3900.00    0.75452   0.87981    0.362
 3901.00    0.69743   0.89554    0.349
 3902.00    0.62547   0.90741    0.334
 3903.00    0.55621   0.91655    0.320
 3904.00    0.49997   0.92388    0.308
 3905.00    0.45822   0.93000    0.298
 3906.00    0.47320   0.93496    0.298
 3907.00    0.50036   0.93860    0.302
 3908.00    0.56728   0.94123    0.322
 3909.00    0.63995   0.94348    0.341
 3910.00    0.72849   0.94568    0.348
 3911.00    0.80908   0.94804    0.357
 3912.00    0.87093   0.95055    0.371
 3913.00    0.91994   0.95276    0.381
 3914.00    0.94273   0.95425    0.385
 3915.00    0.95679   0.95499    0.390
 3916.00    0.95531   0.95523    0.395
 3917.00    0.96095   0.95528    0.401
 3918.00    0.97766   0.95519    0.409
 3919.00    0.98800   0.95450    0.408
 3920.00    0.98965   0.95268    0.394
 3921.00    0.98256   0.94937    0.397
 3922.00    0.96497   0.94475    0.423
 3923.00    0.96905   0.93939    0.446
 3924.00    0.99607   0.93409    0.463
 3925.00    1.00941   0.92965    0.461
 3926.00    1.00997   0.92634    0.442
 3927.00    1.01501   0.92380    0.451
 3928.00    1.02373   0.92166    0.486
 3929.00    1.03035   0.92038    0.505
 3930.00    1.03545   0.92033    0.511
 3931.00    1.00032   0.92154    0.502
 3932.00    0.93959   0.92408    0.487
 3933.00    0.93376   0.92699    0.469
 3934.00    0.95847   0.92871    0.451
 3935.00    0.98025   0.92863    0.438
 3936.00    1.00061   0.92715    0.426
 3937.00    1.00948   0.92539    0.427
 3938.00    1.01355   0.92468    0.432
 3939.00    1.00225   0.92608    0.428
 3940.00    0.98546   0.92975    0.421
 3941.00    1.00778   0.93477    0.412
 3942.00    1.04193   0.93996    0.402
 3943.00    1.03102   0.94436    0.416
 3944.00    1.00880   0.94752    0.436
 3945.00    1.04497   0.94934    0.432
 3946.00    1.09305   0.94997    0.423
 3947.00    1.10352   0.94994    0.431
 3948.00    1.10796   0.94981    0.443
 3949.00    1.09545   0.94989    0.433
 3950.00    1.08091   0.95041    0.422
 3951.00    1.09694   0.95130    0.415
 3952.00    1.11546   0.95204    0.409
 3953.00    1.12958   0.95237    0.416
 3954.00    1.14349   0.95236    0.425
 3955.00    1.09787   0.95180    0.424
 3956.00    1.05208   0.95044    0.423
 3957.00    1.03746   0.94838    0.417
 3958.00    1.02347   0.94593    0.413
 3959.00    1.02169   0.94334    0.424
 3960.00    1.02190   0.94054    0.000
 3961.00    1.04453   0.93705    0.000
 3962.00    1.06384   0.93209    0.000
 3963.00    1.05706   0.92488    0.000
 3964.00    1.04459   0.91489    0.000
 3965.00    0.99829   0.90182    0.000
 3966.00    0.96279   0.88563    0.000
 3967.00    0.97804   0.86679    0.000
 3968.00    0.99695   0.84487    0.000
 3969.00    1.02993   0.81822    0.000
 3970.00    1.05623   0.78607    0.000
 3971.00    1.06118   0.74954    0.000
 3972.00    1.06756   0.71257    0.000
 3973.00    1.07781   0.68246    0.000
 3974.00    1.08676   0.66746    0.000
 3975.00    1.09266   0.67311    0.000
 3976.00    1.08791   0.69905    0.000
 3977.00    1.06174   0.73805    0.000
 3978.00    1.03843   0.78035    0.000
 3979.00    1.02010   0.81903    0.000
 3980.00    1.01515   0.85118    0.000
 3981.00    1.03071   0.87641    0.403
 3982.00    1.03731   0.89567    0.402
 3983.00    1.03184   0.91023    0.403
 3984.00    1.02677   0.92106    0.401
 3985.00    1.02215   0.92903    0.394
 3986.00    1.02536   0.93497    0.392
 3987.00    1.03674   0.93973    0.394
 3988.00    1.04467   0.94405    0.400
 3989.00    1.04943   0.94832    0.410
 3990.00    1.06454   0.95241    0.404
 3991.00    1.08804   0.95597    0.387
 3992.00    1.08871   0.95887    0.378
 3993.00    1.07306   0.96119    0.373
 3994.00    1.04504   0.96299    0.375
 3995.00    1.00926   0.96425    0.379
 3996.00    1.00824   0.96500    0.382
 3997.00    1.02626   0.96521    0.384
 3998.00    1.02694   0.96494    0.380
 3999.00    1.01936   0.96434    0.373
 4000.00    1.01999   0.96390    0.373
 4001.00    1.02401   0.96418    0.375
 4002.00    1.02217   0.96522    0.384
 4003.00    1.01827   0.96667    0.396
 4004.00    1.02358   0.96811    0.393
 4005.00    1.03162   0.96903    0.385
 4006.00    1.03481   0.96884    0.382
 4007.00    1.03681   0.96739    0.380
 4008.00    1.03716   0.96506    0.379
 4009.00    1.03720   0.96218    0.378
 4010.00    1.02996   0.95902    0.373
 4011.00    1.02159   0.95603    0.367
 4012.00    1.02012   0.95393    0.370
 4013.00    1.01945   0.95326    0.374
 4014.00    1.00206   0.95439    0.367
 4015.00    0.98338   0.95747    0.360
 4016.00    0.99504   0.96188    0.356
 4017.00    1.00798   0.96629    0.353
 4018.00    1.00692   0.96967    0.352
 4019.00    1.00601   0.97177    0.351
 4020.00    1.01687   0.97278    0.354
 4021.00    1.02859   0.97287    0.358
 4022.00    1.05539   0.97200    0.363
 4023.00    1.08090   0.96981    0.367
 4024.00    1.09246   0.96549    0.366
 4025.00    1.10018   0.95762    0.388
 4026.00    1.07866   0.94476    0.842
 4027.00    1.05350   0.92673   -1.000
 4028.00    1.00742   0.90624   -1.000
 4029.00    0.96490   0.88865   -1.000
 4030.00    0.93873   0.87935   -1.000
 4031.00    0.91058   0.88153   -1.000
 4032.00    0.87497   0.89480   -1.000
 4033.00    0.84137   0.91432   -1.000
 4034.00    0.81408   0.93304   -1.000
 4035.00    0.79413   0.94686   -1.000
 4036.00    0.79374   0.95592   -1.000
 4037.00    0.80211   0.96205    2.246
 4038.00    0.83049   0.96688    0.524
 4039.00    0.86241   0.97123    0.349
 4040.00    0.90135   0.97526    0.356
 4041.00    0.93637   0.97870    0.360
 4042.00    0.96467   0.98109    0.359
 4043.00    0.97792   0.98217    0.360
 4044.00    0.96850   0.98210    0.364
 4045.00    0.96854   0.98119    0.369
 4046.00    0.98111   0.97963    0.375
 4047.00    0.99491   0.97774    0.375
 4048.00    1.01015   0.97593    0.366
 4049.00    1.01414   0.97471    0.363
 4050.00    1.00655   0.97453    0.366
 4051.00    1.00000   0.97576    0.368
 4052.00    0.99439   0.97815    0.369
 4053.00    0.98479   0.98077    0.376
 4054.00    0.97199   0.98261    0.388
 4055.00    0.98829   0.98325    0.387
 4056.00    1.02510   0.98283    0.377
 4057.00    1.03290   0.98171    0.373
 4058.00    1.02278   0.98047    0.373
 4059.00    1.01975   0.97974    0.373
 4060.00    1.02055   0.97969    0.373
 4061.00    1.00166   0.98016    0.376
 4062.00    0.97356   0.98069    0.381
 4063.00    0.96787   0.98080    0.377
 4064.00    0.97125   0.98005    0.370
 4065.00    0.96286   0.97856    0.369
 4066.00    0.95042   0.97688    0.370
 4067.00    0.95208   0.97536    0.366
 4068.00    0.95784   0.97376    0.361
 4069.00    0.97434   0.97148    0.360
 4070.00    0.99343   0.96794    0.358
 4071.00    1.00812   0.96286    0.362
 4072.00    1.02196   0.95680    0.367
 4073.00    1.02302   0.95142    0.361
 4074.00    1.02216   0.94863    0.353
 4075.00    0.99619   0.94940    0.348
 4076.00    0.96743   0.95291    0.344
 4077.00    0.99745   0.95712    0.348
 4078.00    1.03177   0.96030    0.352
 4079.00    1.01549   0.96192    0.355
 4080.00    0.99728   0.96238    0.357
 4081.00    0.97599   0.96278    0.351
 4082.00    0.95615   0.96442    0.345
 4083.00    0.99126   0.96742    0.344
 4084.00    1.02293   0.97067    0.343
 4085.00    0.99783   0.97300    0.345
 4086.00    0.97460   0.97374    0.347
 4087.00    0.97056   0.97277    0.347
 4088.00    0.96772   0.97041    0.347
 4089.00    0.97361   0.96705    0.345
 4090.00    0.97611   0.96279    0.345
 4091.00    0.95966   0.95804    0.351
 4092.00    0.95377   0.95354    0.000
 4093.00    0.99518   0.94958    0.000
 4094.00    1.02627   0.94610    0.000
 4095.00    1.01942   0.94292    0.000
 4096.00    1.01157   0.93887    0.000
 4097.00    1.00061   0.93167    0.000
 4098.00    0.98773   0.91958    0.000
 4099.00    0.96984   0.90196    0.000
 4100.00    0.95375   0.87853    0.000
 4101.00    0.94170   0.84886    0.000
 4102.00    0.93688   0.81304    0.000
 4103.00    0.94613   0.77326    0.000
 4104.00    0.94162   0.73518    0.000
 4105.00    0.91375   0.70675    0.000
 4106.00    0.90576   0.69517    0.000
 4107.00    0.92732   0.70434    0.000
 4108.00    0.94443   0.73281    0.000
 4109.00    0.95572   0.77335    0.000
 4110.00    0.97364   0.81607    0.000
 4111.00    0.99921   0.85362    0.000
 4112.00    0.99848   0.88318    0.000
 4113.00    0.97105   0.90514    0.353
 4114.00    0.97167   0.92125    0.351
 4115.00    0.99741   0.93331    0.349
 4116.00    0.98575   0.94254    0.346
 4117.00    0.94458   0.94938    0.341
 4118.00    0.93431   0.95413    0.342
 4119.00    0.94549   0.95728    0.348
 4120.00    0.96583   0.95900    0.350
 4121.00    0.99174   0.95937    0.349
 4122.00    0.98906   0.95870    0.352
 4123.00    0.97121   0.95775    0.357
 4124.00    0.95282   0.95748    0.354
 4125.00    0.93418   0.95882    0.348
 4126.00    0.94367   0.96252    0.346
 4127.00    0.96433   0.96840    0.345
 4128.00    0.96640   0.97498    0.350
 4129.00    0.96218   0.98027    0.357
 4130.00    0.93393   0.98317    0.351
 4131.00    0.89885   0.98394    0.342
 4132.00    0.88570   0.98336    0.339
 4133.00    0.87770   0.98220    0.339
 4134.00    0.89774   0.98114    0.339
 4135.00    0.92307   0.98068    0.339
 4136.00    0.92915   0.98105    0.336
 4137.00    0.93241   0.98243    0.333
 4138.00    0.94125   0.98478    0.336
 4139.00    0.95068   0.98776    0.340
 4140.00    0.96336   0.99076    0.349
 4141.00    0.97626   0.99307    0.358
 4142.00    0.96283   0.99405    0.355
 4143.00    0.94850   0.99304    0.352
 4144.00    0.95199   0.98933    0.344
 4145.00    0.95462   0.98268    0.336
 4146.00    0.92750   0.97445    0.336
 4147.00    0.90198   0.96732    0.336
 4148.00    0.90119   0.96368    0.339
 4149.00    0.90419   0.96483    0.341
 4150.00    0.94468   0.97037    0.340
 4151.00    0.97895   0.97813    0.341
 4152.00    0.96912   0.98526    0.343
 4153.00    0.95715   0.98995    0.346
 4154.00    0.93354   0.99212    0.346
 4155.00    0.90837   0.99266    0.345
 4156.00    0.87637   0.99246    0.333
 4157.00    0.84857   0.99220    0.324
 4158.00    0.83586   0.99216    0.321
 4159.00    0.83726   0.99258    0.317
 4160.00    0.88124   0.99364    0.313
 4161.00    0.92126   0.99533    0.310
 4162.00    0.95112   0.99732    0.314
 4163.00    0.97251   0.99925    0.318
 4164.00    0.97522   1.00085    0.320
 4165.00    0.96916   1.00198    0.322
 4166.00    0.94630   1.00261    0.322
 4167.00    0.93040   1.00289    0.323
 4168.00    0.92614   1.00295    0.324
 4169.00    0.92284   1.00268    0.324
 4170.00    0.92094   1.00196    0.323
 4171.00    0.92103   1.00085    0.321
 4172.00    0.92369   0.99961    0.320
 4173.00    0.92078   0.99839    0.321
 4174.00    0.91154   0.99722    0.325
 4175.00    0.91351   0.99622    0.328
 4176.00    0.92669   0.99553    0.329
 4177.00    0.93702   0.99523    0.325
 4178.00    0.94484   0.99534    0.318
 4179.00    0.94579   0.99591    0.315
 4180.00    0.94142   0.99688    0.315
 4181.00    0.92887   0.99803    0.314
 4182.00    0.91073   0.99920    0.313
 4183.00    0.90645   1.00032    0.314
 4184.00    0.91047   1.00134    0.318
 4185.00    0.91895   1.00224    0.319
 4186.00    0.92976   1.00287    0.319
 4187.00    0.94574   1.00306    0.318
 4188.00    0.96405   1.00266    0.317
 4189.00    0.96058   1.00174    0.316
 4190.00    0.94861   1.00071    0.315
 4191.00    0.95158   0.99989    0.317
 4192.00    0.95951   0.99958    0.320
 4193.00    0.92622   1.00001    0.318
 4194.00    0.88145   1.00113    0.315
 4195.00    0.90245   1.00263    0.318
 4196.00    0.93855   1.00370    0.322
 4197.00    0.95531   1.00345    0.327
 4198.00    0.96852   1.00112    0.333
 4199.00    0.97495   0.99608    0.332
 4200.00    0.98043   0.98807    0.329
 4201.00    0.94909   0.97761    0.319
 4202.00    0.91399   0.96663    0.308
 4203.00    0.89639   0.95782    0.309
 4204.00    0.87992   0.95352    0.311
 4205.00    0.88118   0.95486    0.312
 4206.00    0.88298   0.96144    0.313
 4207.00    0.88748   0.97144    0.311
 4208.00    0.89219   0.98243    0.309
 4209.00    0.90285   0.99236    0.312
 4210.00    0.91376   1.00023    0.315
 4211.00    0.92834   1.00590    0.313
 4212.00    0.94130   1.00961    0.312
 4213.00    0.93900   1.01177    0.314
 4214.00    0.93529   1.01275    0.314
 4215.00    0.92190   1.01301    0.307
 4216.00    0.90846   1.01291    0.301
 4217.00    0.89470   1.01269    0.303
 4218.00    0.88222   1.01260    0.304
 4219.00    0.87521   1.01299    0.303
 4220.00    0.87075   1.01409    0.301
 4221.00    0.87526   1.01589    0.301
 4222.00    0.88164   1.01810    0.301
 4223.00    0.89353   1.02026    0.305
 4224.00    0.89666   1.02170    0.308
 4225.00    0.87766   1.02187    0.308
 4226.00    0.85668   1.02055    0.305
 4227.00    0.83137   1.01789    0.298
 4228.00    0.81714   1.01431    0.293
 4229.00    0.82377   1.01065    0.292
 4230.00    0.82715   1.00808    0.290
 4231.00    0.82518   1.00755    0.287
 4232.00    0.81348   1.00927    0.284
 4233.00    0.78773   1.01264    0.282
 4234.00    0.78176   1.01644    0.282
 4235.00    0.80091   1.01941    0.284
 4236.00    0.80650   1.02085    0.283
 4237.00    0.79694   1.02081    0.279
 4238.00    0.78384   1.01988    0.275
 4239.00    0.76725   1.01879    0.272
 4240.00    0.77672   1.01811    0.272
 4241.00    0.80887   1.01805    0.273
 4242.00    0.82378   1.01862    0.276
 4243.00    0.82548   1.01968    0.280
 4244.00    0.84876   1.02110    0.285
 4245.00    0.88659   1.02278    0.291
 4246.00    0.90669   1.02459    0.297
 4247.00    0.91633   1.02628    0.303
 4248.00    0.94708   1.02751    0.307
 4249.00    0.98871   1.02793    0.310
 4250.00    0.99363   1.02751    0.312
 4251.00    0.98216   1.02644    0.314
 4252.00    0.94914   1.02506    0.309
 4253.00    0.90784   1.02379    0.301
 4254.00    0.90230   1.02296    0.297
 4255.00    0.90840   1.02259    0.293
 4256.00    0.89217   1.02254    0.291
 4257.00    0.86984   1.02278    0.290
 4258.00    0.90444   1.02338    0.294
 4259.00    0.95179   1.02439    0.301
 4260.00    0.96130   1.02552    0.303
 4261.00    0.96404   1.02632    0.305
 4262.00    0.96031   1.02651    0.305
 4263.00    0.95569   1.02621    0.304
 4264.00    0.93475   1.02595    0.303
 4265.00    0.91221   1.02635    0.302
 4266.00    0.88053   1.02761    0.297
 4267.00    0.84829   1.02929    0.292
 4268.00    0.80445   1.03040    0.288
 4269.00    0.76036   1.03005    0.283
 4270.00    0.72846   1.02829    0.280
 4271.00    0.69901   1.02595    0.277
 4272.00    0.73448   1.02380    0.282
 4273.00    0.76873   1.02227    0.288
 4274.00    0.78617   1.02135    0.290
 4275.00    0.80535   1.02084    0.293
 4276.00    0.84033   1.02057    0.298
 4277.00    0.87407   1.02044    0.303
 4278.00    0.89951   1.02070    0.301
 4279.00    0.91917   1.02178    0.299
 4280.00    0.90889   1.02381    0.298
 4281.00    0.89851   1.02651    0.297
 4282.00    0.88769   1.02925   -2.000
 4283.00    0.88310   1.03145   -2.000
 4284.00    0.90007   1.03273   -2.000
 4285.00    0.91182   1.03299   -2.000
 4286.00    0.90840   1.03247   -2.000
 4287.00    0.91588   1.03160   -2.000
 4288.00    0.95034   1.03078   -2.000
 4289.00    0.96932   1.03024   -2.000
 4290.00    0.95516   1.02982   -2.000
 4291.00    0.95609   1.02920   -2.000
 4292.00    0.98501   1.02824   -2.000
 4293.00    0.99505   1.02724   -2.000
 4294.00    0.97446   1.02679   -2.000
 4295.00    0.96462   1.02723   -2.000
 4296.00    0.97005   1.02842   -2.000
 4297.00    0.97656   1.02985   -2.000
 4298.00    0.98444   1.03102    0.322
 4299.00    0.97619   1.03152    0.319
 4300.00    0.95015   1.03111    0.311
 4301.00    0.93023   1.02976    0.308
 4302.00    0.91626   1.02765    0.308
 4303.00    0.91418   1.02520    0.311
 4304.00    0.92231   1.02287    0.317
 4305.00    0.92970   1.02096    0.319
 4306.00    0.93653   1.01972    0.319
 4307.00    0.93795   1.01923    0.317
 4308.00    0.93579   1.01930    0.313
 4309.00    0.92656   1.01953    0.309
 4310.00    0.91322   1.01960    0.305
 4311.00    0.92216   1.01948    0.302
 4312.00    0.94239   1.01950    0.299
 4313.00    0.94046   1.02008    0.296
 4314.00    0.92881   1.02140    0.294
 4315.00    0.91548   1.02334    0.293
 4316.00    0.90153   1.02563    0.291
 4317.00    0.92467   1.02808    0.296
 4318.00    0.95967   1.03072    0.302
 4319.00    0.96301   1.03354    0.304
 4320.00    0.95789   1.03634    0.304
 4321.00    0.97880   1.03874    0.307
 4322.00    1.00541   1.04032    0.309
 4323.00    0.98779   1.04085    0.307
 4324.00    0.96249   1.04033    0.305
 4325.00    0.95967   1.03874    0.306
 4326.00    0.95982   1.03593    0.309
 4327.00    0.95077   1.03186    0.305
 4328.00    0.94086   1.02696    0.300
 4329.00    0.95926   1.02221    0.299
 4330.00    0.97928   1.01870    0.000
 4331.00    0.98558   1.01678    0.000
 4332.00    0.99148   1.01584    0.000
 4333.00    0.98720   1.01461    0.000
 4334.00    0.98348   1.01178    0.000
 4335.00    0.99323   1.00641    0.000
 4336.00    1.00171   0.99791    0.000
 4337.00    0.99373   0.98573    0.000
 4338.00    0.98739   0.96876    0.000
 4339.00    0.99529   0.94534    0.000
 4340.00    1.00157   0.91400    0.000
 4341.00    0.99744   0.87481    0.000
 4342.00    0.99246   0.83075    0.000
 4343.00    0.98325   0.78875    0.000
 4344.00    0.97854   0.75849    0.000
 4345.00    0.99222   0.74785    0.000
 4346.00    1.00382   0.75910    0.000
 4347.00    1.00843   0.78863    0.000
 4348.00    1.01641   0.82887    0.000
 4349.00    1.03405   0.87138    0.000
 4350.00    1.03963   0.90986    0.000
 4351.00    1.01581   0.94127    0.304
 4352.00    1.00468   0.96504    0.305
 4353.00    1.02022   0.98207    0.309
 4354.00    1.02900   0.99393    0.313
 4355.00    1.02541   1.00258    0.314
 4356.00    1.02356   1.00988    0.316
 4357.00    1.02449   1.01701    0.318
 4358.00    1.02832   1.02441    0.317
 4359.00    1.03621   1.03183    0.314
 4360.00    1.04277   1.03857    0.311
 4361.00    1.04769   1.04405    0.308
 4362.00    1.05001   1.04816    0.303
 4363.00    1.04951   1.05134    0.297
 4364.00    1.03660   1.05416    0.294
 4365.00    1.01180   1.05698    0.293
 4366.00    0.99992   1.05988    0.294
 4367.00    0.99896   1.06258    0.295
 4368.00    1.00180   1.06462    0.297
 4369.00    1.00746   1.06550    0.301
 4370.00    1.00709   1.06519    0.301
 4371.00    1.00277   1.06419    0.299
 4372.00    1.00395   1.06318    0.298
 4373.00    1.00827   1.06263    0.299
 4374.00    0.97960   1.06264    0.296
 4375.00    0.93447   1.06292    0.291
 4376.00    0.95083   1.06299    0.292
 4377.00    0.99372   1.06262    0.295
 4378.00    1.01568   1.06211    0.300
 4379.00    1.02989   1.06217    0.305
 4380.00    1.02035   1.06324    0.303
 4381.00    1.00336   1.06513    0.299
 4382.00    0.98684   1.06713    0.297
 4383.00    0.97045   1.06840    0.295
 4384.00    0.96491   1.06813    0.292
 4385.00    0.96170   1.06570    0.290
 4386.00    0.97754   1.06108    0.289
 4387.00    0.99660   1.05497    0.288
 4388.00    0.99280   1.04824    0.286
 4389.00    0.98608   1.04138    0.284
 4390.00    0.98378   1.03469    0.288
 4391.00    0.98187   1.02942    0.293
 4392.00    0.99994   1.02748    0.293
 4393.00    1.01907   1.02987    0.292
 4394.00    1.02466   1.03631    0.293
 4395.00    1.03012   1.04540    0.294
 4396.00    1.04655   1.05484    0.294
 4397.00    1.06205   1.06264    0.294
 4398.00    1.05675   1.06812    0.295
 4399.00    1.05128   1.07182    0.296
 4400.00    1.04368   1.07458    0.296
 4401.00    1.03602   1.07676    0.296
 4402.00    1.02773   1.07831    0.297
 4403.00    1.02279   1.07907    0.298
 4404.00    1.03876   1.07915    0.298
 4405.00    1.05287   1.07881    0.298
 4406.00    1.05783   1.07808    0.297
 4407.00    1.05970   1.07693    0.294
 4408.00    1.04930   1.07572    0.291
 4409.00    1.03610   1.07495    0.288
 4410.00    1.01363   1.07488    0.286
 4411.00    0.99713   1.07565    0.285
 4412.00    0.99735   1.07733    0.283
 4413.00    1.00287   1.07967    0.284
 4414.00    1.02109   1.08214    0.290
 4415.00    1.03670   1.08418    0.293
 4416.00    1.04692   1.08505    0.291
 4417.00    1.04800   1.08405    0.290
 4418.00    1.03261   1.08143    0.289
 4419.00    1.02864   1.07844    0.287
 4420.00    1.04266   1.07645    0.285
 4421.00    1.05338   1.07653    0.284
 4422.00    1.05955   1.07885    0.285
 4423.00    1.05672   1.08256    0.285
 4424.00    1.04296   1.08631    0.285
 4425.00    1.02984   1.08908    0.285
 4426.00    1.01741   1.09065    0.284
 4427.00    1.02116   1.09139    0.284
 4428.00    1.04022   1.09177    0.284
 4429.00    1.05337   1.09212    0.285
 4430.00    1.06158   1.09256    0.286
 4431.00    1.06418   1.09304    0.288
 4432.00    1.06267   1.09331    0.291
 4433.00    1.06240   1.09319    0.292
 4434.00    1.06295   1.09272    0.290
 4435.00    1.05732   1.09207    0.290
 4436.00    1.04821   1.09117    0.290
 4437.00    1.05551   1.09000    0.292
 4438.00    1.07086   1.08870    0.294
 4439.00    1.07969   1.08764    0.293
 4440.00    1.08576   1.08727    0.292
 4441.00    1.07762   1.08799    0.291
 4442.00    1.06432   1.08964    0.290
 4443.00    1.06324   1.09138    0.291
 4444.00    1.06592   1.09234    0.292
 4445.00    1.06650   1.09231    0.292
 4446.00    1.06653   1.09183    0.291
 4447.00    1.06406   1.09184    0.291
 4448.00    1.06107   1.09305    0.291
 4449.00    1.05618   1.09535    0.292
 4450.00    1.05098   1.09808    0.294
 4451.00    1.05042   1.10059    0.290
 4452.00    1.05044   1.10247    0.286
 4453.00    1.05520   1.10353    0.288
 4454.00    1.06037   1.10385    0.291
 4455.00    1.04351   1.10358    0.290
 4456.00    1.02556   1.10279    0.289
 4457.00    1.02178   1.10149    0.288
 4458.00    1.01831   1.09984    0.287
 4459.00    1.02014   1.09827    0.286
 4460.00    1.02220   1.09716    0.285
 4461.00    1.02892   1.09659    0.000
 4462.00    1.03422   1.09642    0.000
 4463.00    1.02295   1.09647    0.000
 4464.00    1.01148   1.09657    0.000
 4465.00    0.99846   1.09678    0.000
 4466.00    0.99292   1.09732    0.000
 4467.00    1.03295   1.09815    0.000
 4468.00    1.06597   1.09873    0.000
 4469.00    1.06531   1.09824    0.000
 4470.00    1.06412   1.09565    0.000
 4471.00    1.06086   1.08982    0.000
 4472.00    1.06608   1.07993    0.000
 4473.00    1.09892   1.06617    0.000
 4474.00    1.11809   1.05070    0.000
 4475.00    1.09967   1.03839    0.000
 4476.00    1.07093   1.03450    0.000
 4477.00    1.01784   1.04085    0.000
 4478.00    0.98719   1.05513    0.000
 4479.00    1.00222   1.07286    0.000
 4480.00    1.02144   1.08935    0.000
 4481.00    1.04811   1.10127    0.000
 4482.00    1.06518   1.10731    0.277
 4483.00    1.06737   1.10805    0.280
 4484.00    1.07052   1.10557    0.283
 4485.00    1.07500   1.10279    0.284
 4486.00    1.07420   1.10222    0.285
 4487.00    1.06708   1.10475    0.286
 4488.00    1.06449   1.10965    0.285
 4489.00    1.06670   1.11523    0.283
 4490.00    1.05863   1.11975    0.283
 4491.00    1.04097   1.12211    0.282
 4492.00    1.04191   1.12233    0.283
 4493.00    1.05814   1.12131    0.283
 4494.00    1.07041   1.12021    0.283
 4495.00    1.07980   1.11977    0.282
 4496.00    1.08519   1.12001    0.282
 4497.00    1.08804   1.12050    0.284
 4498.00    1.09144   1.12090    0.285
 4499.00    1.09516   1.12131    0.285
 4500.00    1.09285   1.12204    0.284
 4501.00    1.08762   1.12334    0.282
 4502.00    1.08162   1.12511    0.282
 4503.00    1.07531   1.12696    0.283
 4504.00    1.09148   1.12859    0.286
 4505.00    1.11568   1.13009    0.289
 4506.00    1.09995   1.13190    0.287
 4507.00    1.07217   1.13418    0.284
 4508.00    1.05335   1.13657    0.279
 4509.00    1.03678   1.13851    0.273
 4510.00    1.05701   1.13957    0.274
 4511.00    1.08472   1.13967    0.276
 4512.00    1.07579   1.13911    0.280
 4513.00    1.06102   1.13828    0.284
 4514.00    1.08107   1.13731    0.282
 4515.00    1.10527   1.13614    0.280
 4516.00    1.09452   1.13471    0.278
 4517.00    1.08093   1.13306    0.277
 4518.00    1.07725   1.13146    0.279
 4519.00    1.07402   1.13039    0.280
 4520.00    1.08560   1.13023    0.281
 4521.00    1.09720   1.13094    0.281
 4522.00    1.10077   1.13231    0.282
 4523.00    1.10306   1.13402    0.282
 4524.00    1.08120   1.13561    0.283
 4525.00    1.06189   1.13656    0.285
 4526.00    1.07111   1.13651    0.286
 4527.00    1.07775   1.13549    0.287
 4528.00    1.06421   1.13381    0.283
 4529.00    1.05581   1.13164    0.281
 4530.00    1.07783   1.12916    0.285
 4531.00    1.09719   1.12659    0.289
 4532.00    1.10408   1.12422    0.288
 4533.00    1.10857   1.12250    0.287
 4534.00    1.10390   1.12186    0.287
 4535.00    1.10129   1.12226    0.286
 4536.00    1.10521   1.12316    0.285
 4537.00    1.10922   1.12385    0.284
 4538.00    1.11345   1.12393    0.287
 4539.00    1.11201   1.12343    0.288
 4540.00    1.09742   1.12217    0.284
 4541.00    1.09048   1.11933    0.281
 4542.00    1.09884   1.11360    0.281
 4543.00    1.10358   1.10431    0.282
 4544.00    1.10198   1.09248    0.284
 4545.00    1.09754   1.08125    0.286
 4546.00    1.08876   1.07488    0.284
 4547.00    1.08884   1.07583    0.285
 4548.00    1.10081   1.08337    0.287
 4549.00    1.10725   1.09486    0.288
 4550.00    1.10715   1.10719    0.000
 4551.00    1.10567   1.11775    0.000
 4552.00    1.10276   1.12519    0.000
 4553.00    1.10499   1.12950    0.000
 4554.00    1.11195   1.13164    0.000
 4555.00    1.10853   1.13252    0.000
 4556.00    1.09669   1.13272    0.000
 4557.00    1.09080   1.13301    0.000
 4558.00    1.08917   1.13405    0.000
 4559.00    1.08967   1.13611    0.000
 4560.00    1.09151   1.13922    0.000
 4561.00    1.08557   1.14311    0.000
 4562.00    1.07538   1.14714    0.000
 4563.00    1.07282   1.15069    0.000
 4564.00    1.07389   1.15338    0.000
 4565.00    1.08342   1.15495    0.000
 4566.00    1.09642   1.15530    0.000
 4567.00    1.09412   1.15450    0.000
 4568.00    1.08646   1.15299    0.000
 4569.00    1.09308   1.15146    0.000
 4570.00    1.10393   1.15048    0.000
 4571.00    1.10953   1.15023    0.000
 4572.00    1.11385   1.15058    0.000
 4573.00    1.12503   1.15134    0.000
 4574.00    1.13757   1.15229    0.000
 4575.00    1.14131   1.15322    0.000
 4576.00    1.14370   1.15420    0.000
 4577.00    1.14399   1.15542    0.000
 4578.00    1.14405   1.15672    0.000
 4579.00    1.13224   1.15789    0.000
 4580.00    1.11951   1.15883    0.000
 4581.00    1.12155   1.15937    0.000
 4582.00    1.12420   1.15926    0.000
 4583.00    1.13723   1.15844    0.000
 4584.00    1.14985   1.15714    0.000
 4585.00    1.14052   1.15584    0.000
 4586.00    1.13126   1.15493    0.000
 4587.00    1.12321   1.15455    0.000
 4588.00    1.11713   1.15475    0.000
 4589.00    1.13218   1.15550    0.000
 4590.00    1.14273   1.15667    0.000
 4591.00    1.11932   1.15802    0.000
 4592.00    1.10103   1.15924    0.000
 4593.00    1.11215   1.15998    0.000
 4594.00    1.12082   1.15993    0.000
 4595.00    1.11830   1.15922    0.000
 4596.00    1.11627   1.15836    0.000
 4597.00    1.11604   1.15785    0.000
 4598.00    1.11801   1.15774    0.000
 4599.00    1.12682   1.15789    0.000
 4600.00    1.13407   1.15826    0.000
 4601.00    1.13714   1.15902    0.000
 4602.00    1.14227   1.16020    0.000
 4603.00    1.15206   1.16149    0.000
 4604.00    1.16046   1.16252    0.000
 4605.00    1.16614   1.16314    0.000
 4606.00    1.16570   1.16356    0.000
 4607.00    1.15476   1.16410    0.000
 4608.00    1.15053   1.16498    0.000
 4609.00    1.15641   1.16629    0.000
 4610.00    1.16002   1.16806    0.000
 4611.00    1.16061   1.17016    0.000
 4612.00    1.16110   1.17235    0.000
 4613.00    1.16146   1.17421    0.000
 4614.00    1.15873   1.17539    0.000
 4615.00    1.15283   1.17587    0.000
 4616.00    1.15506   1.17601    0.000
 4617.00    1.16466   1.17617    0.000
 4618.00    1.16986   1.17651    0.000
 4619.00    1.17154   1.17700    0.000
 4620.00    1.15668   1.17738    0.000
 4621.00    1.13018   1.17735    0.000
 4622.00    1.12499   1.17692    0.000
 4623.00    1.13293   1.17637    0.000
 4624.00    1.14105   1.17626    0.000
 4625.00    1.14925   1.17707    0.000
 4626.00    1.15441   1.17869    0.000
 4627.00    1.15814   1.18059    0.000
 4628.00    1.16742   1.18224    0.000
 4629.00    1.17894   1.18330    0.000
 4630.00    1.16946   1.18360    0.000
 4631.00    1.15275   1.18321    0.000
 4632.00    1.15147   1.18225    0.000
 4633.00    1.15465   1.18073    0.000
 4634.00    1.16364   1.17887    0.000
 4635.00    1.17403   1.17721    0.000
 4636.00    1.17411   1.17625    0.000
 4637.00    1.17220   1.17624    0.000
 4638.00    1.16386   1.17698    0.000
 4639.00    1.15456   1.17800    0.000
 4640.00    1.15983   1.17874    0.000
 4641.00    1.16669   1.17885    0.000
 4642.00    1.16682   1.17825    0.000
 4643.00    1.16646   1.17727    0.000
 4644.00    1.16495   1.17646    0.000
 4645.00    1.16340   1.17610    0.000
 4646.00    1.16772   1.17603    0.000
 4647.00    1.17235   1.17571    0.000
 4648.00    1.18739   1.17441    0.000
 4649.00    1.20172   1.17141    0.000
 4650.00    1.20450   1.16653    0.000
 4651.00    1.20509   1.16044    0.000
 4652.00    1.18333   1.15478    0.000
 4653.00    1.16373   1.15137    0.000
 4654.00    1.15997   1.15103    0.000
 4655.00    1.15763   1.15360    0.000
 4656.00    1.16321   1.15846    0.000
 4657.00    1.17033   1.16454    0.000
 4658.00    1.18429   1.17055    0.000
 4659.00    1.19268   1.17565    0.000
 4660.00    1.18072   1.17996    0.000
 4661.00    1.17468   1.18397    0.000
 4662.00    1.18681   1.18781    0.000
 4663.00    1.19319   1.19115    0.000
 4664.00    1.18458   1.19336    0.000
 4665.00    1.17574   1.19384    0.000
 4666.00    1.16641   1.19245    0.000
 4667.00    1.16620   1.18964    0.000
 4668.00    1.18368   1.18611    0.000
 4669.00    1.19159   1.18250    0.000
 4670.00    1.18328   1.17937    0.000
 4671.00    1.18934   1.17725    0.000
 4672.00    1.21673   1.17675    0.000
 4673.00    1.22647   1.17818    0.000
 4674.00    1.21321   1.18125    0.000
 4675.00    1.20104   1.18504    0.000
 4676.00    1.19013   1.18844    0.000
 4677.00    1.18368   1.19071    0.000
 4678.00    1.18173   1.19181    0.000
 4679.00    1.17331   1.19223    0.000
 4680.00    1.15910   1.19244    0.000
 4681.00    1.15719   1.19247    0.000
 4682.00    1.16495   1.19192    0.000
 4683.00    1.18017   1.19021    0.000
 4684.00    1.20053   1.18672    0.000
 4685.00    1.20520   1.18070    0.000
 4686.00    1.20033   1.17132    0.000
 4687.00    1.17646   1.15816    0.000
 4688.00    1.14252   1.14219    0.000
 4689.00    1.13635   1.12636    0.000
 4690.00    1.14295   1.11498    0.000
 4691.00    1.15853   1.11228    0.000
 4692.00    1.17766   1.12015    0.000
 4693.00    1.18653   1.13605    0.000
 4694.00    1.19193   1.15441    0.000
 4695.00    1.19683   1.17073    0.000
 4696.00    1.20159   1.18319    0.000
 4697.00    1.20092   1.19179    0.000
 4698.00    1.19899   1.19742    0.000
 4699.00    1.17457   1.20090    0.000
 4700.00    1.14593   1.20266    0.000
 4701.00    1.15558   1.20289    0.000
 4702.00    1.17079   1.20186    0.000
 4703.00    1.17878   1.20005    0.000
 4704.00    1.18601   1.19812    0.000
 4705.00    1.18025   1.19672    0.000
 4706.00    1.17360   1.19613    0.000
 4707.00    1.16700   1.19618    0.000
 4708.00    1.16040   1.19665    0.000
 4709.00    1.18230   1.19740    0.000
 4710.00    1.20311   1.19830    0.000
 4711.00    1.18731   1.19907    0.000
 4712.00    1.17229   1.19939    0.000
 4713.00    1.16930   1.19892    0.000
 4714.00    1.16692   1.19730    0.000
 4715.00    1.17062   1.19439    0.000
 4716.00    1.17534   1.19058    0.000
 4717.00    1.18728   1.18701    0.000
 4718.00    1.19937   1.18528    0.000
 4719.00    1.21226   1.18688    0.000
 4720.00    1.22111   1.19223    0.000
 4721.00    1.21234   1.20008    0.000
 4722.00    1.20233   1.20821    0.000
 4723.00    1.18788   1.21497    0.000
 4724.00    1.18082   1.21981    0.000
 4725.00    1.19606   1.22284    0.000
 4726.00    1.20631   1.22452    0.000
 4727.00    1.20379   1.22528    0.000
 4728.00    1.20157   1.22538    0.000
 4729.00    1.20000   1.22485    0.000
 4730.00    1.19749   1.22355    0.000
 4731.00    1.19315   1.22144    0.000
 4732.00    1.19511   1.21878    0.000
 4733.00    1.20756   1.21619    0.000
 4734.00    1.20864   1.21440    0.000
 4735.00    1.19311   1.21389    0.000
 4736.00    1.22599   1.21466    0.000
 4737.00    1.32114   1.21625    0.000
 4738.00    1.40005   1.21811    0.000
 4739.00    1.46057   1.21981    0.000
 4740.00    1.55255   1.22113    0.000
 4741.00    1.67594   1.22214    0.000
 4742.00    1.68943   1.22305    0.000
 4743.00    1.60610   1.22399    0.000
 4744.00    1.49987   1.22502    0.000
 4745.00    1.37586   1.22608    0.000
 4746.00    1.28946   1.22708    0.000
 4747.00    1.22872   1.22804    0.000
 4748.00    1.21180   1.22905    0.000
 4749.00    1.22108   1.23015    0.000
 4750.00    1.22333   1.23125    0.000
 4751.00    1.22191   1.23225    0.000
 4752.00    1.22149   1.23307    0.000
 4753.00    1.22153   1.23362    0.000
 4754.00    1.20607   1.23380    0.000
 4755.00    1.18458   1.23353    0.000
 4756.00    1.19659   1.23284    0.000
 4757.00    1.21969   1.23190    0.000
 4758.00    1.22235   1.23092    0.000
 4759.00    1.21932   1.23017    0.000
 4760.00    1.22972   1.22988    0.000
 4761.00    1.24320   1.23014    0.283
 4762.00    1.21848   1.23082    0.280
 4763.00    1.18677   1.23158    0.277
 4764.00    1.18680   1.23198    0.280
 4765.00    1.19130   1.23168    0.283
 4766.00    1.18848   1.23055    0.282
 4767.00    1.18492   1.22884    0.281
 4768.00    1.20633   1.22704    0.282
 4769.00    1.22935   1.22570    0.282
 4770.00    1.21170   1.22532    0.282
 4771.00    1.19284   1.22608    0.281
 4772.00    1.18364   1.22785    0.278
 4773.00    1.17561   1.23022    0.276
 4774.00    1.20166   1.23267    0.276
 4775.00    1.22385   1.23482    0.277
 4776.00    1.19018   1.23655    0.276
 4777.00    1.15751   1.23804    0.275
 4778.00    1.13420   1.23954    0.273
 4779.00    1.10669   1.24114    0.271
 4780.00    1.05043   1.24272    0.266
 4781.00    0.99316   1.24401    0.260
 4782.00    0.93052   1.24477    0.256
 4783.00    0.88318   1.24490    0.252
 4784.00    0.90102   1.24449    0.253
 4785.00    0.92768   1.24368    0.256
 4786.00    0.98534   1.24263    0.262
 4787.00    1.03899   1.24148    0.268
 4788.00    1.08077   1.24038    0.269
 4789.00    1.11645   1.23946    0.270
 4790.00    1.13677   1.23881    0.272
 4791.00    1.15687   1.23848    0.273
 4792.00    1.17647   1.23855    0.275
 4793.00    1.18014   1.23908    0.275
 4794.00    1.15383   1.24011    0.275
 4795.00    1.15347   1.24170    0.275
 4796.00    1.19576   1.24383    0.276
 4797.00    1.21605   1.24637    0.277
 4798.00    1.20462   1.24897    0.278
 4799.00    1.20385   1.25119    0.280
 4800.00    1.21657   1.25259    0.283
 4801.00    1.21229   1.25291    0.282
 4802.00    1.18900   1.25228    0.277
 4803.00    1.19942   1.25115    0.277
 4804.00    1.24305   1.25012    0.283
 4805.00    1.25041   1.24964    0.285
 4806.00    1.22627   1.24976    0.282
 4807.00    1.21310   1.25020    0.280
 4808.00    1.20832   1.25053    0.278
 4809.00    1.20298   1.25048    0.276
 4810.00    1.19725   1.25004    0.273
 4811.00    1.19064   1.24948    0.274
 4812.00    1.18350   1.24909    0.277
 4813.00    1.18404   1.24905    0.277
 4814.00    1.18852   1.24937    0.276
 4815.00    1.20708   1.24989    0.276
 4816.00    1.23190   1.25051    0.276
 4817.00    1.23809   1.25117    0.279
 4818.00    1.23715   1.25197    0.283
 4819.00    1.22182   1.25304    0.281
 4820.00    1.20182   1.25438    0.277
 4821.00    1.23274   1.25584    0.279
 4822.00    1.27753   1.25714    0.284
 4823.00    1.27763   1.25796    0.282
 4824.00    1.26774   1.25808    0.279
 4825.00    1.25531   1.25740    0.280
 4826.00    1.24243   1.25604    0.283
 4827.00    1.24101   1.25429    0.282
 4828.00    1.24116   1.25262    0.281
 4829.00    1.25350   1.25147    0.281
 4830.00    1.26703   1.25101    0.280
 4831.00    1.25633   1.25105    0.279
 4832.00    1.24418   1.25122    0.279
 4833.00    1.23224   1.25121    0.278
 4834.00    1.22040   1.25099    0.277
 4835.00    1.22387   1.25073    0.278
 4836.00    1.22717   1.25062    0.279
 4837.00    1.22598   1.25077    0.275
 4838.00    1.22348   1.25113    0.271
 4839.00    1.20317   1.25151    0.273
 4840.00    1.18509   1.25164    0.274
 4841.00    1.18722   1.25127    0.273
 4842.00    1.19000   1.25029    0.273
 4843.00    1.19711   1.24877    0.272
 4844.00    1.20559   1.24693    0.272
 4845.00    1.22112   1.24507    0.276
 4846.00    1.23763   1.24339    0.279
 4847.00    1.25814   1.24197    0.277
 4848.00    1.27071   1.24068    0.000
 4849.00    1.25592   1.23924    0.000
 4850.00    1.24506   1.23726    0.000
 4851.00    1.24560   1.23441    0.000
 4852.00    1.24769   1.23050    0.000
 4853.00    1.25364   1.22553    0.000
 4854.00    1.25426   1.21952    0.000
 4855.00    1.24352   1.21223    0.000
 4856.00    1.23060   1.20304    0.000
 4857.00    1.21362   1.19096    0.000
 4858.00    1.20402   1.17489    0.000
 4859.00    1.20636   1.15375    0.000
 4860.00    1.21271   1.12660    0.000
 4861.00    1.22476   1.09286    0.000
 4862.00    1.23414   1.05283    0.000
 4863.00    1.24021   1.00871    0.000
 4864.00    1.24399   0.96544    0.000
 4865.00    1.24523   0.93028    0.000
 4866.00    1.25348   0.91093    0.000
 4867.00    1.26852   0.91233    0.000
 4868.00    1.26520   0.93443    0.000
 4869.00    1.24617   0.97199    0.000
 4870.00    1.23299   1.01695    0.000
 4871.00    1.22423   1.06155    0.000
 4872.00    1.22429   1.10053    0.000
 4873.00    1.23019   1.13172    0.000
 4874.00    1.24113   1.15529    0.000
 4875.00    1.25498   1.17270    0.279
 4876.00    1.24547   1.18588    0.278
 4877.00    1.22414   1.19661    0.277
 4878.00    1.22505   1.20616    0.277
 4879.00    1.23570   1.21514    0.276
 4880.00    1.25299   1.22362    0.276
 4881.00    1.27276   1.23147    0.277
 4882.00    1.27294   1.23847    0.279
 4883.00    1.26686   1.24447    0.282
 4884.00    1.25307   1.24928    0.281
 4885.00    1.23722   1.25275    0.279
 4886.00    1.25053   1.25487    0.280
 4887.00    1.27020   1.25582    0.282
 4888.00    1.27141   1.25593    0.282
 4889.00    1.26942   1.25562    0.282
 4890.00    1.26644   1.25523    0.280
 4891.00    1.26332   1.25499    0.278
 4892.00    1.27869   1.25497    0.279
 4893.00    1.29577   1.25517    0.280
 4894.00    1.29656   1.25572    0.279
 4895.00    1.29642   1.25697    0.277
 4896.00    1.26830   1.25943    0.278
 4897.00    1.23991   1.26343    0.279
 4898.00    1.25132   1.26873    0.279
 4899.00    1.26192   1.27456    0.279
 4900.00    1.25356   1.27981    0.278
 4901.00    1.24524   1.28361    0.277
 4902.00    1.23753   1.28556    0.276
 4903.00    1.23111   1.28586    0.274
 4904.00    1.23587   1.28506    0.278
 4905.00    1.23961   1.28385    0.280
 4906.00    1.23683   1.28283    0.279
 4907.00    1.23760   1.28234    0.277
 4908.00    1.25619   1.28248    0.280
 4909.00    1.27515   1.28312    0.282
 4910.00    1.29563   1.28388    0.283
 4911.00    1.31063   1.28431    0.284
 4912.00    1.30714   1.28402    0.284
 4913.00    1.30368   1.28297    0.284
 4914.00    1.30029   1.28153    0.285
 4915.00    1.29358   1.28033    0.284
 4916.00    1.27877   1.27996    0.282
 4917.00    1.26750   1.28060    0.280
 4918.00    1.26366   1.28181    0.282
 4919.00    1.26249   1.28260    0.282
 4920.00    1.26619   1.28171    0.281
 4921.00    1.26676   1.27799    0.280
 4922.00    1.26233   1.27081    0.280
 4923.00    1.25372   1.26050    0.279
 4924.00    1.23925   1.24848    0.279
 4925.00    1.24061   1.23711    0.278
 4926.00    1.26146   1.22911    0.277
 4927.00    1.28015   1.22658    0.278
 4928.00    1.29649   1.23029    0.281
 4929.00    1.30378   1.23933    0.283
 4930.00    1.30238   1.25158    0.283
 4931.00    1.29428   1.26459    0.281
 4932.00    1.28051   1.27633    0.277
 4933.00    1.26439   1.28556    0.277
 4934.00    1.24652   1.29181    0.279
 4935.00    1.24706   1.29516    0.281
 4936.00    1.25963   1.29606    0.282
 4937.00    1.27101   1.29519    0.281
 4938.00    1.28173   1.29333    0.278
 4939.00    1.28506   1.29114    0.278
 4940.00    1.28473   1.28904    0.000
 4941.00    1.28418   1.28721    0.000
 4942.00    1.28354   1.28580    0.000
 4943.00    1.29885   1.28510    0.000
 4944.00    1.32005   1.28551    0.000
 4945.00    1.32113   1.28724    0.000
 4946.00    1.31592   1.29011    0.000
 4947.00    1.31439   1.29358    0.000
 4948.00    1.31383   1.29696    0.000
 4949.00    1.31083   1.29978    0.000
 4950.00    1.30731   1.30192    0.000
 4951.00    1.30000   1.30352    0.000
 4952.00    1.29207   1.30483    0.000
 4953.00    1.29615   1.30601    0.000
 4954.00    1.30177   1.30701    0.000
 4955.00    1.29680   1.30764    0.000
 4956.00    1.29088   1.30768    0.000
 4957.00    1.27493   1.30689    0.000
 4958.00    1.25846   1.30514    0.000
 4959.00    1.26668   1.30246    0.000
 4960.00    1.27527   1.29916    0.000
 4961.00    1.27617   1.29594    0.000
 4962.00    1.27739   1.29372    0.000
 4963.00    1.28566   1.29332    0.000
 4964.00    1.29385   1.29494    0.000
 4965.00    1.30091   1.29803    0.000
 4966.00    1.30620   1.30146    0.000
 4967.00    1.29668   1.30414    0.000
 4968.00    1.28716   1.30540    0.000
 4969.00    1.27764   1.30523    0.000
 4970.00    1.27063   1.30409    0.000
 4971.00    1.27594   1.30266    0.000
 4972.00    1.28328   1.30157    0.000
 4973.00    1.29873   1.30125    0.000
 4974.00    1.31411   1.30184    0.000
 4975.00    1.32930   1.30325    0.000
 4976.00    1.33761   1.30523    0.000
 4977.00    1.32669   1.30740    0.000
 4978.00    1.31252   1.30935    0.000
 4979.00    1.29060   1.31066    0.000
 4980.00    1.28122   1.31102    0.000
 4981.00    1.29774   1.31028    0.000
 4982.00    1.30325   1.30844    0.000
 4983.00    1.28899   1.30564    0.000
 4984.00    1.28649   1.30210    0.000
 4985.00    1.30247   1.29812    0.000
 4986.00    1.31343   1.29414    0.000
 4987.00    1.31746   1.29081    0.000
 4988.00    1.31950   1.28888    0.000
 4989.00    1.31911   1.28888    0.000
 4990.00    1.30886   1.29085    0.000
 4991.00    1.28805   1.29425    0.000
 4992.00    1.27682   1.29814    0.000
 4993.00    1.27465   1.30157    0.000
 4994.00    1.28373   1.30398    0.000
 4995.00    1.30220   1.30529    0.000
 4996.00    1.30223   1.30587    0.000
 4997.00    1.28876   1.30617    0.000
 4998.00    1.28046   1.30658    0.000
 4999.00    1.27549   1.30717    0.000
 5000.00    1.27604   1.30774    0.000
 5001.00    1.27969   1.30790    0.000
 5002.00    1.29668   1.30724    0.000
 5003.00    1.32021   1.30554    0.000
 5004.00    1.31521   1.30292    0.000
 5005.00    1.29811   1.29985    0.000
 5006.00    1.30378   1.29688    0.000
 5007.00    1.31770   1.29445    0.000
 5008.00    1.32543   1.29274    0.000
 5009.00    1.33127   1.29175    0.000
 5010.00    1.31164   1.29152    0.000
 5011.00    1.28551   1.29211    0.000
 5012.00    1.29924   1.29346    0.000
 5013.00    1.32125   1.29516    0.000
 5014.00    1.32492   1.29634    0.000
 5015.00    1.32558   1.29599    0.000
 5016.00    1.31812   1.29333    0.000
 5017.00    1.30968   1.28825    0.000
 5018.00    1.31715   1.28148    0.000
 5019.00    1.32596   1.27453    0.000
 5020.00    1.29948   1.26927    0.000
 5021.00    1.27127   1.26721    0.000
 5022.00    1.29421   1.26895    0.000
 5023.00    1.31758   1.27389    0.000
 5024.00    1.31790   1.28060    0.000
 5025.00    1.31847   1.28756    0.000
 5026.00    1.32385   1.29367    0.000
 5027.00    1.32962   1.29849    0.000
 5028.00    1.33992   1.30206    0.000
 5029.00    1.34702   1.30462    0.281
 5030.00    1.32822   1.30641    0.279
 5031.00    1.31311   1.30771    0.276
 5032.00    1.32034   1.30883    0.277
 5033.00    1.32569   1.31014    0.277
 5034.00    1.32208   1.31186    0.279
 5035.00    1.31928   1.31396    0.280
 5036.00    1.31960   1.31610    0.280
 5037.00    1.31927   1.31781    0.280
 5038.00    1.31682   1.31856    0.279
 5039.00    1.31164   1.31807    0.280
 5040.00    1.29893   1.31628    0.281
 5041.00    1.29649   1.31342    0.281
 5042.00    1.31819   1.30983    0.278
 5043.00    1.32336   1.30593    0.275
 5044.00    1.29492   1.30229    0.273
 5045.00    1.28407   1.29967    0.272
 5046.00    1.30433   1.29886    0.272
 5047.00    1.31707   1.30026    0.272
 5048.00    1.31820   1.30349    0.272
 5049.00    1.32000   1.30739    0.272
 5050.00    1.32270   1.31057    0.273
 5051.00    1.32220   1.31207    0.273
 5052.00    1.31786   1.31185    0.272
 5053.00    1.31760   1.31074    0.272
 5054.00    1.32165   1.30989    0.272
 5055.00    1.32420   1.31018    0.272
 5056.00    1.32535   1.31184    0.272
 5057.00    1.31578   1.31454    0.269
 5058.00    1.29742   1.31762    0.265
 5059.00    1.30596   1.32051    0.264
 5060.00    1.33391   1.32297    0.268
 5061.00    1.34830   1.32508    0.270
 5062.00    1.35408   1.32707    0.272
 5063.00    1.33591   1.32910    0.271
 5064.00    1.30446   1.33105    0.270
 5065.00    1.29569   1.33254    0.269
 5066.00    1.29786   1.33312    0.269
 5067.00    1.29523   1.33250    0.270
 5068.00    1.29060   1.33071    0.271
 5069.00    1.29220   1.32817    0.272
 5070.00    1.29601   1.32553    0.272
 5071.00    1.30989   1.32342    0.271
 5072.00    1.32679   1.32222    0.270
 5073.00    1.33343   1.32188    0.273
 5074.00    1.33751   1.32213    0.275
 5075.00    1.33563   1.32258    0.277
 5076.00    1.33254   1.32295    0.278
 5077.00    1.34380   1.32314    0.279
 5078.00    1.35734   1.32317    0.280
 5079.00    1.33008   1.32308    0.277
 5080.00    1.29799   1.32278    0.273
 5081.00    1.27174   1.32206    0.272
 5082.00    1.24597   1.32071    0.271
 5083.00    1.23015   1.31876    0.270
 5084.00    1.21477   1.31660    0.269
 5085.00    1.19648   1.31485    0.267
 5086.00    1.17850   1.31412    0.266
 5087.00    1.17745   1.31471    0.265
 5088.00    1.17751   1.31652    0.264
 5089.00    1.19820   1.31911    0.264
 5090.00    1.21729   1.32199    0.264
 5091.00    1.21858   1.32476    0.264
 5092.00    1.22476   1.32723    0.265
 5093.00    1.26915   1.32937    0.271
 5094.00    1.30914   1.33127    0.276
 5095.00    1.32318   1.33298    0.276
 5096.00    1.32733   1.33448    0.275
 5097.00    1.28533   1.33560    0.273
 5098.00    1.25028   1.33604    0.271
 5099.00    1.24170   1.33550    0.268
 5100.00    1.23517   1.33382    0.267
 5101.00    1.23515   1.33117    0.268
 5102.00    1.24137   1.32807    0.270
 5103.00    1.26443   1.32530    0.272
 5104.00    1.28291   1.32363    0.274
 5105.00    1.29078   1.32342    0.274
 5106.00    1.29680   1.32451    0.276
 5107.00    1.29912   1.32630    0.277
 5108.00    1.29663   1.32800    0.278
 5109.00    1.28575   1.32903    0.278
 5110.00    1.27581   1.32916    0.277
 5111.00    1.26731   1.32855    0.277
 5112.00    1.28180   1.32761    0.277
 5113.00    1.32710   1.32682    0.277
 5114.00    1.34975   1.32660    0.277
 5115.00    1.34569   1.32720    0.275
 5116.00    1.34099   1.32865    0.276
 5117.00    1.33564   1.33077    0.278
 5118.00    1.33016   1.33328    0.278
 5119.00    1.32456   1.33587    0.278
 5120.00    1.31947   1.33829    0.276
 5121.00    1.31478   1.34030    0.273
 5122.00    1.30852   1.34167    0.270
 5123.00    1.30114   1.34210    0.268
 5124.00    1.29724   1.34136    0.268
 5125.00    1.29550   1.33941    0.269
 5126.00    1.30119   1.33643    0.270
 5127.00    1.31095   1.33287    0.271
 5128.00    1.31162   1.32928    0.270
 5129.00    1.30798   1.32621    0.269
 5130.00    1.31350   1.32401    0.271
 5131.00    1.32278   1.32281    0.274
 5132.00    1.32418   1.32254    0.271
 5133.00    1.32282   1.32309    0.267
 5134.00    1.33437   1.32429    0.268
 5135.00    1.34971   1.32599    0.271
 5136.00    1.35184   1.32803    0.270
 5137.00    1.35075   1.33016    0.269
 5138.00    1.35445   1.33212    0.270
 5139.00    1.35909   1.33362    0.272
 5140.00    1.33493   1.33437    0.270
 5141.00    1.30632   1.33426    0.267
 5142.00    1.30177   1.33335    0.268
 5143.00    1.29996   1.33193    0.269
 5144.00    1.30012   1.33043    0.268
 5145.00    1.30044   1.32916    0.267
 5146.00    1.30475   1.32828    0.266
 5147.00    1.30922   1.32778    0.265
 5148.00    1.32742   1.32756    0.269
 5149.00    1.34498   1.32755    0.273
 5150.00    1.33116   1.32769    0.272
 5151.00    1.31902   1.32793    0.271
 5152.00    1.33615   1.32826    0.273
 5153.00    1.35241   1.32860    0.275
 5154.00    1.35950   1.32890    0.277
 5155.00    1.36565   1.32910    0.278
 5156.00    1.36477   1.32924    0.276
 5157.00    1.36406   1.32947    0.275
 5158.00    1.36431   1.33010    0.276
 5159.00    1.36634   1.33139    0.277
 5160.00    1.37648   1.33349    0.279
 5161.00    1.37923   1.33626    0.281
 5162.00    1.35449   1.33929    0.276
 5163.00    1.33709   1.34200    0.274
 5164.00    1.34265   1.34380    0.277
 5165.00    1.34523   1.34425    0.280
 5166.00    1.33991   1.34308    0.285
 5167.00    1.33705   1.34017    0.287
 5168.00    1.33977   1.33552    0.287
 5169.00    1.33936   1.32929    0.287
 5170.00    1.33278   1.32194    0.288
 5171.00    1.33517   1.31427    0.288
 5172.00    1.35295   1.30732    0.287
 5173.00    1.35756   1.30201    0.287
 5174.00    1.34237   1.29882    0.286
 5175.00    1.32730   1.29769    0.286
 5176.00    1.31240   1.29835    0.286
 5177.00    1.30144   1.30062    0.283
 5178.00    1.29506   1.30455    0.276
 5179.00    1.28767   1.31016    0.273
 5180.00    1.27923   1.31699    0.273
 5181.00    1.27080   1.32407    0.273
 5182.00    1.26238   1.33007    0.272
 5183.00    1.25238   1.33382    0.271
 5184.00    1.24113   1.33460    0.269
 5185.00    1.25658   1.33238    0.268
 5186.00    1.29077   1.32786    0.268
 5187.00    1.31116   1.32236    0.270
 5188.00    1.32306   1.31763    0.273
 5189.00    1.32822   1.31529    0.274
 5190.00    1.32975   1.31617    0.000
 5191.00    1.33452   1.32000    0.000
 5192.00    1.34080   1.32547    0.000
 5193.00    1.34414   1.33089    0.000
 5194.00    1.34628   1.33487    0.000
 5195.00    1.33887   1.33679    0.000
 5196.00    1.32819   1.33688    0.000
 5197.00    1.32969   1.33594    0.000
 5198.00    1.33471   1.33494    0.000
 5199.00    1.34688   1.33466    0.000
 5200.00    1.36074   1.33543    0.000
 5201.00    1.36416   1.33717    0.000
 5202.00    1.36556   1.33952    0.000
 5203.00    1.35484   1.34197    0.000
 5204.00    1.34231   1.34400    0.000
 5205.00    1.35537   1.34513    0.000
 5206.00    1.37123   1.34500    0.000
 5207.00    1.36678   1.34343    0.000
 5208.00    1.36087   1.34054    0.000
 5209.00    1.36047   1.33681    0.000
 5210.00    1.36028   1.33295    0.000
 5211.00    1.35181   1.32979    0.273
 5212.00    1.34358   1.32807    0.272
 5213.00    1.34545   1.32818    0.270
 5214.00    1.34843   1.33016    0.267
 5215.00    1.36926   1.33364    0.269
 5216.00    1.38706   1.33797    0.271
 5217.00    1.37385   1.34233    0.271
 5218.00    1.36267   1.34600    0.272
 5219.00    1.36616   1.34857    0.272
 5220.00    1.37109   1.35014    0.272
 5221.00    1.38399   1.35120    0.274
 5222.00    1.39609   1.35238    0.277
 5223.00    1.40460   1.35404    0.278
 5224.00    1.41012   1.35607    0.280
 5225.00    1.40472   1.35787    0.281
 5226.00    1.39730   1.35862    0.282
 5227.00    1.38372   1.35764    0.279
 5228.00    1.37763   1.35470    0.277
 5229.00    1.39103   1.35022    0.278
 5230.00    1.39388   1.34519    0.279
 5231.00    1.37313   1.34094    0.279
 5232.00    1.36291   1.33865    0.278
 5233.00    1.37307   1.33885    0.276
 5234.00    1.38161   1.34121    0.275
 5235.00    1.38741   1.34466    0.275
 5236.00    1.38556   1.34800    0.275
 5237.00    1.37240   1.35043    0.274
 5238.00    1.35855   1.35192    0.271
 5239.00    1.34383   1.35304    0.268
 5240.00    1.34430   1.35448    0.267
 5241.00    1.36219   1.35666    0.269
 5242.00    1.36334   1.35952    0.269
 5243.00    1.34756   1.36260    0.266
 5244.00    1.34045   1.36540    0.267
 5245.00    1.34108   1.36757    0.269
 5246.00    1.34823   1.36904    0.269
 5247.00    1.36049   1.36985    0.267
 5248.00    1.36468   1.37008    0.267
 5249.00    1.36330   1.36969    0.270
 5250.00    1.36131   1.36861    0.271
 5251.00    1.35896   1.36680    0.270
 5252.00    1.35155   1.36442    0.270
 5253.00    1.34145   1.36185    0.269
 5254.00    1.34373   1.35954    0.269
 5255.00    1.35168   1.35790    0.268
 5256.00    1.36526   1.35714    0.268
 5257.00    1.38106   1.35726    0.268
 5258.00    1.38204   1.35816    0.268
 5259.00    1.37802   1.35972    0.267
 5260.00    1.38156   1.36184    0.269
 5261.00    1.38723   1.36432    0.271
 5262.00    1.37790   1.36672    0.275
 5263.00    1.36505   1.36834    0.279
 5264.00    1.36116   1.36837    0.281
 5265.00    1.35894   1.36622    0.281
 5266.00    1.35932   1.36176    0.282
 5267.00    1.36008   1.35551    0.283
 5268.00    1.37180   1.34843    0.281
 5269.00    1.38466   1.34164    0.278
 5270.00    1.39039   1.33604    0.281
 5271.00    1.39563   1.33208    0.284
 5272.00    1.38767   1.32976    0.281
 5273.00    1.37926   1.32885    0.279
 5274.00    1.38765   1.32913    0.279
 5275.00    1.39605   1.33054    0.279
 5276.00    1.40410   1.33313    0.276
 5277.00    1.41086   1.33683    0.273
 5278.00    1.39788   1.34133    0.271
 5279.00    1.38598   1.34625    0.270
 5280.00    1.38473   1.35122    0.273
 5281.00    1.38253   1.35603    0.276
 5282.00    1.37361   1.36046    0.273
 5283.00    1.36476   1.36416    0.270
 5284.00    1.35627   1.36669    0.269
 5285.00    1.35619   1.36783    0.269
 5286.00    1.39262   1.36776    0.268
 5287.00    1.41931   1.36717    0.268
 5288.00    1.41116   1.36699    0.269
 5289.00    1.40595   1.36803    0.269
 5290.00    1.40956   1.37058    0.269
 5291.00    1.40441   1.37436    0.269
 5292.00    1.37687   1.37867    0.270
 5293.00    1.36713   1.38267    0.271
 5294.00    1.39652   1.38575    0.273
 5295.00    1.41630   1.38760    0.274
 5296.00    1.41772   1.38818    0.275
 5297.00    1.42008   1.38752    0.275
 5298.00    1.42402   1.38569    0.276
 5299.00    1.42151   1.38277    0.274
 5300.00    1.40959   1.37900    0.269
 5301.00    1.40488   1.37482    0.267
 5302.00    1.40944   1.37086    0.270
 5303.00    1.40793   1.36789    0.270
 5304.00    1.39958   1.36651    0.268
 5305.00    1.40224   1.36696    0.266
 5306.00    1.41588   1.36906    0.265
 5307.00    1.41345   1.37233    0.263
 5308.00    1.39690   1.37616    0.259
 5309.00    1.39298   1.38001    0.259
 5310.00    1.39885   1.38344    0.263
 5311.00    1.39365   1.38618    0.263
 5312.00    1.38091   1.38819    0.262
 5313.00    1.37641   1.38959    0.261
 5314.00    1.37683   1.39051    0.259
 5315.00    1.37812   1.39101    0.258
 5316.00    1.37985   1.39106    0.257
 5317.00    1.38154   1.39055    0.256
 5318.00    1.38320   1.38944    0.255
 5319.00    1.37815   1.38780    0.254
 5320.00    1.37049   1.38589    0.254
 5321.00    1.36674   1.38406    0.254
 5322.00    1.36430   1.38259    0.254
 5323.00    1.35937   1.38162    0.256
 5324.00    1.35375   1.38105    0.259
 5325.00    1.35682   1.38054    0.256
 5326.00    1.36188   1.37969    0.253
 5327.00    1.37505   1.37814    0.258
 5328.00    1.38970   1.37567    0.265
 5329.00    1.39073   1.37224    0.264
 5330.00    1.38985   1.36807    0.262
 5331.00    1.39895   1.36366    0.260
 5332.00    1.40906   1.35968    0.259
 5333.00    1.40261   1.35700    0.260
 5334.00    1.39510   1.35640    0.262
 5335.00    1.38550   1.35826    0.260
 5336.00    1.37587   1.36226    0.259
 5337.00    1.38061   1.36754    0.261
 5338.00    1.38519   1.37303    0.264
 5339.00    1.38524   1.37774    0.262
 5340.00    1.38634   1.38101    0.260
 5341.00    1.40254   1.38258    0.258
 5342.00    1.41712   1.38264    0.257
 5343.00    1.41637   1.38156    0.258
 5344.00    1.41237   1.37986    0.260
 5345.00    1.38610   1.37814    0.260
 5346.00    1.36559   1.37702    0.261
 5347.00    1.37555   1.37683    0.261
 5348.00    1.38263   1.37750    0.261
 5349.00    1.37750   1.37860    0.261
 5350.00    1.37584   1.37966    0.261
 5351.00    1.38635   1.38041    0.262
 5352.00    1.39691   1.38083    0.261
 5353.00    1.40761   1.38127    0.260
 5354.00    1.41694   1.38220    0.259
 5355.00    1.42280   1.38394    0.260
 5356.00    1.42486   1.38656    0.259
 5357.00    1.41867   1.38985    0.258
 5358.00    1.41217   1.39347    0.256
 5359.00    1.40510   1.39710    0.255
 5360.00    1.40392   1.40037    0.256
 5361.00    1.41242   1.40294    0.259
 5362.00    1.41197   1.40462    0.260
 5363.00    1.39865   1.40532    0.257
 5364.00    1.39078   1.40493    0.255
 5365.00    1.38980   1.40347    0.254
 5366.00    1.38535   1.40113    0.255
 5367.00    1.37703   1.39821    0.257
 5368.00    1.38333   1.39502   -2.000
 5369.00    1.40400   1.39187   -2.000
 5370.00    1.41712   1.38889   -2.000
 5371.00    1.42370   1.38612   -2.000
 5372.00    1.42685   1.38343   -2.000
 5373.00    1.42737   1.38074   -2.000
 5374.00    1.43139   1.37820   -2.000
 5375.00    1.43774   1.37629   -2.000
 5376.00    1.44095   1.37560   -2.000
 5377.00    1.44230   1.37663   -2.000
 5378.00    1.42675   1.37949   -2.000
 5379.00    1.40252   1.38373   -2.000
 5380.00    1.40466   1.38846   -2.000
 5381.00    1.41854   1.39267   -2.000
 5382.00    1.43271   1.39556   -2.000
 5383.00    1.44699   1.39692    0.254
 5384.00    1.43272   1.39707    0.253
 5385.00    1.40920   1.39645    0.252
 5386.00    1.40621   1.39554    0.251
 5387.00    1.40880   1.39469    0.249
 5388.00    1.39948   1.39413    0.250
 5389.00    1.38750   1.39396    0.251
 5390.00    1.39347   1.39410    0.253
 5391.00    1.40262   1.39423    0.255
 5392.00    1.41585   1.39400    0.255
 5393.00    1.42964   1.39315    0.256
 5394.00    1.42718   1.39156    0.257
 5395.00    1.42316   1.38943    0.259
 5396.00    1.41363   1.38708    0.258
 5397.00    1.40377   1.38476    0.256
 5398.00    1.40398   1.38260    0.256
 5399.00    1.40445   1.38065    0.256
 5400.00    1.40613   1.37889    0.255
 5401.00    1.40732   1.37738    0.253
 5402.00    1.39595   1.37630    0.256
 5403.00    1.38559   1.37580    0.259
 5404.00    1.38895   1.37580    0.257
 5405.00    1.39294   1.37600    0.255
 5406.00    1.40265   1.37587    0.257
 5407.00    1.41044   1.37455    0.258
 5408.00    1.40554   1.37137    0.257
 5409.00    1.39972   1.36630    0.256
 5410.00    1.38911   1.35953    0.255
 5411.00    1.38063   1.35115    0.254
 5412.00    1.38097   1.34136    0.254
 5413.00    1.38418   1.33057    0.253
 5414.00    1.39725   1.31952    0.250
 5415.00    1.40938   1.30950    0.249
 5416.00    1.41876   1.30239    0.250
 5417.00    1.42448   1.30031    0.249
 5418.00    1.42116   1.30474    0.246
 5419.00    1.41816   1.31561    0.243
 5420.00    1.41584   1.33089    0.243
 5421.00    1.41906   1.34731    0.242
 5422.00    1.43253   1.36199    0.243
 5423.00    1.43701   1.37349    0.243
 5424.00    1.42694   1.38156    0.242
 5425.00    1.41836   1.38651    0.242
 5426.00    1.41190   1.38907    0.242
 5427.00    1.41437   1.39017    0.242
 5428.00    1.42797   1.39059    0.243
 5429.00    1.43430   1.39082    0.243
 5430.00    1.43262   1.39098    0.243
 5431.00    1.43209   1.39095    0.244
 5432.00    1.43265   1.39068    0.247
 5433.00    1.43528   1.39001    0.247
 5434.00    1.43967   1.38868    0.245
 5435.00    1.43220   1.38671    0.244
 5436.00    1.41579   1.38457    0.244
 5437.00    1.41091   1.38297    0.245
 5438.00    1.41366   1.38234    0.247
 5439.00    1.40963   1.38259    0.245
 5440.00    1.40168   1.38371    0.242
 5441.00    1.40302   1.38601    0.241
 5442.00    1.40906   1.38964    0.241
 5443.00    1.41720   1.39422    0.242
 5444.00    1.42627   1.39900    0.244
 5445.00    1.42477   1.40314    0.246
 5446.00    1.41930   1.40583    0.247
 5447.00    1.43040   1.40661    0.247
 5448.00    1.44676   1.40544    0.247
 5449.00    1.44531   1.40271    0.247
 5450.00    1.43913   1.39909    0.246
 5451.00    1.43715   1.39545    0.248
 5452.00    1.43607   1.39272    0.250
 5453.00    1.42804   1.39156    0.250
 5454.00    1.41880   1.39214    0.249
 5455.00    1.43580   1.39384    0.250
 5456.00    1.45624   1.39538    0.250
 5457.00    1.44286   1.39576    0.248
 5458.00    1.42635   1.39482    0.246
 5459.00    1.42128   1.39309    0.245
 5460.00    1.41686   1.39144    0.244
 5461.00    1.42973   1.39067    0.243
 5462.00    1.44286   1.39122    0.242
 5463.00    1.44199   1.39308    0.242
 5464.00    1.44114   1.39550    0.242
 5465.00    1.44085   1.39735    0.243
 5466.00    1.44048   1.39796    0.244
 5467.00    1.43912   1.39747    0.243
 5468.00    1.43794   1.39651    0.242
 5469.00    1.43823   1.39572    0.243
 5470.00    1.43812   1.39559    0.244
 5471.00    1.43552   1.39628    0.243
 5472.00    1.43414   1.39737    0.242
 5473.00    1.43885   1.39824    0.244
 5474.00    1.44472   1.39869    0.245
 5475.00    1.45536   1.39855    0.244
 5476.00    1.45915   1.39757    0.244
 5477.00    1.43994   1.39578    0.243
 5478.00    1.42340   1.39344   -2.000
 5479.00    1.41450   1.39076   -2.000
 5480.00    1.41358   1.38800   -2.000
 5481.00    1.43206   1.38572   -2.000
 5482.00    1.44597   1.38423   -2.000
 5483.00    1.45030   1.38367   -2.000
 5484.00    1.44079   1.38436   -2.000
 5485.00    1.40608   1.38622   -2.000
 5486.00    1.37782   1.38843   -2.000
 5487.00    1.35983   1.39050   -2.000
 5488.00    1.36766   1.39255   -2.000
 5489.00    1.41157   1.39478   -2.000
 5490.00    1.43879   1.39689   -2.000
 5491.00    1.44549   1.39843   -2.000
 5492.00    1.44418   1.39919   -2.000
 5493.00    1.43418   1.39923   -2.000
 5494.00    1.42660   1.39902   -2.000
 5495.00    1.42135   1.39908   -2.000
 5496.00    1.41553   1.39944   -2.000
 5497.00    1.40922   1.39987   -2.000
 5498.00    1.41253   1.40022   -2.000
 5499.00    1.42295   1.40038   -2.000
 5500.00    1.42249   1.40039   -2.000
 5501.00    1.41492   1.40044   -2.000
 5502.00    1.41586   1.40054    0.240
 5503.00    1.42165   1.40054    0.242
 5504.00    1.42225   1.40048    0.242
 5505.00    1.42026   1.40038    0.241
 5506.00    1.42046   1.39991    0.241
 5507.00    1.42160   1.39882    0.241
 5508.00    1.40838   1.39742    0.240
 5509.00    1.38988   1.39617    0.238
 5510.00    1.38511   1.39522    0.237
 5511.00    1.38462   1.39448    0.237
 5512.00    1.39167   1.39389    0.236
 5513.00    1.40069   1.39357    0.234
 5514.00    1.41026   1.39361    0.235
 5515.00    1.41995   1.39371    0.237
 5516.00    1.43621   1.39357    0.237
 5517.00    1.45358   1.39330    0.237
 5518.00    1.46414   1.39320    0.237
 5519.00    1.47384   1.39370    0.236
 5520.00    1.47364   1.39511    0.237
 5521.00    1.47255   1.39736    0.237
 5522.00    1.45281   1.40013    0.235
 5523.00    1.43209   1.40304    0.232
 5524.00    1.42676   1.40569    0.232
 5525.00    1.42169   1.40770    0.232
 5526.00    1.41467   1.40874    0.233
 5527.00    1.40812   1.40881    0.234
 5528.00    1.41178   1.40801    0.234
 5529.00    1.41570   1.40644    0.235
 5530.00    1.42273   1.40425    0.236
 5531.00    1.42943   1.40168    0.236
 5532.00    1.43330   1.39918    0.234
 5533.00    1.43686   1.39724    0.233
 5534.00    1.43851   1.39630    0.234
 5535.00    1.43980   1.39666    0.235
 5536.00    1.43930   1.39802    0.236
 5537.00    1.43673   1.39959    0.237
 5538.00    1.42593   1.40080    0.238
 5539.00    1.41753   1.40156    0.239
 5540.00    1.41706   1.40205    0.239
 5541.00    1.41815   1.40258    0.277
 5542.00    1.42358   1.40350    0.670
 5543.00    1.42971   1.40482   -1.000
 5544.00    1.43752   1.40628   -1.000
 5545.00    1.44395   1.40768   -1.000
 5546.00    1.44755   1.40879   -1.000
 5547.00    1.44748   1.40936    1.345
 5548.00    1.44083   1.40931    0.355
 5549.00    1.44200   1.40896    0.243
 5550.00    1.45545   1.40881    0.240
 5551.00    1.46161   1.40917    0.238
 5552.00    1.45776   1.41003    0.237
 5553.00    1.45427   1.41135    0.236
 5554.00    1.45124   1.41288    0.236
 5555.00    1.45116   1.41413    0.235
 5556.00    1.45423   1.41476    0.233
 5557.00    1.45075   1.41471    0.232
 5558.00    1.44110   1.41403    0.232
 5559.00    1.43270   1.41296    0.231
 5560.00    1.42534   1.41186    0.230
 5561.00    1.42265   1.41106    0.230
 5562.00    1.42338   1.41060    0.231
 5563.00    1.42549   1.41024    0.230
 5564.00    1.42849   1.40984    0.228
 5565.00    1.42604   1.40935    0.227
 5566.00    1.42054   1.40857    0.228
 5567.00    1.42471   1.40747    0.229
 5568.00    1.43362   1.40611    0.232
 5569.00    1.43764   1.40472    0.231
 5570.00    1.43959   1.40354    0.228
 5571.00    1.43521   1.40255    0.228
 5572.00    1.42855   1.40181    0.229
 5573.00    1.43111   1.40143    0.231
 5574.00    1.43649   1.40134    0.232
 5575.00    1.44418   1.40143    0.234
 5576.00    1.45246   1.40181    0.237
 5577.00    1.45424   1.40240    0.236
 5578.00    1.45467   1.40294    0.234
 5579.00    1.45496   1.40372    0.235
 5580.00    1.45522   1.40499    0.237
 5581.00    1.45683   1.40636    0.236
 5582.00    1.45859   1.40757    0.236
 5583.00    1.45249   1.40864    0.236
 5584.00    1.44574   1.40943    0.237
 5585.00    1.45161   1.40981    0.240
 5586.00    1.45809   1.40969    0.243
 5587.00    1.45211   1.40885    0.242
 5588.00    1.44583   1.40717    0.240
 5589.00    1.43301   1.40471    0.240
 5590.00    1.42078   1.40135    0.239
 5591.00    1.42016   1.39715    0.240
 5592.00    1.42098   1.39251    0.240
 5593.00    1.43844   1.38812    0.240
 5594.00    1.45300   1.38463    0.241
 5595.00    1.44426   1.38231    0.239
 5596.00    1.43711   1.38110    0.238
 5597.00    1.43958   1.38090    0.240
 5598.00    1.44192   1.38211    0.242
 5599.00    1.44364   1.38493    0.239
 5600.00    1.44600   1.38889    0.237
 5601.00    1.45082   1.39300    0.237
 5602.00    1.45573   1.39638    0.236
 5603.00    1.46095   1.39829    0.235
 5604.00    1.46450   1.39881    0.234
 5605.00    1.46348   1.39858    0.232
 5606.00    1.46407   1.39816    0.230
 5607.00    1.46847   1.39813    0.228
 5608.00    1.46674   1.39915    0.226
 5609.00    1.45260   1.40163    0.225
 5610.00    1.44113   1.40531    0.225
 5611.00    1.43439   1.40945    0.226
 5612.00    1.43099   1.41333    0.226
 5613.00    1.43277   1.41645    0.227
 5614.00    1.43180   1.41855    0.228
 5615.00    1.42709   1.41950    0.230
 5616.00    1.41852   1.41928    0.231
 5617.00    1.40535   1.41791    0.230
 5618.00    1.40385   1.41538    0.230
 5619.00    1.41463   1.41178    0.231
 5620.00    1.41787   1.40762    0.231
 5621.00    1.41409   1.40406    0.229
 5622.00    1.41523   1.40213    0.228
 5623.00    1.42041   1.40180    0.228
 5624.00    1.42365   1.40239    0.228
 5625.00    1.42547   1.40339    0.228
 5626.00    1.43026   1.40446    0.229
 5627.00    1.43691   1.40518    0.232
 5628.00    1.44447   1.40515    0.233
 5629.00    1.45254   1.40441    0.232
 5630.00    1.45074   1.40365    0.231
 5631.00    1.44418   1.40373    0.230
 5632.00    1.44143   1.40491    0.229
 5633.00    1.44025   1.40694    0.228
 5634.00    1.44572   1.40951    0.229
 5635.00    1.45355   1.41216    0.229
 5636.00    1.45247   1.41428    0.233
 5637.00    1.44873   1.41545    0.238
 5638.00    1.44111   1.41553    0.238
 5639.00    1.43252   1.41462    0.235
 5640.00    1.43253   1.41299    0.235
 5641.00    1.43428   1.41096    0.236
 5642.00    1.43601   1.40884    0.234
 5643.00    1.43774   1.40699    0.233
 5644.00    1.44376   1.40560    0.230
 5645.00    1.45027   1.40465    0.227
 5646.00    1.45692   1.40410    0.227
 5647.00    1.46357   1.40413    0.226
 5648.00    1.46019   1.40475    0.226
 5649.00    1.45635   1.40573    0.226
 5650.00    1.45105   1.40689    0.224
 5651.00    1.44584   1.40812    0.222
 5652.00    1.44553   1.40931    0.222
 5653.00    1.44496   1.41033    0.222
 5654.00    1.43958   1.41110    0.224
 5655.00    1.43432   1.41167    0.226
 5656.00    1.43037   1.41213    0.225
 5657.00    1.42601   1.41232    0.224
 5658.00    1.41853   1.41190    0.226
 5659.00    1.41328   1.41061    0.227
 5660.00    1.42113   1.40860    0.228
 5661.00    1.42804   1.40621    0.228
 5662.00    1.43052   1.40343    0.230
 5663.00    1.43117   1.40040    0.232
 5664.00    1.42481   1.39808    0.230
 5665.00    1.42083   1.39714    0.230
 5666.00    1.42445   1.39722    0.229
 5667.00    1.42803   1.39788    0.229
 5668.00    1.43152   1.39917    0.227
 5669.00    1.43316   1.40104    0.227
 5670.00    1.43055   1.40299    0.226
 5671.00    1.42852   1.40457    0.226
 5672.00    1.42768   1.40574    0.225
 5673.00    1.43135   1.40683    0.224
 5674.00    1.44290   1.40815    0.224
 5675.00    1.45082   1.40974    0.225
 5676.00    1.45321   1.41161    0.229
 5677.00    1.45451   1.41376    0.230
 5678.00    1.45434   1.41593    0.227
 5679.00    1.45162   1.41766    0.226
 5680.00    1.44590   1.41867    0.227
 5681.00    1.44398   1.41910    0.225
 5682.00    1.44600   1.41900    0.222
 5683.00    1.45216   1.41818    0.222
 5684.00    1.46211   1.41673    0.222
 5685.00    1.45869   1.41506    0.221
 5686.00    1.44448   1.41328    0.218
 5687.00    1.43262   1.41135    0.218
 5688.00    1.42244   1.40958    0.219
 5689.00    1.42359   1.40835    0.219
 5690.00    1.43179   1.40755    0.218
 5691.00    1.44383   1.40700    0.218
 5692.00    1.45795   1.40678    0.218
 5693.00    1.46685   1.40719    0.219
 5694.00    1.47328   1.40834    0.220
 5695.00    1.46318   1.41008    0.221
 5696.00    1.44632   1.41208    0.222
 5697.00    1.44653   1.41405    0.224
 5698.00    1.45270   1.41558    0.226
 5699.00    1.45828   1.41634    0.227
 5700.00    1.46368   1.41629    0.229
 5701.00    1.46313   1.41562    0.229
 5702.00    1.46112   1.41445    0.228
 5703.00    1.45584   1.41290    0.228
 5704.00    1.44991   1.41126    0.227
 5705.00    1.44780   1.40961    0.227
 5706.00    1.44627   1.40804    0.227
 5707.00    1.44687   1.40677    0.226
 5708.00    1.44771   1.40592    0.224
 5709.00    1.44647   1.40517    0.223
 5710.00    1.44507   1.40405    0.222
 5711.00    1.45220   1.40242    0.224
 5712.00    1.45967   1.40044    0.226
 5713.00    1.47308   1.39833    0.225
 5714.00    1.48599   1.39651    0.223
 5715.00    1.47669   1.39556    0.223
 5716.00    1.46742   1.39572    0.222
 5717.00    1.45861   1.39717    0.219
 5718.00    1.45127   1.39996    0.216
 5719.00    1.45952   1.40359    0.215
 5720.00    1.46690   1.40744    0.215
 5721.00    1.46787   1.41119    0.215
 5722.00    1.46975   1.41450    0.215
 5723.00    1.47679   1.41729    0.216
 5724.00    1.48287   1.41962    0.216
 5725.00    1.48454   1.42150    0.215
 5726.00    1.48441   1.42298    0.214
 5727.00    1.47760   1.42414    0.215
 5728.00    1.47259   1.42494    0.216
 5729.00    1.47319   1.42535    0.217
 5730.00    1.47495   1.42530    0.218
 5731.00    1.47975   1.42473    0.218
 5732.00    1.48283   1.42387    0.220
 5733.00    1.48201   1.42311    0.222
 5734.00    1.48132   1.42255    0.223
 5735.00    1.48089   1.42198    0.221
 5736.00    1.48358   1.42146    0.221
 5737.00    1.49161   1.42134    0.223
 5738.00    1.49338   1.42176    0.223
 5739.00    1.48575   1.42244    0.222
 5740.00    1.47731   1.42308    0.000
 5741.00    1.46782   1.42346    0.000
 5742.00    1.46414   1.42345    0.000
 5743.00    1.46719   1.42304    0.000
 5744.00    1.47476   1.42238    0.000
 5745.00    1.48698   1.42174    0.000
 5746.00    1.49456   1.42128    0.000
 5747.00    1.49794   1.42108    0.000
 5748.00    1.49129   1.42114    0.000
 5749.00    1.47665   1.42156    0.000
 5750.00    1.46775   1.42208    0.000
 5751.00    1.46288   1.42230    0.000
 5752.00    1.46304   1.42200    0.000
 5753.00    1.46630   1.42139    0.000
 5754.00    1.47102   1.42079    0.000
 5755.00    1.47654   1.42012    0.000
 5756.00    1.48057   1.41910    0.000
 5757.00    1.48391   1.41772    0.000
 5758.00    1.48493   1.41632    0.000
 5759.00    1.48502   1.41550    0.000
 5760.00    1.48644   1.41562    0.000
 5761.00    1.48831   1.41651    0.000
 5762.00    1.48889   1.41769    0.000
 5763.00    1.48910   1.41870    0.000
 5764.00    1.48350   1.41915    0.000
 5765.00    1.47652   1.41891    0.000
 5766.00    1.48262   1.41815    0.000
 5767.00    1.49123   1.41737    0.000
 5768.00    1.49204   1.41722    0.000
 5769.00    1.49169   1.41808    0.000
 5770.00    1.49085   1.41974    0.000
 5771.00    1.48996   1.42180    0.000
 5772.00    1.48923   1.42389    0.000
 5773.00    1.48850   1.42562    0.000
 5774.00    1.49091   1.42669    0.000
 5775.00    1.49343   1.42700    0.000
 5776.00    1.49436   1.42662    0.000
 5777.00    1.49520   1.42578    0.000
 5778.00    1.49359   1.42478    0.000
 5779.00    1.49169   1.42380    0.000
 5780.00    1.48500   1.42297    0.000
 5781.00    1.47797   1.42224    0.000
 5782.00    1.46755   1.42129    0.000
 5783.00    1.45892   1.41977    0.000
 5784.00    1.46326   1.41738    0.000
 5785.00    1.46736   1.41414    0.000
 5786.00    1.47018   1.41054    0.000
 5787.00    1.47387   1.40725    0.000
 5788.00    1.48142   1.40459    0.000
 5789.00    1.48905   1.40273    0.000
 5790.00    1.49694   1.40204    0.000
 5791.00    1.49964   1.40279   -2.000
 5792.00    1.48648   1.40470   -2.000
 5793.00    1.47035   1.40722   -2.000
 5794.00    1.44653   1.40982   -2.000
 5795.00    1.42829   1.41213   -2.000
 5796.00    1.42247   1.41417   -2.000
 5797.00    1.42449   1.41607   -2.000
 5798.00    1.44165   1.41779   -2.000
 5799.00    1.45273   1.41920   -2.000
 5800.00    1.45355   1.42015   -2.000
 5801.00    1.45507   1.42044   -2.000
 5802.00    1.45765   1.42013   -2.000
 5803.00    1.46355   1.41960   -2.000
 5804.00    1.47378   1.41882   -2.000
 5805.00    1.47961   1.41782   -2.000
 5806.00    1.48040   1.41704   -2.000
 5807.00    1.47724   1.41689   -2.000
 5808.00    1.47008   1.41717   -2.000
 5809.00    1.47111   1.41760   -2.000
 5810.00    1.47942   1.41823   -2.000
 5811.00    1.48069   1.41898    0.000
 5812.00    1.47642   1.41967    0.000
 5813.00    1.47722   1.42021    0.000
 5814.00    1.48151   1.42041    0.000
 5815.00    1.49161   1.42008    0.000
 5816.00    1.50522   1.41945    0.000
 5817.00    1.50627   1.41895    0.000
 5818.00    1.50068   1.41886    0.000
 5819.00    1.49729   1.41896    0.000
 5820.00    1.49490   1.41928    0.000
 5821.00    1.50292   1.42013    0.000
 5822.00    1.51504   1.42167    0.000
 5823.00    1.51771   1.42373    0.000
 5824.00    1.51720   1.42597    0.000
 5825.00    1.50974   1.42813    0.000
 5826.00    1.50032   1.43001    0.000
 5827.00    1.49674   1.43160    0.000
 5828.00    1.49453   1.43298    0.000
 5829.00    1.49220   1.43431    0.000
 5830.00    1.48984   1.43552    0.000
 5831.00    1.49347   1.43641    0.000
 5832.00    1.49796   1.43686    0.000
 5833.00    1.49446   1.43694    0.000
 5834.00    1.49012   1.43672    0.000
 5835.00    1.48409   1.43614    0.000
 5836.00    1.47794   1.43528    0.000
 5837.00    1.48689   1.43421    0.000
 5838.00    1.49633   1.43301    0.000
 5839.00    1.49828   1.43186    0.000
 5840.00    1.49993   1.43104    0.000
 5841.00    1.49199   1.43053    0.000
 5842.00    1.48469   1.43022    0.000
 5843.00    1.48706   1.43022    0.000
 5844.00    1.48864   1.43064    0.000
 5845.00    1.48259   1.43136    0.000
 5846.00    1.47736   1.43216    0.000
 5847.00    1.47789   1.43284    0.000
 5848.00    1.47804   1.43314    0.000
 5849.00    1.47616   1.43294    0.000
 5850.00    1.47426   1.43224    0.000
 5851.00    1.47220   1.43108    0.000
 5852.00    1.46967   1.42964    0.000
 5853.00    1.46543   1.42815    0.000
 5854.00    1.46311   1.42671    0.000
 5855.00    1.46655   1.42522    0.000
 5856.00    1.46873   1.42350    0.000
 5857.00    1.46768   1.42154    0.000
 5858.00    1.46714   1.41957    0.000
 5859.00    1.46775   1.41779    0.000
 5860.00    1.47184   1.41597    0.000
 5861.00    1.48254   1.41404    0.000
 5862.00    1.48862   1.41240    0.000
 5863.00    1.48702   1.41156    0.000
 5864.00    1.48635   1.41163    0.000
 5865.00    1.48702   1.41244    0.000
 5866.00    1.49065   1.41361    0.000
 5867.00    1.49805   1.41499    0.000
 5868.00    1.49910   1.41661    0.000
 5869.00    1.49296   1.41824    0.000
 5870.00    1.48694   1.41950    0.000
 5871.00    1.48105   1.42031    0.000
 5872.00    1.47671   1.42085    0.000
 5873.00    1.47375   1.42102    0.000
 5874.00    1.47564   1.42035    0.000
 5875.00    1.48130   1.41821    0.000
 5876.00    1.48126   1.41377    0.000
 5877.00    1.47736   1.40668    0.000
 5878.00    1.48290   1.39539    0.000
 5879.00    1.49407   1.38083    0.000
 5880.00    1.49565   1.36711    0.000
 5881.00    1.49224   1.35805    0.000
 5882.00    1.48606   1.35554    0.000
 5883.00    1.47864   1.35761    0.000
 5884.00    1.47471   1.36400    0.000
 5885.00    1.47212   1.37351    0.000
 5886.00    1.46777   1.38470    0.000
 5887.00    1.46283   1.39520    0.000
 5888.00    1.45986   1.40282    0.000
 5889.00    1.45743   1.40653    0.000
 5890.00    1.45521   1.40659    0.000
 5891.00    1.45303   1.40373    0.000
 5892.00    1.45370   1.39781    0.000
 5893.00    1.45488   1.38889    0.000
 5894.00    1.45884   1.37874    0.000
 5895.00    1.46318   1.37002    0.000
 5896.00    1.46151   1.36383    0.000
 5897.00    1.45922   1.35998    0.000
 5898.00    1.46216   1.35810    0.000
 5899.00    1.46542   1.35744    0.000
 5900.00    1.46727   1.35827    0.000
 5901.00    1.46908   1.36156    0.208
 5902.00    1.47329   1.36665    0.208
 5903.00    1.47755   1.37233    0.208
 5904.00    1.48352   1.37857    0.208
 5905.00    1.48949   1.38548    0.208
 5906.00    1.49560   1.39276    0.209
 5907.00    1.50030   1.39995    0.210
 5908.00    1.49185   1.40617    0.210
 5909.00    1.48303   1.41070    0.209
 5910.00    1.47171   1.41377    0.209
 5911.00    1.46200   1.41596    0.209
 5912.00    1.46072   1.41755    0.212
 5913.00    1.45980   1.41864    0.214
 5914.00    1.46042   1.41941    0.214
 5915.00    1.46058   1.41994    0.214
 5916.00    1.45909   1.42011    0.212
 5917.00    1.45765   1.41968    0.211
 5918.00    1.45632   1.41865    0.212
 5919.00    1.45432   1.41740    0.212
 5920.00    1.45060   1.41629    0.207
 5921.00    1.44887   1.41562    0.205
 5922.00    1.45140   1.41546    0.206
 5923.00    1.45438   1.41579    0.206
 5924.00    1.45818   1.41666    0.205
 5925.00    1.46118   1.41790    0.204
 5926.00    1.46286   1.41917    0.205
 5927.00    1.46191   1.42032    0.206
 5928.00    1.45717   1.42124    0.204
 5929.00    1.45552   1.42188    0.203
 5930.00    1.45777   1.42224    0.202
 5931.00    1.46263   1.42222    0.202
 5932.00    1.47041   1.42174    0.204
 5933.00    1.47453   1.42094    0.204
 5934.00    1.47507   1.42000    0.204
 5935.00    1.47620   1.41925    0.204
 5936.00    1.47783   1.41882    0.203
 5937.00    1.47988   1.41850    0.204
 5938.00    1.48226   1.41828    0.206
 5939.00    1.48369   1.41839    0.207
 5940.00    1.48449   1.41899    0.208
 5941.00    1.48609   1.41987    0.207
 5942.00    1.48815   1.42068    0.205
 5943.00    1.48968   1.42122    0.206
 5944.00    1.49094   1.42136    0.209
 5945.00    1.48549   1.42119    0.210
 5946.00    1.47707   1.42098    0.210
 5947.00    1.47489   1.42075    0.209
 5948.00    1.47508   1.42057    0.208
 5949.00    1.47794   1.42055    0.207
 5950.00    1.48167   1.42061    0.206
 5951.00    1.48406   1.42062    0.207
 5952.00    1.48608   1.42049    0.208
 5953.00    1.48405   1.42019    0.208
 5954.00    1.48111   1.41986    0.207
 5955.00    1.47594   1.41938    0.206
 5956.00    1.47039   1.41861    0.205
 5957.00    1.46802   1.41781    0.204
 5958.00    1.46609   1.41737    0.202
 5959.00    1.46186   1.41730    0.201
 5960.00    1.45741   1.41731    0.200
 5961.00    1.45560   1.41728    0.201
 5962.00    1.45394   1.41741    0.203
 5963.00    1.45413   1.41805    0.200
 5964.00    1.45440   1.41923    0.198
 5965.00    1.45874   1.42060    0.198
 5966.00    1.46313   1.42196    0.198
 5967.00    1.46871   1.42335    0.199
 5968.00    1.47381   1.42469    0.200
 5969.00    1.47239   1.42569    0.199
 5970.00    1.47131   1.42629    0.199
 5971.00    1.47322   1.42668    0.201
 5972.00    1.47550   1.42703    0.203
 5973.00    1.48020   1.42742    0.204
 5974.00    1.48345   1.42793    0.205
 5975.00    1.47925   1.42847    0.206
 5976.00    1.47581   1.42893    0.207
 5977.00    1.47550   1.42913    0.208
 5978.00    1.47554   1.42875    0.208
 5979.00    1.47679   1.42762    0.208
 5980.00    1.47860   1.42590    0.207
 5981.00    1.48202   1.42386    0.205
 5982.00    1.48153   1.42183    0.204
 5983.00    1.47143   1.42017    0.204
 5984.00    1.46597   1.41906    0.204
 5985.00    1.47041   1.41839    0.204
 5986.00    1.47472   1.41792    0.203
 5987.00    1.47880   1.41739    0.203
 5988.00    1.48166   1.41676    0.203
 5989.00    1.48254   1.41628    0.203
 5990.00    1.48221   1.41599    0.202
 5991.00    1.48018   1.41579    0.198
 5992.00    1.47908   1.41586    0.197
 5993.00    1.47914   1.41645    0.198
 5994.00    1.47756   1.41754    0.199
 5995.00    1.47418   1.41889    0.200
 5996.00    1.47234   1.42026    0.201
 5997.00    1.47199   1.42153    0.202
 5998.00    1.47587   1.42263    0.202
 5999.00    1.48338   1.42333    0.202
 6000.00    1.48570   1.42347    0.202
 6001.00    1.48412   1.42315    0.203
 6002.00    1.47810   1.42266    0.202
 6003.00    1.46916   1.42210    0.201
 6004.00    1.45938   1.42140    0.202
 6005.00    1.44912   1.42058    0.203
 6006.00    1.44134   1.41971    0.203
 6007.00    1.43480   1.41904    0.203
 6008.00    1.44154   1.41870    0.203
 6009.00    1.45406   1.41836    0.203
 6010.00    1.46564   1.41769    0.204
 6011.00    1.47687   1.41663    0.206
 6012.00    1.48257   1.41555    0.206
 6013.00    1.48652   1.41504    0.207
 6014.00    1.48522   1.41509    0.205
 6015.00    1.48252   1.41519    0.202
 6016.00    1.47994   1.41517    0.203
 6017.00    1.47738   1.41523    0.204
 6018.00    1.48026   1.41559    0.204
 6019.00    1.48408   1.41598    0.204
 6020.00    1.48530   1.41587    0.203
 6021.00    1.48619   1.41530    0.203
 6022.00    1.47934   1.41467    0.201
 6023.00    1.47177   1.41412    0.199
 6024.00    1.47642   1.41362    0.199
 6025.00    1.48176   1.41319    0.199
 6026.00    1.48467   1.41297    0.199
 6027.00    1.48746   1.41310    0.200
 6028.00    1.48350   1.41355    0.199
 6029.00    1.47955   1.41437    0.198
 6030.00    1.47558   1.41561    0.198
 6031.00    1.47179   1.41716    0.198
 6032.00    1.47025   1.41892    0.199
 6033.00    1.46810   1.42072    0.199
 6034.00    1.46070   1.42247    0.198
 6035.00    1.45355   1.42408    0.198
 6036.00    1.44801   1.42550    0.201
 6037.00    1.44264   1.42680    0.202
 6038.00    1.43809   1.42791    0.200
 6039.00    1.43440   1.42869    0.199
 6040.00    1.43423   1.42920    0.199
 6041.00    1.43455   1.42956    0.200
 6042.00    1.43654   1.42969    0.201
 6043.00    1.43993   1.42951    0.201
 6044.00    1.44734   1.42912    0.200
 6045.00    1.45623   1.42872    0.199
 6046.00    1.46872   1.42843    0.199
 6047.00    1.47743   1.42837    0.199
 6048.00    1.47823   1.42851    0.199
 6049.00    1.48195   1.42886    0.199
 6050.00    1.49098   1.42946    0.199
 6051.00    1.49712   1.43022    0.199
 6052.00    1.49866   1.43102    0.199
 6053.00    1.49453   1.43167    0.199
 6054.00    1.48251   1.43204    0.199
 6055.00    1.47207   1.43206    0.198
 6056.00    1.46356   1.43167    0.197
 6057.00    1.46102   1.43087    0.197
 6058.00    1.46495   1.42978    0.198
 6059.00    1.46659   1.42854    0.199
 6060.00    1.46604   1.42723    0.199
 6061.00    1.46273   1.42608    0.199
 6062.00    1.45710   1.42532    0.199
 6063.00    1.45302   1.42505    0.199
 6064.00    1.45011   1.42511    0.200
 6065.00    1.45261   1.42524    0.200
 6066.00    1.45864   1.42531    0.199
 6067.00    1.46316   1.42512    0.200
 6068.00    1.46681   1.42447    0.201
 6069.00    1.46739   1.42351    0.201
 6070.00    1.46645   1.42282    0.201
 6071.00    1.46328   1.42270    0.200
 6072.00    1.45915   1.42316    0.200
 6073.00    1.46026   1.42419    0.199
 6074.00    1.46331   1.42574    0.199
 6075.00    1.46968   1.42785    0.198
 6076.00    1.47709   1.43010    0.198
 6077.00    1.47789   1.43177    0.198
 6078.00    1.47697   1.43263    0.198
 6079.00    1.48257   1.43283    0.197
 6080.00    1.48954   1.43243    0.197
 6081.00    1.49202   1.43137    0.197
 6082.00    1.49375   1.42973    0.196
 6083.00    1.48838   1.42786    0.195
 6084.00    1.48211   1.42592    0.194
 6085.00    1.47703   1.42392    0.196
 6086.00    1.47206   1.42203    0.199
 6087.00    1.47225   1.42053    0.197
 6088.00    1.47271   1.41964    0.195
 6089.00    1.46816   1.41923    0.195
 6090.00    1.46360   1.41898    0.194
 6091.00    1.46488   1.41892    0.198
 6092.00    1.46628   1.41915    0.202
 6093.00    1.47003   1.41934    0.200
 6094.00    1.47342   1.41929    0.199
 6095.00    1.47249   1.41923    0.199
 6096.00    1.47234   1.41929    0.200
 6097.00    1.47869   1.41943    0.199
 6098.00    1.48451   1.41971    0.199
 6099.00    1.48710   1.42023    0.201
 6100.00    1.48947   1.42105    0.203
 6101.00    1.49082   1.42196    0.203
 6102.00    1.49084   1.42277    0.203
 6103.00    1.48563   1.42337    0.201
 6104.00    1.48062   1.42330    0.199
 6105.00    1.47626   1.42196    0.197
 6106.00    1.47406   1.41970    0.196
 6107.00    1.47783   1.41757    0.197
 6108.00    1.48330   1.41610    0.198
 6109.00    1.49282   1.41505    0.199
 6110.00    1.49768   1.41430    0.199
 6111.00    1.49297   1.41424    0.197
 6112.00    1.48823   1.41563    0.195
 6113.00    1.48342   1.41817    0.194
 6114.00    1.48169   1.42039    0.194
 6115.00    1.48475   1.42171    0.194
 6116.00    1.48753   1.42262    0.194
 6117.00    1.48991   1.42350    0.194
 6118.00    1.49216   1.42421    0.195
 6119.00    1.49423   1.42429    0.198
 6120.00    1.49208   1.42380    0.199
 6121.00    1.48543   1.42327    0.199
 6122.00    1.48029   1.42261    0.200
 6123.00    1.47657   1.42133    0.200
 6124.00    1.47846   1.41928    0.201
 6125.00    1.48502   1.41678    0.202
 6126.00    1.48558   1.41461    0.202
 6127.00    1.48175   1.41313    0.201
 6128.00    1.47647   1.41212    0.201
 6129.00    1.47027   1.41155    0.202
 6130.00    1.46522   1.41163    0.199
 6131.00    1.46081   1.41251    0.195
 6132.00    1.46246   1.41417    0.194
 6133.00    1.46706   1.41596    0.195
 6134.00    1.47137   1.41728    0.197
 6135.00    1.47555   1.41820    0.199
 6136.00    1.47418   1.41882    0.198
 6137.00    1.47081   1.41899    0.196
 6138.00    1.47052   1.41837    0.197
 6139.00    1.47117   1.41649    0.199
 6140.00    1.47379   1.41329    0.199
 6141.00    1.47692   1.40966    0.199
 6142.00    1.47305   1.40665    0.198
 6143.00    1.46774   1.40443    0.198
 6144.00    1.46315   1.40284    0.196
 6145.00    1.45868   1.40239    0.194
 6146.00    1.46824   1.40405    0.196
 6147.00    1.47950   1.40767    0.198
 6148.00    1.48145   1.41155    0.197
 6149.00    1.48262   1.41441    0.196
 6150.00    1.47295   1.41641    0.195
 6151.00    1.46275   1.41816    0.194
 6152.00    1.45955   1.41951    0.196
 6153.00    1.45643   1.41991    0.198
 6154.00    1.45277   1.41950    0.197
 6155.00    1.44951   1.41881    0.196
 6156.00    1.45405   1.41815    0.198
 6157.00    1.45814   1.41752    0.200
 6158.00    1.45711   1.41696    0.202
 6159.00    1.45712   1.41657    0.203
 6160.00    1.46542   1.41618    0.203
 6161.00    1.47240   1.41543    0.202
 6162.00    1.47139   1.41404    0.202
 6163.00    1.46952   1.41182    0.201
 6164.00    1.46356   1.40865    0.199
 6165.00    1.45954   1.40465    0.198
 6166.00    1.46298   1.40037    0.198
 6167.00    1.46616   1.39653    0.198
 6168.00    1.46847   1.39329    0.195
 6169.00    1.46938   1.39068    0.194
 6170.00    1.46646   1.38938    0.194
 6171.00    1.46343   1.38982    0.195
 6172.00    1.46017   1.39119    0.196
 6173.00    1.45782   1.39255    0.197
 6174.00    1.45734   1.39387    0.198
 6175.00    1.45145   1.39529    0.198
 6176.00    1.43604   1.39652    0.198
 6177.00    1.41984   1.39746    0.198
 6178.00    1.40242   1.39885    0.197
 6179.00    1.39186   1.40124    0.196
 6180.00    1.39058   1.40399    0.197
 6181.00    1.39158   1.40634    0.198
 6182.00    1.39530   1.40834    0.198
 6183.00    1.40509   1.41015    0.198
 6184.00    1.42128   1.41179    0.200
 6185.00    1.43833   1.41332    0.201
 6186.00    1.45618   1.41479    0.201
 6187.00    1.46381   1.41602    0.201
 6188.00    1.46311   1.41673    0.201
 6189.00    1.45832   1.41693    0.201
 6190.00    1.45060   1.41663    0.199
 6191.00    1.44615   1.41566    0.197
 6192.00    1.44377   1.41413    0.196
 6193.00    1.44032   1.41206    0.195
 6194.00    1.43627   1.40935    0.195
 6195.00    1.42577   1.40669    0.199
 6196.00    1.41216   1.40502   -2.000
 6197.00    1.41097   1.40440   -2.000
 6198.00    1.41494   1.40439   -2.000
 6199.00    1.43131   1.40494   -2.000
 6200.00    1.45207   1.40664   -2.000
 6201.00    1.46975   1.40933   -2.000
 6202.00    1.48650   1.41162   -2.000
 6203.00    1.49138   1.41290   -2.000
 6204.00    1.49332   1.41376   -2.000
 6205.00    1.48327   1.41455   -2.000
 6206.00    1.47080   1.41502   -2.000
 6207.00    1.46138   1.41515   -2.000
 6208.00    1.45245   1.41559    0.203
 6209.00    1.45448   1.41682    0.202
 6210.00    1.45781   1.41840    0.201
 6211.00    1.45838   1.41960    0.199
 6212.00    1.45874   1.42022    0.197
 6213.00    1.45300   1.42033    0.197
 6214.00    1.44699   1.41994    0.197
 6215.00    1.44734   1.41884    0.196
 6216.00    1.44784   1.41681    0.195
 6217.00    1.45227   1.41398    0.196
 6218.00    1.45662   1.41075    0.196
 6219.00    1.45958   1.40751    0.195
 6220.00    1.46238   1.40461    0.193
 6221.00    1.46347   1.40203    0.192
 6222.00    1.46431   1.39994    0.192
 6223.00    1.46321   1.39876    0.191
 6224.00    1.46297   1.39861    0.191
 6225.00    1.46778   1.39930    0.193
 6226.00    1.47139   1.40015    0.195
 6227.00    1.46944   1.40072    0.196
 6228.00    1.46651   1.40140    0.196
 6229.00    1.45982   1.40250    0.198
 6230.00    1.45504   1.40360    0.199
 6231.00    1.45627   1.40410    0.199
 6232.00    1.45627   1.40363    0.199
 6233.00    1.45295   1.40229    0.199
 6234.00    1.45250   1.40045    0.198
 6235.00    1.45864   1.39846    0.198
 6236.00    1.46540   1.39657    0.198
 6237.00    1.47339   1.39505    0.199
 6238.00    1.47809   1.39424    0.199
 6239.00    1.47709   1.39464    0.198
 6240.00    1.47292   1.39621    0.197
 6241.00    1.46393   1.39805    0.196
 6242.00    1.45953   1.39964    0.195
 6243.00    1.46126   1.40050    0.196
 6244.00    1.46265   1.40044    0.195
 6245.00    1.46364   1.39949    0.193
 6246.00    1.46027   1.39780    0.193
 6247.00    1.45235   1.39601    0.193
 6248.00    1.44889   1.39458    0.193
 6249.00    1.44948   1.39373    0.193
 6250.00    1.45056   1.39332    0.193
 6251.00    1.45201   1.39331    0.193
 6252.00    1.45376   1.39414    0.193
 6253.00    1.45572   1.39557    0.195
 6254.00    1.46064   1.39682    0.196
 6255.00    1.46742   1.39770    0.198
 6256.00    1.46852   1.39817    0.199
 6257.00    1.46653   1.39784    0.199
 6258.00    1.46582   1.39664    0.202
 6259.00    1.46572   1.39458    0.206
 6260.00    1.47137   1.39198    0.214
 6261.00    1.47936   1.38975    0.225
 6262.00    1.48788   1.38847    0.231
 6263.00    1.49656   1.38818    0.236
 6264.00    1.50065   1.38852    0.234
 6265.00    1.50340   1.38961    0.230
 6266.00    1.50127   1.39176    0.221
 6267.00    1.49796   1.39475    0.211
 6268.00    1.49018   1.39790    0.205
 6269.00    1.48153   1.40063    0.199
 6270.00    1.47668   1.40312    0.196
 6271.00    1.47243   1.40515    0.193
 6272.00    1.47345   1.40613    0.191
 6273.00    1.47506   1.40641    0.189
 6274.00    1.47126   1.40692    0.190
 6275.00    1.46706   1.40774    0.191
 6276.00    1.46021   1.40833    0.190
 6277.00    1.45325   1.40867    0.189
 6278.00    1.45042   1.40919    0.189
 6279.00    1.44797   1.40997    0.190
 6280.00    1.45978   1.41068    0.000
 6281.00    1.47131   1.41102    0.000
 6282.00    1.47802   1.41084    0.000
 6283.00    1.48407   1.41026    0.000
 6284.00    1.48317   1.40952    0.000
 6285.00    1.48255   1.40875    0.000
 6286.00    1.48403   1.40813    0.000
 6287.00    1.48467   1.40779    0.000
 6288.00    1.48048   1.40777    0.000
 6289.00    1.47617   1.40848    0.000
 6290.00    1.47130   1.40992    0.000
 6291.00    1.46545   1.41169    0.000
 6292.00    1.45599   1.41337    0.000
 6293.00    1.44699   1.41456    0.000
 6294.00    1.43944   1.41539    0.000
 6295.00    1.43600   1.41593    0.000
 6296.00    1.44341   1.41594    0.000
 6297.00    1.45055   1.41536    0.000
 6298.00    1.45706   1.41420    0.000
 6299.00    1.46260   1.41265    0.000
 6300.00    1.46623   1.41096    0.000
 6301.00    1.46932   1.40936    0.000
 6302.00    1.47150   1.40791    0.000
 6303.00    1.47084   1.40628    0.000
 6304.00    1.46594   1.40429    0.000
 6305.00    1.46170   1.40252    0.000
 6306.00    1.45832   1.40162    0.000
 6307.00    1.45759   1.40136    0.000
 6308.00    1.45992   1.40113    0.000
 6309.00    1.46389   1.40111    0.000
 6310.00    1.46952   1.40200    0.000
 6311.00    1.47270   1.40373    0.000
 6312.00    1.47367   1.40535    0.000
 6313.00    1.46807   1.40634    0.000
 6314.00    1.45725   1.40698    0.000
 6315.00    1.45066   1.40745    0.000
 6316.00    1.44704   1.40728    0.000
 6317.00    1.45017   1.40609    0.000
 6318.00    1.45746   1.40422    0.000
 6319.00    1.46628   1.40244    0.000
 6320.00    1.47593   1.40091    0.000
 6321.00    1.47685   1.39921    0.192
 6322.00    1.47372   1.39755    0.190
 6323.00    1.46877   1.39673    0.190
 6324.00    1.46309   1.39694    0.190
 6325.00    1.46147   1.39754    0.190
 6326.00    1.46123   1.39861    0.190
 6327.00    1.45995   1.40085    0.189
 6328.00    1.45837   1.40383    0.187
 6329.00    1.45790   1.40658    0.187
 6330.00    1.45770   1.40890    0.187
 6331.00    1.45930   1.41122    0.189
 6332.00    1.46123   1.41341    0.190
 6333.00    1.46158   1.41477    0.192
 6334.00    1.46168   1.41536    0.193
 6335.00    1.45820   1.41564    0.193
 6336.00    1.45433   1.41580    0.192
 6337.00    1.45664   1.41533    0.193
 6338.00    1.45940   1.41392    0.194
 6339.00    1.46366   1.41224    0.194
 6340.00    1.46797   1.41078    0.193
 6341.00    1.46195   1.40922    0.193
 6342.00    1.45614   1.40724    0.192
 6343.00    1.45881   1.40557    0.192
 6344.00    1.46185   1.40507    0.191
 6345.00    1.47084   1.40541    0.192
 6346.00    1.47902   1.40567    0.192
 6347.00    1.47898   1.40574    0.192
 6348.00    1.47866   1.40598    0.191
 6349.00    1.47635   1.40593    0.190
 6350.00    1.47548   1.40528    0.188
 6351.00    1.48261   1.40460    0.189
 6352.00    1.48739   1.40467    0.189
 6353.00    1.48183   1.40529    0.189
 6354.00    1.47379   1.40617    0.188
 6355.00    1.45676   1.40753    0.188
 6356.00    1.44134   1.40925    0.188
 6357.00    1.43079   1.41062    0.189
 6358.00    1.42448   1.41113    0.189
 6359.00    1.42910   1.41108    0.190
 6360.00    1.43680   1.41037    0.191
 6361.00    1.45136   1.40861    0.194
 6362.00    1.46355   1.40610    0.197
 6363.00    1.47119   1.40366    0.197
 6364.00    1.47564   1.40135    0.198
 6365.00    1.47470   1.39870    0.198
 6366.00    1.47321   1.39619    0.197
 6367.00    1.47091   1.39466    0.195
 6368.00    1.46900   1.39413    0.194
 6369.00    1.46761   1.39421    0.195
 6370.00    1.46801   1.39510    0.194
 6371.00    1.47044   1.39711    0.192
 6372.00    1.47046   1.39973    0.190
 6373.00    1.46806   1.40222    0.189
 6374.00    1.46544   1.40459    0.187
 6375.00    1.46264   1.40705    0.186
 6376.00    1.46092   1.40930    0.187
 6377.00    1.46004   1.41088    0.188
 6378.00    1.45893   1.41213    0.188
 6379.00    1.45766   1.41369    0.188
 6380.00    1.45848   1.41532    0.187
 6381.00    1.46056   1.41634    0.187
 6382.00    1.46574   1.41659    0.188
 6383.00    1.47255   1.41656    0.189
 6384.00    1.47206   1.41634    0.191
 6385.00    1.46824   1.41574    0.192
 6386.00    1.46184   1.41490    0.191
 6387.00    1.45443   1.41419    0.191
 6388.00    1.44673   1.41390    0.191
 6389.00    1.43893   1.41415    0.191
 6390.00    1.43019   1.41471    0.191
 6391.00    1.42119   1.41524    0.190
 6392.00    1.41926   1.41580    0.190
 6393.00    1.41897   1.41651    0.190
 6394.00    1.42955   1.41701    0.192
 6395.00    1.44214   1.41668    0.193
 6396.00    1.45785   1.41553    0.195
 6397.00    1.47401   1.41418    0.197
 6398.00    1.47505   1.41289    0.195
 6399.00    1.47452   1.41131    0.193
 6400.00    1.47305   1.40956    0.191
 6401.00    1.47151   1.40841    0.189
 6402.00    1.47212   1.40798    0.190
 6403.00    1.47280   1.40764    0.191
 6404.00    1.47755   1.40731    0.189
 6405.00    1.48222   1.40704    0.188
 6406.00    1.48450   1.40641    0.189
 6407.00    1.48603   1.40564    0.190
 6408.00    1.47621   1.40576    0.190
 6409.00    1.46617   1.40669    0.191
 6410.00    1.45409   1.40716    0.191
 6411.00    1.44298   1.40701    0.192
 6412.00    1.43865   1.40692    0.191
 6413.00    1.43612   1.40679    0.190
 6414.00    1.44329   1.40602    0.190
 6415.00    1.45020   1.40511    0.190
 6416.00    1.45593   1.40514    0.191
 6417.00    1.46058   1.40568    0.192
 6418.00    1.46139   1.40586    0.191
 6419.00    1.46219   1.40623    0.191
 6420.00    1.46295   1.40731    0.192
 6421.00    1.46287   1.40844    0.193
 6422.00    1.46065   1.40894    0.189
 6423.00    1.46032   1.40897    0.187
 6424.00    1.46411   1.40894    0.187
 6425.00    1.46873   1.40908    0.188
 6426.00    1.47491   1.40929    0.188
 6427.00    1.47935   1.40950    0.189
 6428.00    1.48092   1.41022    0.190
 6429.00    1.48026   1.41206    0.191
 6430.00    1.47636   1.41461    0.192
 6431.00    1.47175   1.41667    0.193
 6432.00    1.46621   1.41781    0.193
 6433.00    1.46204   1.41831    0.193
 6434.00    1.45940   1.41831    0.191
 6435.00    1.45421   1.41767    0.191
 6436.00    1.44646   1.41631    0.192
 6437.00    1.43809   1.41448    0.192
 6438.00    1.42918   1.41309    0.190
 6439.00    1.42289   1.41282    0.191
 6440.00    1.41861   1.41321    0.193
 6441.00    1.41814   1.41343    0.193
 6442.00    1.42027   1.41357    0.190
 6443.00    1.42048   1.41411    0.188
 6444.00    1.41954   1.41476    0.186
 6445.00    1.41868   1.41489    0.187
 6446.00    1.41785   1.41511    0.189
 6447.00    1.41099   1.41652    0.189
 6448.00    1.40142   1.41870    0.188
 6449.00    1.38557   1.42045    0.188
 6450.00    1.36729   1.42153    0.189
 6451.00    1.34542   1.42193    0.188
 6452.00    1.32237   1.42124    0.187
 6453.00    1.28207   1.41945    0.182
 6454.00    1.23703   1.41709    0.176
 6455.00    1.18178   1.41426    0.175
 6456.00    1.12422   1.41090    0.173
 6457.00    1.09353   1.40820    0.173
 6458.00    1.06772   1.40735    0.173
 6459.00    1.09344   1.40776    0.175
 6460.00    1.12632   1.40861    0.177
 6461.00    1.18023   1.40975    0.180
 6462.00    1.23624   1.41094    0.182
 6463.00    1.27312   1.41220    0.185
 6464.00    1.30880   1.41354    0.188
 6465.00    1.33217   1.41437    0.187
 6466.00    1.35518   1.41454    0.187
 6467.00    1.37474   1.41442    0.187
 6468.00    1.39409   1.41385    0.187
 6469.00    1.40760   1.41266    0.185
 6470.00    1.41992   1.41207    0.184
 6471.00    1.41561   1.41295    0.185
 6472.00    1.41207   1.41411    0.187
 6473.00    1.41570   1.41491    0.186
 6474.00    1.42040   1.41574    0.186
 6475.00    1.43230   1.41670    0.187
 6476.00    1.44332   1.41730    0.189
 6477.00    1.44974   1.41734    0.190
 6478.00    1.45331   1.41699    0.192
 6479.00    1.44481   1.41688    0.193
 6480.00    1.43793   1.41729    0.193
 6481.00    1.43667   1.41750    0.191
 6482.00    1.43607   1.41726    0.190
 6483.00    1.43741   1.41717    0.189
 6484.00    1.43949   1.41708    0.188
 6485.00    1.44343   1.41629    0.189
 6486.00    1.44537   1.41509    0.190
 6487.00    1.44300   1.41401    0.189
 6488.00    1.44142   1.41273    0.189
 6489.00    1.44132   1.41140    0.190
 6490.00    1.44069   1.41098    0.191
 6491.00    1.43916   1.41156    0.192
 6492.00    1.43771   1.41208    0.191
 6493.00    1.43634   1.41207    0.189
 6494.00    1.43310   1.41170    0.187
 6495.00    1.42752   1.41062    0.187
 6496.00    1.42235   1.40793    0.186
 6497.00    1.41762   1.40338    0.186
 6498.00    1.41649   1.39790    0.186
 6499.00    1.41888   1.39224    0.186
 6500.00    1.42304   1.38636    0.187
 6501.00    1.42873   1.38067    0.189
 6502.00    1.43562   1.37684    0.190
 6503.00    1.44342   1.37584    0.189
 6504.00    1.45134   1.37711    0.189
 6505.00    1.45933   1.38001    0.190
 6506.00    1.46057   1.38409    0.191
 6507.00    1.45786   1.38932    0.192
 6508.00    1.45874   1.39497    0.192
 6509.00    1.46146   1.40007    0.191
 6510.00    1.46231   1.40426    0.191
 6511.00    1.46233   1.40759    0.191
 6512.00    1.45488   1.41018    0.189
 6513.00    1.44459   1.41207    0.187
 6514.00    1.44057   1.41317    0.187
 6515.00    1.43858   1.41361    0.189
 6516.00    1.43766   1.41384    0.188
 6517.00    1.43704   1.41399    0.186
 6518.00    1.43545   1.41365    0.184
 6519.00    1.43364   1.41275    0.183
 6520.00    1.43301   1.41166    0.183
 6521.00    1.43260   1.41030    0.183
 6522.00    1.43614   1.40857    0.184
 6523.00    1.44021   1.40701    0.185
 6524.00    1.44508   1.40598    0.187
 6525.00    1.45002   1.40521    0.190
 6526.00    1.44804   1.40484    0.189
 6527.00    1.44564   1.40519    0.188
 6528.00    1.44329   1.40565    0.000
 6529.00    1.44096   1.40554    0.000
 6530.00    1.43960   1.40505    0.000
 6531.00    1.43846   1.40463    0.000
 6532.00    1.44288   1.40398    0.000
 6533.00    1.44697   1.40282    0.000
 6534.00    1.44654   1.40166    0.000
 6535.00    1.44633   1.40119    0.000
 6536.00    1.44798   1.40125    0.000
 6537.00    1.44938   1.40143    0.000
 6538.00    1.44903   1.40165    0.000
 6539.00    1.44784   1.40206    0.000
 6540.00    1.44236   1.40266    0.000
 6541.00    1.43762   1.40353    0.000
 6542.00    1.43596   1.40447    0.000
 6543.00    1.43617   1.40506    0.000
 6544.00    1.44282   1.40507    0.000
 6545.00    1.45032   1.40487    0.000
 6546.00    1.46028   1.40443    0.000
 6547.00    1.46792   1.40313    0.000
 6548.00    1.46987   1.40057    0.000
 6549.00    1.46974   1.39728    0.000
 6550.00    1.46516   1.39381    0.000
 6551.00    1.45952   1.39007    0.000
 6552.00    1.45189   1.38569    0.000
 6553.00    1.44590   1.38103    0.000
 6554.00    1.44254   1.37674    0.000
 6555.00    1.44072   1.37249    0.000
 6556.00    1.44107   1.36717    0.000
 6557.00    1.44036   1.36025    0.000
 6558.00    1.43833   1.35165    0.000
 6559.00    1.43614   1.34103    0.000
 6560.00    1.43378   1.32735    0.000
 6561.00    1.43421   1.30980    0.000
 6562.00    1.43735   1.28836    0.000
 6563.00    1.43808   1.26320    0.000
 6564.00    1.43674   1.23392    0.000
 6565.00    1.43631   1.20088    0.000
 6566.00    1.43655   1.16746    0.000
 6567.00    1.43586   1.13750    0.000
 6568.00    1.43456   1.11288    0.000
 6569.00    1.43290   1.09599    0.000
 6570.00    1.43103   1.09236    0.000
 6571.00    1.42904   1.10436    0.000
 6572.00    1.42699   1.12722    0.000
 6573.00    1.42855   1.15615    0.000
 6574.00    1.43169   1.18931    0.000
 6575.00    1.43748   1.22391    0.000
 6576.00    1.44427   1.25526    0.000
 6577.00    1.44882   1.28143    0.000
 6578.00    1.45266   1.30263    0.000
 6579.00    1.45645   1.31922    0.000
 6580.00    1.46024   1.33204    0.000
 6581.00    1.46547   1.34237    0.000
 6582.00    1.47101   1.35113    0.000
 6583.00    1.47402   1.35858    0.000
 6584.00    1.47659   1.36482    0.000
 6585.00    1.47277   1.37020    0.000
 6586.00    1.46811   1.37498    0.000
 6587.00    1.46386   1.37908    0.000
 6588.00    1.45964   1.38240    0.000
 6589.00    1.45792   1.38537    0.000
 6590.00    1.45634   1.38840    0.000
 6591.00    1.45422   1.39122    0.000
 6592.00    1.45209   1.39367    0.000
 6593.00    1.44870   1.39576    0.000
 6594.00    1.44551   1.39760    0.000
 6595.00    1.44682   1.39860    0.000
 6596.00    1.44779   1.39864    0.000
 6597.00    1.44445   1.39816    0.000
 6598.00    1.44056   1.39728    0.000
 6599.00    1.43182   1.39578    0.000
 6600.00    1.42369   1.39456    0.000
 6601.00    1.41938   1.39472    0.000
 6602.00    1.41662   1.39590    0.000
 6603.00    1.42151   1.39730    0.000
 6604.00    1.42670   1.39909    0.000
 6605.00    1.43307   1.40150    0.000
 6606.00    1.43713   1.40405    0.000
 6607.00    1.43342   1.40612    0.000
 6608.00    1.43134   1.40743    0.000
 6609.00    1.43387   1.40803    0.189
 6610.00    1.43471   1.40801    0.188
 6611.00    1.43144   1.40732    0.187
 6612.00    1.42945   1.40620    0.186
 6613.00    1.43010   1.40517    0.187
 6614.00    1.43234   1.40438    0.187
 6615.00    1.43745   1.40373    0.188
 6616.00    1.44262   1.40369    0.189
 6617.00    1.44789   1.40485    0.190
 6618.00    1.45115   1.40670    0.192
 6619.00    1.45160   1.40838    0.192
 6620.00    1.44908   1.41001    0.193
 6621.00    1.44291   1.41210    0.192
 6622.00    1.43736   1.41424    0.191
 6623.00    1.43249   1.41567    0.191
 6624.00    1.43193   1.41652    0.191
 6625.00    1.43549   1.41727    0.190
 6626.00    1.43441   1.41773    0.190
 6627.00    1.42943   1.41753    0.191
 6628.00    1.42252   1.41685    0.191
 6629.00    1.41419   1.41597    0.192
 6630.00    1.41319   1.41478    0.190
 6631.00    1.41697   1.41339    0.188
 6632.00    1.42130   1.41227    0.189
 6633.00    1.42595   1.41146    0.191
 6634.00    1.42727   1.41055    0.191
 6635.00    1.42693   1.40949    0.191
 6636.00    1.42894   1.40844    0.189
 6637.00    1.43195   1.40742    0.187
 6638.00    1.42861   1.40637    0.188
 6639.00    1.42294   1.40528    0.189
 6640.00    1.42169   1.40441    0.191
 6641.00    1.42182   1.40428    0.192
 6642.00    1.42272   1.40489    0.193
 6643.00    1.42382   1.40587    0.193
 6644.00    1.41945   1.40699    0.192
 6645.00    1.41392   1.40798    0.191
 6646.00    1.41433   1.40866    0.192
 6647.00    1.41573   1.40927    0.193
 6648.00    1.41865   1.40972    0.193
 6649.00    1.42176   1.40946    0.193
 6650.00    1.41711   1.40893    0.191
 6651.00    1.41177   1.40914    0.189
 6652.00    1.41790   1.40986    0.189
 6653.00    1.42462   1.41025    0.190
 6654.00    1.42543   1.41064    0.190
 6655.00    1.42607   1.41157    0.190
 6656.00    1.42201   1.41260    0.190
 6657.00    1.41842   1.41320    0.189
 6658.00    1.42476   1.41354    0.190
 6659.00    1.43074   1.41386    0.191
 6660.00    1.43242   1.41405    0.192
 6661.00    1.43294   1.41405    0.194
 6662.00    1.42391   1.41384    0.193
 6663.00    1.41574   1.41340    0.192
 6664.00    1.41285   1.41281    0.192
 6665.00    1.41012   1.41190    0.192
 6666.00    1.40810   1.41054    0.195
 6667.00    1.40800   1.40903    0.196
 6668.00    1.41545   1.40751    0.196
 6669.00    1.42062   1.40574    0.196
 6670.00    1.41835   1.40419    0.194
 6671.00    1.41503   1.40356    0.193
 6672.00    1.40881   1.40354    0.192
 6673.00    1.40209   1.40370    0.192
 6674.00    1.39420   1.40438    0.192
 6675.00    1.39019   1.40565    0.192
 6676.00    1.39413   1.40682    0.191
 6677.00    1.39924   1.40735    0.191
 6678.00    1.40642   1.40697    0.191
 6679.00    1.41293   1.40517    0.191
 6680.00    1.41837   1.40167    0.192
 6681.00    1.42337   1.39707    0.193
 6682.00    1.42776   1.39174    0.194
 6683.00    1.42975   1.38540    0.195
 6684.00    1.42887   1.37925    0.195
 6685.00    1.42563   1.37561    0.195
 6686.00    1.41988   1.37515    0.193
 6687.00    1.41811   1.37637    0.193
 6688.00    1.42007   1.37886    0.194
 6689.00    1.42201   1.38335    0.195
 6690.00    1.42393   1.38917    0.194
 6691.00    1.41925   1.39449    0.194
 6692.00    1.40976   1.39882    0.194
 6693.00    1.40451   1.40262    0.194
 6694.00    1.40197   1.40581    0.194
 6695.00    1.40170   1.40826    0.193
 6696.00    1.40269   1.41010    0.000
 6697.00    1.40380   1.41135    0.000
 6698.00    1.40496   1.41192    0.000
 6699.00    1.40489   1.41203    0.000
 6700.00    1.40430   1.41185    0.000
 6701.00    1.40585   1.41128    0.000
 6702.00    1.40817   1.41034    0.000
 6703.00    1.40899   1.40958    0.000
 6704.00    1.40936   1.40926    0.000
 6705.00    1.41020   1.40914    0.000
 6706.00    1.41115   1.40917    0.000
 6707.00    1.40917   1.40950    0.000
 6708.00    1.40658   1.40999    0.000
 6709.00    1.41359   1.41030    0.000
 6710.00    1.42215   1.41038    0.000
 6711.00    1.42789   1.41046    0.000
 6712.00    1.43329   1.41061    0.000
 6713.00    1.42810   1.41059    0.000
 6714.00    1.42204   1.41041    0.000
 6715.00    1.41691   1.41022    0.000
 6716.00    1.41182   1.40982    0.000
 6717.00    1.41205   1.40906    0.000
 6718.00    1.41242   1.40800    0.000
 6719.00    1.41631   1.40654    0.000
 6720.00    1.41987   1.40475    0.000
 6721.00    1.41699   1.40313    0.000
 6722.00    1.41483   1.40176    0.000
 6723.00    1.42098   1.40047    0.000
 6724.00    1.42601   1.39980    0.000
 6725.00    1.42215   1.40038    0.000
 6726.00    1.41879   1.40164    0.000
 6727.00    1.41839   1.40285    0.000
 6728.00    1.41650   1.40425    0.000
 6729.00    1.40756   1.40622    0.000
 6730.00    1.40241   1.40803    0.000
 6731.00    1.41193   1.40898    0.000
 6732.00    1.41850   1.40947    0.000
 6733.00    1.41559   1.41016    0.000
 6734.00    1.41336   1.41088    0.000
 6735.00    1.41298   1.41121    0.000
 6736.00    1.41113   1.41143    0.000
 6737.00    1.40586   1.41189    0.000
 6738.00    1.40267   1.41236    0.000
 6739.00    1.40366   1.41256    0.000
 6740.00    1.40437   1.41256    0.000
 6741.00    1.40456   1.41243    0.000
 6742.00    1.40410   1.41215    0.000
 6743.00    1.40264   1.41157    0.000
 6744.00    1.40482   1.41065    0.000
 6745.00    1.41195   1.40954    0.000
 6746.00    1.41045   1.40861    0.000
 6747.00    1.39866   1.40777    0.000
 6748.00    1.39176   1.40669    0.000
 6749.00    1.38999   1.40554    0.000
 6750.00    1.38346   1.40500    0.000
 6751.00    1.37252   1.40480    0.000
 6752.00    1.36736   1.40440    0.000
 6753.00    1.36691   1.40409    0.211
 6754.00    1.35751   1.40419    0.214
 6755.00    1.34168   1.40433    0.215
 6756.00    1.33151   1.40440    0.215
 6757.00    1.32493   1.40488    0.215
 6758.00    1.34046   1.40550    0.217
 6759.00    1.36818   1.40609    0.221
 6760.00    1.41519   1.40716    0.225
 6761.00    1.47145   1.40875    0.228
 6762.00    1.54167   1.41033    0.232
 6763.00    1.61766   1.41185    0.237
 6764.00    1.62992   1.41363    0.237
 6765.00    1.61965   1.41527    0.236
 6766.00    1.62452   1.41648    0.235
 6767.00    1.63391   1.41724    0.234
 6768.00    1.63411   1.41753    0.234
 6769.00    1.63204   1.41736    0.233
 6770.00    1.58937   1.41679    0.228
 6771.00    1.53856   1.41584    0.222
 6772.00    1.50526   1.41456    0.220
 6773.00    1.47472   1.41312    0.219
 6774.00    1.45860   1.41194    0.215
 6775.00    1.44417   1.41136    0.211
 6776.00    1.42958   1.41103    0.212
 6777.00    1.41497   1.41086    0.213
 6778.00    1.43237   1.41145    0.215
 6779.00    1.45117   1.41292    0.217
 6780.00    1.45835   1.41448    0.219
 6781.00    1.46537   1.41588    0.220
 6782.00    1.47051   1.41735    0.220
 6783.00    1.47633   1.41863    0.220
 6784.00    1.49450   1.41932    0.219
 6785.00    1.51089   1.41939    0.217
 6786.00    1.50787   1.41877    0.219
 6787.00    1.50413   1.41750    0.221
 6788.00    1.49491   1.41581    0.222
 6789.00    1.48552   1.41385    0.222
 6790.00    1.47520   1.41195    0.222
 6791.00    1.46681   1.41058    0.222
 6792.00    1.46737   1.40975    0.223
 6793.00    1.47008   1.40951    0.222
 6794.00    1.48096   1.41004    0.220
 6795.00    1.48704   1.41093    0.218
 6796.00    1.47798   1.41177    0.219
 6797.00    1.47251   1.41275    0.220
 6798.00    1.47668   1.41358    0.219
 6799.00    1.47352   1.41378    0.218
 6800.00    1.45354   1.41375    0.214
 6801.00    1.43974   1.41390    0.212
 6802.00    1.43821   1.41396    0.213
 6803.00    1.43458   1.41401    0.213
 6804.00    1.42731   1.41436    0.211
 6805.00    1.41941   1.41484    0.210
 6806.00    1.41058   1.41534    0.210
 6807.00    1.40714   1.41597    0.210
 6808.00    1.41089   1.41657    0.209
 6809.00    1.41529   1.41680    0.210
 6810.00    1.42044   1.41687    0.212
 6811.00    1.41809   1.41705    0.215
 6812.00    1.40796   1.41697    0.217
 6813.00    1.41531   1.41658    0.220
 6814.00    1.43860   1.41641    0.224
 6815.00    1.44840   1.41633    0.225
 6816.00    1.44733   1.41594    0.224
 6817.00    1.44491   1.41569    0.222
 6818.00    1.44153   1.41582    0.219
 6819.00    1.44486   1.41590    0.217
 6820.00    1.45237   1.41578    0.215
 6821.00    1.46328   1.41586    0.214
 6822.00    1.47603   1.41637    0.213
 6823.00    1.46548   1.41701    0.212
 6824.00    1.44394   1.41746    0.210
 6825.00    1.43057   1.41791    0.209
 6826.00    1.42053   1.41854    0.208
 6827.00    1.41883   1.41931    0.209
 6828.00    1.42002   1.42006    0.212
 6829.00    1.42656   1.42063    0.214
 6830.00    1.43466   1.42095    0.216
 6831.00    1.43725   1.42116    0.217
 6832.00    1.43850   1.42128    0.217
 6833.00    1.43733   1.42102    0.217
 6834.00    1.43568   1.42032    0.216
 6835.00    1.43828   1.41980    0.218
 6836.00    1.44154   1.41971    0.221
 6837.00    1.43542   1.41967    0.223
 6838.00    1.42824   1.41947    0.225
 6839.00    1.42715   1.41947    0.225
 6840.00    1.42650   1.41968    0.224
 6841.00    1.42792   1.41954    0.222
 6842.00    1.42942   1.41872    0.221
 6843.00    1.41828   1.41739    0.216
 6844.00    1.40722   1.41577    0.211
 6845.00    1.40348   1.41376    0.207
 6846.00    1.40064   1.41162    0.204
 6847.00    1.41303   1.40972    0.208
 6848.00    1.42432   1.40843    0.211
 6849.00    1.42421   1.40802    0.212
 6850.00    1.42507   1.40859    0.212
 6851.00    1.43316   1.40991    0.213
 6852.00    1.43803   1.41165    0.214
 6853.00    1.42474   1.41369    0.213
 6854.00    1.41361   1.41573    0.213
 6855.00    1.41227   1.41738    0.215
 6856.00    1.41032   1.41839    0.216
 6857.00    1.40604   1.41872    0.217
 6858.00    1.39955   1.41858    0.218
 6859.00    1.38619   1.41808    0.218
 6860.00    1.37626   1.41678    0.218
 6861.00    1.37537   1.41509    0.215
 6862.00    1.37571   1.41385    0.213
 6863.00    1.37884   1.41276    0.213
 6864.00    1.37904   1.41150    0.213
 6865.00    1.37351   1.41093    0.212
 6866.00    1.36749   1.41102    0.212
 6867.00    1.36063   1.41099    0.214
 6868.00    1.36037   1.41129    0.215
 6869.00    1.36999   1.41228    0.215
 6870.00    1.37747   1.41310    0.215
 6871.00    1.38213   1.41350    0.214
 6872.00    1.38473   1.41397    0.213
 6873.00    1.38494   1.41419    0.212
 6874.00    1.38151   1.41386    0.212
 6875.00    1.37437   1.41363    0.212
 6876.00    1.37205   1.41361    0.213
 6877.00    1.37407   1.41328    0.214
 6878.00    1.37765   1.41294    0.215
 6879.00    1.38247   1.41329    0.215
 6880.00    1.38365   1.41389    0.216
 6881.00    1.38227   1.41415    0.216
 6882.00    1.38599   1.41455    0.216
 6883.00    1.39282   1.41535    0.215
 6884.00    1.38908   1.41582    0.214
 6885.00    1.37969   1.41571    0.212
 6886.00    1.37404   1.41554    0.212
 6887.00    1.37013   1.41515    0.212
 6888.00    1.36315   1.41410    0.211
 6889.00    1.35492   1.41302    0.209
 6890.00    1.34994   1.41242    0.210
 6891.00    1.34606   1.41170    0.211
 6892.00    1.34424   1.41078    0.212
 6893.00    1.34301   1.41057    0.213
 6894.00    1.34444   1.41070    0.213
 6895.00    1.34649   1.41050    0.213
 6896.00    1.36181   1.41054    0.214
 6897.00    1.37966   1.41107    0.216
 6898.00    1.37898   1.41156    0.216
 6899.00    1.37555   1.41220    0.216
 6900.00    1.37908   1.41335    0.216
 6901.00    1.38335   1.41451    0.217
 6902.00    1.38024   1.41568    0.217
 6903.00    1.37662   1.41732    0.216
 6904.00    1.36481   1.41903    0.215
 6905.00    1.35270   1.42036    0.214
 6906.00    1.36028   1.42168    0.213
 6907.00    1.36768   1.42322    0.212
 6908.00    1.36660   1.42453    0.213
 6909.00    1.36483   1.42543    0.214
 6910.00    1.35219   1.42629    0.213
 6911.00    1.34157   1.42719    0.212
 6912.00    1.35118   1.42788    0.213
 6913.00    1.35908   1.42831    0.214
 6914.00    1.35467   1.42857    0.214
 6915.00    1.35273   1.42866    0.214
 6916.00    1.36442   1.42842    0.215
 6917.00    1.37412   1.42774    0.215
 6918.00    1.37498   1.42689    0.214
 6919.00    1.37403   1.42581    0.213
 6920.00    1.36649   1.42457    0.214
 6921.00    1.36204   1.42372    0.214
 6922.00    1.36697   1.42329    0.214
 6923.00    1.36954   1.42295    0.214
 6924.00    1.36598   1.42324    0.215
 6925.00    1.36159   1.42411    0.215
 6926.00    1.35533   1.42480    0.215
 6927.00    1.35096   1.42531    0.215
 6928.00    1.35026   1.42579    0.215
 6929.00    1.35314   1.42586    0.216
 6930.00    1.36202   1.42527    0.217
 6931.00    1.36683   1.42450    0.218
 6932.00    1.36564   1.42393    0.219
 6933.00    1.36545   1.42353    0.219
 6934.00    1.36658   1.42325    0.219
 6935.00    1.36217   1.42325    0.218
 6936.00    1.35145   1.42372    0.218
 6937.00    1.34705   1.42434    0.218
 6938.00    1.34901   1.42473    0.219
 6939.00    1.34976   1.42498    0.219
 6940.00    1.34941   1.42557    0.220
 6941.00    1.34694   1.42623    0.218
 6942.00    1.34280   1.42659    0.215
 6943.00    1.34072   1.42706    0.214
 6944.00    1.34005   1.42778    0.215
 6945.00    1.34272   1.42833    0.215
 6946.00    1.34739   1.42847    0.215
 6947.00    1.35771   1.42834    0.215
 6948.00    1.37100   1.42796    0.217
 6949.00    1.37099   1.42728    0.217
 6950.00    1.36491   1.42626    0.218
 6951.00    1.36319   1.42516    0.218
 6952.00    1.36319   1.42448    0.219
 6953.00    1.36052   1.42401    0.220
 6954.00    1.35695   1.42361    0.222
 6955.00    1.34928   1.42372    0.221
 6956.00    1.34046   1.42400    0.219
 6957.00    1.34239   1.42394    0.219
 6958.00    1.34680   1.42407    0.220
 6959.00    1.34807   1.42438    0.219
 6960.00    1.34877   1.42444    0.217
 6961.00    1.33629   1.42480    0.217
 6962.00    1.32192   1.42570    0.216
 6963.00    1.33121   1.42666    0.216
 6964.00    1.34295   1.42764    0.216
 6965.00    1.33761   1.42890    0.216
 6966.00    1.33112   1.43015    0.216
 6967.00    1.34709   1.43114    0.218
 6968.00    1.36376   1.43192    0.220
 6969.00    1.35676   1.43267    0.221
 6970.00    1.35009   1.43335    0.223
 6971.00    1.35335   1.43375    0.224
 6972.00    1.35580   1.43402    0.225
 6973.00    1.34622   1.43448    0.223
 6974.00    1.33631   1.43486    0.222
 6975.00    1.32313   1.43495    0.223
 6976.00    1.31247   1.43488    0.224
 6977.00    1.31933   1.43457    0.223
 6978.00    1.32597   1.43391    0.222
 6979.00    1.33144   1.43273    0.221
 6980.00    1.33732   1.43066    0.220
 6981.00    1.34496   1.42813    0.220
 6982.00    1.34793   1.42576    0.221
 6983.00    1.33434   1.42307    0.219
 6984.00    1.32545   1.42018    0.218
 6985.00    1.33058   1.41851    0.219
 6986.00    1.33767   1.41843    0.219
 6987.00    1.34972   1.41900    0.218
 6988.00    1.35386   1.42049    0.218
 6989.00    1.34066   1.42352    0.219
 6990.00    1.33251   1.42682    0.220
 6991.00    1.33391   1.42947    0.222
 6992.00    1.33399   1.43187    0.223
 6993.00    1.33186   1.43389    0.226
 6994.00    1.32921   1.43500    0.227
 6995.00    1.32577   1.43551    0.226
 6996.00    1.32701   1.43593    0.226
 6997.00    1.33423   1.43624    0.226
 6998.00    1.33097   1.43637    0.226
 6999.00    1.31592   1.43651    0.225
 7000.00    1.30735   1.43670    0.224
 7001.00    1.30522   1.43672    0.223
 7002.00    1.31235   1.43640    0.223
 7003.00    1.32759   1.43582    0.225
 7004.00    1.32960   1.43502    0.228
 7005.00    1.32141   1.43391    0.233
 7006.00    1.19803   1.43267    0.223
 7007.00    0.99660   1.43168    0.206
 7008.00    1.02969   1.43071    0.294
 7009.00    1.20204   1.42969    1.155
 7010.00    1.26876   1.42918   -1.000
 7011.00    1.28076   1.42917   -1.000
 7012.00    1.28282   1.42917   -1.000
 7013.00    1.28040   1.42919   -1.000
 7014.00    1.27862   1.42961   -1.000
 7015.00    1.27709   1.43030   -1.000
 7016.00    1.26950   1.43081   -1.000
 7017.00    1.25994   1.43099   -1.000
 7018.00    1.25775   1.43087   -1.000
 7019.00    1.25759   1.43052   -1.000
 7020.00    1.26343   1.42976   -1.000
 7021.00    1.27062   1.42857   -1.000
 7022.00    1.27980   1.42746   -1.000
 7023.00    1.28933   1.42714   -1.000
 7024.00    1.28299   1.42725   -1.000
 7025.00    1.27444   1.42720   -1.000
 7026.00    1.27206   1.42788   -1.000
 7027.00    1.27030   1.42949   -1.000
 7028.00    1.27471   1.43053   -1.000
 7029.00    1.27950   1.43075   -1.000
 7030.00    1.28914   1.43108   -1.000
 7031.00    1.29881   1.43150   -1.000
 7032.00    1.28204   1.43149   -1.000
 7033.00    1.26545   1.43158   -1.000
 7034.00    1.25358   1.43240   -1.000
 7035.00    1.24358   1.43353   -1.000
 7036.00    1.25980   1.43451   -1.000
 7037.00    1.27446   1.43541   -1.000
 7038.00    1.27483   1.43636   -1.000
 7039.00    1.27592   1.43706   -1.000
 7040.00    1.28181   1.43722   -1.000
 7041.00    1.28690   1.43732   -1.000
 7042.00    1.28777   1.43773   -1.000
 7043.00    1.28998   1.43791   -1.000
 7044.00    1.29783   1.43806   -1.000
 7045.00    1.30299   1.43940   -1.000
 7046.00    1.29884   1.44121   -1.000
 7047.00    1.29103   1.44258   -1.000
 7048.00    1.27250   1.44472   -1.000
 7049.00    1.26141   1.44763   -1.000
 7050.00    1.26889   1.44984   -2.000
 7051.00    1.27930   1.45142   -2.000
 7052.00    1.29598   1.45301   -2.000
 7053.00    1.31256   1.45399   -2.000
 7054.00    1.32896   1.45409   -2.000
 7055.00    1.34334   1.45379   -2.000
 7056.00    1.35444   1.45313   -2.000
 7057.00    1.37213   1.45161   -2.000
 7058.00    1.39924   1.44926   -2.000
 7059.00    1.41473   1.44665   -2.000
 7060.00    1.41560   1.44405   -2.000
 7061.00    1.42328   1.44127   -2.000
 7062.00    1.43851   1.43868   -2.000
 7063.00    1.45791   1.43696   -2.000
 7064.00    1.48138   1.43568   -2.000
 7065.00    1.46654   1.43442   -2.000
 7066.00    1.41864   1.43360   -2.000
 7067.00    1.38941   1.43314   -2.000
 7068.00    1.37435   1.43242   -2.000
 7069.00    1.37861   1.43160   -2.000
 7070.00    1.39575   1.43122   -2.000
 7071.00    1.41647   1.43079   -2.000
 7072.00    1.43926   1.43006   -2.000
 7073.00    1.46026   1.42959   -2.000
 7074.00    1.48034   1.42924   -2.000
 7075.00    1.47196   1.42916   -2.000
 7076.00    1.45101   1.42972   -2.000
 7077.00    1.42242   1.43059   -2.000
 7078.00    1.39093   1.43196   -2.000
 7079.00    1.40757   1.43407   -2.000
 7080.00    1.43970   1.43610   -2.000
 7081.00    1.44919   1.43768   -2.000
 7082.00    1.45258   1.43921   -2.000
 7083.00    1.45667   1.44049   -2.000
 7084.00    1.46090   1.44102   -2.000
 7085.00    1.42141   1.44095   -2.000
 7086.00    1.37423   1.44039   -2.000
 7087.00    1.38956   1.43914   -2.000
 7088.00    1.41327   1.43714   -2.000
 7089.00    1.40352   1.43440   -2.000
 7090.00    1.39059   1.43115   -2.000
 7091.00    1.37364   1.42782   -2.000
 7092.00    1.35646   1.42444   -2.000
 7093.00    1.35305   1.42107   -2.000
 7094.00    1.35008   1.41845   -2.000
 7095.00    1.35977   1.41662   -2.000
 7096.00    1.36810   1.41500   -2.000
 7097.00    1.34279   1.41394   -2.000
 7098.00    1.31786   1.41351   -2.000
 7099.00    1.29805   1.41324   -2.000
 7100.00    1.27714   1.41338   -2.000
 7101.00    1.24643   1.41413   -2.000
 7102.00    1.22309   1.41494   -2.000
 7103.00    1.24780   1.41611   -2.000
 7104.00    1.26923   1.41779   -2.000
 7105.00    1.27391   1.41953   -2.000
 7106.00    1.27521   1.42124   -2.000
 7107.00    1.26260   1.42300   -2.000
 7108.00    1.25515   1.42468   -2.000
 7109.00    1.26527   1.42582   -2.000
 7110.00    1.27156   1.42675   -2.000
 7111.00    1.26685   1.42744   -2.000
 7112.00    1.26319   1.42748   -2.000
 7113.00    1.26212   1.42727   -2.000
 7114.00    1.26314   1.42703   -2.000
 7115.00    1.26859   1.42638   -2.000
 7116.00    1.27753   1.42543   -2.000
 7117.00    1.29290   1.42477   -2.000
 7118.00    1.30878   1.42448   -2.000
 7119.00    1.32551   1.42419   -2.000
 7120.00    1.34991   1.42413   -2.000
 7121.00    1.38515   1.42463   -2.000
 7122.00    1.40628   1.42536   -2.000
 7123.00    1.40993   1.42594   -2.000
 7124.00    1.39783   1.42633   -2.000
 7125.00    1.36852   1.42675   -2.000
 7126.00    1.35429   1.42700   -2.000
 7127.00    1.35460   1.42673   -2.000
 7128.00    1.37396   1.42632   -2.000
 7129.00    1.40952   1.42610   -2.000
 7130.00    1.41493   1.42572   -2.000
 7131.00    1.39776   1.42494   -2.000
 7132.00    1.37362   1.42430   -2.000
 7133.00    1.34490   1.42381   -2.000
 7134.00    1.32030   1.42297   -2.000
 7135.00    1.29808   1.42203   -2.000
 7136.00    1.29598   1.42140   -2.000
 7137.00    1.30397   1.42122   -2.000
 7138.00    1.33627   1.42133   -2.000
 7139.00    1.37912   1.42187   -2.000
 7140.00    1.37413   1.42318   -2.000
 7141.00    1.35132   1.42490   -2.000
 7142.00    1.33451   1.42673   -2.000
 7143.00    1.31960   1.42875   -2.000
 7144.00    1.31711   1.43039   -2.000
 7145.00    1.31789   1.43159   -2.000
 7146.00    1.30064   1.43280   -2.000
 7147.00    1.27951   1.43338   -2.000
 7148.00    1.28847   1.43329   -2.000
 7149.00    1.30259   1.43328   -2.000
 7150.00    1.28476   1.43291   -2.000
 7151.00    1.26280   1.43205   -2.000
 7152.00    1.28380   1.43124   -2.000
 7153.00    1.30870   1.43019   -2.000
 7154.00    1.30266   1.42918   -2.000
 7155.00    1.29492   1.42894   -2.000
 7156.00    1.30465   1.42884   -2.000
 7157.00    1.31446   1.42897   -2.000
 7158.00    1.29780   1.43040   -2.000
 7159.00    1.28314   1.43228   -2.000
 7160.00    1.31374   1.43363   -2.000
 7161.00    1.34376   1.43534   -2.000
 7162.00    1.36659   1.43733   -2.000
 7163.00    1.39025   1.43842   -2.000
 7164.00    1.42097   1.43883   -2.000
 7165.00    1.44299   1.43915   -2.000
 7166.00    1.40993   1.43889   -2.000
 7167.00    1.38245   1.43782   -2.000
 7168.00    1.38259   1.43665   -2.000
 7169.00    1.38037   1.43539   -2.000
 7170.00    1.36859   1.43391   -2.000
 7171.00    1.35030   1.43297   -2.000
 7172.00    1.31030   1.43268   -2.000
 7173.00    1.27872   1.43285   -2.000
 7174.00    1.27093   1.43398   -2.000
 7175.00    1.27947   1.43591   -2.000
 7176.00    1.32743   1.43806   -2.000
 7177.00    1.35702   1.44029   -2.000
 7178.00    1.34837   1.44234   -2.000
 7179.00    1.34019   1.44397   -2.000
 7180.00    1.33288   1.44510   -2.000
 7181.00    1.31430   1.44533   -2.000
 7182.00    1.27788   1.44483   -2.000
 7183.00    1.24745   1.44414   -2.000
 7184.00    1.22532   1.44301   -2.000
 7185.00    1.21933   1.44142   -2.000
 7186.00    1.23306   1.43997   -2.000
 7187.00    1.25080   1.43878   -2.000
 7188.00    1.27284   1.43769   -2.000
 7189.00    1.28008   1.43668   -2.000
 7190.00    1.27326   1.43595   -2.000
 7191.00    1.26637   1.43551   -2.000
 7192.00    1.25942   1.43480   -2.000
 7193.00    1.24536   1.43382   -2.000
 7194.00    1.22606   1.43305   -2.000
 7195.00    1.22975   1.43226   -2.000
 7196.00    1.24835   1.43152   -2.000
 7197.00    1.25383   1.43136   -2.000
 7198.00    1.25188   1.43149   -2.000
 7199.00    1.26002   1.43190   -2.000
 7200.00    1.27314   1.43309   -2.000
 7201.00    1.28939   1.43440   -2.000
 7202.00    1.30698   1.43546   -2.000
 7203.00    1.28906   1.43694   -2.000
 7204.00    1.25815   1.43851   -2.000
 7205.00    1.23646   1.43955   -2.000
 7206.00    1.21763   1.44054   -2.000
 7207.00    1.19682   1.44161   -2.000
 7208.00    1.17549   1.44220   -2.000
 7209.00    1.16512   1.44235   -2.000
 7210.00    1.15705   1.44239   -2.000
 7211.00    1.16622   1.44200   -2.000
 7212.00    1.17826   1.44108   -2.000
 7213.00    1.17394   1.44032   -2.000
 7214.00    1.16758   1.43973   -2.000
 7215.00    1.18478   1.43904   -2.000
 7216.00    1.20402   1.43904   -2.000
 7217.00    1.20368   1.43982   -2.000
 7218.00    1.20233   1.44063   -2.000
