###################################################################
## OUTPUT of StarlightChains_v04.for    [Cid@UFSC - 01/Apr/2007] ##
###################################################################

## Some input info
KUG0210-078._30_33.txt                   [arq_obs]
Base.CB07.vall.4m                        [arq_base]
Masks.EmLines.NEW.gm                     [arq_masks]
StCv04.C11.config                        [arq_config]
   66                                    [N_base]
    0                                    [N_YAV_components = # of components with extra extinction!]
    0                                    [i_FitPowerLaw (1/0 = Yes/No)]
-9.99                                    [alpha_PowerLaw]
CCM                                      [red_law_option]
 1.458241                                [q_norm = A(l_norm)/A(V)]

## (Re)Sampling Parameters
 3741.00                                 [l_ini (A)]
 7218.00                                 [l_fin (A)]
    1.00                                 [dl    (A)]     (OBS: dl_cushion =    50.00 A)

## Normalization info
 4020.00                                 [l_norm (A) - for base]
 4010.00                                 [llow_norm (A) - window for f_obs]
 4060.00                                 [lupp_norm (A) - window for f_obs]
1.257321E-16                             [fobs_norm (in input units)]

## S/N
 3691.00                                 [llow_SN (A) - window for S/N]
 7268.00                                 [lupp_SN (A) - window for S/N]
   9.063                                 [S/N in S/N window]
   8.611                                 [S/N in norm. window]
   0.270                                 [S/N_err in S/N window]
   0.257                                 [S/N_err in norm. window]
  1.0000                                 [fscale_chi2]

## etc...
    -2007434                             [idum_orig]
  2432                                   [NOl_eff]
  2062                                   [Nl_eff]
   370    NSIGMA                         [Ntot_cliped & clip_method]
 15066240                                [Nglobal_steps]
   7                                     [N_chains]
   9                                     [NEX0s_base = N_base in EX0s-fits]
 0   0   1      370   2.0   1.077E+05    [Clip-Bug, RC-Crash & Burn-In warning-flags, n_censored_weights, wei_nsig_threshold & wei_limit]
    64     63.096     62.352      0.743  [idt_all, wdt_TotTime, wdt_UsrTime & wdt_SysTime (sec)]

## Synthesis Results - Best model ##

 1.42306E-04                             [chi2/Nl_eff]
     3.75634                             [adev (%)]

    94.52894                             [sum-of-x (%)]
 8.16692E-16                             [Flux_tot (units of input spectrum!)]
 3.21795E-11                             [Mini_tot (???)]
 1.59468E-11                             [Mcor_tot (???)]

  29.65                                  [v0_min  (km/s)]
 196.37                                  [vd_min  (km/s)]
 1.4350                                  [AV_min  (mag)]
 0.0000                                  [YAV_min (mag)]

# j     x_j(%)      Mini_j(%)     Mcor_j(%)     age_j(yr)     Z_j      (L/M)_j    YAV?  Mstars   component_j        a/Fe...       SSP_chi2r SSP_adev(%)   SSP_AV   SSP_x(%)
  1     16.3150     4.0039E-02    8.0796E-02    1.000000E+06  0.00400  1.094E-02    0   1.0000   age020_m42            0.0000     6.5946E-04     8.5893   3.6245    76.5791
  2      0.0000     0.0000E+00    0.0000E+00    3.160000E+06  0.00400  4.007E-02    0   0.9999   age045_m42            0.0000     5.2652E-04     7.6029   2.9380    80.4165
  3      0.0000     0.0000E+00    0.0000E+00    5.010000E+06  0.00400  2.539E-02    0   0.9488   age055_m42            0.0000     5.6686E-04     7.9571   3.2372    79.1935
  4      0.0000     0.0000E+00    0.0000E+00    6.610000E+06  0.00400  2.620E-02    0   0.9220   age061_m42            0.0000     4.8831E-04     7.3386   2.8558    80.9211
  5      0.0000     0.0000E+00    0.0000E+00    1.000000E+07  0.00400  1.322E-02    0   0.8862   age070_m42            0.0000     3.2543E-04     5.9336   2.5063    85.3570
  6      0.0000     0.0000E+00    0.0000E+00    1.445000E+07  0.00400  7.883E-03    0   0.8571   age078_m42            0.0000     3.7417E-04     6.3685   2.8329    83.1661
  7      0.0000     0.0000E+00    0.0000E+00    2.512000E+07  0.00400  5.251E-03    0   0.8174   age090_m42            0.0000     2.9065E-04     5.5819   2.3688    86.1776
  8      0.0000     0.0000E+00    0.0000E+00    4.000000E+07  0.00400  3.649E-03    0   0.7851   age104_m42            0.0000     2.8556E-04     5.5384   2.1559    86.3269
  9      0.0000     0.0000E+00    0.0000E+00    5.500000E+07  0.00400  3.098E-03    0   0.7629   age110_m42            0.0000     3.3491E-04     6.0115   2.3451    84.8574
 10      0.0000     0.0000E+00    0.0000E+00    1.015200E+08  0.00400  2.228E-03    0   0.7207   age116_m42            0.0000     3.6242E-04     6.2672   2.3857    84.1908
 11      0.0000     0.0000E+00    0.0000E+00    2.861200E+08  0.00400  1.093E-03    0   0.6648   age125_m42            0.0000     2.7748E-04     5.3237   1.7887    87.7081
 12      0.0000     0.0000E+00    0.0000E+00    5.088000E+08  0.00400  6.597E-04    0   0.6365   age130_m42            0.0000     3.1563E-04     5.6915   1.8180    86.8576
 13      0.0000     0.0000E+00    0.0000E+00    1.434000E+09  0.00400  2.132E-04    0   0.5798   age139_m42            0.0000     2.8540E-04     5.4841   0.8838    87.2511
 14      0.0000     0.0000E+00    0.0000E+00    4.250000E+09  0.00400  5.895E-05    0   0.5377   age158_m42            0.0000     4.2156E-04     6.7658   0.4839    82.3479
 15      0.0000     0.0000E+00    0.0000E+00    7.500000E+09  0.00400  3.510E-05    0   0.5212   age171_m42            0.0000     4.6426E-04     7.0740   0.3150    81.0611
 16      0.0000     0.0000E+00    0.0000E+00    1.300000E+10  0.00400  2.005E-05    0   0.5034   age193_m42            0.0000     5.0970E-04     7.3791   0.1634    80.0888
 17      0.0000     0.0000E+00    0.0000E+00    1.800000E+10  0.00400  1.525E-05    0   0.4967   age213_m42            0.0000     5.0418E-04     7.3051   0.1350    79.9368
 18     26.6731     5.7845E-02    1.1673E-01    1.000000E+06  0.00800  1.238E-02    0   1.0000   age020_m52            0.0000     6.6021E-04     8.5983   3.6209    76.7264
 19      0.0000     0.0000E+00    0.0000E+00    3.160000E+06  0.00800  3.074E-02    0   0.9966   age045_m52            0.0000     6.5437E-04     8.5682   3.5528    77.1336
 20      0.0000     0.0000E+00    0.0000E+00    5.010000E+06  0.00800  2.668E-02    0   0.9443   age055_m52            0.0000     5.7131E-04     8.0032   3.3126    78.7442
 21      0.0000     0.0000E+00    0.0000E+00    6.610000E+06  0.00800  2.136E-02    0   0.9177   age061_m52            0.0000     3.3771E-04     6.1965   2.0148    86.0745
 22      0.0000     0.0000E+00    0.0000E+00    1.000000E+07  0.00800  1.215E-02    0   0.8827   age070_m52            0.0000     2.9591E-04     5.5522   2.6607    86.1076
 23      0.0000     0.0000E+00    0.0000E+00    1.445000E+07  0.00800  8.717E-03    0   0.8552   age078_m52            0.0000     3.5099E-04     6.1388   2.8005    84.2572
 24      0.0000     0.0000E+00    0.0000E+00    2.512000E+07  0.00800  5.592E-03    0   0.8162   age090_m52            0.0000     2.6453E-04     5.2293   2.4309    87.2263
 25      0.0000     0.0000E+00    0.0000E+00    4.000000E+07  0.00800  3.896E-03    0   0.7841   age104_m52            0.0000     2.7010E-04     5.2731   2.3643    87.0064
 26      0.0000     0.0000E+00    0.0000E+00    1.015200E+08  0.00800  2.148E-03    0   0.7226   age116_m52            0.0000     3.1804E-04     5.8037   2.3378    85.4573
 27      0.0000     0.0000E+00    0.0000E+00    2.861200E+08  0.00800  9.925E-04    0   0.6683   age125_m52            0.0000     2.9889E-04     5.5702   1.8824    87.6824
 28      0.0000     0.0000E+00    0.0000E+00    9.047900E+08  0.00800  3.141E-04    0   0.6138   age135_m52            0.0000     3.0554E-04     5.5119   1.1543    88.4003
 29      0.0000     0.0000E+00    0.0000E+00    1.434000E+09  0.00800  1.719E-04    0   0.5853   age139_m52            0.0000     3.2878E-04     5.8220   0.5671    86.8650
 30      0.0000     0.0000E+00    0.0000E+00    2.500000E+09  0.00800  7.872E-05    0   0.5600   age150_m52            0.0000     4.4967E-04     6.9015   0.3550    82.5129
 31      0.0000     0.0000E+00    0.0000E+00    4.250000E+09  0.00800  4.336E-05    0   0.5426   age158_m52            0.0000     4.6463E-04     7.0098   0.3432    81.6274
 32      0.0000     0.0000E+00    0.0000E+00    6.250000E+09  0.00800  3.159E-05    0   0.5319   age166_m52            0.0000     5.2797E-04     7.4236   0.1695    80.5716
 33      0.0000     0.0000E+00    0.0000E+00    1.300000E+10  0.00800  1.361E-05    0   0.5073   age193_m52            0.0000     6.2207E-04     7.9768  -0.2597    78.6733
 34      0.0000     0.0000E+00    0.0000E+00    1.800000E+10  0.00800  9.886E-06    0   0.4990   age213_m52            0.0000     6.9880E-04     8.3852  -0.3363    77.1752
 35     23.1337     4.0227E-02    8.1174E-02    1.000000E+06  0.02000  1.544E-02    0   1.0000   age020_m62            0.0000     6.6507E-04     8.6231   3.6172    76.9004
 36      0.0000     0.0000E+00    0.0000E+00    3.160000E+06  0.02000  3.762E-02    0   0.9858   age045_m62            0.0000     6.6464E-04     8.6430   3.5587    77.4799
 37      0.0000     0.0000E+00    0.0000E+00    5.010000E+06  0.02000  3.296E-02    0   0.9342   age055_m62            0.0000     5.6214E-04     7.9250   3.2107    79.6756
 38      0.0000     0.0000E+00    0.0000E+00    8.710000E+06  0.02000  1.154E-02    0   0.8861   age067_m62            0.0000     1.1213E-04     3.2940   1.9668    94.9208
 39      0.0000     0.0000E+00    0.0000E+00    1.445000E+07  0.02000  7.663E-03    0   0.8472   age078_m62            0.0000     2.1389E-04     4.6401   2.2638    89.8286
 40      0.0000     0.0000E+00    0.0000E+00    2.512000E+07  0.02000  4.532E-03    0   0.8099   age090_m62            0.0000     1.9671E-04     4.4691   2.2483    89.8839
 41      0.0000     0.0000E+00    0.0000E+00    5.500000E+07  0.02000  2.733E-03    0   0.7595   age110_m62            0.0000     2.7305E-04     5.3399   2.3414    86.6204
 42      0.0000     0.0000E+00    0.0000E+00    1.609000E+08  0.02000  1.369E-03    0   0.6985   age120_m62            0.0000     3.0201E-04     5.6715   2.2291    86.9711
 43      0.0000     0.0000E+00    0.0000E+00    2.861200E+08  0.02000  9.013E-04    0   0.6714   age125_m62            0.0000     3.0161E-04     5.6746   2.0089    88.2488
 44      0.0000     0.0000E+00    0.0000E+00    5.088000E+08  0.02000  5.028E-04    0   0.6449   age130_m62            0.0000     3.4861E-04     6.0815   1.6969    87.8660
 45      0.0000     0.0000E+00    0.0000E+00    9.047900E+08  0.02000  2.428E-04    0   0.6179   age135_m62            0.0000     3.6152E-04     6.2463   1.1391    86.2131
 46      0.0000     0.0000E+00    0.0000E+00    1.434000E+09  0.02000  1.263E-04    0   0.5908   age139_m62            0.0000     4.0036E-04     6.6136   0.7083    84.4622
 47      0.0000     0.0000E+00    0.0000E+00    2.500000E+09  0.02000  5.985E-05    0   0.5673   age150_m62            0.0000     5.1345E-04     7.4143   0.3807    81.8935
 48      0.0000     0.0000E+00    0.0000E+00    4.250000E+09  0.02000  3.271E-05    0   0.5468   age158_m62            0.0000     6.3397E-04     8.1033   0.1196    79.6195
 49      0.0000     0.0000E+00    0.0000E+00    1.000000E+10  0.02000  1.360E-05    0   0.5167   age181_m62            0.0000     7.5041E-04     8.5741  -0.1744    77.3726
 50      0.0000     0.0000E+00    0.0000E+00    1.800000E+10  0.02000  7.124E-06    0   0.5013   age213_m62            0.0000     8.5431E-04     8.9913  -0.3432    75.3292
 51     11.3260     1.1732E-02    2.3669E-02    1.000000E+06  0.05000  2.592E-02    0   0.9998   age020_m72            0.0000     6.7102E-04     8.6562   3.6031    77.1275
 52      0.0000     0.0000E+00    0.0000E+00    3.160000E+06  0.05000  4.845E-02    0   0.9577   age045_m72            0.0000     6.4020E-04     8.4832   3.4596    77.8788
 53      0.0000     0.0000E+00    0.0000E+00    5.010000E+06  0.05000  3.072E-02    0   0.9147   age055_m72            0.0000     3.5899E-04     6.1933   2.8772    85.0429
 54      0.0000     0.0000E+00    0.0000E+00    6.610000E+06  0.05000  1.455E-02    0   0.8877   age061_m72            0.0000     2.9843E-04     5.3942   1.9143    99.4739
 55      0.0000     0.0000E+00    0.0000E+00    1.000000E+07  0.05000  9.074E-03    0   0.8524   age070_m72            0.0000     4.5846E-04     7.3137   3.0261    85.5840
 56      0.0000     0.0000E+00    0.0000E+00    2.512000E+07  0.05000  4.250E-03    0   0.7902   age090_m72            0.0000     3.3184E-04     6.0431   2.7598    86.2522
 57      0.0000     0.0000E+00    0.0000E+00    4.000000E+07  0.05000  3.087E-03    0   0.7618   age104_m72            0.0000     2.9178E-04     5.6531   2.5278    87.9138
 58      0.0000     0.0000E+00    0.0000E+00    1.015200E+08  0.05000  1.700E-03    0   0.7096   age116_m72            0.0000     2.7683E-04     5.3078   2.3437    87.6582
 59      0.0000     0.0000E+00    0.0000E+00    2.861200E+08  0.05000  7.384E-04    0   0.6633   age125_m72            0.0000     3.1304E-04     5.7375   1.9143    87.9188
 60      0.0000     0.0000E+00    0.0000E+00    5.088000E+08  0.05000  3.819E-04    0   0.6372   age130_m72            0.0000     3.5852E-04     6.3135   1.4818    86.9814
 61      0.0000     0.0000E+00    0.0000E+00    9.047900E+08  0.05000  1.676E-04    0   0.6110   age135_m72            0.0000     4.9444E-04     7.4770   0.8491    83.0946
 62      0.0000     0.0000E+00    0.0000E+00    1.434000E+09  0.05000  8.837E-05    0   0.5874   age139_m72            0.0000     5.0570E-04     7.3481   0.3909    82.6540
 63      0.0000     0.0000E+00    0.0000E+00    2.500000E+09  0.05000  4.233E-05    0   0.5598   age150_m72            0.0000     6.6018E-04     8.2453   0.1367    79.6499
 64      0.0000     0.0000E+00    0.0000E+00    6.250000E+09  0.05000  1.435E-05    0   0.5249   age166_m72            0.0000     7.9261E-04     8.7730  -0.2559    76.5070
 65      0.8032     3.3109E+00    3.3646E+00    1.300000E+10  0.05000  6.513E-06    0   0.5036   age193_m72            0.0000     9.3786E-04     9.2944  -0.4863    75.4898
 66     16.2780     9.6539E+01    9.6333E+01    1.800000E+10  0.05000  4.527E-06    0   0.4945   age213_m72            0.0000     1.0278E-03     9.5906  -0.6142    74.1905


## Synthesis Results - Average & Chains ##

# j      x_j: min, <> & last-chain-values for 1 ...  7 chains
  1     16.3150     21.3484     19.0516      9.5693     22.6276     21.7816     44.1383     22.4159     21.8406
  2      0.0000      0.3850      0.0581      0.0141      0.0760      0.0307      0.0314      0.1141      0.0248
  3      0.0000      0.3803      0.0860      0.0667      0.0761      0.0459      0.0542      0.0679      0.2191
  4      0.0000      0.3338      0.1722      0.0181      0.0000      0.0000      0.0621      0.0000      0.0083
  5      0.0000      0.3975      0.0117      0.0000      0.0007      0.0000      0.0000      0.0104      0.0526
  6      0.0000      0.3446      0.1564      0.0000      0.0000      0.0000      0.0073      0.0067      0.2458
  7      0.0000      0.4526      0.0824      0.0159      0.0189      0.0867      0.0869      0.2629      0.3579
  8      0.0000      0.3093      0.0037      0.0020      0.0713      0.0000      0.0000      0.0296      0.0316
  9      0.0000      0.3209      0.0162      0.0000      0.0547      0.0287      0.0295      0.0929      0.1307
 10      0.0000      0.2827      0.1009      0.1301      0.0429      0.0546      0.0369      0.0574      0.0844
 11      0.0000      0.2957      0.0619      0.0664      0.0225      0.0039      0.0270      0.0356      0.0000
 12      0.0000      0.3567      0.0947      0.0000      0.0000      0.0092      0.0695      0.0612      0.1251
 13      0.0000      0.3870      0.0346      0.0164      0.0590      0.1499      0.0220      0.0589      0.1946
 14      0.0000      0.4403      0.0586      0.0000      0.0286      0.1302      0.0000      0.1322      0.2040
 15      0.0000      0.2677      0.0204      0.0229      0.0000      0.1430      0.0000      0.0318      0.0000
 16      0.0000      0.3599      0.3215      0.0777      0.0117      0.2138      0.0081      0.0143      0.0000
 17      0.0000      0.4078      0.0650      0.0000      0.0196      0.1010      0.0242      0.0892      0.0000
 18     26.6731     10.0396     12.5241     22.0887     13.0602     13.1317      0.6315     13.0746     12.4342
 19      0.0000      0.6812      0.3855      0.3547      0.5015      1.3004      0.1769      0.2698      0.4418
 20      0.0000      0.3355      0.0647      0.0409      0.0218      0.2490      0.0210      0.0000      0.0358
 21      0.0000      0.4144      0.0422      0.0000      0.0630      0.0000      0.0081      0.1480      0.0984
 22      0.0000      0.3767      0.0544      0.1816      0.0526      0.1097      0.0716      0.1220      0.0000
 23      0.0000      0.3713      0.0418      0.0528      0.0758      0.0186      0.0110      0.0754      0.0000
 24      0.0000      0.2716      0.0006      0.0422      0.0000      0.0562      0.0779      0.1318      0.0420
 25      0.0000      0.3479      0.0899      0.0814      0.0499      0.0000      0.0461      0.0242      0.0000
 26      0.0000      0.4069      0.0265      0.0000      0.0145      0.0000      0.0000      0.0166      0.1191
 27      0.0000      0.3597      0.2077      0.0808      0.0192      0.0111      0.0674      0.0646      0.0000
 28      0.0000      0.3446      0.0000      0.0000      0.1787      0.0193      0.0183      0.0536      0.0039
 29      0.0000      0.4027      0.0433      0.2135      0.0217      0.1129      0.0247      0.0351      0.0639
 30      0.0000      0.2983      0.1245      0.0381      0.0299      0.0773      0.0000      0.0504      0.0000
 31      0.0000      0.2798      0.0000      0.0064      0.0582      0.1588      0.0081      0.0000      0.0000
 32      0.0000      0.2857      0.0045      0.0223      0.0342      0.0227      0.0030      0.0044      0.0058
 33      0.0000      0.3297      0.0638      0.0200      0.0383      0.0029      0.0559      0.0059      0.0427
 34      0.0000      1.3474      1.8665      1.6366      1.7094      2.5322      0.1223      1.8097      1.6292
 35     23.1337     12.9457     22.2872     15.9138     16.1886     17.1016     12.5680     16.8177     14.3809
 36      0.0000      1.6821      1.2825      3.8880      1.2621      1.1957      0.0058      1.3676      2.3472
 37      0.0000      0.3125      0.0696      0.1152      0.0579      0.0536      0.0200      0.0000      0.1537
 38      0.0000      0.3031      0.0005      0.0427      0.0774      0.0952      0.0671      0.0497      0.0218
 39      0.0000      0.4010      0.0294      0.0228      0.0640      0.0597      0.0000      0.0774      0.0468
 40      0.0000      0.4248      0.0236      0.1130      0.1601      0.0000      0.0154      0.0597      0.0278
 41      0.0000      0.3096      0.0085      0.0000      0.0000      0.0138      0.0000      0.1259      0.0518
 42      0.0000      0.3242      0.0447      0.0569      0.0392      0.0154      0.0192      0.0530      0.0211
 43      0.0000      0.3896      0.0154      0.0000      0.0594      0.2836      0.0141      0.1845      0.0134
 44      0.0000      0.3563      0.0576      0.0000      0.0000      0.0000      0.0181      0.1245      0.0706
 45      0.0000      0.3664      0.0000      0.0000      0.1038      0.0000      0.0096      0.0379      0.0000
 46      0.0000      0.3811      0.0106      0.0814      0.0000      0.0433      0.0000      0.0293      0.0000
 47      0.0000      0.3427      0.1253      0.0725      0.0275      0.0454      0.0107      0.1160      0.0000
 48      0.0000      0.3472      0.0832      0.0722      0.0185      0.0000      0.0167      0.1155      0.0852
 49      0.0000      1.0631      0.6975      0.3479      0.6255      0.6444      2.5874      0.7428      0.5613
 50      0.0000      2.4878      5.1577      1.7124      2.4240      2.3094      2.2999      1.9623      2.6364
 51     11.3260     14.0769     17.0735     20.9139     18.7314     19.2153     16.7435     17.1950     19.9884
 52      0.0000      0.3613      0.0656      0.0000      0.0126      0.0660      0.0245      0.0958      0.0000
 53      0.0000      0.3319      0.1117      0.0003      0.0402      0.0971      0.0283      0.1022      0.1257
 54      0.0000      0.3244      0.0449      0.1253      0.1124      0.0417      0.0933      0.0000      0.0532
 55      0.0000      0.3441      0.0136      0.4218      0.1138      0.0738      0.0000      0.0598      0.0592
 56      0.0000      0.3323      0.0311      0.0779      0.2223      0.1729      0.0000      0.0174      0.0294
 57      0.0000      0.3622      0.0000      0.0440      0.0052      0.0059      0.0249      0.0731      0.1582
 58      0.0000      0.3824      0.0632      0.0000      0.0036      0.0000      0.2342      0.0469      0.0000
 59      0.0000      0.4219      0.0277      0.1678      0.0592      0.1413      0.0000      0.0460      0.2402
 60      0.0000      0.3979      0.1335      0.0000      0.0236      0.1590      0.0139      0.0000      0.1443
 61      0.0000      0.3610      0.0000      0.1442      0.0113      0.0000      0.0098      0.0534      0.0136
 62      0.0000      0.2690      0.0202      0.0885      0.0000      0.0000      0.0031      0.1354      0.0941
 63      0.0000      0.3048      0.0228      0.0159      0.0054      0.0889      0.0000      0.1298      0.1354
 64      0.0000      1.2610      1.3096      0.6581      1.6085      1.5221      1.3819      1.4735      1.4138
 65      0.8032      7.9286      8.8274     11.7056     10.8906      7.6662      9.7508     11.2504      8.4015
 66     16.2780      7.2697      7.6092      9.4786      9.1730      9.5208      8.8866      9.2869     11.4433

# j      m_j: min, <> & last-chain-values for 1 ...  7 chains
  1  8.0796E-02  1.0722E-01  8.4184E-02  3.9867E-02  9.4250E-02  9.8243E-02  1.9668E-01  9.2564E-02  8.8557E-02
  2  0.0000E+00  5.2788E-04  7.0125E-05  1.5989E-05  8.6441E-05  3.7775E-05  3.8168E-05  1.2868E-04  2.7461E-05
  3  0.0000E+00  7.8087E-04  1.5541E-04  1.1361E-04  1.2954E-04  8.4601E-05  9.8824E-05  1.1462E-04  3.6327E-04
  4  0.0000E+00  6.4532E-04  2.9301E-04  2.9087E-05  0.0000E+00  0.0000E+00  1.0647E-04  0.0000E+00  1.2927E-05
  5  0.0000E+00  1.4641E-03  3.8002E-05  0.0000E+00  2.2567E-06  0.0000E+00  0.0000E+00  3.1592E-05  1.5637E-04
  6  0.0000E+00  2.0589E-03  8.2224E-04  0.0000E+00  0.0000E+00  0.0000E+00  3.8744E-05  3.3077E-05  1.1853E-03
  7  0.0000E+00  3.8714E-03  6.2002E-04  1.1316E-04  1.3431E-04  6.6629E-04  6.5973E-04  1.8489E-03  2.4712E-03
  8  0.0000E+00  3.6568E-03  3.8298E-05  1.9388E-05  6.9903E-04  0.0000E+00  0.0000E+00  2.8763E-04  3.0191E-04
  9  0.0000E+00  4.3423E-03  1.9229E-04  0.0000E+00  6.1368E-04  3.4814E-04  3.5466E-04  1.0330E-03  1.4275E-03
 10  0.0000E+00  5.0238E-03  1.5779E-03  1.9180E-03  6.3188E-04  8.7198E-04  5.8212E-04  8.3915E-04  1.2109E-03
 11  0.0000E+00  9.8806E-03  1.8204E-03  1.8394E-03  6.2350E-04  1.1560E-04  8.0185E-04  9.7705E-04  0.0000E+00
 12  0.0000E+00  1.8910E-02  4.4168E-03  0.0000E+00  0.0000E+00  4.3599E-04  3.2703E-03  2.6695E-03  5.3526E-03
 13  0.0000E+00  5.7827E-02  4.5531E-03  2.0340E-03  7.3175E-03  2.0117E-02  2.9170E-03  7.2346E-03  2.3480E-02
 14  0.0000E+00  2.2067E-01  2.5842E-02  0.0000E+00  1.1899E-02  5.8606E-02  0.0000E+00  5.4479E-02  8.2537E-02
 15  0.0000E+00  2.1842E-01  1.4660E-02  1.5491E-02  0.0000E+00  1.0476E-01  0.0000E+00  2.1319E-02  0.0000E+00
 16  0.0000E+00  4.9642E-01  3.9024E-01  8.8957E-02  1.3443E-02  2.6490E-01  9.9221E-03  1.6174E-02  0.0000E+00
 17  0.0000E+00  7.2979E-01  1.0240E-01  0.0000E+00  2.9136E-02  1.6235E-01  3.8389E-02  1.3125E-01  0.0000E+00
 18  1.1673E-01  4.4556E-02  4.8903E-02  8.1320E-02  4.8071E-02  5.2339E-02  2.4868E-03  4.7710E-02  4.4552E-02
 19  0.0000E+00  1.2134E-03  6.0417E-04  5.2414E-04  7.4081E-04  2.0803E-03  2.7963E-04  3.9516E-04  6.3542E-04
 20  0.0000E+00  6.5242E-04  1.1071E-04  6.5898E-05  3.5118E-05  4.3479E-04  3.6217E-05  0.0000E+00  5.6135E-05
 21  0.0000E+00  9.7818E-04  8.7650E-05  0.0000E+00  1.2327E-04  0.0000E+00  1.6918E-05  2.8727E-04  1.8759E-04
 22  0.0000E+00  1.5036E-03  1.9109E-04  6.0119E-04  1.7404E-04  3.9331E-04  2.5374E-04  4.0034E-04  0.0000E+00
 23  0.0000E+00  2.0013E-03  1.9817E-04  2.3613E-04  3.3903E-04  9.0011E-05  5.2380E-05  3.3435E-04  0.0000E+00
 24  0.0000E+00  2.1783E-03  3.9644E-06  2.8052E-04  0.0000E+00  4.0445E-04  5.5423E-04  8.6898E-04  2.7199E-04
 25  0.0000E+00  3.8469E-03  8.7483E-04  7.4686E-04  4.5727E-04  0.0000E+00  4.5215E-04  2.1994E-04  0.0000E+00
 26  0.0000E+00  7.5213E-03  4.3154E-04  0.0000E+00  2.2162E-04  0.0000E+00  0.0000E+00  2.5282E-04  1.7778E-03
 27  0.0000E+00  1.3308E-02  6.7591E-03  2.4810E-03  5.9003E-04  3.6761E-04  2.2128E-03  1.9658E-03  0.0000E+00
 28  0.0000E+00  3.7003E-02  0.0000E+00  0.0000E+00  1.5911E-02  1.8577E-03  1.7431E-03  4.7304E-03  3.3389E-04
 29  0.0000E+00  7.5342E-02  7.1266E-03  3.3130E-02  3.3734E-03  1.8967E-02  4.0932E-03  5.3996E-03  9.6530E-03
 30  0.0000E+00  1.1660E-01  4.2799E-02  1.2351E-02  9.6939E-03  2.7148E-02  0.0000E+00  1.6186E-02  0.0000E+00
 31  0.0000E+00  1.9239E-01  0.0000E+00  3.6343E-03  3.3205E-02  9.8077E-02  4.9422E-03  0.0000E+00  0.0000E+00
 32  0.0000E+00  2.6430E-01  3.6816E-03  1.7097E-02  2.6253E-02  1.8893E-02  2.4301E-03  3.3739E-03  4.3677E-03
 33  0.0000E+00  6.7514E-01  1.1499E-01  3.4052E-02  6.5036E-02  5.2436E-03  1.0154E-01  9.9515E-03  7.0625E-02
 34  0.0000E+00  3.7366E+00  4.5542E+00  3.7651E+00  3.9317E+00  6.3067E+00  3.0103E-01  4.1265E+00  3.6479E+00
 35  8.1174E-02  4.6067E-02  6.9779E-02  4.6976E-02  4.7777E-02  5.4654E-02  3.9681E-02  4.9206E-02  4.1316E-02
 36  0.0000E+00  2.4218E-03  1.6245E-03  4.6435E-03  1.5071E-03  1.5461E-03  7.4351E-06  1.6190E-03  2.7284E-03
 37  0.0000E+00  4.8667E-04  9.5410E-05  1.4881E-04  7.4823E-05  7.4952E-05  2.7642E-05  0.0000E+00  1.9318E-04
 38  0.0000E+00  1.2787E-03  1.9161E-06  1.4958E-04  2.7073E-04  3.6076E-04  2.5115E-04  1.7253E-04  7.4229E-05
 39  0.0000E+00  2.4357E-03  1.5705E-04  1.1469E-04  3.2235E-04  3.2553E-04  0.0000E+00  3.8672E-04  2.2964E-04
 40  0.0000E+00  4.1714E-03  2.0412E-04  9.2077E-04  1.3037E-03  0.0000E+00  1.3382E-04  4.8191E-04  2.2010E-04
 41  0.0000E+00  4.7267E-03  1.1419E-04  0.0000E+00  0.0000E+00  1.8945E-04  0.0000E+00  1.5808E-03  6.3904E-04
 42  0.0000E+00  9.0877E-03  1.1029E-03  1.3225E-03  9.1240E-04  3.8736E-04  4.7704E-04  1.2217E-03  4.7759E-04
 43  0.0000E+00  1.5947E-02  5.5346E-04  0.0000E+00  2.0154E-03  1.0425E-02  5.1071E-04  6.2079E-03  4.4249E-04
 44  0.0000E+00  2.5107E-02  3.5737E-03  0.0000E+00  0.0000E+00  0.0000E+00  1.1328E-03  7.2118E-03  4.0179E-03
 45  0.0000E+00  5.1237E-02  0.0000E+00  0.0000E+00  1.2037E-02  0.0000E+00  1.1946E-03  4.3597E-03  0.0000E+00
 46  0.0000E+00  9.7952E-02  2.4030E-03  1.7361E-02  0.0000E+00  9.9967E-03  0.0000E+00  6.1998E-03  0.0000E+00
 47  0.0000E+00  1.7847E-01  5.7415E-02  3.1310E-02  1.1882E-02  2.1226E-02  4.9588E-03  4.9689E-02  0.0000E+00
 48  0.0000E+00  3.1889E-01  6.7273E-02  5.4973E-02  1.4091E-02  0.0000E+00  1.3633E-02  8.7221E-02  6.3158E-02
 49  0.0000E+00  2.2192E+00  1.2810E+00  6.0235E-01  1.0829E+00  1.2080E+00  4.7920E+00  1.2749E+00  9.4602E-01
 50  0.0000E+00  9.6183E+00  1.7545E+01  5.4918E+00  7.7727E+00  8.0188E+00  7.8895E+00  6.2379E+00  8.2292E+00
 51  2.3669E-02  2.9833E-02  3.1836E-02  3.6767E-02  3.2924E-02  3.6572E-02  3.1484E-02  2.9963E-02  3.4201E-02
 52  0.0000E+00  3.9234E-04  6.2636E-05  0.0000E+00  1.1335E-05  6.4325E-05  2.3637E-05  8.5521E-05  0.0000E+00
 53  0.0000E+00  5.4304E-04  1.6082E-04  3.6136E-07  5.4576E-05  1.4266E-04  4.1137E-05  1.3744E-04  1.6601E-04
 54  0.0000E+00  1.0873E-03  1.3251E-04  3.4846E-04  3.1242E-04  1.2552E-04  2.7749E-04  0.0000E+00  1.4405E-04
 55  0.0000E+00  1.7762E-03  6.1943E-05  1.8061E-03  4.8722E-04  3.4192E-04  0.0000E+00  2.5376E-04  2.4681E-04
 56  0.0000E+00  3.3946E-03  2.7987E-04  6.6053E-04  1.8832E-03  1.5867E-03  0.0000E+00  1.4621E-04  2.4207E-04
 57  0.0000E+00  4.9114E-03  0.0000E+00  4.9486E-04  5.8062E-05  7.2163E-05  3.0007E-04  8.1521E-04  1.7319E-03
 58  0.0000E+00  8.7701E-03  1.2755E-03  0.0000E+00  6.8711E-05  0.0000E+00  4.7649E-03  8.8367E-04  0.0000E+00
 59  0.0000E+00  2.0821E-02  1.2038E-03  6.8689E-03  2.4243E-03  6.2646E-03  0.0000E+00  1.8686E-03  9.5718E-03
 60  0.0000E+00  3.6480E-02  1.0765E-02  0.0000E+00  1.7971E-03  1.3089E-02  1.1274E-03  0.0000E+00  1.0678E-02
 61  0.0000E+00  7.2301E-02  0.0000E+00  2.3965E-02  1.8806E-03  0.0000E+00  1.7348E-03  8.7898E-03  2.1940E-03
 62  0.0000E+00  9.8231E-02  6.4767E-03  2.6820E-02  0.0000E+00  0.0000E+00  1.0059E-03  4.0643E-02  2.7752E-02
 63  0.0000E+00  2.2150E-01  1.4594E-02  9.5716E-03  3.2351E-03  5.8038E-02  0.0000E+00  7.7535E-02  7.9456E-02
 64  0.0000E+00  2.5343E+00  2.3156E+00  1.0971E+00  2.6811E+00  2.7472E+00  2.4642E+00  2.4349E+00  2.2939E+00
 65  3.3646E+00  3.3683E+01  3.2995E+01  4.1252E+01  3.8372E+01  2.9249E+01  3.6754E+01  3.9298E+01  2.8816E+01
 66  9.6333E+01  4.3630E+01  4.0180E+01  4.7189E+01  4.5659E+01  5.1317E+01  4.7321E+01  4.5828E+01  5.5447E+01

# AV, chi2 & Mass for <> & i_chain = 1 ...  7 solutions
AV       1.4350      0.9705      0.9740      0.9502      0.9292      1.0159      1.0171      0.9045      0.9207
chi2 1.4231E-04  2.4382E-04  2.2294E-04  2.1565E-04  2.2004E-04  2.1575E-04  2.1004E-04  2.2498E-04  2.2062E-04
Mass 1.5947E-11  8.4256E-12  9.6217E-12  9.8848E-12  9.6119E-12  9.9725E-12  1.0110E-11  9.3780E-12  9.7617E-12
  29.65                                  [v0_min (km/s) before EX0s...]
 196.37                                  [vd_min (km/s) before EX0s...]


## Synthetic spectrum (Best Model) ##l_obs f_obs f_syn wei
 3478    [Nl_obs]
 3741.00    0.83877   0.86694    0.000
 3742.00    0.86959   0.86969    0.000
 3743.00    0.87426   0.86655    0.000
 3744.00    0.87684   0.85826    0.000
 3745.00    0.87820   0.84603   -1.000
 3746.00    0.90222   0.83137   -1.000
 3747.00    0.93774   0.81609   -1.000
 3748.00    0.95147   0.80244   -1.000
 3749.00    0.95562   0.79294   -1.000
 3750.00    0.97932   0.78969   -1.000
 3751.00    1.01041   0.79356   -1.000
 3752.00    1.00343   0.80359   -1.000
 3753.00    0.98426   0.81729   -1.000
 3754.00    0.97114   0.83156   -1.000
 3755.00    0.95964   0.84377   -1.000
 3756.00    0.95285   0.85252   -1.000
 3757.00    0.94710   0.85780   -1.000
 3758.00    0.92772   0.86072   -1.000
 3759.00    0.90596   0.86270   -1.000
 3760.00    0.90554   0.86474   -1.000
 3761.00    0.90795   0.86687   -1.000
 3762.00    0.92014   0.86821   -1.000
 3763.00    0.93325   0.86743   -1.000
 3764.00    0.91319   0.86340   -1.000
 3765.00    0.89122   0.85556   -1.000
 3766.00    0.86228   0.84417   -1.000
 3767.00    0.83331   0.83032   -1.000
 3768.00    0.82062   0.81592   -1.000
 3769.00    0.80782   0.80350   -1.000
 3770.00    0.79228   0.79572   -1.000
 3771.00    0.77658   0.79459   -1.000
 3772.00    0.75878   0.80081   -1.000
 3773.00    0.74189   0.81345   -1.000
 3774.00    0.73308   0.83040   -1.000
 3775.00    0.72629   0.84913   -1.000
 3776.00    0.73257   0.86750   -1.000
 3777.00    0.74350   0.88412   -1.000
 3778.00    0.77798   0.89832   -1.000
 3779.00    0.81212   0.90992   -1.000
 3780.00    0.84481   0.91892   -1.000
 3781.00    0.87500   0.92532   -1.000
 3782.00    0.89669   0.92902   -1.000
 3783.00    0.92156   0.92991   -1.000
 3784.00    0.95555   0.92794   -1.000
 3785.00    0.98450   0.92330   -1.000
 3786.00    1.00112   0.91644   -1.000
 3787.00    1.01240   0.90803   -1.000
 3788.00    1.01244   0.89868   -1.000
 3789.00    1.00752   0.88866   -1.000
 3790.00    0.99352   0.87778   -1.000
 3791.00    0.97690   0.86535   -1.000
 3792.00    0.95610   0.85045   -1.000
 3793.00    0.94453   0.83239   -1.000
 3794.00    0.94593   0.81126   -1.000
 3795.00    0.93773   0.78852   -1.000
 3796.00    0.91765   0.76712   -1.000
 3797.00    0.90470   0.75101   -1.000
 3798.00    0.89951   0.74391   -1.000
 3799.00    0.91540   0.74790   -1.000
 3800.00    0.95156   0.76244   -1.000
 3801.00    0.98411   0.78449   -1.000
 3802.00    1.01358   0.80973   -1.000
 3803.00    1.01788   0.83400   -1.000
 3804.00    1.00338   0.85458   -1.000
 3805.00    1.00561   0.87046   -1.000
 3806.00    1.01880   0.88211   -1.000
 3807.00    1.02284   0.89068   -1.000
 3808.00    1.02164   0.89719   -1.000
 3809.00    0.99850   0.90213   -1.000
 3810.00    0.96441   0.90537   -1.000
 3811.00    0.94279   0.90653   -1.000
 3812.00    0.92655   0.90536   -1.000
 3813.00    0.91154   0.90190   -1.000
 3814.00    0.89699   0.89645   -1.000
 3815.00    0.88932   0.88935   -1.000
 3816.00    0.88383   0.88093   -1.000
 3817.00    0.90279   0.87171   -1.000
 3818.00    0.92815   0.86271   -1.000
 3819.00    0.92703   0.85541   -1.000
 3820.00    0.92023   0.85119   -1.000
 3821.00    0.87708   0.85059   -1.000
 3822.00    0.82777   0.85279   -1.000
 3823.00    0.78853   0.85596   -1.000
 3824.00    0.75060   0.85811   -1.000
 3825.00    0.72527   0.85788   -1.000
 3826.00    0.70108   0.85470   -1.000
 3827.00    0.71653   0.84844   -1.000
 3828.00    0.73411   0.83889   -1.000
 3829.00    0.75279   0.82559   -1.000
 3830.00    0.77140   0.80803   -1.000
 3831.00    0.78326   0.78623   -1.000
 3832.00    0.79580   0.76142   -1.000
 3833.00    0.82367   0.73634   -1.000
 3834.00    0.84950   0.71498   -1.000
 3835.00    0.84998   0.70144   -1.000
 3836.00    0.84999   0.69856   -1.000
 3837.00    0.84610   0.70691   -1.000
 3838.00    0.84459   0.72462   -1.000
 3839.00    0.85807   0.74830   -1.000
 3840.00    0.86822   0.77426   -1.000
 3841.00    0.86191   0.79949   -1.000
 3842.00    0.86052   0.82204   -1.000
 3843.00    0.87884   0.84091   -1.000
 3844.00    0.89768   0.85583   -1.000
 3845.00    0.91825   0.86699   -1.000
 3846.00    0.93535   0.87487   -1.000
 3847.00    0.94269   0.88011    0.000
 3848.00    0.94692   0.88339    0.000
 3849.00    0.94369   0.88537    0.000
 3850.00    0.94145   0.88653    0.000
 3851.00    0.94127   0.88714    0.000
 3852.00    0.93571   0.88719    0.000
 3853.00    0.92046   0.88654    0.000
 3854.00    0.91201   0.88504    0.000
 3855.00    0.91429   0.88279    0.000
 3856.00    0.91345   0.88013    0.000
 3857.00    0.90828   0.87761    0.000
 3858.00    0.89399   0.87578    0.000
 3859.00    0.86859   0.87507    0.000
 3860.00    0.85431   0.87563    0.000
 3861.00    0.85195   0.87726    0.000
 3862.00    0.83637   0.87941    0.000
 3863.00    0.80825   0.88133    0.000
 3864.00    0.75681   0.88239    0.000
 3865.00    0.68588   0.88228    0.000
 3866.00    0.63297   0.88111    0.000
 3867.00    0.59332   0.87920    0.000
 3868.00    0.54420   0.87694    0.000
 3869.00    0.48898   0.87464    0.000
 3870.00    0.46263   0.87259    0.000
 3871.00    0.45259   0.87105    0.000
 3872.00    0.48839   0.87025    0.000
 3873.00    0.54674   0.87012    0.000
 3874.00    0.61555   0.87024    0.000
 3875.00    0.68881   0.86987    0.000
 3876.00    0.73994   0.86833    0.000
 3877.00    0.78301   0.86525    0.000
 3878.00    0.81641   0.86064    0.000
 3879.00    0.84684   0.85462    0.000
 3880.00    0.85844   0.84715    0.000
 3881.00    0.86522   0.83783   -1.000
 3882.00    0.86919   0.82586   -1.000
 3883.00    0.87257   0.81030   -1.000
 3884.00    0.89727   0.79050   -1.000
 3885.00    0.92549   0.76683   -1.000
 3886.00    0.90604   0.74129   -1.000
 3887.00    0.88068   0.71764   -1.000
 3888.00    0.89834   0.70060   -1.000
 3889.00    0.91969   0.69433   -1.000
 3890.00    0.92804   0.70070   -1.000
 3891.00    0.93575   0.71853   -1.000
 3892.00    0.93315   0.74401   -1.000
 3893.00    0.93013   0.77226   -1.000
 3894.00    0.91138   0.79906   -1.000
 3895.00    0.89329   0.82185   -1.000
 3896.00    0.88886   0.83985   -1.000
 3897.00    0.88154   0.85349   -1.000
 3898.00    0.83999   0.86369   -1.000
 3899.00    0.79814   0.87141   -1.000
 3900.00    0.75390   0.87738   -1.000
 3901.00    0.70953   0.88205   -1.000
 3902.00    0.66439   0.88566   -1.000
 3903.00    0.62020   0.88845   -1.000
 3904.00    0.58059   0.89078   -1.000
 3905.00    0.55060   0.89315   -1.000
 3906.00    0.55830   0.89607   -1.000
 3907.00    0.57691   0.89974   -1.000
 3908.00    0.63104   0.90401   -1.000
 3909.00    0.68832   0.90840   -1.000
 3910.00    0.75432   0.91233   -1.000
 3911.00    0.81174   0.91534   -1.000
 3912.00    0.84894   0.91716   -1.000
 3913.00    0.87957   0.91765   -1.000
 3914.00    0.89680   0.91667   -1.000
 3915.00    0.91372   0.91401   -1.000
 3916.00    0.93005   0.90953   -1.000
 3917.00    0.94322   0.90325   -1.000
 3918.00    0.95147   0.89550   -1.000
 3919.00    0.96678   0.88693   -1.000
 3920.00    0.99173   0.87844   -1.000
 3921.00    1.01278   0.87088   -1.000
 3922.00    1.02914   0.86484   -1.000
 3923.00    1.01520   0.86045   -1.000
 3924.00    0.96916   0.85741   -1.000
 3925.00    0.93711   0.85523   -1.000
 3926.00    0.91813   0.85340   -1.000
 3927.00    0.91851   0.85160   -1.000
 3928.00    0.93485   0.84963   -1.000
 3929.00    0.92088   0.84744   -1.000
 3930.00    0.88493   0.84503   -1.000
 3931.00    0.84516   0.84255   -1.000
 3932.00    0.80293   0.84032   -1.000
 3933.00    0.79707   0.83887   -1.000
 3934.00    0.81144   0.83879   -1.000
 3935.00    0.85057   0.84053   -1.000
 3936.00    0.90167   0.84418   -1.000
 3937.00    0.92313   0.84932   -1.000
 3938.00    0.93219   0.85517   -1.000
 3939.00    0.92490   0.86079   -1.000
 3940.00    0.91176   0.86542   -1.000
 3941.00    0.91184   0.86874   -1.000
 3942.00    0.91592   0.87096   -1.000
 3943.00    0.90447   0.87268   -1.000
 3944.00    0.88911   0.87463   -1.000
 3945.00    0.91360   0.87730   -1.000
 3946.00    0.94620   0.88081   -1.000
 3947.00    0.97166   0.88489   -1.000
 3948.00    0.99597   0.88910   -1.000
 3949.00    1.02448   0.89295   -1.000
 3950.00    1.05349   0.89601   -1.000
 3951.00    1.03240   0.89799   -1.000
 3952.00    1.00722   0.89870   -1.000
 3953.00    1.00117   0.89810   -1.000
 3954.00    0.99600   0.89618   -1.000
 3955.00    1.01323   0.89292   -1.000
 3956.00    1.03040   0.88818   -1.000
 3957.00    1.02926   0.88164   -1.000
 3958.00    1.02715   0.87292   -1.000
 3959.00    1.00659   0.86166   -1.000
 3960.00    0.98603   0.84778    0.000
 3961.00    0.96551   0.83148    0.000
 3962.00    0.94304   0.81306    0.000
 3963.00    0.90537   0.79262    0.000
 3964.00    0.86874   0.76995    0.000
 3965.00    0.83835   0.74476    0.000
 3966.00    0.81628   0.71735    0.000
 3967.00    0.83324   0.68930    0.000
 3968.00    0.84773   0.66380    0.000
 3969.00    0.85280   0.64513    0.000
 3970.00    0.85884   0.63734    0.000
 3971.00    0.86798   0.64273    0.000
 3972.00    0.88752   0.66091    0.000
 3973.00    0.93524   0.68889    0.000
 3974.00    0.97077   0.72221    0.000
 3975.00    0.97804   0.75645    0.000
 3976.00    0.97031   0.78831    0.000
 3977.00    0.93245   0.81591    0.000
 3978.00    0.91793   0.83863    0.000
 3979.00    0.94425   0.85659    0.000
 3980.00    0.96586   0.87030    0.000
 3981.00    0.98026   0.88052   -1.000
 3982.00    0.99658   0.88816   -1.000
 3983.00    1.01548   0.89421   -1.000
 3984.00    1.01705   0.89949   -1.000
 3985.00    0.99813   0.90447   -1.000
 3986.00    0.99151   0.90924   -1.000
 3987.00    0.99776   0.91358   -1.000
 3988.00    1.01927   0.91723   -1.000
 3989.00    1.05484   0.92005   -1.000
 3990.00    1.07336   0.92207   -1.000
 3991.00    1.07802   0.92338   -1.000
 3992.00    1.07226   0.92405   -1.000
 3993.00    1.05904   0.92409   -1.000
 3994.00    1.03672   0.92360   -1.000
 3995.00    1.00870   0.92287   -1.000
 3996.00    0.99723   0.92245   -1.000
 3997.00    0.99483   0.92290   -1.000
 3998.00    0.98862   0.92453   -1.000
 3999.00    0.98059   0.92710   -1.000
 4000.00    1.00164   0.92984   -1.000
 4001.00    1.03463   0.93169   -1.000
 4002.00    1.04106   0.93175   -1.000
 4003.00    1.03815   0.92973   -1.000
 4004.00    1.03407   0.92612   -1.000
 4005.00    1.02963   0.92202   -1.000
 4006.00    1.01872   0.91867   -1.000
 4007.00    1.00622   0.91702   -1.000
 4008.00    1.02483   0.91738   -1.000
 4009.00    1.04962   0.91954   -1.000
 4010.00    1.04561   0.92295   -1.000
 4011.00    1.03713   0.92699   -1.000
 4012.00    1.03084   0.93113   -1.000
 4013.00    1.02480   0.93493   -1.000
 4014.00    1.03900   0.93805   -1.000
 4015.00    1.05477   0.94025   -1.000
 4016.00    1.04411   0.94138   -1.000
 4017.00    1.03234   0.94134   -1.000
 4018.00    1.03894   0.93992   -1.000
 4019.00    1.04585   0.93674   -1.000
 4020.00    1.05848   0.93125   -1.000
 4021.00    1.07026   0.92299   -1.000
 4022.00    1.06687   0.91201   -1.000
 4023.00    1.06295   0.89929   -1.000
 4024.00    1.05333   0.88678   -1.000
 4025.00    1.04188   0.87689   -1.000
 4026.00    1.01661   0.87151   -1.000
 4027.00    0.99504   0.87111   -1.000
 4028.00    0.99478   0.87452   -1.000
 4029.00    0.99229   0.87958   -1.000
 4030.00    0.97952   0.88432   -1.000
 4031.00    0.96281   0.88789   -1.000
 4032.00    0.93124   0.89081   -1.000
 4033.00    0.89588   0.89440   -1.000
 4034.00    0.84862   0.89983   -1.000
 4035.00    0.81681   0.90743   -1.000
 4036.00    0.82609   0.91639   -1.000
 4037.00    0.84070   0.92521   -1.000
 4038.00    0.86747   0.93220   -1.000
 4039.00    0.90231   0.93611   -1.000
 4040.00    0.95307   0.93635   -1.000
 4041.00    0.98261   0.93300   -1.000
 4042.00    0.97556   0.92673   -1.000
 4043.00    0.96798   0.91873   -1.000
 4044.00    0.95958   0.91072   -1.000
 4045.00    0.96477   0.90464   -1.000
 4046.00    0.98799   0.90214   -1.000
 4047.00    1.01225   0.90389   -1.000
 4048.00    1.03775   0.90929   -1.000
 4049.00    1.04480   0.91665   -1.000
 4050.00    1.03287   0.92382   -1.000
 4051.00    1.01572   0.92898   -1.000
 4052.00    0.99384   0.93120   -1.000
 4053.00    0.98437   0.93052   -1.000
 4054.00    0.98482   0.92772   -1.000
 4055.00    1.00000   0.92390   -1.000
 4056.00    1.02555   0.92002   -1.000
 4057.00    1.02321   0.91665   -1.000
 4058.00    1.00365   0.91382   -1.000
 4059.00    0.98856   0.91115   -1.000
 4060.00    0.97590   0.90809   -1.000
 4061.00    0.97235   0.90434   -1.000
 4062.00    0.97308   0.90006   -1.000
 4063.00    0.95368   0.89584   -1.000
 4064.00    0.92615   0.89230   -1.000
 4065.00    0.92737   0.88976   -1.000
 4066.00    0.93852   0.88803   -1.000
 4067.00    0.94861   0.88668   -1.000
 4068.00    0.95840   0.88536   -1.000
 4069.00    0.95933   0.88408   -1.000
 4070.00    0.95812   0.88324   -1.000
 4071.00    0.94825   0.88330   -1.000
 4072.00    0.93670   0.88437   -1.000
 4073.00    0.94730   0.88612   -1.000
 4074.00    0.96123   0.88795   -1.000
 4075.00    0.98654   0.88954   -1.000
 4076.00    1.01312   0.89111   -1.000
 4077.00    0.97676   0.89332   -1.000
 4078.00    0.93580   0.89684   -1.000
 4079.00    0.95718   0.90177   -1.000
 4080.00    0.98095   0.90745   -1.000
 4081.00    1.00727   0.91275   -1.000
 4082.00    1.03219   0.91666   -1.000
 4083.00    1.00379   0.91876   -1.000
 4084.00    0.97665   0.91935   -1.000
 4085.00    0.97024   0.91910   -1.000
 4086.00    0.96453   0.91859   -1.000
 4087.00    0.96608   0.91805   -1.000
 4088.00    0.96738   0.91727   -1.000
 4089.00    0.96681   0.91578   -1.000
 4090.00    0.96809   0.91294   -1.000
 4091.00    0.97976   0.90807   -1.000
 4092.00    0.99405   0.90049    0.000
 4093.00    1.02009   0.88952    0.000
 4094.00    1.03602   0.87459    0.000
 4095.00    1.01482   0.85539    0.000
 4096.00    0.98852   0.83199    0.000
 4097.00    0.94653   0.80514    0.000
 4098.00    0.91936   0.77639    0.000
 4099.00    0.93094   0.74832    0.000
 4100.00    0.92917   0.72446    0.000
 4101.00    0.89743   0.70872    0.000
 4102.00    0.88647   0.70419    0.000
 4103.00    0.91598   0.71203    0.000
 4104.00    0.93030   0.73077    0.000
 4105.00    0.91885   0.75678    0.000
 4106.00    0.91024   0.78535    0.000
 4107.00    0.90586   0.81218    0.000
 4108.00    0.91331   0.83455    0.000
 4109.00    0.93621   0.85158    0.000
 4110.00    0.95034   0.86385    0.000
 4111.00    0.95437   0.87265    0.000
 4112.00    0.94838   0.87925    0.000
 4113.00    0.93224   0.88439   -1.000
 4114.00    0.93369   0.88831   -1.000
 4115.00    0.95089   0.89092   -1.000
 4116.00    0.95290   0.89211   -1.000
 4117.00    0.94292   0.89199   -1.000
 4118.00    0.92239   0.89102   -1.000
 4119.00    0.89453   0.88994   -1.000
 4120.00    0.90652   0.88959   -1.000
 4121.00    0.94276   0.89058   -1.000
 4122.00    0.93384   0.89305   -1.000
 4123.00    0.90094   0.89659   -1.000
 4124.00    0.89798   0.90035   -1.000
 4125.00    0.90883   0.90333   -1.000
 4126.00    0.91357   0.90468   -1.000
 4127.00    0.91588   0.90399   -1.000
 4128.00    0.90751   0.90140   -1.000
 4129.00    0.89554   0.89744   -1.000
 4130.00    0.92283   0.89302   -1.000
 4131.00    0.96129   0.88915   -1.000
 4132.00    0.93521   0.88678   -1.000
 4133.00    0.89397   0.88656   -1.000
 4134.00    0.90064   0.88860   -1.000
 4135.00    0.91635   0.89237   -1.000
 4136.00    0.90443   0.89681   -1.000
 4137.00    0.88848   0.90048   -1.000
 4138.00    0.87750   0.90193   -1.000
 4139.00    0.86704   0.90017   -1.000
 4140.00    0.89908   0.89506   -1.000
 4141.00    0.93405   0.88741   -1.000
 4142.00    0.89811   0.87890   -1.000
 4143.00    0.85973   0.87163   -1.000
 4144.00    0.90177   0.86735   -1.000
 4145.00    0.94192   0.86677   -1.000
 4146.00    0.91440   0.86938   -1.000
 4147.00    0.88748   0.87371   -1.000
 4148.00    0.86991   0.87806   -1.000
 4149.00    0.85525   0.88117   -1.000
 4150.00    0.86945   0.88257   -1.000
 4151.00    0.88075   0.88256   -1.000
 4152.00    0.87143   0.88179   -1.000
 4153.00    0.86735   0.88103   -1.000
 4154.00    0.89179   0.88090   -1.000
 4155.00    0.90701   0.88184   -1.000
 4156.00    0.88186   0.88403   -1.000
 4157.00    0.85909   0.88744   -1.000
 4158.00    0.84490   0.89177   -1.000
 4159.00    0.84325   0.89648   -1.000
 4160.00    0.87947   0.90089   -1.000
 4161.00    0.90248   0.90431   -1.000
 4162.00    0.89153   0.90623   -1.000
 4163.00    0.88763   0.90642   -1.000
 4164.00    0.89928   0.90502   -1.000
 4165.00    0.90453   0.90251   -1.000
 4166.00    0.89752   0.89948   -1.000
 4167.00    0.88389   0.89641   -1.000
 4168.00    0.85924   0.89353   -1.000
 4169.00    0.83433   0.89082   -1.000
 4170.00    0.80906   0.88812   -1.000
 4171.00    0.80324   0.88530   -1.000
 4172.00    0.82246   0.88247   -1.000
 4173.00    0.84721   0.87993   -1.000
 4174.00    0.87822   0.87809   -1.000
 4175.00    0.88138   0.87728   -1.000
 4176.00    0.85666   0.87750   -1.000
 4177.00    0.85041   0.87852   -1.000
 4178.00    0.86048   0.88002   -1.000
 4179.00    0.85392   0.88178   -1.000
 4180.00    0.83444   0.88367   -1.000
 4181.00    0.83717   0.88561   -1.000
 4182.00    0.85511   0.88738   -1.000
 4183.00    0.85959   0.88871   -1.000
 4184.00    0.85599   0.88943   -1.000
 4185.00    0.85660   0.88947   -1.000
 4186.00    0.85942   0.88892   -1.000
 4187.00    0.92330   0.88815    0.998
 4188.00    1.01487   0.88770    0.407
 4189.00    1.03157   0.88796    0.349
 4190.00    1.01905   0.88879    0.348
 4191.00    0.98323   0.88956    0.345
 4192.00    0.93967   0.88933    0.341
 4193.00    0.95400   0.88708    0.341
 4194.00    0.98445   0.88211    0.341
 4195.00    0.99054   0.87431    0.342
 4196.00    0.99104   0.86442    0.343
 4197.00    0.99594   0.85380    0.347
 4198.00    1.00166   0.84423    0.351
 4199.00    1.00384   0.83749    0.350
 4200.00    1.00551   0.83488    0.347
 4201.00    0.97408   0.83690    0.341
 4202.00    0.93927   0.84324    0.335
 4203.00    0.91482   0.85288    0.333
 4204.00    0.89103   0.86430    0.331
 4205.00    0.91600   0.87584    0.332
 4206.00    0.94245   0.88606    0.334
 4207.00    0.95744   0.89404    0.338
 4208.00    0.97296   0.89933    0.343
 4209.00    1.00392   0.90193    0.342
 4210.00    1.03276   0.90215    0.340
 4211.00    1.03076   0.90051    0.339
 4212.00    1.02771   0.89792    0.337
 4213.00    1.01470   0.89552    0.338
 4214.00    1.00443   0.89438    0.339
 4215.00    1.01301   0.89529    0.336
 4216.00    1.01790   0.89860    0.334
 4217.00    1.00312   0.90383    0.332
 4218.00    0.98948   0.90962    0.331
 4219.00    0.98073   0.91412    0.332
 4220.00    0.97710   0.91546    0.334
 4221.00    0.99153   0.91226    0.337
 4222.00    0.99012   0.90414    0.337
 4223.00    0.94180   0.89207    0.331
 4224.00    0.90299   0.87830    0.326
 4225.00    0.88821   0.86570    0.327
 4226.00    0.88306   0.85697    0.327
 4227.00    0.89884   0.85392    0.325
 4228.00    0.89702   0.85676    0.321
 4229.00    0.86199   0.86416    0.314
 4230.00    0.84604   0.87384    0.310
 4231.00    0.86150   0.88328    0.308
 4232.00    0.86820   0.89047    0.308
 4233.00    0.86226   0.89465    0.311
 4234.00    0.86751   0.89623    0.313
 4235.00    0.88697   0.89628    0.316
 4236.00    0.89728   0.89612    0.315
 4237.00    0.89735   0.89694    0.311
 4238.00    0.88946   0.89931    0.307
 4239.00    0.87373   0.90334    0.304
 4240.00    0.88332   0.90887    0.305
 4241.00    0.91495   0.91534    0.310
 4242.00    0.95789   0.92183    0.313
 4243.00    1.00950   0.92726    0.315
 4244.00    0.99583   0.93059    0.312
 4245.00    0.93818   0.93099    0.306
 4246.00    0.95318   0.92809    0.314
 4247.00    1.01108   0.92226    0.330
 4248.00    1.01357   0.91458    0.338
 4249.00    0.98753   0.90635    0.340
 4250.00    0.95787   0.89869    0.334
 4251.00    0.92659   0.89250    0.324
 4252.00    0.93638   0.88852    0.323
 4253.00    0.96192   0.88703    0.326
 4254.00    0.96094   0.88762    0.317
 4255.00    0.95133   0.88942    0.306
 4256.00    0.92061   0.89148    0.302
 4257.00    0.88414   0.89319    0.301
 4258.00    0.90193   0.89452    0.304
 4259.00    0.93189   0.89592    0.308
 4260.00    0.96143   0.89817    0.309
 4261.00    0.99090   0.90189    0.310
 4262.00    1.00208   0.90718    0.311
 4263.00    1.01076   0.91322    0.313
 4264.00    0.98669   0.91859    0.309
 4265.00    0.95941   0.92181    0.304
 4266.00    0.91887   0.92151    0.303
 4267.00    0.87752   0.91692    0.302
 4268.00    0.85156   0.90833    0.300
 4269.00    0.82613   0.89714    0.299
 4270.00    0.82366   0.88521    0.297
 4271.00    0.82077   0.87441    0.295
 4272.00    0.80653   0.86652    0.298
 4273.00    0.79570   0.86295    0.300
 4274.00    0.83167   0.86426    0.304
 4275.00    0.86703   0.86987    0.308
 4276.00    0.89684   0.87826    0.309
 4277.00    0.92424   0.88755    0.310
 4278.00    0.93555   0.89609    0.309
 4279.00    0.94580   0.90257    0.308
 4280.00    0.95059   0.90642    0.308
 4281.00    0.94927   0.90779    0.307
 4282.00    0.92248   0.90719   -2.000
 4283.00    0.90436   0.90531   -2.000
 4284.00    0.91620   0.90268   -2.000
 4285.00    0.92934   0.89929   -2.000
 4286.00    0.94626   0.89498   -2.000
 4287.00    0.95903   0.88999   -2.000
 4288.00    0.96150   0.88502   -2.000
 4289.00    0.96501   0.88096   -2.000
 4290.00    0.97073   0.87844   -2.000
 4291.00    0.97541   0.87769   -2.000
 4292.00    0.97814   0.87862   -2.000
 4293.00    0.96795   0.88048   -2.000
 4294.00    0.93680   0.88193   -2.000
 4295.00    0.91915   0.88170   -2.000
 4296.00    0.92069   0.87896   -2.000
 4297.00    0.91809   0.87376   -2.000
 4298.00    0.91029   0.86688    0.311
 4299.00    0.88737   0.85938    0.308
 4300.00    0.84776   0.85241    0.304
 4301.00    0.82514   0.84680    0.301
 4302.00    0.81904   0.84260    0.300
 4303.00    0.80329   0.83940    0.301
 4304.00    0.77924   0.83659    0.304
 4305.00    0.76691   0.83380    0.302
 4306.00    0.76343   0.83123    0.296
 4307.00    0.77885   0.82954    0.297
 4308.00    0.80682   0.82971    0.301
 4309.00    0.83195   0.83270    0.304
 4310.00    0.85544   0.83906    0.308
 4311.00    0.86066   0.84885    0.305
 4312.00    0.85662   0.86194    0.299
 4313.00    0.88439   0.87777    0.296
 4314.00    0.92612   0.89496    0.295
 4315.00    0.94576   0.91180    0.296
 4316.00    0.95708   0.92669    0.297
 4317.00    0.96835   0.93821    0.298
 4318.00    0.97961   0.94523    0.298
 4319.00    0.97260   0.94704    0.300
 4320.00    0.96070   0.94326    0.301
 4321.00    0.97577   0.93421    0.303
 4322.00    0.99674   0.92120    0.305
 4323.00    0.97644   0.90680    0.308
 4324.00    0.94897   0.89429    0.311
 4325.00    0.92951   0.88612    0.306
 4326.00    0.91111   0.88332    0.301
 4327.00    0.90831   0.88564    0.300
 4328.00    0.90696   0.89186    0.298
 4329.00    0.93536   0.90005    0.297
 4330.00    0.96546   0.90775    0.000
 4331.00    0.99404   0.91272    0.000
 4332.00    1.02234   0.91312    0.000
 4333.00    1.02238   0.90719    0.000
 4334.00    1.02155   0.89361    0.000
 4335.00    0.99993   0.87243    0.000
 4336.00    0.98041   0.84479    0.000
 4337.00    0.98824   0.81303    0.000
 4338.00    0.99242   0.78167    0.000
 4339.00    0.96478   0.75621    0.000
 4340.00    0.94112   0.74069    0.000
 4341.00    0.94318   0.73737    0.000
 4342.00    0.94761   0.74674    0.000
 4343.00    0.96408   0.76676    0.000
 4344.00    0.96737   0.79334    0.000
 4345.00    0.91692   0.82231    0.000
 4346.00    0.88284   0.85000    0.000
 4347.00    0.90415   0.87293    0.000
 4348.00    0.93047   0.88881    0.000
 4349.00    0.97109   0.89813    0.000
 4350.00    0.99003   0.90292    0.000
 4351.00    0.95613   0.90491    0.344
 4352.00    0.93337   0.90585    0.331
 4353.00    0.93405   0.90767    0.310
 4354.00    0.93908   0.91132    0.295
 4355.00    0.95209   0.91642    0.288
 4356.00    0.95317   0.92236    0.283
 4357.00    0.93520   0.92892    0.281
 4358.00    0.94244   0.93556    0.280
 4359.00    0.98504   0.94152    0.282
 4360.00    1.02570   0.94673    0.284
 4361.00    1.06399   0.95184    0.286
 4362.00    1.06410   0.95690    0.286
 4363.00    1.02269   0.96103    0.286
 4364.00    1.01215   0.96339    0.286
 4365.00    1.03124   0.96384    0.286
 4366.00    1.04198   0.96237    0.288
 4367.00    1.04568   0.95916    0.293
 4368.00    1.02962   0.95486    0.292
 4369.00    0.99886   0.95025    0.288
 4370.00    0.98413   0.94537    0.286
 4371.00    0.97988   0.94009    0.284
 4372.00    0.97060   0.93482    0.283
 4373.00    0.95844   0.93036    0.282
 4374.00    0.95301   0.92732    0.283
 4375.00    0.95094   0.92568    0.285
 4376.00    0.94413   0.92500    0.284
 4377.00    0.93527   0.92456    0.281
 4378.00    0.93443   0.92319    0.283
 4379.00    0.93654   0.91922    0.285
 4380.00    0.92837   0.91139    0.286
 4381.00    0.91697   0.90015    0.287
 4382.00    0.88779   0.88753    0.281
 4383.00    0.85396   0.87589    0.274
 4384.00    0.86221   0.86697    0.274
 4385.00    0.87944   0.86200    0.276
 4386.00    0.89140   0.86160    0.277
 4387.00    0.90246   0.86530    0.279
 4388.00    0.91585   0.87217    0.277
 4389.00    0.92953   0.88114    0.276
 4390.00    0.93996   0.89074    0.275
 4391.00    0.95011   0.89974    0.275
 4392.00    0.96125   0.90799    0.277
 4393.00    0.97245   0.91625    0.279
 4394.00    0.97935   0.92474    0.277
 4395.00    0.98604   0.93263    0.275
 4396.00    0.98148   0.93893    0.276
 4397.00    0.97615   0.94289    0.277
 4398.00    0.95376   0.94436    0.279
 4399.00    0.93337   0.94360    0.281
 4400.00    0.93767   0.94014    0.281
 4401.00    0.94136   0.93328    0.280
 4402.00    0.93999   0.92382    0.279
 4403.00    0.93656   0.91398    0.277
 4404.00    0.92030   0.90565    0.276
 4405.00    0.91315   0.90005    0.275
 4406.00    0.95083   0.89836    0.281
 4407.00    0.97637   0.90111    0.285
 4408.00    0.95340   0.90778    0.284
 4409.00    0.93824   0.91733    0.282
 4410.00    0.94900   0.92779    0.279
 4411.00    0.96692   0.93610    0.277
 4412.00    1.00492   0.94039    0.278
 4413.00    1.02510   0.94138    0.279
 4414.00    1.00262   0.94063    0.280
 4415.00    0.99036   0.93947    0.280
 4416.00    0.99927   0.93928    0.282
 4417.00    1.00480   0.94088    0.282
 4418.00    1.00426   0.94386    0.280
 4419.00    0.99517   0.94724    0.278
 4420.00    0.97263   0.95032    0.276
 4421.00    0.96940   0.95237    0.275
 4422.00    0.99283   0.95273    0.276
 4423.00    0.99995   0.95155    0.277
 4424.00    0.98723   0.94972    0.276
 4425.00    0.98002   0.94827    0.276
 4426.00    0.97871   0.94761    0.277
 4427.00    0.97698   0.94739    0.278
 4428.00    0.97486   0.94727    0.280
 4429.00    0.97223   0.94700    0.280
 4430.00    0.96919   0.94599    0.277
 4431.00    0.97465   0.94376    0.276
 4432.00    0.98633   0.94049    0.278
 4433.00    0.98832   0.93711    0.278
 4434.00    0.98405   0.93494    0.279
 4435.00    0.98821   0.93513    0.279
 4436.00    0.99713   0.93772    0.280
 4437.00    0.99871   0.94156    0.284
 4438.00    0.99668   0.94536    0.291
 4439.00    0.98387   0.94849    0.290
 4440.00    0.96647   0.95079    0.286
 4441.00    0.97280   0.95245    0.284
 4442.00    0.98775   0.95403    0.283
 4443.00    1.00647   0.95610    0.283
 4444.00    1.02635   0.95889    0.283
 4445.00    1.02233   0.96280    0.281
 4446.00    1.01220   0.96784    0.278
 4447.00    1.02136   0.97280    0.278
 4448.00    1.03454   0.97624    0.279
 4449.00    1.02947   0.97731    0.281
 4450.00    1.02140   0.97534    0.284
 4451.00    1.01660   0.97025    0.282
 4452.00    1.01221   0.96279    0.279
 4453.00    0.98459   0.95408    0.275
 4454.00    0.95500   0.94512    0.271
 4455.00    0.94504   0.93674    0.275
 4456.00    0.93605   0.92937    0.280
 4457.00    0.92118   0.92337    0.273
 4458.00    0.90658   0.91905    0.267
 4459.00    0.91476   0.91672    0.271
 4460.00    0.92315   0.91698    0.274
 4461.00    0.93579   0.91962    0.000
 4462.00    0.94865   0.92347    0.000
 4463.00    0.96411   0.92774    0.000
 4464.00    0.97946   0.93200    0.000
 4465.00    0.99401   0.93538    0.000
 4466.00    1.00298   0.93697    0.000
 4467.00    0.97805   0.93634    0.000
 4468.00    0.95857   0.93350    0.000
 4469.00    0.96525   0.92999    0.000
 4470.00    0.97739   0.92862    0.000
 4471.00    1.01086   0.93086    0.000
 4472.00    1.03408   0.93631    0.000
 4473.00    1.02395   0.94447    0.000
 4474.00    1.01861   0.95491    0.000
 4475.00    1.02641   0.96615    0.000
 4476.00    1.02290   0.97582    0.000
 4477.00    0.99276   0.98159    0.000
 4478.00    0.96959   0.98248    0.000
 4479.00    0.96061   0.97993    0.000
 4480.00    0.95916   0.97668    0.000
 4481.00    0.97106   0.97462    0.000
 4482.00    0.98756   0.97448    0.268
 4483.00    1.01120   0.97650    0.271
 4484.00    1.01698   0.98039    0.272
 4485.00    0.99847   0.98493    0.270
 4486.00    0.99307   0.98834    0.269
 4487.00    1.00340   0.98945    0.268
 4488.00    1.01743   0.98818    0.267
 4489.00    1.03536   0.98531    0.268
 4490.00    1.03528   0.98153    0.269
 4491.00    1.01839   0.97704    0.269
 4492.00    1.01249   0.97242    0.269
 4493.00    1.01563   0.96888    0.270
 4494.00    1.01377   0.96734    0.271
 4495.00    1.00830   0.96794    0.273
 4496.00    1.01313   0.97034    0.273
 4497.00    1.02449   0.97411    0.274
 4498.00    1.02270   0.97902    0.273
 4499.00    1.01361   0.98531    0.271
 4500.00    1.00978   0.99321    0.268
 4501.00    1.00849   1.00204    0.266
 4502.00    1.01568   1.01041    0.267
 4503.00    1.02642   1.01727    0.270
 4504.00    1.03154   1.02227    0.269
 4505.00    1.03465   1.02564    0.268
 4506.00    1.03992   1.02784    0.268
 4507.00    1.04584   1.02873    0.269
 4508.00    1.05728   1.02759    0.269
 4509.00    1.07012   1.02445    0.268
 4510.00    1.05581   1.01995    0.267
 4511.00    1.03599   1.01479    0.267
 4512.00    1.02491   1.00957    0.266
 4513.00    1.01521   1.00489    0.266
 4514.00    1.00737   1.00099    0.267
 4515.00    0.99976   0.99788    0.268
 4516.00    1.00720   0.99617    0.267
 4517.00    1.01586   0.99663    0.266
 4518.00    0.99805   0.99894    0.264
 4519.00    0.97905   1.00176    0.262
 4520.00    0.99657   1.00334    0.263
 4521.00    1.01428   1.00265    0.264
 4522.00    1.01853   0.99972    0.267
 4523.00    1.02156   0.99426    0.270
 4524.00    1.00160   0.98583    0.264
 4525.00    0.98316   0.97504    0.259
 4526.00    0.98185   0.96331    0.260
 4527.00    0.97743   0.95271    0.261
 4528.00    0.94873   0.94473    0.261
 4529.00    0.92434   0.93955    0.260
 4530.00    0.92545   0.93723    0.260
 4531.00    0.93267   0.93720    0.260
 4532.00    0.96846   0.93858    0.264
 4533.00    0.99906   0.94123    0.267
 4534.00    1.00980   0.94539    0.267
 4535.00    1.00805   0.95039    0.267
 4536.00    0.96646   0.95446    0.267
 4537.00    0.94485   0.95608    0.267
 4538.00    0.97722   0.95526    0.266
 4539.00    1.00557   0.95338    0.266
 4540.00    1.02457   0.95203    0.268
 4541.00    1.03418   0.95125    0.269
 4542.00    1.02497   0.95022    0.267
 4543.00    1.00791   0.95002    0.265
 4544.00    0.97714   0.95225    0.263
 4545.00    0.96156   0.95681    0.262
 4546.00    0.96918   0.96221    0.263
 4547.00    0.97963   0.96670    0.265
 4548.00    0.99386   0.96988    0.266
 4549.00    0.99305   0.97222    0.266
 4550.00    0.97446   0.97369    0.000
 4551.00    0.96908   0.97434    0.000
 4552.00    0.97747   0.97481    0.000
 4553.00    0.98417   0.97618    0.000
 4554.00    0.98931   0.97964    0.000
 4555.00    0.98873   0.98505    0.000
 4556.00    0.98352   0.99145    0.000
 4557.00    0.99621   0.99839    0.000
 4558.00    1.02167   1.00519    0.000
 4559.00    1.03902   1.01107    0.000
 4560.00    1.05131   1.01512    0.000
 4561.00    1.05375   1.01613    0.000
 4562.00    1.05080   1.01416    0.000
 4563.00    1.04454   1.01087    0.000
 4564.00    1.03670   1.00816    0.000
 4565.00    1.02726   1.00698    0.000
 4566.00    1.01715   1.00686    0.000
 4567.00    1.02936   1.00730    0.000
 4568.00    1.04937   1.00822    0.000
 4569.00    1.04710   1.00938    0.000
 4570.00    1.03823   1.01099    0.000
 4571.00    1.02748   1.01292    0.000
 4572.00    1.01628   1.01389    0.000
 4573.00    1.01300   1.01383    0.000
 4574.00    1.01129   1.01354    0.000
 4575.00    1.00231   1.01297    0.000
 4576.00    0.99221   1.01157    0.000
 4577.00    0.99462   1.00839    0.000
 4578.00    0.99846   1.00332    0.000
 4579.00    0.98449   0.99815    0.000
 4580.00    0.96916   0.99426    0.000
 4581.00    0.98705   0.99134    0.000
 4582.00    1.00633   0.98917    0.000
 4583.00    0.98621   0.98826    0.000
 4584.00    0.96653   0.98916    0.000
 4585.00    0.98051   0.99208    0.000
 4586.00    0.99418   0.99617    0.000
 4587.00    1.00231   0.99998    0.000
 4588.00    1.01123   1.00252    0.000
 4589.00    1.02860   1.00360    0.000
 4590.00    1.04318   1.00352    0.000
 4591.00    1.03665   1.00238    0.000
 4592.00    1.02999   0.99961    0.000
 4593.00    1.02259   0.99529    0.000
 4594.00    1.01443   0.99076    0.000
 4595.00    1.00282   0.98734    0.000
 4596.00    0.99304   0.98565    0.000
 4597.00    0.99007   0.98526    0.000
 4598.00    0.98770   0.98518    0.000
 4599.00    0.98721   0.98555    0.000
 4600.00    0.98219   0.98680    0.000
 4601.00    0.96517   0.98833    0.000
 4602.00    0.96239   0.98987    0.000
 4603.00    0.99201   0.99158    0.000
 4604.00    1.01767   0.99433    0.000
 4605.00    1.03549   0.99925    0.000
 4606.00    1.03437   1.00613    0.000
 4607.00    1.00071   1.01354    0.000
 4608.00    0.99072   1.02018    0.000
 4609.00    1.01638   1.02573    0.000
 4610.00    1.02623   1.03021    0.000
 4611.00    1.01517   1.03325    0.000
 4612.00    1.02298   1.03493    0.000
 4613.00    1.05279   1.03561    0.000
 4614.00    1.06606   1.03572    0.000
 4615.00    1.06233   1.03631    0.000
 4616.00    1.05305   1.03730    0.000
 4617.00    1.03873   1.03804    0.000
 4618.00    1.03820   1.03905    0.000
 4619.00    1.04869   1.04014    0.000
 4620.00    1.04826   1.04043    0.000
 4621.00    1.04016   1.04019    0.000
 4622.00    1.05158   1.03971    0.000
 4623.00    1.07502   1.03894    0.000
 4624.00    1.07328   1.03814    0.000
 4625.00    1.05799   1.03724    0.000
 4626.00    1.05624   1.03588    0.000
 4627.00    1.06085   1.03403    0.000
 4628.00    1.04663   1.03208    0.000
 4629.00    1.02482   1.03046    0.000
 4630.00    1.02377   1.02874    0.000
 4631.00    1.02987   1.02621    0.000
 4632.00    1.01472   1.02299    0.000
 4633.00    0.99342   1.01962    0.000
 4634.00    0.98884   1.01610    0.000
 4635.00    0.98826   1.01168    0.000
 4636.00    0.98529   1.00640    0.000
 4637.00    0.98185   1.00124    0.000
 4638.00    0.98860   0.99682    0.000
 4639.00    0.99689   0.99350    0.000
 4640.00    0.98038   0.99081    0.000
 4641.00    0.96115   0.98793    0.000
 4642.00    0.95256   0.98465    0.000
 4643.00    0.94475   0.98051    0.000
 4644.00    0.94623   0.97489    0.000
 4645.00    0.94807   0.96863    0.000
 4646.00    0.94396   0.96312    0.000
 4647.00    0.94009   0.95926    0.000
 4648.00    0.94675   0.95771    0.000
 4649.00    0.95399   0.95893    0.000
 4650.00    0.97069   0.96338    0.000
 4651.00    0.98505   0.97030    0.000
 4652.00    0.97544   0.97739    0.000
 4653.00    0.96843   0.98375    0.000
 4654.00    0.98040   0.98985    0.000
 4655.00    0.98971   0.99618    0.000
 4656.00    0.98420   1.00293    0.000
 4657.00    0.98252   1.00955    0.000
 4658.00    0.99794   1.01545    0.000
 4659.00    1.01077   1.01981    0.000
 4660.00    1.01409   1.02158    0.000
 4661.00    1.01452   1.02018    0.000
 4662.00    1.00604   1.01555    0.000
 4663.00    0.99524   1.00761    0.000
 4664.00    0.97839   0.99655    0.000
 4665.00    0.96509   0.98432    0.000
 4666.00    0.95975   0.97421    0.000
 4667.00    0.95500   0.96854    0.000
 4668.00    0.95138   0.96722    0.000
 4669.00    0.95399   0.96896    0.000
 4670.00    0.96714   0.97287    0.000
 4671.00    0.98245   0.97868    0.000
 4672.00    1.00096   0.98570    0.000
 4673.00    1.00853   0.99245    0.000
 4674.00    1.00182   0.99765    0.000
 4675.00    0.98964   1.00025    0.000
 4676.00    0.97117   1.00009    0.000
 4677.00    0.96242   0.99813    0.000
 4678.00    0.96352   0.99493    0.000
 4679.00    0.95885   0.99040    0.000
 4680.00    0.94904   0.98459    0.000
 4681.00    0.94882   0.97806    0.000
 4682.00    0.95617   0.97076    0.000
 4683.00    0.96331   0.96286    0.000
 4684.00    0.97032   0.95658    0.000
 4685.00    0.96492   0.95360    0.000
 4686.00    0.95199   0.95348    0.000
 4687.00    0.95461   0.95534    0.000
 4688.00    0.96547   0.95894    0.000
 4689.00    0.96851   0.96479    0.000
 4690.00    0.96796   0.97268    0.000
 4691.00    0.96675   0.98077    0.000
 4692.00    0.96527   0.98787    0.000
 4693.00    0.96548   0.99389    0.000
 4694.00    0.96626   0.99839    0.000
 4695.00    0.96368   1.00067    0.000
 4696.00    0.96016   1.00023    0.000
 4697.00    0.96859   0.99795    0.000
 4698.00    0.97982   0.99512    0.000
 4699.00    0.98115   0.99149    0.000
 4700.00    0.98061   0.98677    0.000
 4701.00    0.97033   0.98220    0.000
 4702.00    0.95865   0.97981    0.000
 4703.00    0.96085   0.97974    0.000
 4704.00    0.96453   0.98023    0.000
 4705.00    0.97460   0.98044    0.000
 4706.00    0.98510   0.98096    0.000
 4707.00    0.96555   0.98211    0.000
 4708.00    0.94498   0.98372    0.000
 4709.00    0.96344   0.98554    0.000
 4710.00    0.98169   0.98647    0.000
 4711.00    0.99096   0.98672    0.000
 4712.00    0.99969   0.98752    0.000
 4713.00    1.00017   0.99028    0.000
 4714.00    0.99955   0.99527    0.000
 4715.00    0.98818   1.00113    0.000
 4716.00    0.97818   1.00764    0.000
 4717.00    0.97800   1.01591    0.000
 4718.00    0.98380   1.02550    0.000
 4719.00    1.02214   1.03439    0.000
 4720.00    1.05186   1.04066    0.000
 4721.00    1.04401   1.04424    0.000
 4722.00    1.03501   1.04618    0.000
 4723.00    1.02193   1.04603    0.000
 4724.00    1.01341   1.04254    0.000
 4725.00    1.01867   1.03540    0.000
 4726.00    1.01513   1.02652    0.000
 4727.00    0.98906   1.01808    0.000
 4728.00    0.97297   1.01048    0.000
 4729.00    0.97889   1.00370    0.000
 4730.00    0.98437   0.99878    0.000
 4731.00    0.98902   0.99700    0.000
 4732.00    0.99191   0.99858    0.000
 4733.00    0.99188   1.00245    0.000
 4734.00    0.99197   1.00656    0.000
 4735.00    0.99223   1.01057    0.000
 4736.00    0.99057   1.01541    0.000
 4737.00    0.98643   1.02026    0.000
 4738.00    0.98762   1.02381    0.000
 4739.00    0.99484   1.02613    0.000
 4740.00    1.01074   1.02870    0.000
 4741.00    1.03531   1.03236    0.000
 4742.00    1.04916   1.03532    0.000
 4743.00    1.05357   1.03681    0.000
 4744.00    1.05191   1.03874    0.000
 4745.00    1.04555   1.04170    0.000
 4746.00    1.03796   1.04431    0.000
 4747.00    1.02953   1.04584    0.000
 4748.00    1.03082   1.04664    0.000
 4749.00    1.03793   1.04690    0.000
 4750.00    1.04732   1.04569    0.000
 4751.00    1.05790   1.04278    0.000
 4752.00    1.04526   1.03915    0.000
 4753.00    1.02212   1.03569    0.000
 4754.00    1.02424   1.03243    0.000
 4755.00    1.03619   1.02946    0.000
 4756.00    1.03031   1.02730    0.000
 4757.00    1.01852   1.02607    0.000
 4758.00    1.01502   1.02535    0.000
 4759.00    1.01381   1.02375    0.000
 4760.00    1.00060   1.02060    0.000
 4761.00    0.98463   1.01668    0.255
 4762.00    0.97127   1.01234    0.254
 4763.00    0.95840   1.00726    0.253
 4764.00    0.97930   1.00187    0.255
 4765.00    1.00496   0.99818    0.257
 4766.00    0.99834   0.99763    0.254
 4767.00    0.98845   0.99975    0.250
 4768.00    0.96491   1.00343    0.248
 4769.00    0.94049   1.00788    0.246
 4770.00    0.97023   1.01327    0.249
 4771.00    1.00155   1.01965    0.253
 4772.00    1.00221   1.02644    0.251
 4773.00    1.00281   1.03224    0.249
 4774.00    1.00133   1.03618    0.251
 4775.00    1.00169   1.03973    0.253
 4776.00    1.02857   1.04341    0.257
 4777.00    1.05118   1.04574    0.260
 4778.00    1.03359   1.04574    0.256
 4779.00    1.01381   1.04374    0.251
 4780.00    0.97897   1.04040    0.248
 4781.00    0.95044   1.03558    0.245
 4782.00    0.95531   1.03027    0.244
 4783.00    0.95554   1.02568    0.244
 4784.00    0.93596   1.02130    0.242
 4785.00    0.92316   1.01747    0.241
 4786.00    0.93419   1.01554    0.246
 4787.00    0.94936   1.01572    0.250
 4788.00    0.97677   1.01733    0.249
 4789.00    0.98986   1.01993    0.250
 4790.00    0.96686   1.02442    0.255
 4791.00    0.95766   1.03084    0.256
 4792.00    0.97836   1.03788    0.251
 4793.00    0.99478   1.04465    0.248
 4794.00    1.00314   1.05024    0.248
 4795.00    1.01298   1.05393    0.249
 4796.00    1.02526   1.05567    0.251
 4797.00    1.02909   1.05537    0.252
 4798.00    1.02075   1.05339    0.251
 4799.00    1.02255   1.05116    0.253
 4800.00    1.03720   1.04989    0.258
 4801.00    1.03553   1.04920    0.260
 4802.00    1.01562   1.04825    0.257
 4803.00    1.01326   1.04716    0.256
 4804.00    1.02816   1.04640    0.256
 4805.00    1.03098   1.04501    0.254
 4806.00    1.02331   1.04216    0.251
 4807.00    1.01383   1.03902    0.252
 4808.00    1.00298   1.03707    0.255
 4809.00    1.00798   1.03665    0.255
 4810.00    1.02365   1.03698    0.253
 4811.00    1.02627   1.03811    0.253
 4812.00    1.02121   1.04070    0.256
 4813.00    1.02025   1.04419    0.258
 4814.00    1.02138   1.04778    0.260
 4815.00    1.01191   1.05145    0.257
 4816.00    0.99772   1.05508    0.251
 4817.00    1.00284   1.05835    0.254
 4818.00    1.01535   1.06071    0.259
 4819.00    1.04273   1.06172    0.260
 4820.00    1.07494   1.06076    0.260
 4821.00    1.05169   1.05721    0.258
 4822.00    1.01334   1.05247    0.255
 4823.00    1.02889   1.04846    0.255
 4824.00    1.05648   1.04522    0.256
 4825.00    1.03658   1.04173    0.255
 4826.00    1.00821   1.03801    0.254
 4827.00    1.00342   1.03612    0.255
 4828.00    1.00185   1.03638    0.255
 4829.00    1.00683   1.03602    0.258
 4830.00    1.01244   1.03399    0.262
 4831.00    1.01291   1.03255    0.259
 4832.00    1.01306   1.03323    0.256
 4833.00    1.01359   1.03462    0.253
 4834.00    1.01407   1.03491    0.250
 4835.00    1.00289   1.03501    0.254
 4836.00    0.99195   1.03584    0.257
 4837.00    0.98727   1.03566    0.255
 4838.00    0.98341   1.03363    0.253
 4839.00    0.99058   1.03133    0.253
 4840.00    0.99845   1.02956    0.253
 4841.00    1.01259   1.02733    0.251
 4842.00    1.02165   1.02528    0.249
 4843.00    0.99697   1.02534    0.247
 4844.00    0.97965   1.02701    0.246
 4845.00    1.00025   1.02773    0.249
 4846.00    1.01671   1.02654    0.252
 4847.00    1.01590   1.02523    0.250
 4848.00    1.01114   1.02428    0.000
 4849.00    0.99272   1.02138    0.000
 4850.00    0.98446   1.01554    0.000
 4851.00    1.00564   1.00787    0.000
 4852.00    1.01170   0.99852    0.000
 4853.00    0.98033   0.98609    0.000
 4854.00    0.95577   0.97010    0.000
 4855.00    0.94573   0.95184    0.000
 4856.00    0.94072   0.93125    0.000
 4857.00    0.94502   0.90724    0.000
 4858.00    0.93874   0.88134    0.000
 4859.00    0.91536   0.85783    0.000
 4860.00    0.90577   0.84072    0.000
 4861.00    0.91575   0.83140    0.000
 4862.00    0.92044   0.82943    0.000
 4863.00    0.91854   0.83511    0.000
 4864.00    0.91602   0.84904    0.000
 4865.00    0.91283   0.86952    0.000
 4866.00    0.90958   0.89178    0.000
 4867.00    0.90626   0.91171    0.000
 4868.00    0.91729   0.92780    0.000
 4869.00    0.94062   0.93897    0.000
 4870.00    0.95165   0.94658    0.000
 4871.00    0.95343   0.95373    0.000
 4872.00    0.94634   0.96103    0.000
 4873.00    0.93339   0.96722    0.000
 4874.00    0.92957   0.97380    0.000
 4875.00    0.93104   0.98320    0.240
 4876.00    0.94196   0.99425    0.238
 4877.00    0.95765   1.00449    0.237
 4878.00    0.96860   1.01261    0.238
 4879.00    0.97748   1.01788    0.240
 4880.00    0.98087   1.02065    0.242
 4881.00    0.98219   1.02207    0.244
 4882.00    0.98730   1.02174    0.244
 4883.00    0.99363   1.01759    0.243
 4884.00    0.99308   1.01082    0.245
 4885.00    0.99069   1.00523    0.248
 4886.00    0.97105   1.00146    0.247
 4887.00    0.94765   0.99753    0.245
 4888.00    0.93416   0.99331    0.244
 4889.00    0.92239   0.99113    0.243
 4890.00    0.93693   0.99376    0.245
 4891.00    0.95495   1.00126    0.247
 4892.00    0.97502   1.01126    0.247
 4893.00    0.99528   1.02233    0.247
 4894.00    0.99721   1.03468    0.246
 4895.00    0.99811   1.04831    0.244
 4896.00    1.02110   1.06013    0.251
 4897.00    1.04434   1.06713    0.258
 4898.00    1.04003   1.06959    0.256
 4899.00    1.03587   1.06966    0.254
 4900.00    1.03525   1.06832    0.255
 4901.00    1.03488   1.06513    0.256
 4902.00    1.03758   1.06108    0.257
 4903.00    1.03867   1.05881    0.258
 4904.00    1.02567   1.05868    0.255
 4905.00    1.01375   1.05793    0.253
 4906.00    1.00881   1.05557    0.251
 4907.00    1.00485   1.05301    0.250
 4908.00    1.00584   1.05063    0.252
 4909.00    1.00985   1.04789    0.253
 4910.00    1.02619   1.04504    0.256
 4911.00    1.03279   1.04279    0.256
 4912.00    1.00658   1.04135    0.252
 4913.00    0.98968   1.04059    0.249
 4914.00    0.99931   1.03965    0.252
 4915.00    0.99838   1.03635    0.254
 4916.00    0.97177   1.02899    0.255
 4917.00    0.95467   1.01804    0.254
 4918.00    0.95753   1.00540    0.254
 4919.00    0.95370   0.99318    0.251
 4920.00    0.93767   0.98379    0.247
 4921.00    0.93501   0.97860    0.247
 4922.00    0.95367   0.97807    0.253
 4923.00    0.95966   0.98308    0.256
 4924.00    0.94791   0.99424    0.254
 4925.00    0.95088   1.00932    0.254
 4926.00    0.97197   1.02436    0.254
 4927.00    0.99454   1.03801    0.255
 4928.00    1.01872   1.05043    0.258
 4929.00    1.02137   1.06086    0.256
 4930.00    1.00340   1.06710    0.250
 4931.00    1.01119   1.06812    0.249
 4932.00    1.04073   1.06521    0.250
 4933.00    1.03979   1.06065    0.252
 4934.00    1.01620   1.05507    0.254
 4935.00    1.00561   1.04730    0.253
 4936.00    1.00352   1.03817    0.250
 4937.00    1.00306   1.03174    0.251
 4938.00    1.00353   1.03020    0.253
 4939.00    1.00262   1.03154    0.254
 4940.00    1.00102   1.03410    0.000
 4941.00    1.01050   1.03942    0.000
 4942.00    1.02475   1.04850    0.000
 4943.00    1.03708   1.05866    0.000
 4944.00    1.04871   1.06696    0.000
 4945.00    1.04043   1.07392    0.000
 4946.00    1.02591   1.08048    0.000
 4947.00    1.04602   1.08526    0.000
 4948.00    1.07517   1.08772    0.000
 4949.00    1.06492   1.08938    0.000
 4950.00    1.04628   1.08991    0.000
 4951.00    1.04110   1.08695    0.000
 4952.00    1.03818   1.08079    0.000
 4953.00    1.03412   1.07338    0.000
 4954.00    1.02992   1.06414    0.000
 4955.00    1.01949   1.05153    0.000
 4956.00    1.00851   1.03890    0.000
 4957.00    1.00937   1.03162    0.000
 4958.00    1.01085   1.02920    0.000
 4959.00    1.00779   1.02771    0.000
 4960.00    1.00462   1.02773    0.000
 4961.00    0.99997   1.03241    0.000
 4962.00    0.99631   1.03892    0.000
 4963.00    1.01394   1.04165    0.000
 4964.00    1.02831   1.04060    0.000
 4965.00    1.00263   1.03944    0.000
 4966.00    0.97929   1.03875    0.000
 4967.00    0.97546   1.03733    0.000
 4968.00    0.97449   1.03646    0.000
 4969.00    0.99132   1.03817    0.000
 4970.00    1.00447   1.04222    0.000
 4971.00    0.99960   1.04696    0.000
 4972.00    0.99905   1.05146    0.000
 4973.00    1.01569   1.05506    0.000
 4974.00    1.02586   1.05701    0.000
 4975.00    1.01459   1.05640    0.000
 4976.00    1.00113   1.05234    0.000
 4977.00    0.98156   1.04525    0.000
 4978.00    0.96557   1.03663    0.000
 4979.00    0.95816   1.02688    0.000
 4980.00    0.95291   1.01547    0.000
 4981.00    0.95211   1.00430    0.000
 4982.00    0.94911   0.99679    0.000
 4983.00    0.94213   0.99313    0.000
 4984.00    0.93527   0.99169    0.000
 4985.00    0.92858   0.99339    0.000
 4986.00    0.93221   0.99934    0.000
 4987.00    0.95007   1.00728    0.000
 4988.00    0.96536   1.01450    0.000
 4989.00    0.97753   1.02086    0.000
 4990.00    0.98977   1.02688    0.000
 4991.00    1.00208   1.03139    0.000
 4992.00    1.00293   1.03339    0.000
 4993.00    0.99295   1.03408    0.000
 4994.00    0.98093   1.03472    0.000
 4995.00    0.96720   1.03439    0.000
 4996.00    0.96860   1.03191    0.000
 4997.00    0.98111   1.02768    0.000
 4998.00    0.97555   1.02233    0.000
 4999.00    0.95839   1.01588    0.000
 5000.00    0.95452   1.00862    0.000
 5001.00    0.95815   1.00119    0.000
 5002.00    0.97167   0.99432    0.000
 5003.00    0.99004   0.98837    0.000
 5004.00    0.98398   0.98347    0.000
 5005.00    0.96758   0.98062    0.000
 5006.00    0.96952   0.98057    0.000
 5007.00    0.97811   0.98154    0.000
 5008.00    0.97605   0.98169    0.000
 5009.00    0.97072   0.98165    0.000
 5010.00    0.96512   0.98158    0.000
 5011.00    0.95945   0.97959    0.000
 5012.00    0.94945   0.97493    0.000
 5013.00    0.93854   0.96953    0.000
 5014.00    0.93244   0.96549    0.000
 5015.00    0.92712   0.96300    0.000
 5016.00    0.91975   0.96177    0.000
 5017.00    0.91212   0.96275    0.000
 5018.00    0.90572   0.96677    0.000
 5019.00    0.89941   0.97198    0.000
 5020.00    0.91414   0.97626    0.000
 5021.00    0.92989   0.98050    0.000
 5022.00    0.92998   0.98588    0.000
 5023.00    0.92990   0.99118    0.000
 5024.00    0.93444   0.99521    0.000
 5025.00    0.93921   0.99878    0.000
 5026.00    0.94871   1.00310    0.000
 5027.00    0.95668   1.00868    0.000
 5028.00    0.94676   1.01468    0.000
 5029.00    0.93878   1.01985    0.249
 5030.00    0.94643   1.02465    0.248
 5031.00    0.95366   1.03025    0.248
 5032.00    0.95834   1.03484    0.250
 5033.00    0.96335   1.03517    0.251
 5034.00    0.96993   1.03121    0.250
 5035.00    0.97532   1.02550    0.250
 5036.00    0.97604   1.01855    0.251
 5037.00    0.97190   1.00877    0.250
 5038.00    0.95197   0.99717    0.247
 5039.00    0.93398   0.98770    0.244
 5040.00    0.92134   0.98325    0.241
 5041.00    0.91482   0.98347    0.239
 5042.00    0.92271   0.98647    0.242
 5043.00    0.92872   0.99202    0.243
 5044.00    0.93088   1.00126    0.241
 5045.00    0.93504   1.01166    0.240
 5046.00    0.94270   1.01838    0.242
 5047.00    0.95427   1.02096    0.243
 5048.00    0.97188   1.02220    0.244
 5049.00    0.98130   1.02214    0.245
 5050.00    0.97958   1.02008    0.246
 5051.00    0.97467   1.01865    0.246
 5052.00    0.96594   1.02067    0.243
 5053.00    0.96385   1.02530    0.242
 5054.00    0.96877   1.03066    0.241
 5055.00    0.98174   1.03700    0.242
 5056.00    1.00220   1.04462    0.244
 5057.00    1.00623   1.05170    0.244
 5058.00    0.99678   1.05652    0.242
 5059.00    1.00679   1.05953    0.241
 5060.00    1.03084   1.06129    0.239
 5061.00    1.03052   1.06059    0.239
 5062.00    1.01474   1.05613    0.241
 5063.00    0.99449   1.04915    0.240
 5064.00    0.97175   1.04241    0.237
 5065.00    0.96205   1.03620    0.238
 5066.00    0.95865   1.02879    0.241
 5067.00    0.95523   1.02197    0.242
 5068.00    0.95180   1.01948    0.241
 5069.00    0.96001   1.01965    0.241
 5070.00    0.97237   1.01846    0.242
 5071.00    0.97853   1.01747    0.244
 5072.00    0.98283   1.01931    0.246
 5073.00    0.96860   1.02052    0.243
 5074.00    0.94975   1.01798    0.239
 5075.00    0.95008   1.01489    0.240
 5076.00    0.95430   1.01291    0.241
 5077.00    0.93320   1.00807    0.239
 5078.00    0.90808   0.99995    0.237
 5079.00    0.90348   0.99385    0.236
 5080.00    0.90131   0.99090    0.235
 5081.00    0.90789   0.98780    0.235
 5082.00    0.91517   0.98575    0.235
 5083.00    0.91604   0.98867    0.235
 5084.00    0.91663   0.99523    0.236
 5085.00    0.92599   1.00175    0.234
 5086.00    0.93519   1.00837    0.231
 5087.00    0.93181   1.01649    0.232
 5088.00    0.92912   1.02465    0.232
 5089.00    0.93935   1.03083    0.235
 5090.00    0.95057   1.03554    0.236
 5091.00    0.97277   1.03985    0.234
 5092.00    0.99046   1.04254    0.233
 5093.00    0.97312   1.04194    0.238
 5094.00    0.95921   1.03893    0.243
 5095.00    0.96557   1.03504    0.245
 5096.00    0.96880   1.02964    0.246
 5097.00    0.95744   1.02231    0.247
 5098.00    0.94378   1.01567    0.247
 5099.00    0.92136   1.01207    0.243
 5100.00    0.90600   1.01018    0.241
 5101.00    0.91312   1.00847    0.239
 5102.00    0.91776   1.00796    0.239
 5103.00    0.91572   1.00904    0.241
 5104.00    0.91725   1.00957    0.242
 5105.00    0.92707   1.00794    0.241
 5106.00    0.92835   1.00545    0.241
 5107.00    0.91251   1.00384    0.241
 5108.00    0.91276   1.00262    0.242
 5109.00    0.94105   1.00184    0.246
 5110.00    0.95267   1.00338    0.246
 5111.00    0.93887   1.00730    0.242
 5112.00    0.93103   1.01228    0.241
 5113.00    0.93119   1.01865    0.244
 5114.00    0.93050   1.02596    0.246
 5115.00    0.92879   1.03249    0.248
 5116.00    0.94733   1.03772    0.250
 5117.00    0.98692   1.04100    0.252
 5118.00    0.99503   1.04094    0.252
 5119.00    0.97426   1.03782    0.251
 5120.00    0.96235   1.03248    0.249
 5121.00    0.95760   1.02445    0.247
 5122.00    0.94976   1.01412    0.243
 5123.00    0.93972   1.00418    0.239
 5124.00    0.91688   0.99619    0.238
 5125.00    0.88604   0.98934    0.240
 5126.00    0.87211   0.98428    0.239
 5127.00    0.86739   0.98271    0.236
 5128.00    0.87263   0.98404    0.235
 5129.00    0.88259   0.98714    0.235
 5130.00    0.90556   0.99209    0.238
 5131.00    0.93386   0.99783    0.242
 5132.00    0.94961   1.00320    0.240
 5133.00    0.96098   1.00855    0.237
 5134.00    0.97325   1.01293    0.239
 5135.00    0.98579   1.01453    0.242
 5136.00    0.97624   1.01375    0.242
 5137.00    0.96128   1.01163    0.241
 5138.00    0.95980   1.00855    0.238
 5139.00    0.96098   1.00539    0.236
 5140.00    0.95045   1.00151    0.236
 5141.00    0.93811   0.99663    0.236
 5142.00    0.91817   0.99394    0.234
 5143.00    0.89735   0.99332    0.232
 5144.00    0.88757   0.99085    0.232
 5145.00    0.87863   0.98757    0.232
 5146.00    0.90892   0.98665    0.236
 5147.00    0.94082   0.98655    0.241
 5148.00    0.92981   0.98531    0.238
 5149.00    0.91856   0.98405    0.235
 5150.00    0.91226   0.98425    0.235
 5151.00    0.90647   0.98587    0.234
 5152.00    0.90927   0.98816    0.233
 5153.00    0.91255   0.99143    0.231
 5154.00    0.92098   0.99657    0.233
 5155.00    0.92930   1.00346    0.235
 5156.00    0.93680   1.01068    0.237
 5157.00    0.94413   1.01683    0.240
 5158.00    0.95057   1.02144    0.239
 5159.00    0.95595   1.02400    0.239
 5160.00    0.95653   1.02207    0.240
 5161.00    0.95303   1.01427    0.241
 5162.00    0.93426   1.00248    0.239
 5163.00    0.91287   0.98722    0.237
 5164.00    0.88328   0.96747    0.238
 5165.00    0.85095   0.94527    0.237
 5166.00    0.81138   0.92372    0.235
 5167.00    0.77900   0.90436    0.234
 5168.00    0.76300   0.88876    0.237
 5169.00    0.75612   0.87765    0.238
 5170.00    0.76721   0.87025    0.238
 5171.00    0.77484   0.86775    0.238
 5172.00    0.77653   0.87233    0.239
 5173.00    0.77937   0.88166    0.238
 5174.00    0.78396   0.89171    0.237
 5175.00    0.80286   0.90320    0.237
 5176.00    0.84068   0.91747    0.236
 5177.00    0.85938   0.92977    0.236
 5178.00    0.85585   0.93531    0.237
 5179.00    0.84947   0.93601    0.236
 5180.00    0.84017   0.93426    0.234
 5181.00    0.81802   0.92863    0.233
 5182.00    0.78424   0.92060    0.233
 5183.00    0.77508   0.91619    0.232
 5184.00    0.78555   0.91790    0.231
 5185.00    0.80525   0.92329    0.231
 5186.00    0.83142   0.93156    0.234
 5187.00    0.86195   0.94397    0.236
 5188.00    0.89516   0.95875    0.239
 5189.00    0.90718   0.97059    0.238
 5190.00    0.90779   0.97630    0.000
 5191.00    0.90636   0.97988    0.000
 5192.00    0.90396   0.98447    0.000
 5193.00    0.89429   0.98655    0.000
 5194.00    0.88169   0.98616    0.000
 5195.00    0.89846   0.98931    0.000
 5196.00    0.92531   0.99598    0.000
 5197.00    0.93486   1.00136    0.000
 5198.00    0.93941   1.00567    0.000
 5199.00    0.95172   1.00953    0.000
 5200.00    0.96588   1.01017    0.000
 5201.00    0.97025   1.00695    0.000
 5202.00    0.97275   1.00055    0.000
 5203.00    0.95348   0.98993    0.000
 5204.00    0.93095   0.97712    0.000
 5205.00    0.91201   0.96621    0.000
 5206.00    0.89347   0.95691    0.000
 5207.00    0.88417   0.94913    0.000
 5208.00    0.87553   0.94733    0.000
 5209.00    0.88439   0.95237    0.000
 5210.00    0.89390   0.96029    0.000
 5211.00    0.90234   0.97065    0.230
 5212.00    0.91126   0.98397    0.231
 5213.00    0.93785   0.99726    0.233
 5214.00    0.96354   1.00811    0.234
 5215.00    0.97465   1.01732    0.235
 5216.00    0.98431   1.02550    0.236
 5217.00    0.97930   1.03164    0.237
 5218.00    0.97171   1.03558    0.237
 5219.00    0.94536   1.03809    0.238
 5220.00    0.92699   1.03908    0.239
 5221.00    0.95302   1.03671    0.238
 5222.00    0.97431   1.03049    0.237
 5223.00    0.97451   1.02269    0.239
 5224.00    0.96928   1.01409    0.239
 5225.00    0.94422   1.00469    0.240
 5226.00    0.92339   0.99766    0.241
 5227.00    0.91549   0.99578    0.240
 5228.00    0.91569   0.99691    0.240
 5229.00    0.93695   1.00044    0.242
 5230.00    0.95166   1.00804    0.245
 5231.00    0.95174   1.01681    0.246
 5232.00    0.96054   1.02399    0.246
 5233.00    0.98626   1.03144    0.247
 5234.00    0.99938   1.03916    0.246
 5235.00    0.99122   1.04608    0.242
 5236.00    0.98730   1.05325    0.239
 5237.00    0.98965   1.06043    0.240
 5238.00    0.99355   1.06661    0.240
 5239.00    0.99948   1.07221    0.242
 5240.00    1.01357   1.07679    0.243
 5241.00    1.03702   1.07828    0.245
 5242.00    1.04032   1.07744    0.245
 5243.00    1.02324   1.07647    0.245
 5244.00    1.01450   1.07331    0.244
 5245.00    1.01320   1.06557    0.244
 5246.00    1.01644   1.05728    0.245
 5247.00    1.02323   1.05149    0.248
 5248.00    1.01351   1.04435    0.247
 5249.00    0.99238   1.03552    0.243
 5250.00    0.98475   1.03109    0.241
 5251.00    0.98531   1.03164    0.241
 5252.00    0.98123   1.03240    0.240
 5253.00    0.97469   1.03390    0.239
 5254.00    0.97867   1.03906    0.240
 5255.00    0.98748   1.04660    0.242
 5256.00    1.00183   1.05254    0.239
 5257.00    1.01838   1.05549    0.235
 5258.00    1.01283   1.05671    0.236
 5259.00    0.99984   1.05483    0.238
 5260.00    0.99696   1.04699    0.239
 5261.00    0.99695   1.03357    0.240
 5262.00    0.97006   1.01790    0.240
 5263.00    0.93691   1.00093    0.240
 5264.00    0.90056   0.98175    0.239
 5265.00    0.86361   0.96425    0.238
 5266.00    0.84997   0.95312    0.236
 5267.00    0.83970   0.94493    0.234
 5268.00    0.84139   0.93757    0.235
 5269.00    0.84435   0.93799    0.237
 5270.00    0.87879   0.94602    0.238
 5271.00    0.91539   0.95409    0.240
 5272.00    0.92928   0.96442    0.243
 5273.00    0.94240   0.98118    0.247
 5274.00    0.96095   0.99856    0.241
 5275.00    0.97923   1.01310    0.236
 5276.00    0.98917   1.02768    0.238
 5277.00    0.99911   1.04059    0.239
 5278.00    1.00914   1.04936    0.241
 5279.00    1.01935   1.05550    0.243
 5280.00    1.03122   1.05989    0.240
 5281.00    1.04055   1.06212    0.238
 5282.00    1.03199   1.06302    0.238
 5283.00    1.02646   1.06519    0.237
 5284.00    1.03735   1.07059    0.236
 5285.00    1.04833   1.07782    0.235
 5286.00    1.05970   1.08524    0.240
 5287.00    1.06669   1.09381    0.243
 5288.00    1.05803   1.10291    0.241
 5289.00    1.05173   1.10964    0.239
 5290.00    1.05248   1.11273    0.240
 5291.00    1.05522   1.11266    0.241
 5292.00    1.06304   1.10945    0.244
 5293.00    1.06425   1.10322    0.245
 5294.00    1.05087   1.09452    0.245
 5295.00    1.04042   1.08352    0.244
 5296.00    1.03556   1.07179    0.244
 5297.00    1.03104   1.06266    0.244
 5298.00    1.02711   1.05731    0.243
 5299.00    1.03117   1.05421    0.243
 5300.00    1.04690   1.05448    0.246
 5301.00    1.05248   1.06096    0.246
 5302.00    1.04506   1.07105    0.244
 5303.00    1.04293   1.08117    0.241
 5304.00    1.04679   1.09207    0.237
 5305.00    1.05778   1.10349    0.237
 5306.00    1.07591   1.11308    0.241
 5307.00    1.09337   1.12052    0.242
 5308.00    1.11026   1.12602    0.242
 5309.00    1.11241   1.12901    0.240
 5310.00    1.10314   1.13028    0.237
 5311.00    1.09229   1.13034    0.235
 5312.00    1.08035   1.12865    0.235
 5313.00    1.07262   1.12582    0.234
 5314.00    1.06740   1.12232    0.232
 5315.00    1.07308   1.11791    0.234
 5316.00    1.08445   1.11356    0.237
 5317.00    1.08039   1.10955    0.236
 5318.00    1.06937   1.10442    0.233
 5319.00    1.06046   1.09831    0.232
 5320.00    1.05238   1.09245    0.231
 5321.00    1.03791   1.08559    0.229
 5322.00    1.02134   1.07572    0.227
 5323.00    1.02008   1.06378    0.227
 5324.00    1.02307   1.05292    0.227
 5325.00    1.01437   1.04227    0.228
 5326.00    1.00301   1.02962    0.230
 5327.00    0.98566   1.01958    0.230
 5328.00    0.96722   1.01677    0.229
 5329.00    0.97283   1.01809    0.230
 5330.00    0.98183   1.02124    0.230
 5331.00    0.99419   1.02984    0.231
 5332.00    1.00690   1.04359    0.231
 5333.00    1.01972   1.05762    0.229
 5334.00    1.03255   1.06885    0.226
 5335.00    1.04828   1.07710    0.229
 5336.00    1.06405   1.08354    0.233
 5337.00    1.06247   1.08730    0.231
 5338.00    1.06057   1.08620    0.229
 5339.00    1.04959   1.08212    0.230
 5340.00    1.03886   1.07941    0.230
 5341.00    1.03170   1.07762    0.231
 5342.00    1.02563   1.07484    0.231
 5343.00    1.02977   1.07358    0.230
 5344.00    1.03541   1.07466    0.230
 5345.00    1.05136   1.07613    0.235
 5346.00    1.06399   1.07821    0.239
 5347.00    1.05905   1.08015    0.237
 5348.00    1.05209   1.08248    0.235
 5349.00    1.03659   1.08803    0.235
 5350.00    1.02822   1.09528    0.235
 5351.00    1.04477   1.10227    0.237
 5352.00    1.06538   1.11115    0.239
 5353.00    1.09795   1.12233    0.239
 5354.00    1.12124   1.13248    0.238
 5355.00    1.12122   1.14005    0.239
 5356.00    1.11525   1.14656    0.238
 5357.00    1.09639   1.15115    0.234
 5358.00    1.08530   1.15219    0.232
 5359.00    1.08881   1.15043    0.236
 5360.00    1.09625   1.14608    0.238
 5361.00    1.11014   1.13972    0.238
 5362.00    1.10546   1.13231    0.236
 5363.00    1.07406   1.12318    0.232
 5364.00    1.05901   1.11297    0.230
 5365.00    1.06464   1.10339    0.232
 5366.00    1.05808   1.09345    0.232
 5367.00    1.03793   1.08346    0.230
 5368.00    1.02642   1.07532   -2.000
 5369.00    1.02339   1.06825   -2.000
 5370.00    1.01179   1.06362   -2.000
 5371.00    0.99274   1.06379   -2.000
 5372.00    0.99220   1.06722   -2.000
 5373.00    1.00579   1.07284   -2.000
 5374.00    1.02066   1.08227   -2.000
 5375.00    1.03637   1.09333   -2.000
 5376.00    1.04865   1.10251   -2.000
 5377.00    1.05890   1.11069   -2.000
 5378.00    1.06884   1.11691   -2.000
 5379.00    1.07861   1.11964   -2.000
 5380.00    1.07703   1.12118   -2.000
 5381.00    1.07042   1.12162   -2.000
 5382.00    1.06684   1.11967   -2.000
 5383.00    1.06443   1.11762    0.226
 5384.00    1.06281   1.11596    0.226
 5385.00    1.06146   1.11258    0.225
 5386.00    1.05616   1.10877    0.224
 5387.00    1.04978   1.10524    0.224
 5388.00    1.04510   1.09977    0.223
 5389.00    1.04080   1.09289    0.222
 5390.00    1.03272   1.08649    0.221
 5391.00    1.02397   1.07963    0.220
 5392.00    1.01993   1.07171    0.222
 5393.00    1.01652   1.06502    0.224
 5394.00    1.00483   1.06050    0.223
 5395.00    0.99233   1.05549    0.221
 5396.00    0.99289   1.05077    0.223
 5397.00    0.99423   1.05044    0.226
 5398.00    1.00347   1.05103    0.227
 5399.00    1.01278   1.04890    0.228
 5400.00    1.00131   1.04868    0.226
 5401.00    0.99099   1.04965    0.225
 5402.00    1.01029   1.04609    0.226
 5403.00    1.02659   1.03972    0.226
 5404.00    1.00230   1.03360    0.226
 5405.00    0.97841   1.02656    0.226
 5406.00    0.95808   1.01949    0.227
 5407.00    0.94192   1.01436    0.228
 5408.00    0.95326   1.01144    0.229
 5409.00    0.96678   1.01218    0.228
 5410.00    0.99150   1.01740    0.226
 5411.00    1.01189   1.02504    0.224
 5412.00    1.01435   1.03444    0.224
 5413.00    1.01813   1.04690    0.224
 5414.00    1.02649   1.06094    0.225
 5415.00    1.03578   1.07436    0.225
 5416.00    1.04775   1.08588    0.222
 5417.00    1.05572   1.09539    0.220
 5418.00    1.05377   1.10292    0.220
 5419.00    1.05790   1.10714    0.220
 5420.00    1.07492   1.10886    0.222
 5421.00    1.08265   1.10972    0.223
 5422.00    1.07317   1.10842    0.222
 5423.00    1.06398   1.10595    0.221
 5424.00    1.05526   1.10460    0.220
 5425.00    1.04856   1.10215    0.218
 5426.00    1.04474   1.09829    0.218
 5427.00    1.04146   1.09428    0.218
 5428.00    1.03887   1.08820    0.218
 5429.00    1.03043   1.08234    0.217
 5430.00    1.01556   1.07767    0.215
 5431.00    1.00710   1.07029    0.214
 5432.00    1.00486   1.06463    0.215
 5433.00    1.00733   1.06462    0.215
 5434.00    1.01380   1.06566    0.215
 5435.00    1.02090   1.06827    0.215
 5436.00    1.02845   1.07547    0.216
 5437.00    1.04284   1.08559    0.217
 5438.00    1.06175   1.09628    0.219
 5439.00    1.07278   1.10670    0.218
 5440.00    1.07923   1.11597    0.215
 5441.00    1.08174   1.12190    0.216
 5442.00    1.08226   1.12349    0.218
 5443.00    1.07693   1.12137    0.219
 5444.00    1.06906   1.11603    0.219
 5445.00    1.06196   1.10803    0.219
 5446.00    1.05514   1.09976    0.219
 5447.00    1.05452   1.09350    0.220
 5448.00    1.05587   1.08795    0.222
 5449.00    1.04984   1.08365    0.223
 5450.00    1.04184   1.08238    0.223
 5451.00    1.05780   1.08151    0.223
 5452.00    1.07898   1.07987    0.224
 5453.00    1.06201   1.07809    0.224
 5454.00    1.03845   1.07575    0.224
 5455.00    1.03417   1.07439    0.223
 5456.00    1.03242   1.07481    0.223
 5457.00    1.04567   1.07528    0.225
 5458.00    1.06031   1.07656    0.228
 5459.00    1.05890   1.07959    0.226
 5460.00    1.05658   1.08275    0.224
 5461.00    1.05015   1.08429    0.222
 5462.00    1.04374   1.08441    0.220
 5463.00    1.04923   1.08584    0.218
 5464.00    1.05457   1.08738    0.216
 5465.00    1.05616   1.08659    0.216
 5466.00    1.05757   1.08716    0.216
 5467.00    1.05658   1.08931    0.216
 5468.00    1.05575   1.08834    0.216
 5469.00    1.05623   1.08561    0.214
 5470.00    1.05691   1.08427    0.212
 5471.00    1.05886   1.08111    0.214
 5472.00    1.05742   1.07421    0.214
 5473.00    1.03892   1.06882    0.211
 5474.00    1.02241   1.06537    0.209
 5475.00    1.01397   1.05897    0.212
 5476.00    1.00775   1.05381    0.214
 5477.00    1.00907   1.05394    0.214
 5478.00    1.01189   1.05380   -2.000
 5479.00    1.01902   1.05301   -2.000
 5480.00    1.02596   1.05642   -2.000
 5481.00    1.03244   1.06220   -2.000
 5482.00    1.03931   1.06619   -2.000
 5483.00    1.04701   1.06983   -2.000
 5484.00    1.03842   1.07574   -2.000
 5485.00    1.00017   1.08061   -2.000
 5486.00    0.97462   1.08286   -2.000
 5487.00    0.96929   1.08613   -2.000
 5488.00    0.98618   1.08903   -2.000
 5489.00    1.03412   1.08865   -2.000
 5490.00    1.07323   1.08937   -2.000
 5491.00    1.10151   1.09185   -2.000
 5492.00    1.11127   1.09144   -2.000
 5493.00    1.10096   1.09108   -2.000
 5494.00    1.09721   1.09323   -2.000
 5495.00    1.09971   1.09332   -2.000
 5496.00    1.09383   1.09159   -2.000
 5497.00    1.08087   1.09226   -2.000
 5498.00    1.06797   1.09296   -2.000
 5499.00    1.05512   1.09048   -2.000
 5500.00    1.05459   1.08823   -2.000
 5501.00    1.06210   1.08753   -2.000
 5502.00    1.05668   1.08487    0.219
 5503.00    1.04388   1.08120    0.216
 5504.00    1.04267   1.07884    0.218
 5505.00    1.04720   1.07617    0.221
 5506.00    1.04732   1.07415    0.220
 5507.00    1.04554   1.07339    0.218
 5508.00    1.03122   1.07098    0.215
 5509.00    1.01227   1.06925    0.211
 5510.00    1.00385   1.06916    0.210
 5511.00    0.99871   1.06718    0.211
 5512.00    1.00698   1.06580    0.210
 5513.00    1.01874   1.06663    0.208
 5514.00    1.02131   1.06795    0.210
 5515.00    1.02194   1.07115    0.212
 5516.00    1.03681   1.07668    0.213
 5517.00    1.05407   1.08363    0.212
 5518.00    1.05438   1.09081    0.212
 5519.00    1.05256   1.09712    0.213
 5520.00    1.05568   1.10299    0.211
 5521.00    1.05924   1.10701    0.208
 5522.00    1.05678   1.10798    0.208
 5523.00    1.05400   1.10697    0.208
 5524.00    1.05897   1.10433    0.209
 5525.00    1.06397   1.10063    0.210
 5526.00    1.06136   1.09620    0.208
 5527.00    1.05839   1.09136    0.207
 5528.00    1.04774   1.08859    0.209
 5529.00    1.03835   1.08754    0.211
 5530.00    1.04432   1.08618    0.212
 5531.00    1.05012   1.08684    0.212
 5532.00    1.05458   1.08994    0.209
 5533.00    1.05872   1.09196    0.207
 5534.00    1.06093   1.09315    0.210
 5535.00    1.06365   1.09608    0.213
 5536.00    1.06888   1.09892    0.212
 5537.00    1.07265   1.10044    0.212
 5538.00    1.07057   1.10331    0.214
 5539.00    1.06809   1.10672    0.244
 5540.00    1.06423   1.10909    0.576
 5541.00    1.06403   1.11147   -1.000
 5542.00    1.07401   1.11358   -1.000
 5543.00    1.08545   1.11577   -1.000
 5544.00    1.10036   1.11774   -1.000
 5545.00    1.11045   1.11857    1.728
 5546.00    1.11055   1.12076    0.425
 5547.00    1.11185   1.12416    0.276
 5548.00    1.11531   1.12581    0.249
 5549.00    1.11296   1.12743    0.232
 5550.00    1.10151   1.12984    0.223
 5551.00    1.09105   1.13032    0.217
 5552.00    1.08195   1.12915    0.214
 5553.00    1.07760   1.12764    0.213
 5554.00    1.07900   1.12556    0.214
 5555.00    1.08329   1.12290    0.213
 5556.00    1.09066   1.11970    0.212
 5557.00    1.09069   1.11700    0.212
 5558.00    1.08378   1.11489    0.215
 5559.00    1.07278   1.11206    0.212
 5560.00    1.05838   1.10925    0.204
 5561.00    1.05421   1.10657    0.203
 5562.00    1.05753   1.10328    0.205
 5563.00    1.05971   1.10057    0.206
 5564.00    1.06115   1.09744    0.206
 5565.00    1.06070   1.09363    0.206
 5566.00    1.05918   1.09200    0.208
 5567.00    1.05935   1.09093    0.206
 5568.00    1.06034   1.08826    0.203
 5569.00    1.05907   1.08792    0.202
 5570.00    1.05684   1.09024    0.203
 5571.00    1.04835   1.09002    0.203
 5572.00    1.03760   1.09048    0.203
 5573.00    1.04170   1.09533    0.204
 5574.00    1.05035   1.09757    0.206
 5575.00    1.05953   1.09810    0.208
 5576.00    1.06884   1.10289    0.211
 5577.00    1.07441   1.10569    0.210
 5578.00    1.07921   1.10504    0.209
 5579.00    1.08697   1.10651    0.208
 5580.00    1.09521   1.10587    0.207
 5581.00    1.07928   1.10128    0.209
 5582.00    1.06041   1.09706    0.211
 5583.00    1.05831   1.09073    0.212
 5584.00    1.05763   1.08155    0.214
 5585.00    1.04870   1.07277    0.214
 5586.00    1.03936   1.06390    0.214
 5587.00    1.02494   1.05547    0.213
 5588.00    1.01068   1.04917    0.212
 5589.00    1.01068   1.04542    0.212
 5590.00    1.01040   1.04434    0.213
 5591.00    1.00467   1.04582    0.215
 5592.00    0.99967   1.05006    0.216
 5593.00    1.00324   1.05507    0.216
 5594.00    1.00724   1.06008    0.216
 5595.00    1.01469   1.06633    0.217
 5596.00    1.02194   1.07041    0.217
 5597.00    1.02795   1.07188    0.214
 5598.00    1.03284   1.07445    0.212
 5599.00    1.03239   1.07528    0.214
 5600.00    1.03010   1.07414    0.215
 5601.00    1.02063   1.07556    0.213
 5602.00    1.01661   1.07870    0.210
 5603.00    1.03023   1.08277    0.208
 5604.00    1.04361   1.08908    0.207
 5605.00    1.05636   1.09691    0.208
 5606.00    1.06705   1.10536    0.208
 5607.00    1.07292   1.11297    0.204
 5608.00    1.07766   1.11882    0.202
 5609.00    1.08011   1.12277    0.201
 5610.00    1.08001   1.12358    0.200
 5611.00    1.07539   1.12109    0.200
 5612.00    1.06878   1.11694    0.200
 5613.00    1.05911   1.11065    0.200
 5614.00    1.04881   1.10195    0.200
 5615.00    1.03763   1.09480    0.201
 5616.00    1.03027   1.08923    0.202
 5617.00    1.02746   1.08280    0.201
 5618.00    1.02485   1.07937    0.202
 5619.00    1.02245   1.07916    0.204
 5620.00    1.02254   1.07808    0.203
 5621.00    1.02494   1.07765    0.199
 5622.00    1.02385   1.07867    0.200
 5623.00    1.01990   1.07854    0.204
 5624.00    1.02106   1.07874    0.205
 5625.00    1.02590   1.08089    0.205
 5626.00    1.03195   1.08280    0.206
 5627.00    1.03877   1.08561    0.206
 5628.00    1.04955   1.09125    0.208
 5629.00    1.06252   1.09642    0.210
 5630.00    1.06941   1.10022    0.211
 5631.00    1.07338   1.10441    0.212
 5632.00    1.07936   1.10693    0.210
 5633.00    1.08618   1.10656    0.208
 5634.00    1.07447   1.10513    0.208
 5635.00    1.05619   1.10275    0.208
 5636.00    1.04002   1.09889    0.206
 5637.00    1.02449   1.09502    0.203
 5638.00    1.02990   1.09219    0.201
 5639.00    1.04051   1.08948    0.200
 5640.00    1.04064   1.08724    0.199
 5641.00    1.03864   1.08703    0.198
 5642.00    1.04616   1.08750    0.198
 5643.00    1.05520   1.08790    0.198
 5644.00    1.06520   1.08998    0.197
 5645.00    1.07532   1.09260    0.197
 5646.00    1.07500   1.09482    0.197
 5647.00    1.07384   1.09766    0.198
 5648.00    1.07691   1.10021    0.196
 5649.00    1.08018   1.10230    0.193
 5650.00    1.07756   1.10393    0.196
 5651.00    1.07479   1.10423    0.199
 5652.00    1.06798   1.10405    0.200
 5653.00    1.06151   1.10236    0.200
 5654.00    1.06131   1.09835    0.201
 5655.00    1.06015   1.09490    0.202
 5656.00    1.04843   1.09063    0.202
 5657.00    1.03696   1.08385    0.201
 5658.00    1.02745   1.07974    0.201
 5659.00    1.02014   1.07803    0.201
 5660.00    1.02569   1.07471    0.203
 5661.00    1.03167   1.07407    0.204
 5662.00    1.03960   1.07752    0.206
 5663.00    1.04606   1.08008    0.207
 5664.00    1.04693   1.08279    0.206
 5665.00    1.04632   1.08781    0.205
 5666.00    1.04102   1.09214    0.206
 5667.00    1.03733   1.09542    0.205
 5668.00    1.03795   1.09957    0.203
 5669.00    1.04031   1.10369    0.201
 5670.00    1.04667   1.10738    0.203
 5671.00    1.05922   1.11190    0.205
 5672.00    1.08410   1.11690    0.209
 5673.00    1.09872   1.12115    0.210
 5674.00    1.09546   1.12476    0.207
 5675.00    1.09651   1.12822    0.206
 5676.00    1.10410   1.13022    0.210
 5677.00    1.10710   1.12994    0.211
 5678.00    1.10395   1.12859    0.209
 5679.00    1.09754   1.12656    0.208
 5680.00    1.08729   1.12301    0.207
 5681.00    1.07414   1.11833    0.206
 5682.00    1.05800   1.11422    0.204
 5683.00    1.05166   1.11081    0.202
 5684.00    1.05431   1.10717    0.201
 5685.00    1.06124   1.10457    0.198
 5686.00    1.07162   1.10390    0.195
 5687.00    1.07713   1.10410    0.194
 5688.00    1.07917   1.10547    0.195
 5689.00    1.07732   1.10846    0.195
 5690.00    1.07304   1.11198    0.196
 5691.00    1.07161   1.11591    0.196
 5692.00    1.07174   1.11991    0.197
 5693.00    1.07754   1.12245    0.199
 5694.00    1.08604   1.12345    0.201
 5695.00    1.08947   1.12347    0.203
 5696.00    1.09083   1.12139    0.204
 5697.00    1.09092   1.11687    0.207
 5698.00    1.09058   1.11221    0.210
 5699.00    1.07940   1.10725    0.207
 5700.00    1.06504   1.10074    0.204
 5701.00    1.05498   1.09507    0.205
 5702.00    1.04597   1.09043    0.208
 5703.00    1.04474   1.08545    0.206
 5704.00    1.04504   1.08072    0.203
 5705.00    1.03366   1.07626    0.204
 5706.00    1.02048   1.07271    0.205
 5707.00    1.01440   1.06915    0.203
 5708.00    1.00912   1.06550    0.202
 5709.00    1.02051   1.06530    0.203
 5710.00    1.03316   1.06638    0.204
 5711.00    1.04006   1.06794    0.204
 5712.00    1.04672   1.07448    0.203
 5713.00    1.05333   1.08224    0.202
 5714.00    1.06023   1.08941    0.201
 5715.00    1.07850   1.09993    0.201
 5716.00    1.09599   1.10980    0.201
 5717.00    1.10016   1.11756    0.200
 5718.00    1.10442   1.12649    0.200
 5719.00    1.10968   1.13373    0.198
 5720.00    1.11555   1.13858    0.196
 5721.00    1.12604   1.14370    0.197
 5722.00    1.13584   1.14699    0.198
 5723.00    1.14166   1.14781    0.197
 5724.00    1.14589   1.14861    0.197
 5725.00    1.14285   1.14822    0.198
 5726.00    1.13876   1.14564    0.199
 5727.00    1.13075   1.14342    0.197
 5728.00    1.12532   1.14188    0.197
 5729.00    1.12795   1.13954    0.197
 5730.00    1.13128   1.13759    0.198
 5731.00    1.13646   1.13760    0.200
 5732.00    1.13834   1.13800    0.201
 5733.00    1.13275   1.13788    0.201
 5734.00    1.12757   1.13906    0.201
 5735.00    1.12319   1.14058    0.199
 5736.00    1.11906   1.14088    0.199
 5737.00    1.11536   1.14148    0.202
 5738.00    1.11572   1.14198    0.204
 5739.00    1.12217   1.14158    0.204
 5740.00    1.12707   1.14156    0.000
 5741.00    1.12993   1.14154    0.000
 5742.00    1.12955   1.14123    0.000
 5743.00    1.12541   1.14138    0.000
 5744.00    1.12877   1.14128    0.000
 5745.00    1.13982   1.14100    0.000
 5746.00    1.14200   1.14055    0.000
 5747.00    1.13617   1.13909    0.000
 5748.00    1.13374   1.13765    0.000
 5749.00    1.13403   1.13598    0.000
 5750.00    1.13201   1.13316    0.000
 5751.00    1.12837   1.13107    0.000
 5752.00    1.12449   1.12957    0.000
 5753.00    1.12047   1.12765    0.000
 5754.00    1.11795   1.12716    0.000
 5755.00    1.11624   1.12752    0.000
 5756.00    1.11646   1.12740    0.000
 5757.00    1.11759   1.12812    0.000
 5758.00    1.11872   1.12858    0.000
 5759.00    1.11983   1.12790    0.000
 5760.00    1.12162   1.12789    0.000
 5761.00    1.12363   1.12778    0.000
 5762.00    1.12775   1.12759    0.000
 5763.00    1.13247   1.12966    0.000
 5764.00    1.13530   1.13257    0.000
 5765.00    1.13770   1.13554    0.000
 5766.00    1.14179   1.14025    0.000
 5767.00    1.14622   1.14459    0.000
 5768.00    1.15096   1.14710    0.000
 5769.00    1.15575   1.14958    0.000
 5770.00    1.15175   1.15066    0.000
 5771.00    1.14680   1.14955    0.000
 5772.00    1.14595   1.14862    0.000
 5773.00    1.14539   1.14666    0.000
 5774.00    1.15776   1.14317    0.000
 5775.00    1.17060   1.14029    0.000
 5776.00    1.15987   1.13603    0.000
 5777.00    1.14889   1.12973    0.000
 5778.00    1.13260   1.12355    0.000
 5779.00    1.11638   1.11608    0.000
 5780.00    1.10131   1.10696    0.000
 5781.00    1.08655   1.09866    0.000
 5782.00    1.07498   1.09196    0.000
 5783.00    1.06475   1.08628    0.000
 5784.00    1.06432   1.08246    0.000
 5785.00    1.06555   1.08291    0.000
 5786.00    1.07597   1.08573    0.000
 5787.00    1.08745   1.08908    0.000
 5788.00    1.10365   1.09601    0.000
 5789.00    1.11854   1.10376    0.000
 5790.00    1.12870   1.10980    0.000
 5791.00    1.13415   1.11765   -2.000
 5792.00    1.12522   1.12479   -2.000
 5793.00    1.11814   1.12939   -2.000
 5794.00    1.11584   1.13472   -2.000
 5795.00    1.11779   1.13963   -2.000
 5796.00    1.12922   1.14244   -2.000
 5797.00    1.14028   1.14509   -2.000
 5798.00    1.15061   1.14856   -2.000
 5799.00    1.15876   1.15081   -2.000
 5800.00    1.16324   1.15182   -2.000
 5801.00    1.16798   1.15395   -2.000
 5802.00    1.17312   1.15530   -2.000
 5803.00    1.17527   1.15461   -2.000
 5804.00    1.17354   1.15452   -2.000
 5805.00    1.17254   1.15418   -2.000
 5806.00    1.17236   1.15267   -2.000
 5807.00    1.16967   1.15187   -2.000
 5808.00    1.16446   1.15125   -2.000
 5809.00    1.15965   1.15063   -2.000
 5810.00    1.15522   1.15050   -2.000
 5811.00    1.15768   1.14993    0.000
 5812.00    1.16557   1.14947    0.000
 5813.00    1.16564   1.14944    0.000
 5814.00    1.16031   1.14913    0.000
 5815.00    1.15478   1.14920    0.000
 5816.00    1.14913   1.15033    0.000
 5817.00    1.14964   1.15222    0.000
 5818.00    1.15340   1.15452    0.000
 5819.00    1.15750   1.15755    0.000
 5820.00    1.16176   1.16110    0.000
 5821.00    1.16778   1.16424    0.000
 5822.00    1.17449   1.16698    0.000
 5823.00    1.18139   1.16938    0.000
 5824.00    1.18835   1.17110    0.000
 5825.00    1.18528   1.17237    0.000
 5826.00    1.17936   1.17327    0.000
 5827.00    1.17695   1.17351    0.000
 5828.00    1.17535   1.17366    0.000
 5829.00    1.17514   1.17369    0.000
 5830.00    1.17519   1.17257    0.000
 5831.00    1.17096   1.17134    0.000
 5832.00    1.16610   1.17058    0.000
 5833.00    1.16836   1.16878    0.000
 5834.00    1.17135   1.16674    0.000
 5835.00    1.16562   1.16616    0.000
 5836.00    1.15930   1.16566    0.000
 5837.00    1.15927   1.16486    0.000
 5838.00    1.15946   1.16567    0.000
 5839.00    1.17046   1.16713    0.000
 5840.00    1.18130   1.16783    0.000
 5841.00    1.18680   1.16881    0.000
 5842.00    1.19109   1.16963    0.000
 5843.00    1.17724   1.16886    0.000
 5844.00    1.16323   1.16718    0.000
 5845.00    1.14758   1.16476    0.000
 5846.00    1.13429   1.16079    0.000
 5847.00    1.13753   1.15630    0.000
 5848.00    1.14108   1.15151    0.000
 5849.00    1.14635   1.14584    0.000
 5850.00    1.14921   1.14044    0.000
 5851.00    1.14166   1.13521    0.000
 5852.00    1.13342   1.12934    0.000
 5853.00    1.12267   1.12382    0.000
 5854.00    1.11337   1.11920    0.000
 5855.00    1.10844   1.11475    0.000
 5856.00    1.10482   1.11066    0.000
 5857.00    1.10457   1.10842    0.000
 5858.00    1.10637   1.10749    0.000
 5859.00    1.11266   1.10705    0.000
 5860.00    1.11373   1.10865    0.000
 5861.00    1.10487   1.11114    0.000
 5862.00    1.09699   1.11333    0.000
 5863.00    1.09075   1.11670    0.000
 5864.00    1.09124   1.12030    0.000
 5865.00    1.10155   1.12278    0.000
 5866.00    1.11192   1.12543    0.000
 5867.00    1.12237   1.12837    0.000
 5868.00    1.12761   1.13005    0.000
 5869.00    1.12695   1.13121    0.000
 5870.00    1.12957   1.13182    0.000
 5871.00    1.13545   1.13095    0.000
 5872.00    1.13911   1.12918    0.000
 5873.00    1.14081   1.12622    0.000
 5874.00    1.13504   1.12283    0.000
 5875.00    1.12349   1.11875    0.000
 5876.00    1.11505   1.11441    0.000
 5877.00    1.10872   1.11135    0.000
 5878.00    1.10371   1.10783    0.000
 5879.00    1.09947   1.10429    0.000
 5880.00    1.09171   1.10118    0.000
 5881.00    1.08212   1.09729    0.000
 5882.00    1.07585   1.09147    0.000
 5883.00    1.07108   1.08291    0.000
 5884.00    1.05041   1.07210    0.000
 5885.00    1.02359   1.05704    0.000
 5886.00    1.00609   1.03794    0.000
 5887.00    0.99168   1.01808    0.000
 5888.00    0.97878   0.99553    0.000
 5889.00    0.96629   0.97236    0.000
 5890.00    0.94164   0.95510    0.000
 5891.00    0.91423   0.94040    0.000
 5892.00    0.89927   0.92846    0.000
 5893.00    0.88657   0.92619    0.000
 5894.00    0.88617   0.92775    0.000
 5895.00    0.88749   0.93144    0.000
 5896.00    0.90638   0.94434    0.000
 5897.00    0.92703   0.96029    0.000
 5898.00    0.95951   0.97603    0.000
 5899.00    0.99275   0.99674    0.000
 5900.00    1.01710   1.01821    0.000
 5901.00    1.04118   1.03706    0.189
 5902.00    1.06086   1.05566    0.188
 5903.00    1.08018   1.07212    0.188
 5904.00    1.08926   1.08475    0.190
 5905.00    1.09834   1.09503    0.192
 5906.00    1.10752   1.10305    0.191
 5907.00    1.11680   1.10860    0.190
 5908.00    1.12710   1.11253    0.192
 5909.00    1.13611   1.11485    0.195
 5910.00    1.13647   1.11591    0.197
 5911.00    1.13521   1.11634    0.198
 5912.00    1.12542   1.11542    0.198
 5913.00    1.11640   1.11390    0.198
 5914.00    1.11065   1.11293    0.196
 5915.00    1.10666   1.11161    0.194
 5916.00    1.10887   1.11119    0.195
 5917.00    1.11141   1.11194    0.195
 5918.00    1.11495   1.11265    0.195
 5919.00    1.11933   1.11487    0.194
 5920.00    1.12582   1.11748    0.192
 5921.00    1.12942   1.11926    0.190
 5922.00    1.12680   1.12192    0.189
 5923.00    1.12621   1.12404    0.188
 5924.00    1.12942   1.12502    0.189
 5925.00    1.13062   1.12627    0.189
 5926.00    1.12853   1.12647    0.190
 5927.00    1.12635   1.12616    0.189
 5928.00    1.12401   1.12604    0.187
 5929.00    1.12354   1.12489    0.186
 5930.00    1.12545   1.12424    0.187
 5931.00    1.12582   1.12410    0.187
 5932.00    1.12447   1.12368    0.186
 5933.00    1.12183   1.12352    0.186
 5934.00    1.11791   1.12354    0.185
 5935.00    1.11548   1.12465    0.185
 5936.00    1.11436   1.12546    0.187
 5937.00    1.11508   1.12559    0.188
 5938.00    1.11721   1.12707    0.189
 5939.00    1.12120   1.12804    0.191
 5940.00    1.12645   1.12802    0.192
 5941.00    1.13305   1.12907    0.193
 5942.00    1.14046   1.12997    0.193
 5943.00    1.14132   1.13040    0.195
 5944.00    1.13883   1.13121    0.198
 5945.00    1.13108   1.13160    0.198
 5946.00    1.12099   1.13175    0.196
 5947.00    1.12454   1.13151    0.195
 5948.00    1.13328   1.13013    0.194
 5949.00    1.13328   1.12877    0.194
 5950.00    1.13046   1.12779    0.196
 5951.00    1.13099   1.12572    0.194
 5952.00    1.13243   1.12341    0.192
 5953.00    1.13234   1.12267    0.192
 5954.00    1.13191   1.12225    0.193
 5955.00    1.12970   1.12160    0.190
 5956.00    1.12717   1.12219    0.186
 5957.00    1.12495   1.12390    0.188
 5958.00    1.12277   1.12611    0.190
 5959.00    1.12888   1.12891    0.188
 5960.00    1.13579   1.13231    0.186
 5961.00    1.14307   1.13575    0.186
 5962.00    1.15038   1.13877    0.185
 5963.00    1.14996   1.14210    0.186
 5964.00    1.14930   1.14468    0.188
 5965.00    1.14191   1.14635    0.188
 5966.00    1.13458   1.14885    0.188
 5967.00    1.12897   1.15071    0.187
 5968.00    1.12368   1.15178    0.186
 5969.00    1.12270   1.15330    0.186
 5970.00    1.12285   1.15408    0.186
 5971.00    1.13320   1.15374    0.188
 5972.00    1.14298   1.15279    0.189
 5973.00    1.14894   1.15088    0.188
 5974.00    1.15255   1.14788    0.187
 5975.00    1.14408   1.14417    0.188
 5976.00    1.13699   1.14053    0.190
 5977.00    1.13566   1.13686    0.191
 5978.00    1.13514   1.13336    0.192
 5979.00    1.13739   1.13079    0.193
 5980.00    1.13708   1.12826    0.193
 5981.00    1.12942   1.12623    0.194
 5982.00    1.12256   1.12500    0.194
 5983.00    1.11768   1.12317    0.194
 5984.00    1.11464   1.12268    0.194
 5985.00    1.11550   1.12366    0.194
 5986.00    1.11659   1.12419    0.192
 5987.00    1.11808   1.12587    0.189
 5988.00    1.12145   1.12871    0.187
 5989.00    1.12788   1.13174    0.187
 5990.00    1.13629   1.13460    0.187
 5991.00    1.14750   1.13697    0.187
 5992.00    1.15473   1.13958    0.187
 5993.00    1.15700   1.14117    0.187
 5994.00    1.15464   1.14147    0.187
 5995.00    1.14720   1.14141    0.187
 5996.00    1.14249   1.14017    0.186
 5997.00    1.14043   1.13859    0.185
 5998.00    1.14182   1.13689    0.185
 5999.00    1.14617   1.13454    0.185
 6000.00    1.14531   1.13291    0.187
 6001.00    1.14052   1.13087    0.189
 6002.00    1.13328   1.12818    0.190
 6003.00    1.12442   1.12694    0.189
 6004.00    1.11976   1.12506    0.190
 6005.00    1.11753   1.12277    0.191
 6006.00    1.11500   1.12169    0.191
 6007.00    1.11232   1.11972    0.191
 6008.00    1.11061   1.11884    0.191
 6009.00    1.10932   1.11924    0.192
 6010.00    1.10551   1.11868    0.191
 6011.00    1.10076   1.11871    0.189
 6012.00    1.09705   1.11854    0.190
 6013.00    1.09368   1.11816    0.193
 6014.00    1.09788   1.11853    0.194
 6015.00    1.10410   1.11747    0.194
 6016.00    1.10206   1.11622    0.192
 6017.00    1.09824   1.11632    0.190
 6018.00    1.10428   1.11585    0.190
 6019.00    1.11201   1.11549    0.191
 6020.00    1.11441   1.11634    0.190
 6021.00    1.11612   1.11788    0.190
 6022.00    1.11575   1.12039    0.188
 6023.00    1.11519   1.12320    0.186
 6024.00    1.11906   1.12719    0.185
 6025.00    1.12319   1.13207    0.184
 6026.00    1.13507   1.13632    0.185
 6027.00    1.14714   1.14140    0.186
 6028.00    1.15978   1.14666    0.185
 6029.00    1.17177   1.15101    0.185
 6030.00    1.16854   1.15514    0.186
 6031.00    1.16545   1.15890    0.187
 6032.00    1.16430   1.16220    0.188
 6033.00    1.16345   1.16472    0.189
 6034.00    1.16526   1.16655    0.190
 6035.00    1.16718   1.16801    0.191
 6036.00    1.16987   1.16887    0.189
 6037.00    1.17308   1.16951    0.187
 6038.00    1.17899   1.16969    0.190
 6039.00    1.18450   1.16969    0.192
 6040.00    1.18842   1.17039    0.190
 6041.00    1.19102   1.17084    0.189
 6042.00    1.18917   1.17191    0.192
 6043.00    1.18591   1.17369    0.193
 6044.00    1.17866   1.17508    0.193
 6045.00    1.17331   1.17687    0.193
 6046.00    1.17254   1.17865    0.190
 6047.00    1.17418   1.17965    0.188
 6048.00    1.18087   1.17989    0.188
 6049.00    1.18537   1.17988    0.188
 6050.00    1.18587   1.17900    0.190
 6051.00    1.18500   1.17705    0.189
 6052.00    1.18197   1.17450    0.186
 6053.00    1.17761   1.17174    0.185
 6054.00    1.17143   1.16898    0.185
 6055.00    1.16542   1.16598    0.185
 6056.00    1.15962   1.16332    0.183
 6057.00    1.15669   1.16133    0.182
 6058.00    1.15684   1.15982    0.182
 6059.00    1.15654   1.15844    0.183
 6060.00    1.15581   1.15724    0.185
 6061.00    1.15573   1.15613    0.187
 6062.00    1.15620   1.15520    0.187
 6063.00    1.15902   1.15514    0.189
 6064.00    1.16359   1.15485    0.192
 6065.00    1.16813   1.15594    0.192
 6066.00    1.17265   1.15949    0.191
 6067.00    1.17492   1.16296    0.191
 6068.00    1.17590   1.16729    0.191
 6069.00    1.18140   1.17239    0.190
 6070.00    1.18915   1.17692    0.189
 6071.00    1.19815   1.18127    0.189
 6072.00    1.20770   1.18384    0.190
 6073.00    1.20923   1.18483    0.191
 6074.00    1.20781   1.18469    0.193
 6075.00    1.19933   1.18230    0.191
 6076.00    1.18865   1.17897    0.188
 6077.00    1.18120   1.17430    0.187
 6078.00    1.17459   1.16861    0.187
 6079.00    1.17095   1.16417    0.186
 6080.00    1.16795   1.15924    0.184
 6081.00    1.16596   1.15400    0.183
 6082.00    1.16415   1.15104    0.182
 6083.00    1.16238   1.14885    0.184
 6084.00    1.16062   1.14661    0.188
 6085.00    1.15844   1.14555    0.186
 6086.00    1.15622   1.14491    0.184
 6087.00    1.14963   1.14477    0.182
 6088.00    1.14281   1.14493    0.181
 6089.00    1.14476   1.14407    0.182
 6090.00    1.14686   1.14420    0.183
 6091.00    1.14822   1.14543    0.185
 6092.00    1.14981   1.14569    0.187
 6093.00    1.15639   1.14664    0.186
 6094.00    1.16281   1.14868    0.185
 6095.00    1.16716   1.14988    0.188
 6096.00    1.17069   1.15056    0.190
 6097.00    1.16740   1.15078    0.192
 6098.00    1.16405   1.15011    0.193
 6099.00    1.16032   1.14880    0.191
 6100.00    1.15580   1.14695    0.189
 6101.00    1.14745   1.14335    0.189
 6102.00    1.14060   1.13991    0.189
 6103.00    1.13968   1.13977    0.188
 6104.00    1.14037   1.13963    0.187
 6105.00    1.14631   1.14007    0.188
 6106.00    1.15266   1.14266    0.188
 6107.00    1.16017   1.14523    0.188
 6108.00    1.16581   1.14981    0.188
 6109.00    1.16702   1.15446    0.185
 6110.00    1.16829   1.15682    0.183
 6111.00    1.16966   1.16008    0.183
 6112.00    1.17217   1.16302    0.184
 6113.00    1.17672   1.16406    0.186
 6114.00    1.17923   1.16423    0.187
 6115.00    1.17856   1.16225    0.186
 6116.00    1.17726   1.15919    0.186
 6117.00    1.17507   1.15651    0.186
 6118.00    1.17139   1.15145    0.186
 6119.00    1.16593   1.14575    0.187
 6120.00    1.15758   1.14145    0.188
 6121.00    1.14617   1.13620    0.189
 6122.00    1.13760   1.13335    0.189
 6123.00    1.13173   1.13323    0.189
 6124.00    1.12992   1.13246    0.189
 6125.00    1.13148   1.13372    0.189
 6126.00    1.13815   1.13636    0.190
 6127.00    1.14856   1.13860    0.190
 6128.00    1.15542   1.14139    0.190
 6129.00    1.16000   1.14348    0.191
 6130.00    1.15778   1.14415    0.189
 6131.00    1.15174   1.14336    0.186
 6132.00    1.14640   1.14107    0.185
 6133.00    1.14141   1.13684    0.184
 6134.00    1.13706   1.13167    0.185
 6135.00    1.13299   1.12607    0.188
 6136.00    1.13042   1.11992    0.187
 6137.00    1.12840   1.11702    0.186
 6138.00    1.13145   1.11752    0.186
 6139.00    1.13606   1.11921    0.186
 6140.00    1.13991   1.12255    0.185
 6141.00    1.14357   1.12758    0.184
 6142.00    1.15626   1.13500    0.185
 6143.00    1.17080   1.14262    0.186
 6144.00    1.17937   1.14808    0.187
 6145.00    1.18696   1.15253    0.188
 6146.00    1.17968   1.15564    0.185
 6147.00    1.17059   1.15716    0.182
 6148.00    1.16074   1.15660    0.183
 6149.00    1.15083   1.15453    0.184
 6150.00    1.14559   1.15232    0.184
 6151.00    1.14057   1.14957    0.183
 6152.00    1.14108   1.14644    0.186
 6153.00    1.14155   1.14210    0.188
 6154.00    1.13459   1.13692    0.188
 6155.00    1.12770   1.13177    0.188
 6156.00    1.12213   1.12485    0.190
 6157.00    1.11626   1.11626    0.192
 6158.00    1.10691   1.10716    0.192
 6159.00    1.09728   1.09711    0.192
 6160.00    1.08539   1.08585    0.190
 6161.00    1.07391   1.07564    0.188
 6162.00    1.06491   1.06783    0.186
 6163.00    1.05730   1.06244    0.184
 6164.00    1.05632   1.05959    0.181
 6165.00    1.05599   1.05813    0.178
 6166.00    1.05819   1.05964    0.178
 6167.00    1.06200   1.06347    0.178
 6168.00    1.07104   1.06633    0.181
 6169.00    1.08015   1.07010    0.183
 6170.00    1.08948   1.07599    0.182
 6171.00    1.09651   1.08175    0.180
 6172.00    1.09816   1.08664    0.179
 6173.00    1.09766   1.09176    0.179
 6174.00    1.09284   1.09734    0.180
 6175.00    1.08752   1.10292    0.181
 6176.00    1.08129   1.10774    0.183
 6177.00    1.07739   1.11227    0.183
 6178.00    1.07707   1.11686    0.182
 6179.00    1.08054   1.11994    0.182
 6180.00    1.08913   1.12234    0.184
 6181.00    1.09626   1.12432    0.185
 6182.00    1.10164   1.12435    0.184
 6183.00    1.10411   1.12351    0.184
 6184.00    1.10352   1.12152    0.186
 6185.00    1.10079   1.11718    0.187
 6186.00    1.09606   1.11253    0.188
 6187.00    1.09536   1.10728    0.188
 6188.00    1.09793   1.10171    0.188
 6189.00    1.09937   1.09759    0.186
 6190.00    1.10000   1.09269    0.183
 6191.00    1.10004   1.08989    0.183
 6192.00    1.09971   1.09117    0.185
 6193.00    1.09714   1.09242    0.185
 6194.00    1.09333   1.09488    0.184
 6195.00    1.09396   1.09864    0.190
 6196.00    1.09672   1.10267   -2.000
 6197.00    1.10135   1.10736   -2.000
 6198.00    1.10675   1.11031   -2.000
 6199.00    1.11953   1.11250   -2.000
 6200.00    1.13494   1.11591   -2.000
 6201.00    1.14707   1.11890   -2.000
 6202.00    1.15822   1.12115   -2.000
 6203.00    1.15746   1.12318   -2.000
 6204.00    1.15374   1.12479   -2.000
 6205.00    1.14782   1.12648   -2.000
 6206.00    1.14146   1.12716   -2.000
 6207.00    1.13928   1.12588   -2.000
 6208.00    1.13775   1.12358    0.191
 6209.00    1.13692   1.11950    0.191
 6210.00    1.13618   1.11370    0.190
 6211.00    1.13243   1.10743    0.191
 6212.00    1.12845   1.09949    0.192
 6213.00    1.11272   1.09116    0.188
 6214.00    1.09648   1.08411    0.185
 6215.00    1.08897   1.07739    0.182
 6216.00    1.08168   1.07278    0.180
 6217.00    1.08039   1.06977    0.178
 6218.00    1.07935   1.06699    0.176
 6219.00    1.08296   1.06640    0.178
 6220.00    1.08611   1.06722    0.179
 6221.00    1.08427   1.06878    0.180
 6222.00    1.08206   1.07109    0.181
 6223.00    1.07705   1.07221    0.180
 6224.00    1.07375   1.07316    0.179
 6225.00    1.08048   1.07434    0.178
 6226.00    1.08678   1.07411    0.177
 6227.00    1.09104   1.07322    0.178
 6228.00    1.09378   1.07191    0.180
 6229.00    1.09071   1.06948    0.182
 6230.00    1.08790   1.06800    0.184
 6231.00    1.08588   1.06830    0.182
 6232.00    1.08668   1.06865    0.182
 6233.00    1.09507   1.07060    0.183
 6234.00    1.10086   1.07311    0.185
 6235.00    1.10070   1.07527    0.186
 6236.00    1.09943   1.07764    0.186
 6237.00    1.09598   1.07819    0.184
 6238.00    1.09438   1.07781    0.185
 6239.00    1.09602   1.07584    0.187
 6240.00    1.09723   1.07327    0.188
 6241.00    1.09782   1.07093    0.185
 6242.00    1.09663   1.06709    0.183
 6243.00    1.09308   1.06514    0.182
 6244.00    1.08765   1.06483    0.181
 6245.00    1.08001   1.06439    0.181
 6246.00    1.07709   1.06586    0.181
 6247.00    1.07906   1.06763    0.180
 6248.00    1.08395   1.06852    0.180
 6249.00    1.09150   1.06947    0.179
 6250.00    1.09641   1.06870    0.178
 6251.00    1.09921   1.06592    0.179
 6252.00    1.09407   1.06277    0.179
 6253.00    1.08331   1.05868    0.181
 6254.00    1.07108   1.05449    0.181
 6255.00    1.05793   1.05047    0.182
 6256.00    1.05305   1.04710    0.183
 6257.00    1.05268   1.04575    0.184
 6258.00    1.05128   1.04648    0.188
 6259.00    1.04939   1.05005    0.193
 6260.00    1.05615   1.05444    0.202
 6261.00    1.06643   1.06014    0.213
 6262.00    1.08571   1.06754    0.220
 6263.00    1.10811   1.07411    0.226
 6264.00    1.12033   1.08008    0.223
 6265.00    1.12957   1.08556    0.218
 6266.00    1.12612   1.09051    0.206
 6267.00    1.11960   1.09448    0.193
 6268.00    1.11989   1.09690    0.188
 6269.00    1.12151   1.09892    0.183
 6270.00    1.12601   1.10102    0.181
 6271.00    1.13097   1.10312    0.179
 6272.00    1.12982   1.10501    0.178
 6273.00    1.12799   1.10603    0.177
 6274.00    1.12394   1.10685    0.179
 6275.00    1.11972   1.10794    0.181
 6276.00    1.11631   1.10827    0.181
 6277.00    1.11294   1.10843    0.181
 6278.00    1.10831   1.10858    0.179
 6279.00    1.10394   1.10773    0.177
 6280.00    1.10992   1.10800    0.000
 6281.00    1.11611   1.10914    0.000
 6282.00    1.12602   1.11044    0.000
 6283.00    1.13564   1.11327    0.000
 6284.00    1.14230   1.11542    0.000
 6285.00    1.14910   1.11820    0.000
 6286.00    1.15693   1.12203    0.000
 6287.00    1.16267   1.12453    0.000
 6288.00    1.15655   1.12709    0.000
 6289.00    1.15136   1.12797    0.000
 6290.00    1.15035   1.12708    0.000
 6291.00    1.14940   1.12612    0.000
 6292.00    1.14872   1.12343    0.000
 6293.00    1.14848   1.12059    0.000
 6294.00    1.14966   1.11730    0.000
 6295.00    1.15156   1.11239    0.000
 6296.00    1.15537   1.10820    0.000
 6297.00    1.15649   1.10486    0.000
 6298.00    1.15151   1.10242    0.000
 6299.00    1.14637   1.10074    0.000
 6300.00    1.14090   1.09886    0.000
 6301.00    1.13809   1.09840    0.000
 6302.00    1.13981   1.10000    0.000
 6303.00    1.14159   1.10251    0.000
 6304.00    1.14346   1.10518    0.000
 6305.00    1.14578   1.10787    0.000
 6306.00    1.14871   1.11137    0.000
 6307.00    1.14935   1.11496    0.000
 6308.00    1.14733   1.11730    0.000
 6309.00    1.14799   1.11792    0.000
 6310.00    1.15140   1.11742    0.000
 6311.00    1.14908   1.11619    0.000
 6312.00    1.14159   1.11387    0.000
 6313.00    1.12963   1.11063    0.000
 6314.00    1.11411   1.10637    0.000
 6315.00    1.10526   1.10305    0.000
 6316.00    1.10107   1.10066    0.000
 6317.00    1.10090   1.09810    0.000
 6318.00    1.10321   1.09774    0.000
 6319.00    1.10854   1.09888    0.000
 6320.00    1.11551   1.10129    0.000
 6321.00    1.12235   1.10497    0.180
 6322.00    1.12914   1.10880    0.181
 6323.00    1.14404   1.11430    0.180
 6324.00    1.16220   1.11959    0.179
 6325.00    1.17563   1.12449    0.181
 6326.00    1.18744   1.12869    0.183
 6327.00    1.18875   1.13184    0.182
 6328.00    1.18704   1.13518    0.179
 6329.00    1.18597   1.13581    0.180
 6330.00    1.18504   1.13560    0.181
 6331.00    1.18787   1.13512    0.181
 6332.00    1.19141   1.13322    0.181
 6333.00    1.18787   1.13104    0.183
 6334.00    1.18327   1.12714    0.185
 6335.00    1.17057   1.12344    0.184
 6336.00    1.15698   1.12127    0.184
 6337.00    1.14586   1.11941    0.185
 6338.00    1.13490   1.11753    0.186
 6339.00    1.12884   1.11653    0.185
 6340.00    1.12296   1.11661    0.184
 6341.00    1.12299   1.11718    0.185
 6342.00    1.12329   1.11828    0.186
 6343.00    1.13257   1.11893    0.185
 6344.00    1.14150   1.12060    0.184
 6345.00    1.14485   1.12309    0.185
 6346.00    1.14871   1.12492    0.185
 6347.00    1.15759   1.12698    0.182
 6348.00    1.16621   1.12880    0.179
 6349.00    1.17283   1.13023    0.179
 6350.00    1.17841   1.13143    0.179
 6351.00    1.17819   1.13117    0.180
 6352.00    1.17678   1.12921    0.180
 6353.00    1.17012   1.12578    0.181
 6354.00    1.16370   1.12092    0.181
 6355.00    1.15815   1.11559    0.182
 6356.00    1.15299   1.10956    0.182
 6357.00    1.14898   1.10238    0.181
 6358.00    1.14352   1.09542    0.180
 6359.00    1.13428   1.08979    0.182
 6360.00    1.12638   1.08566    0.183
 6361.00    1.12144   1.08301    0.185
 6362.00    1.12007   1.08227    0.186
 6363.00    1.12561   1.08381    0.186
 6364.00    1.13162   1.08781    0.188
 6365.00    1.13846   1.09368    0.190
 6366.00    1.14640   1.10066    0.191
 6367.00    1.15598   1.10900    0.189
 6368.00    1.16607   1.11762    0.188
 6369.00    1.17681   1.12556    0.189
 6370.00    1.18306   1.13326    0.188
 6371.00    1.18417   1.14017    0.185
 6372.00    1.18598   1.14596    0.183
 6373.00    1.18848   1.15020    0.182
 6374.00    1.19085   1.15268    0.180
 6375.00    1.19311   1.15445    0.178
 6376.00    1.19332   1.15552    0.178
 6377.00    1.19194   1.15527    0.178
 6378.00    1.19121   1.15410    0.179
 6379.00    1.19092   1.15300    0.180
 6380.00    1.19144   1.15196    0.181
 6381.00    1.19245   1.15145    0.181
 6382.00    1.19415   1.15105    0.181
 6383.00    1.19623   1.15050    0.181
 6384.00    1.19468   1.15092    0.181
 6385.00    1.19146   1.15162    0.183
 6386.00    1.18948   1.15216    0.184
 6387.00    1.18797   1.15206    0.185
 6388.00    1.18968   1.15131    0.186
 6389.00    1.19247   1.15047    0.187
 6390.00    1.19236   1.14904    0.187
 6391.00    1.19143   1.14687    0.187
 6392.00    1.18248   1.14368    0.187
 6393.00    1.17165   1.14102    0.187
 6394.00    1.17040   1.13949    0.188
 6395.00    1.17092   1.13832    0.189
 6396.00    1.16772   1.13741    0.188
 6397.00    1.16399   1.13635    0.187
 6398.00    1.16244   1.13618    0.186
 6399.00    1.16111   1.13642    0.185
 6400.00    1.15832   1.13825    0.182
 6401.00    1.15542   1.14079    0.180
 6402.00    1.15381   1.14214    0.180
 6403.00    1.15224   1.14395    0.180
 6404.00    1.16089   1.14488    0.181
 6405.00    1.16950   1.14620    0.182
 6406.00    1.17653   1.14787    0.185
 6407.00    1.18253   1.14734    0.188
 6408.00    1.17312   1.14717    0.184
 6409.00    1.16380   1.14685    0.181
 6410.00    1.15536   1.14539    0.181
 6411.00    1.14804   1.14465    0.182
 6412.00    1.14855   1.14404    0.183
 6413.00    1.15006   1.14394    0.184
 6414.00    1.15704   1.14426    0.187
 6415.00    1.16344   1.14391    0.188
 6416.00    1.16740   1.14365    0.186
 6417.00    1.17130   1.14391    0.185
 6418.00    1.17502   1.14375    0.184
 6419.00    1.17737   1.14351    0.183
 6420.00    1.17560   1.14417    0.184
 6421.00    1.17429   1.14562    0.184
 6422.00    1.17416   1.14805    0.182
 6423.00    1.17655   1.15018    0.180
 6424.00    1.18445   1.15185    0.180
 6425.00    1.19104   1.15403    0.180
 6426.00    1.19511   1.15642    0.181
 6427.00    1.19217   1.15829    0.182
 6428.00    1.17763   1.15828    0.182
 6429.00    1.16747   1.15687    0.182
 6430.00    1.16369   1.15522    0.183
 6431.00    1.16393   1.15475    0.183
 6432.00    1.16931   1.15429    0.184
 6433.00    1.16912   1.15342    0.184
 6434.00    1.16263   1.15310    0.184
 6435.00    1.16088   1.15298    0.184
 6436.00    1.16384   1.15441    0.183
 6437.00    1.16915   1.15596    0.184
 6438.00    1.17653   1.15714    0.187
 6439.00    1.18315   1.15985    0.188
 6440.00    1.18919   1.16292    0.188
 6441.00    1.19351   1.16566    0.188
 6442.00    1.19667   1.16771    0.187
 6443.00    1.20058   1.16854    0.186
 6444.00    1.20494   1.16934    0.184
 6445.00    1.19930   1.16946    0.184
 6446.00    1.18848   1.16718    0.184
 6447.00    1.18057   1.16322    0.184
 6448.00    1.17396   1.15783    0.184
 6449.00    1.17143   1.15234    0.185
 6450.00    1.17046   1.14938    0.186
 6451.00    1.16941   1.14754    0.185
 6452.00    1.16834   1.14665    0.182
 6453.00    1.16888   1.14701    0.182
 6454.00    1.16988   1.14795    0.182
 6455.00    1.17162   1.15159    0.182
 6456.00    1.17353   1.15610    0.182
 6457.00    1.18038   1.15996    0.185
 6458.00    1.18813   1.16321    0.188
 6459.00    1.18451   1.16473    0.189
 6460.00    1.17930   1.16557    0.190
 6461.00    1.17531   1.16566    0.189
 6462.00    1.17143   1.16538    0.188
 6463.00    1.18411   1.16606    0.188
 6464.00    1.19782   1.16647    0.189
 6465.00    1.20566   1.16699    0.187
 6466.00    1.21331   1.16757    0.185
 6467.00    1.21535   1.16861    0.185
 6468.00    1.21749   1.17060    0.184
 6469.00    1.22221   1.17216    0.182
 6470.00    1.22676   1.17332    0.180
 6471.00    1.22880   1.17402    0.182
 6472.00    1.23027   1.17496    0.184
 6473.00    1.22647   1.17495    0.184
 6474.00    1.22247   1.17427    0.184
 6475.00    1.21705   1.17358    0.183
 6476.00    1.21119   1.17259    0.182
 6477.00    1.20299   1.17151    0.183
 6478.00    1.19619   1.16940    0.183
 6479.00    1.19523   1.16688    0.184
 6480.00    1.19457   1.16406    0.184
 6481.00    1.19501   1.16118    0.184
 6482.00    1.19524   1.15875    0.185
 6483.00    1.19490   1.15679    0.187
 6484.00    1.19372   1.15528    0.188
 6485.00    1.19048   1.15350    0.187
 6486.00    1.18786   1.15105    0.186
 6487.00    1.18662   1.14845    0.184
 6488.00    1.18159   1.14454    0.184
 6489.00    1.16948   1.13891    0.186
 6490.00    1.16061   1.13159    0.186
 6491.00    1.15700   1.12247    0.185
 6492.00    1.15441   1.11258    0.184
 6493.00    1.15326   1.10141    0.184
 6494.00    1.14759   1.09142    0.183
 6495.00    1.13621   1.08436    0.182
 6496.00    1.12706   1.07947    0.182
 6497.00    1.12038   1.07824    0.181
 6498.00    1.11634   1.07908    0.180
 6499.00    1.11488   1.08360    0.179
 6500.00    1.11823   1.09189    0.178
 6501.00    1.12575   1.10105    0.178
 6502.00    1.14055   1.11158    0.180
 6503.00    1.16088   1.12163    0.183
 6504.00    1.17525   1.13116    0.185
 6505.00    1.18562   1.14013    0.186
 6506.00    1.19058   1.14707    0.186
 6507.00    1.19237   1.15257    0.186
 6508.00    1.19826   1.15676    0.187
 6509.00    1.20625   1.15989    0.187
 6510.00    1.21254   1.16219    0.188
 6511.00    1.21808   1.16317    0.188
 6512.00    1.21712   1.16339    0.187
 6513.00    1.21370   1.16319    0.185
 6514.00    1.20583   1.16268    0.184
 6515.00    1.19652   1.16189    0.184
 6516.00    1.19751   1.16112    0.184
 6517.00    1.20127   1.16048    0.184
 6518.00    1.20761   1.16010    0.184
 6519.00    1.21451   1.16069    0.184
 6520.00    1.21703   1.16142    0.182
 6521.00    1.21877   1.16264    0.180
 6522.00    1.21677   1.16387    0.180
 6523.00    1.21426   1.16498    0.182
 6524.00    1.21216   1.16651    0.181
 6525.00    1.21009   1.16710    0.180
 6526.00    1.20535   1.16713    0.182
 6527.00    1.20045   1.16719    0.184
 6528.00    1.19998   1.16714    0.000
 6529.00    1.19965   1.16712    0.000
 6530.00    1.20512   1.16682    0.000
 6531.00    1.21041   1.16643    0.000
 6532.00    1.21104   1.16693    0.000
 6533.00    1.21148   1.16808    0.000
 6534.00    1.20944   1.16973    0.000
 6535.00    1.20832   1.17123    0.000
 6536.00    1.21541   1.17238    0.000
 6537.00    1.22271   1.17344    0.000
 6538.00    1.23148   1.17444    0.000
 6539.00    1.23860   1.17490    0.000
 6540.00    1.23735   1.17389    0.000
 6541.00    1.23634   1.17174    0.000
 6542.00    1.23637   1.16862    0.000
 6543.00    1.23764   1.16485    0.000
 6544.00    1.24312   1.16070    0.000
 6545.00    1.24965   1.15554    0.000
 6546.00    1.25921   1.15072    0.000
 6547.00    1.26554   1.14629    0.000
 6548.00    1.26397   1.14168    0.000
 6549.00    1.25870   1.13717    0.000
 6550.00    1.24562   1.13171    0.000
 6551.00    1.23188   1.12622    0.000
 6552.00    1.21694   1.12020    0.000
 6553.00    1.20344   1.11272    0.000
 6554.00    1.19227   1.10376    0.000
 6555.00    1.18081   1.09308    0.000
 6556.00    1.16895   1.08168    0.000
 6557.00    1.16167   1.06886    0.000
 6558.00    1.16010   1.05524    0.000
 6559.00    1.16126   1.04106    0.000
 6560.00    1.16543   1.02744    0.000
 6561.00    1.16982   1.01560    0.000
 6562.00    1.17441   1.00614    0.000
 6563.00    1.17910   1.00356    0.000
 6564.00    1.18387   1.00550    0.000
 6565.00    1.18224   1.01085    0.000
 6566.00    1.17581   1.01953    0.000
 6567.00    1.16806   1.03019    0.000
 6568.00    1.15943   1.04398    0.000
 6569.00    1.15322   1.05802    0.000
 6570.00    1.14841   1.07106    0.000
 6571.00    1.14992   1.08228    0.000
 6572.00    1.15460   1.09107    0.000
 6573.00    1.16785   1.09844    0.000
 6574.00    1.18481   1.10474    0.000
 6575.00    1.19572   1.11109    0.000
 6576.00    1.20438   1.11684    0.000
 6577.00    1.21170   1.12188    0.000
 6578.00    1.21860   1.12653    0.000
 6579.00    1.24335   1.13082    0.000
 6580.00    1.27282   1.13497    0.000
 6581.00    1.31102   1.13901    0.000
 6582.00    1.35112   1.14280    0.000
 6583.00    1.37544   1.14562    0.000
 6584.00    1.39706   1.14800    0.000
 6585.00    1.38921   1.14929    0.000
 6586.00    1.37752   1.15040    0.000
 6587.00    1.34334   1.15125    0.000
 6588.00    1.30710   1.15046    0.000
 6589.00    1.27509   1.14904    0.000
 6590.00    1.24332   1.14611    0.000
 6591.00    1.22597   1.14269    0.000
 6592.00    1.20895   1.13920    0.000
 6593.00    1.19562   1.13630    0.000
 6594.00    1.18260   1.13498    0.000
 6595.00    1.17672   1.13395    0.000
 6596.00    1.17176   1.13393    0.000
 6597.00    1.17848   1.13479    0.000
 6598.00    1.18504   1.13692    0.000
 6599.00    1.19024   1.14016    0.000
 6600.00    1.19595   1.14316    0.000
 6601.00    1.20491   1.14544    0.000
 6602.00    1.21403   1.14678    0.000
 6603.00    1.22394   1.14724    0.000
 6604.00    1.23050   1.14688    0.000
 6605.00    1.22354   1.14599    0.000
 6606.00    1.21578   1.14452    0.000
 6607.00    1.20533   1.14325    0.000
 6608.00    1.19669   1.14216    0.000
 6609.00    1.19317   1.14208    0.183
 6610.00    1.19186   1.14340    0.182
 6611.00    1.19588   1.14531    0.182
 6612.00    1.20105   1.14799    0.182
 6613.00    1.20861   1.15088    0.183
 6614.00    1.21460   1.15463    0.183
 6615.00    1.21772   1.15830    0.183
 6616.00    1.21745   1.16107    0.184
 6617.00    1.21178   1.16322    0.186
 6618.00    1.20978   1.16453    0.188
 6619.00    1.21289   1.16507    0.189
 6620.00    1.21557   1.16455    0.190
 6621.00    1.21773   1.16291    0.191
 6622.00    1.21801   1.16046    0.192
 6623.00    1.21626   1.15753    0.191
 6624.00    1.21070   1.15409    0.191
 6625.00    1.20151   1.15114    0.190
 6626.00    1.19401   1.14798    0.189
 6627.00    1.18793   1.14469    0.188
 6628.00    1.18124   1.14167    0.187
 6629.00    1.17410   1.13863    0.187
 6630.00    1.17109   1.13633    0.186
 6631.00    1.17075   1.13413    0.185
 6632.00    1.17127   1.13238    0.184
 6633.00    1.17225   1.13128    0.184
 6634.00    1.17517   1.13096    0.184
 6635.00    1.17904   1.13134    0.185
 6636.00    1.18717   1.13204    0.186
 6637.00    1.19713   1.13317    0.187
 6638.00    1.20084   1.13442    0.186
 6639.00    1.20227   1.13578    0.185
 6640.00    1.20527   1.13713    0.187
 6641.00    1.20874   1.13831    0.190
 6642.00    1.20769   1.13882    0.191
 6643.00    1.20547   1.13902    0.190
 6644.00    1.20267   1.13949    0.191
 6645.00    1.19975   1.13982    0.192
 6646.00    1.19538   1.14010    0.191
 6647.00    1.19078   1.14026    0.189
 6648.00    1.18851   1.14063    0.189
 6649.00    1.18653   1.14107    0.189
 6650.00    1.19081   1.14120    0.189
 6651.00    1.19564   1.14130    0.189
 6652.00    1.19713   1.14130    0.187
 6653.00    1.19846   1.14091    0.186
 6654.00    1.19993   1.14041    0.183
 6655.00    1.20140   1.13941    0.181
 6656.00    1.20347   1.13802    0.181
 6657.00    1.20513   1.13645    0.181
 6658.00    1.19801   1.13429    0.182
 6659.00    1.19079   1.13193    0.183
 6660.00    1.18222   1.12904    0.184
 6661.00    1.17407   1.12640    0.185
 6662.00    1.16938   1.12380    0.186
 6663.00    1.16475   1.12165    0.187
 6664.00    1.16041   1.12066    0.189
 6665.00    1.15723   1.12008    0.190
 6666.00    1.15973   1.12065    0.190
 6667.00    1.16403   1.12182    0.189
 6668.00    1.17542   1.12392    0.192
 6669.00    1.18487   1.12640    0.192
 6670.00    1.18790   1.12850    0.188
 6671.00    1.19131   1.13037    0.186
 6672.00    1.19574   1.13133    0.187
 6673.00    1.19711   1.13136    0.188
 6674.00    1.19118   1.13028    0.187
 6675.00    1.18332   1.12817    0.186
 6676.00    1.17148   1.12547    0.185
 6677.00    1.16323   1.12252    0.185
 6678.00    1.16137   1.12029    0.187
 6679.00    1.16274   1.11925    0.191
 6680.00    1.16917   1.11858    0.197
 6681.00    1.17195   1.11899    0.201
 6682.00    1.16974   1.12031    0.201
 6683.00    1.16998   1.12253    0.199
 6684.00    1.17319   1.12535    0.194
 6685.00    1.17724   1.12810    0.191
 6686.00    1.18221   1.13100    0.190
 6687.00    1.18522   1.13311    0.191
 6688.00    1.18639   1.13467    0.193
 6689.00    1.18764   1.13579    0.193
 6690.00    1.18896   1.13606    0.193
 6691.00    1.19025   1.13583    0.192
 6692.00    1.19151   1.13487    0.192
 6693.00    1.18914   1.13346    0.192
 6694.00    1.18444   1.13187    0.192
 6695.00    1.18252   1.12992    0.191
 6696.00    1.18217   1.12850    0.000
 6697.00    1.18019   1.12748    0.000
 6698.00    1.17741   1.12681    0.000
 6699.00    1.17689   1.12678    0.000
 6700.00    1.17733   1.12678    0.000
 6701.00    1.17677   1.12710    0.000
 6702.00    1.17586   1.12752    0.000
 6703.00    1.17065   1.12801    0.000
 6704.00    1.16412   1.12868    0.000
 6705.00    1.16637   1.12900    0.000
 6706.00    1.17083   1.12897    0.000
 6707.00    1.17470   1.12818    0.000
 6708.00    1.17843   1.12698    0.000
 6709.00    1.18212   1.12513    0.000
 6710.00    1.18580   1.12274    0.000
 6711.00    1.18949   1.12010    0.000
 6712.00    1.19318   1.11673    0.000
 6713.00    1.20978   1.11326    0.000
 6714.00    1.22745   1.10954    0.000
 6715.00    1.23607   1.10641    0.000
 6716.00    1.24427   1.10418    0.000
 6717.00    1.23826   1.10273    0.000
 6718.00    1.23197   1.10295    0.000
 6719.00    1.22137   1.10373    0.000
 6720.00    1.21072   1.10552    0.000
 6721.00    1.19933   1.10794    0.000
 6722.00    1.18860   1.11086    0.000
 6723.00    1.18534   1.11411    0.000
 6724.00    1.18260   1.11700    0.000
 6725.00    1.18397   1.11982    0.000
 6726.00    1.18564   1.12219    0.000
 6727.00    1.18905   1.12433    0.000
 6728.00    1.19556   1.12592    0.000
 6729.00    1.21679   1.12737    0.000
 6730.00    1.23406   1.12832    0.000
 6731.00    1.23606   1.12890    0.000
 6732.00    1.23560   1.12899    0.000
 6733.00    1.22722   1.12890    0.000
 6734.00    1.21983   1.12848    0.000
 6735.00    1.21515   1.12753    0.000
 6736.00    1.20841   1.12624    0.000
 6737.00    1.19684   1.12451    0.000
 6738.00    1.18831   1.12283    0.000
 6739.00    1.18592   1.12105    0.000
 6740.00    1.18169   1.11936    0.000
 6741.00    1.17421   1.11781    0.000
 6742.00    1.16625   1.11622    0.000
 6743.00    1.15757   1.11493    0.000
 6744.00    1.15310   1.11380    0.000
 6745.00    1.15434   1.11265    0.000
 6746.00    1.15378   1.11199    0.000
 6747.00    1.15109   1.11121    0.000
 6748.00    1.14930   1.11104    0.000
 6749.00    1.14846   1.11086    0.000
 6750.00    1.14146   1.11126    0.000
 6751.00    1.12874   1.11260    0.000
 6752.00    1.12607   1.11379    0.000
 6753.00    1.13162   1.11628    0.209
 6754.00    1.13994   1.11910    0.214
 6755.00    1.15025   1.12252    0.217
 6756.00    1.15013   1.12622    0.218
 6757.00    1.14343   1.12982    0.219
 6758.00    1.15272   1.13336    0.219
 6759.00    1.17082   1.13595    0.218
 6760.00    1.21333   1.13822    0.221
 6761.00    1.26752   1.13945    0.226
 6762.00    1.30095   1.13987    0.229
 6763.00    1.32578   1.13941    0.232
 6764.00    1.33468   1.13818    0.231
 6765.00    1.33793   1.13641    0.229
 6766.00    1.34258   1.13452    0.228
 6767.00    1.34765   1.13288    0.227
 6768.00    1.34497   1.13163    0.224
 6769.00    1.34036   1.13115    0.221
 6770.00    1.33221   1.13139    0.222
 6771.00    1.32335   1.13261    0.223
 6772.00    1.29433   1.13453    0.219
 6773.00    1.26213   1.13704    0.215
 6774.00    1.25075   1.13969    0.212
 6775.00    1.24180   1.14242    0.209
 6776.00    1.22350   1.14457    0.208
 6777.00    1.20446   1.14574    0.207
 6778.00    1.22151   1.14620    0.210
 6779.00    1.24013   1.14533    0.213
 6780.00    1.24541   1.14336    0.214
 6781.00    1.25028   1.14024    0.215
 6782.00    1.24308   1.13666    0.214
 6783.00    1.23617   1.13294    0.213
 6784.00    1.23452   1.12962    0.212
 6785.00    1.23245   1.12723    0.211
 6786.00    1.22566   1.12532    0.209
 6787.00    1.21943   1.12446    0.208
 6788.00    1.21744   1.12417    0.208
 6789.00    1.21783   1.12451    0.209
 6790.00    1.23204   1.12532    0.210
 6791.00    1.24346   1.12639    0.211
 6792.00    1.24197   1.12759    0.212
 6793.00    1.24284   1.12847    0.213
 6794.00    1.25268   1.12968    0.214
 6795.00    1.25615   1.13047    0.214
 6796.00    1.23949   1.13134    0.212
 6797.00    1.22811   1.13252    0.210
 6798.00    1.23085   1.13357    0.209
 6799.00    1.22845   1.13483    0.208
 6800.00    1.21421   1.13587    0.206
 6801.00    1.20605   1.13709    0.205
 6802.00    1.20995   1.13800    0.208
 6803.00    1.21320   1.13863    0.209
 6804.00    1.21533   1.13910    0.211
 6805.00    1.21419   1.13924    0.211
 6806.00    1.20807   1.13910    0.208
 6807.00    1.20481   1.13887    0.206
 6808.00    1.20533   1.13863    0.205
 6809.00    1.20525   1.13821    0.205
 6810.00    1.20445   1.13791    0.207
 6811.00    1.20255   1.13781    0.210
 6812.00    1.19951   1.13773    0.214
 6813.00    1.21060   1.13794    0.217
 6814.00    1.23459   1.13840    0.218
 6815.00    1.24302   1.13932    0.218
 6816.00    1.23894   1.14033    0.217
 6817.00    1.23569   1.14147    0.215
 6818.00    1.23303   1.14292    0.212
 6819.00    1.23488   1.14432    0.210
 6820.00    1.23953   1.14598    0.208
 6821.00    1.24984   1.14751    0.208
 6822.00    1.26322   1.14906    0.208
 6823.00    1.26633   1.15037    0.207
 6824.00    1.26459   1.15118    0.207
 6825.00    1.25633   1.15157    0.206
 6826.00    1.24540   1.15170    0.205
 6827.00    1.24178   1.15166    0.207
 6828.00    1.24070   1.15165    0.210
 6829.00    1.24087   1.15154    0.211
 6830.00    1.24142   1.15126    0.212
 6831.00    1.23723   1.15091    0.212
 6832.00    1.23189   1.15038    0.212
 6833.00    1.22612   1.14966    0.211
 6834.00    1.22027   1.14844    0.209
 6835.00    1.22540   1.14684    0.212
 6836.00    1.23220   1.14460    0.217
 6837.00    1.22853   1.14199    0.218
 6838.00    1.22369   1.13901    0.219
 6839.00    1.21660   1.13597    0.220
 6840.00    1.20933   1.13358    0.221
 6841.00    1.20813   1.13190    0.217
 6842.00    1.20717   1.13130    0.213
 6843.00    1.19127   1.13150    0.209
 6844.00    1.17595   1.13274    0.205
 6845.00    1.18815   1.13460    0.203
 6846.00    1.20048   1.13678    0.201
 6847.00    1.21484   1.13913    0.203
 6848.00    1.22840   1.14108    0.205
 6849.00    1.23355   1.14252    0.203
 6850.00    1.23756   1.14318    0.202
 6851.00    1.23305   1.14287    0.205
 6852.00    1.22800   1.14144    0.207
 6853.00    1.21987   1.13954    0.207
 6854.00    1.21078   1.13711    0.207
 6855.00    1.19737   1.13459    0.205
 6856.00    1.18266   1.13238    0.205
 6857.00    1.16310   1.13021    0.207
 6858.00    1.14813   1.12859    0.209
 6859.00    1.14737   1.12742    0.209
 6860.00    1.15259   1.12701    0.210
 6861.00    1.17354   1.12706    0.211
 6862.00    1.18804   1.12765    0.211
 6863.00    1.18797   1.12859    0.208
 6864.00    1.18481   1.12919    0.206
 6865.00    1.17560   1.12971    0.205
 6866.00    1.17380   1.13018    0.206
 6867.00    1.18467   1.13046    0.211
 6868.00    1.19499   1.13072    0.213
 6869.00    1.20452   1.13105    0.212
 6870.00    1.21319   1.13135    0.211
 6871.00    1.22074   1.13178    0.209
 6872.00    1.22300   1.13243    0.208
 6873.00    1.21911   1.13342    0.209
 6874.00    1.21209   1.13464    0.208
 6875.00    1.20187   1.13624    0.206
 6876.00    1.19668   1.13791    0.206
 6877.00    1.19602   1.13950    0.208
 6878.00    1.19562   1.14072    0.209
 6879.00    1.19543   1.14177    0.210
 6880.00    1.19579   1.14269    0.210
 6881.00    1.19655   1.14363    0.210
 6882.00    1.19623   1.14473    0.208
 6883.00    1.19526   1.14588    0.207
 6884.00    1.18782   1.14761    0.205
 6885.00    1.17691   1.14944    0.204
 6886.00    1.17828   1.15174    0.204
 6887.00    1.18534   1.15427    0.205
 6888.00    1.19016   1.15699    0.204
 6889.00    1.19407   1.15959    0.203
 6890.00    1.19260   1.16208    0.205
 6891.00    1.18930   1.16440    0.208
 6892.00    1.19048   1.16603    0.208
 6893.00    1.19294   1.16753    0.206
 6894.00    1.20283   1.16862    0.208
 6895.00    1.21448   1.16957    0.210
 6896.00    1.21050   1.17032    0.210
 6897.00    1.20355   1.17105    0.210
 6898.00    1.20763   1.17181    0.213
 6899.00    1.21335   1.17274    0.217
 6900.00    1.21322   1.17384    0.214
 6901.00    1.21246   1.17502    0.211
 6902.00    1.21522   1.17624    0.213
 6903.00    1.21822   1.17749    0.216
 6904.00    1.20358   1.17880    0.210
 6905.00    1.18830   1.17981    0.204
 6906.00    1.19027   1.18071    0.204
 6907.00    1.19210   1.18116    0.204
 6908.00    1.18743   1.18128    0.204
 6909.00    1.18319   1.18087    0.205
 6910.00    1.18565   1.18008    0.204
 6911.00    1.18802   1.17880    0.203
 6912.00    1.18936   1.17751    0.205
 6913.00    1.18983   1.17624    0.207
 6914.00    1.18408   1.17492    0.207
 6915.00    1.17962   1.17416    0.208
 6916.00    1.18228   1.17345    0.206
 6917.00    1.18698   1.17325    0.205
 6918.00    1.20066   1.17317    0.209
 6919.00    1.21118   1.17315    0.212
 6920.00    1.21025   1.17304    0.213
 6921.00    1.21044   1.17240    0.213
 6922.00    1.21407   1.17174    0.212
 6923.00    1.21453   1.17050    0.211
 6924.00    1.20680   1.16952    0.208
 6925.00    1.19958   1.16837    0.205
 6926.00    1.19352   1.16743    0.204
 6927.00    1.18720   1.16689    0.204
 6928.00    1.18036   1.16647    0.205
 6929.00    1.18081   1.16668    0.206
 6930.00    1.19350   1.16684    0.205
 6931.00    1.20403   1.16777    0.206
 6932.00    1.21137   1.16882    0.208
 6933.00    1.21177   1.17019    0.210
 6934.00    1.20318   1.17166    0.212
 6935.00    1.20012   1.17303    0.213
 6936.00    1.20335   1.17448    0.213
 6937.00    1.20606   1.17560    0.214
 6938.00    1.20823   1.17670    0.215
 6939.00    1.20888   1.17712    0.216
 6940.00    1.20817   1.17726    0.217
 6941.00    1.20593   1.17685    0.217
 6942.00    1.20249   1.17603    0.217
 6943.00    1.20164   1.17519    0.217
 6944.00    1.20257   1.17433    0.216
 6945.00    1.19346   1.17349    0.213
 6946.00    1.17831   1.17289    0.210
 6947.00    1.17908   1.17250    0.209
 6948.00    1.18823   1.17207    0.208
 6949.00    1.18928   1.17200    0.208
 6950.00    1.18664   1.17200    0.209
 6951.00    1.18123   1.17219    0.208
 6952.00    1.17474   1.17280    0.207
 6953.00    1.18119   1.17371    0.208
 6954.00    1.19198   1.17503    0.209
 6955.00    1.20116   1.17661    0.212
 6956.00    1.20989   1.17863    0.216
 6957.00    1.20804   1.18078    0.218
 6958.00    1.20375   1.18335    0.220
 6959.00    1.20047   1.18594    0.219
 6960.00    1.19738   1.18860    0.219
 6961.00    1.19801   1.19125    0.219
 6962.00    1.19917   1.19357    0.220
 6963.00    1.19221   1.19553    0.216
 6964.00    1.18442   1.19737    0.212
 6965.00    1.18759   1.19890    0.213
 6966.00    1.19149   1.20000    0.214
 6967.00    1.19780   1.20065    0.215
 6968.00    1.20418   1.20069    0.216
 6969.00    1.20429   1.20028    0.214
 6970.00    1.20442   1.19936    0.213
 6971.00    1.20512   1.19757    0.211
 6972.00    1.20556   1.19495    0.211
 6973.00    1.20214   1.19169    0.212
 6974.00    1.19763   1.18782    0.214
 6975.00    1.18262   1.18360    0.215
 6976.00    1.16910   1.17964    0.215
 6977.00    1.16598   1.17672    0.215
 6978.00    1.16200   1.17470    0.215
 6979.00    1.15341   1.17426    0.215
 6980.00    1.14839   1.17527    0.215
 6981.00    1.15877   1.17776    0.214
 6982.00    1.16937   1.18126    0.214
 6983.00    1.18080   1.18543    0.214
 6984.00    1.19228   1.18996    0.214
 6985.00    1.20393   1.19438    0.214
 6986.00    1.21103   1.19810    0.214
 6987.00    1.20657   1.20118    0.215
 6988.00    1.20339   1.20378    0.216
 6989.00    1.20300   1.20558    0.216
 6990.00    1.20559   1.20667    0.216
 6991.00    1.21382   1.20705    0.215
 6992.00    1.21822   1.20703    0.215
 6993.00    1.21627   1.20671    0.215
 6994.00    1.21158   1.20608    0.216
 6995.00    1.20292   1.20521    0.216
 6996.00    1.19634   1.20384    0.217
 6997.00    1.19244   1.20218    0.218
 6998.00    1.18675   1.20054    0.219
 6999.00    1.17907   1.19898    0.221
 7000.00    1.17670   1.19746    0.222
 7001.00    1.17960   1.19582    0.222
 7002.00    1.15011   1.19452    0.221
 7003.00    1.09229   1.19352    0.220
 7004.00    1.09325   1.19297    0.220
 7005.00    1.13952   1.19282    0.221
 7006.00    1.15500   1.19289    0.221
 7007.00    1.14962   1.19321    0.220
 7008.00    1.15066   1.19323    0.222
 7009.00    1.15552   1.19349    0.225
 7010.00    1.15690   1.19348    0.226
 7011.00    1.15648   1.19316    0.225
 7012.00    1.16211   1.19232    0.225
 7013.00    1.17045   1.19103    0.225
 7014.00    1.16304   1.19000    0.226
 7015.00    1.14954   1.18950    0.226
 7016.00    1.15180   1.18921    0.226
 7017.00    1.15924   1.18936    0.226
 7018.00    1.15681   1.18986    0.227
 7019.00    1.15166   1.19069    0.228
 7020.00    1.14538   1.19155    0.231
 7021.00    1.13883   1.19261    0.233
 7022.00    1.14035   1.19381    0.231
 7023.00    1.14332   1.19515    0.228
 7024.00    1.15400   1.19643    0.227
 7025.00    1.16574   1.19782    0.227
 7026.00    1.17601   1.19950    0.227
 7027.00    1.18613   1.20128    0.228
 7028.00    1.18224   1.20315    0.227
 7029.00    1.17747   1.20511    0.225
 7030.00    1.16956   1.20706    0.226
 7031.00    1.16161   1.20906    0.228
 7032.00    1.16855   1.21086    0.231
 7033.00    1.17539   1.21277    0.234
 7034.00    1.17966   1.21444    0.233
 7035.00    1.18424   1.21567    0.232
 7036.00    1.19341   1.21727    0.233
 7037.00    1.20122   1.21962    0.234
 7038.00    1.19649   1.22236    0.234
 7039.00    1.19274   1.22555    0.234
 7040.00    1.19560   1.22894    0.235
 7041.00    1.19783   1.23265    0.235
 7042.00    1.19675   1.23600    0.234
 7043.00    1.20039   1.23959    0.233
 7044.00    1.22390   1.24248    0.238
 7045.00    1.23985   1.24466    0.241
 7046.00    1.22952   1.24550    0.236
 7047.00    1.22405   1.24479    0.233
 7048.00    1.23277   1.24263    0.236
 7049.00    1.24053   1.23838    0.238
 7050.00    1.24587   1.23236   -2.000
 7051.00    1.24797   1.22497   -2.000
 7052.00    1.24309   1.21636   -2.000
 7053.00    1.23748   1.20726   -2.000
 7054.00    1.23050   1.19778   -2.000
 7055.00    1.22629   1.18855   -2.000
 7056.00    1.22658   1.17948   -2.000
 7057.00    1.22835   1.17122   -2.000
 7058.00    1.23226   1.16403   -2.000
 7059.00    1.24314   1.15812   -2.000
 7060.00    1.26279   1.15305   -2.000
 7061.00    1.27378   1.14917   -2.000
 7062.00    1.27518   1.14608   -2.000
 7063.00    1.28361   1.14363   -2.000
 7064.00    1.29893   1.14183   -2.000
 7065.00    1.28756   1.14063   -2.000
 7066.00    1.25317   1.14025   -2.000
 7067.00    1.22538   1.14085   -2.000
 7068.00    1.20260   1.14226   -2.000
 7069.00    1.21223   1.14423   -2.000
 7070.00    1.24351   1.14696   -2.000
 7071.00    1.27070   1.15026   -2.000
 7072.00    1.29549   1.15391   -2.000
 7073.00    1.31129   1.15768   -2.000
 7074.00    1.32251   1.16123   -2.000
 7075.00    1.32375   1.16446   -2.000
 7076.00    1.32059   1.16681   -2.000
 7077.00    1.32105   1.16831   -2.000
 7078.00    1.32288   1.16868   -2.000
 7079.00    1.31586   1.16754   -2.000
 7080.00    1.30600   1.16490   -2.000
 7081.00    1.31054   1.16076   -2.000
 7082.00    1.31896   1.15537   -2.000
 7083.00    1.29519   1.14937   -2.000
 7084.00    1.26432   1.14247   -2.000
 7085.00    1.24646   1.13522   -2.000
 7086.00    1.23089   1.12803   -2.000
 7087.00    1.22715   1.12127   -2.000
 7088.00    1.22499   1.11520   -2.000
 7089.00    1.22670   1.11032   -2.000
 7090.00    1.22877   1.10615   -2.000
 7091.00    1.20864   1.10345   -2.000
 7092.00    1.18721   1.10162   -2.000
 7093.00    1.17504   1.10095   -2.000
 7094.00    1.16326   1.10118   -2.000
 7095.00    1.17418   1.10212   -2.000
 7096.00    1.18361   1.10380   -2.000
 7097.00    1.15621   1.10563   -2.000
 7098.00    1.13049   1.10772   -2.000
 7099.00    1.12714   1.10953   -2.000
 7100.00    1.12211   1.11141   -2.000
 7101.00    1.10232   1.11291   -2.000
 7102.00    1.08594   1.11430   -2.000
 7103.00    1.09193   1.11499   -2.000
 7104.00    1.09753   1.11529   -2.000
 7105.00    1.10111   1.11525   -2.000
 7106.00    1.09994   1.11502   -2.000
 7107.00    1.07921   1.11447   -2.000
 7108.00    1.06171   1.11376   -2.000
 7109.00    1.05523   1.11321   -2.000
 7110.00    1.05708   1.11285   -2.000
 7111.00    1.08285   1.11282   -2.000
 7112.00    1.10096   1.11290   -2.000
 7113.00    1.10030   1.11339   -2.000
 7114.00    1.10300   1.11400   -2.000
 7115.00    1.11284   1.11464   -2.000
 7116.00    1.12590   1.11527   -2.000
 7117.00    1.14490   1.11548   -2.000
 7118.00    1.15642   1.11551   -2.000
 7119.00    1.15590   1.11483   -2.000
 7120.00    1.15734   1.11370   -2.000
 7121.00    1.16154   1.11204   -2.000
 7122.00    1.17249   1.10961   -2.000
 7123.00    1.19185   1.10678   -2.000
 7124.00    1.19679   1.10343   -2.000
 7125.00    1.18599   1.10014   -2.000
 7126.00    1.17539   1.09658   -2.000
 7127.00    1.16499   1.09326   -2.000
 7128.00    1.16837   1.09025   -2.000
 7129.00    1.18349   1.08817   -2.000
 7130.00    1.17992   1.08685   -2.000
 7131.00    1.16237   1.08648   -2.000
 7132.00    1.14783   1.08710   -2.000
 7133.00    1.13529   1.08835   -2.000
 7134.00    1.13140   1.09059   -2.000
 7135.00    1.13250   1.09303   -2.000
 7136.00    1.13174   1.09575   -2.000
 7137.00    1.13006   1.09833   -2.000
 7138.00    1.15220   1.10100   -2.000
 7139.00    1.18470   1.10309   -2.000
 7140.00    1.18765   1.10463   -2.000
 7141.00    1.17960   1.10571   -2.000
 7142.00    1.16805   1.10622   -2.000
 7143.00    1.15540   1.10627   -2.000
 7144.00    1.13733   1.10600   -2.000
 7145.00    1.11784   1.10533   -2.000
 7146.00    1.10644   1.10487   -2.000
 7147.00    1.09678   1.10466   -2.000
 7148.00    1.10700   1.10486   -2.000
 7149.00    1.12062   1.10560   -2.000
 7150.00    1.12125   1.10696   -2.000
 7151.00    1.12021   1.10883   -2.000
 7152.00    1.10985   1.11111   -2.000
 7153.00    1.09866   1.11354   -2.000
 7154.00    1.10788   1.11628   -2.000
 7155.00    1.11823   1.11849   -2.000
 7156.00    1.10064   1.12031   -2.000
 7157.00    1.08270   1.12150   -2.000
 7158.00    1.08684   1.12208   -2.000
 7159.00    1.09227   1.12213   -2.000
 7160.00    1.12733   1.12154   -2.000
 7161.00    1.16167   1.12070   -2.000
 7162.00    1.18679   1.11973   -2.000
 7163.00    1.21182   1.11931   -2.000
 7164.00    1.23605   1.11935   -2.000
 7165.00    1.25462   1.12009   -2.000
 7166.00    1.23737   1.12154   -2.000
 7167.00    1.22225   1.12365   -2.000
 7168.00    1.21765   1.12649   -2.000
 7169.00    1.21067   1.12965   -2.000
 7170.00    1.19408   1.13295   -2.000
 7171.00    1.17910   1.13588   -2.000
 7172.00    1.16956   1.13840   -2.000
 7173.00    1.15746   1.14024   -2.000
 7174.00    1.13815   1.14128   -2.000
 7175.00    1.12947   1.14170   -2.000
 7176.00    1.14640   1.14116   -2.000
 7177.00    1.16166   1.14012   -2.000
 7178.00    1.17343   1.13866   -2.000
 7179.00    1.17557   1.13712   -2.000
 7180.00    1.16030   1.13561   -2.000
 7181.00    1.13713   1.13404   -2.000
 7182.00    1.10145   1.13242   -2.000
 7183.00    1.08195   1.13086   -2.000
 7184.00    1.08494   1.12929   -2.000
 7185.00    1.08421   1.12773   -2.000
 7186.00    1.07893   1.12640   -2.000
 7187.00    1.08773   1.12506   -2.000
 7188.00    1.11169   1.12406   -2.000
 7189.00    1.11296   1.12322   -2.000
 7190.00    1.09266   1.12292   -2.000
 7191.00    1.08013   1.12305   -2.000
 7192.00    1.07414   1.12372   -2.000
 7193.00    1.07990   1.12489   -2.000
 7194.00    1.09435   1.12631   -2.000
 7195.00    1.10192   1.12812   -2.000
 7196.00    1.10504   1.12995   -2.000
 7197.00    1.08218   1.13178   -2.000
 7198.00    1.04460   1.13346   -2.000
 7199.00    1.06919   1.13490   -2.000
 7200.00    1.12450   1.13609   -2.000
 7201.00    1.14383   1.13685   -2.000
 7202.00    1.14780   1.13706   -2.000
 7203.00    1.15100   1.13692   -2.000
 7204.00    1.15392   1.13630   -2.000
 7205.00    1.11165   1.13566   -2.000
 7206.00    1.05540   1.13507   -2.000
 7207.00    1.03992   1.13459   -2.000
 7208.00    1.03497   1.13453   -2.000
 7209.00    1.02501   1.13473   -2.000
 7210.00    1.01398   1.13563   -2.000
 7211.00    1.02572   1.13694   -2.000
 7212.00    1.04124   1.13895   -2.000
 7213.00    1.05314   1.14130   -2.000
 7214.00    1.06459   1.14393   -2.000
 7215.00    1.05462   1.14672   -2.000
 7216.00    1.04280   1.14940   -2.000
 7217.00    1.05396   1.15210   -2.000
 7218.00    1.06629   1.15458   -2.000
