###################################################################
## OUTPUT of StarlightChains_v04.for    [Cid@UFSC - 01/Apr/2007] ##
###################################################################

## Some input info
KUG0210-078._32_34.txt                   [arq_obs]
Base.CB07.vall.4m                        [arq_base]
Masks.EmLines.NEW.gm                     [arq_masks]
StCv04.C11.config                        [arq_config]
   66                                    [N_base]
    0                                    [N_YAV_components = # of components with extra extinction!]
    0                                    [i_FitPowerLaw (1/0 = Yes/No)]
-9.99                                    [alpha_PowerLaw]
CCM                                      [red_law_option]
 1.458241                                [q_norm = A(l_norm)/A(V)]

## (Re)Sampling Parameters
 3741.00                                 [l_ini (A)]
 7218.00                                 [l_fin (A)]
    1.00                                 [dl    (A)]     (OBS: dl_cushion =    50.00 A)

## Normalization info
 4020.00                                 [l_norm (A) - for base]
 4010.00                                 [llow_norm (A) - window for f_obs]
 4060.00                                 [lupp_norm (A) - window for f_obs]
8.062147E-17                             [fobs_norm (in input units)]

## S/N
 3691.00                                 [llow_SN (A) - window for S/N]
 7268.00                                 [lupp_SN (A) - window for S/N]
   4.276                                 [S/N in S/N window]
   2.930                                 [S/N in norm. window]
   0.197                                 [S/N_err in S/N window]
   0.135                                 [S/N_err in norm. window]
  1.0000                                 [fscale_chi2]

## etc...
    -2007482                             [idum_orig]
  2432                                   [NOl_eff]
  2380                                   [Nl_eff]
    52    NSIGMA                         [Ntot_cliped & clip_method]
 15710590                                [Nglobal_steps]
   7                                     [N_chains]
  10                                     [NEX0s_base = N_base in EX0s-fits]
 0   0   1       52   2.0   2.466E+04    [Clip-Bug, RC-Crash & Burn-In warning-flags, n_censored_weights, wei_nsig_threshold & wei_limit]
   111    110.612    109.541      1.071  [idt_all, wdt_TotTime, wdt_UsrTime & wdt_SysTime (sec)]

## Synthesis Results - Best model ##

 1.62087E-04                             [chi2/Nl_eff]
     5.14032                             [adev (%)]

   113.35214                             [sum-of-x (%)]
 1.51789E-16                             [Flux_tot (units of input spectrum!)]
 7.79302E-12                             [Mini_tot (???)]
 3.99413E-12                             [Mcor_tot (???)]

 -47.24                                  [v0_min  (km/s)]
 269.92                                  [vd_min  (km/s)]
 0.3778                                  [AV_min  (mag)]
 0.0000                                  [YAV_min (mag)]

# j     x_j(%)      Mini_j(%)     Mcor_j(%)     age_j(yr)     Z_j      (L/M)_j    YAV?  Mstars   component_j        a/Fe...       SSP_chi2r SSP_adev(%)   SSP_AV   SSP_x(%)
  1      0.0000     0.0000E+00    0.0000E+00    1.000000E+06  0.00400  1.094E-02    0   1.0000   age020_m42            0.0000     6.7911E-04    10.5723   4.0000    95.2981
  2      0.0000     0.0000E+00    0.0000E+00    3.160000E+06  0.00400  4.007E-02    0   0.9999   age045_m42            0.0000     5.2989E-04     9.1159   3.2979   100.8987
  3      0.0000     0.0000E+00    0.0000E+00    5.010000E+06  0.00400  2.539E-02    0   0.9488   age055_m42            0.0000     5.9274E-04     9.6905   3.6209    98.3130
  4      0.0000     0.0000E+00    0.0000E+00    6.610000E+06  0.00400  2.620E-02    0   0.9220   age061_m42            0.0000     5.2640E-04     8.9220   3.2203   101.2019
  5      0.0000     0.0000E+00    0.0000E+00    1.000000E+07  0.00400  1.322E-02    0   0.8862   age070_m42            0.0000     5.8598E-04     9.1257   2.9261   103.3386
  6      0.0000     0.0000E+00    0.0000E+00    1.445000E+07  0.00400  7.883E-03    0   0.8571   age078_m42            0.0000     6.1798E-04     9.4265   3.2550   100.7037
  7      0.0000     0.0000E+00    0.0000E+00    2.512000E+07  0.00400  5.251E-03    0   0.8174   age090_m42            0.0000     5.9324E-04     9.1954   2.7945   103.9047
  8      0.0000     0.0000E+00    0.0000E+00    4.000000E+07  0.00400  3.649E-03    0   0.7851   age104_m42            0.0000     5.5501E-04     8.8862   2.5661   104.8825
  9      0.0000     0.0000E+00    0.0000E+00    5.500000E+07  0.00400  3.098E-03    0   0.7629   age110_m42            0.0000     5.0903E-04     8.4330   2.7228   104.9482
 10      0.0000     0.0000E+00    0.0000E+00    1.015200E+08  0.00400  2.228E-03    0   0.7207   age116_m42            0.0000     4.8214E-04     8.1428   2.7443   105.2269
 11      0.0000     0.0000E+00    0.0000E+00    2.861200E+08  0.00400  1.093E-03    0   0.6648   age125_m42            0.0000     4.7325E-04     7.7806   2.1596   108.6233
 12      0.0000     0.0000E+00    0.0000E+00    5.088000E+08  0.00400  6.597E-04    0   0.6365   age130_m42            0.0000     4.1647E-04     7.2681   2.1545   109.6324
 13      0.0000     0.0000E+00    0.0000E+00    1.434000E+09  0.00400  2.132E-04    0   0.5798   age139_m42            0.0000     2.9444E-04     6.4074   1.1930   111.7781
 14      0.0000     0.0000E+00    0.0000E+00    4.250000E+09  0.00400  5.895E-05    0   0.5377   age158_m42            0.0000     2.4748E-04     6.3233   0.7622   107.5281
 15      0.0000     0.0000E+00    0.0000E+00    7.500000E+09  0.00400  3.510E-05    0   0.5212   age171_m42            0.0000     2.2805E-04     6.1270   0.5745   106.8982
 16      0.0000     0.0000E+00    0.0000E+00    1.300000E+10  0.00400  2.005E-05    0   0.5034   age193_m42            0.0000     2.1926E-04     6.0145   0.4087   106.3968
 17      0.0000     0.0000E+00    0.0000E+00    1.800000E+10  0.00400  1.525E-05    0   0.4967   age213_m42            0.0000     2.2575E-04     6.1012   0.3869   105.8804
 18      0.0000     0.0000E+00    0.0000E+00    1.000000E+06  0.00800  1.238E-02    0   1.0000   age020_m52            0.0000     6.7828E-04    10.5679   4.0000    95.3623
 19      0.0000     0.0000E+00    0.0000E+00    3.160000E+06  0.00800  3.074E-02    0   0.9966   age045_m52            0.0000     6.6333E-04    10.4820   3.9521    95.2204
 20      0.0000     0.0000E+00    0.0000E+00    5.010000E+06  0.00800  2.668E-02    0   0.9443   age055_m52            0.0000     6.1097E-04     9.8614   3.7044    97.4067
 21      0.0000     0.0000E+00    0.0000E+00    6.610000E+06  0.00800  2.136E-02    0   0.9177   age061_m52            0.0000     5.3705E-04     8.9525   2.4323   104.4806
 22      0.0000     0.0000E+00    0.0000E+00    1.000000E+07  0.00800  1.215E-02    0   0.8827   age070_m52            0.0000     6.3264E-04     9.4458   3.1007   103.1104
 23      0.0000     0.0000E+00    0.0000E+00    1.445000E+07  0.00800  8.717E-03    0   0.8552   age078_m52            0.0000     6.0318E-04     9.2801   3.2203   102.1099
 24      0.0000     0.0000E+00    0.0000E+00    2.512000E+07  0.00800  5.592E-03    0   0.8162   age090_m52            0.0000     5.8814E-04     9.0990   2.8544   105.2372
 25      0.0000     0.0000E+00    0.0000E+00    4.000000E+07  0.00800  3.896E-03    0   0.7841   age104_m52            0.0000     5.4243E-04     8.6635   2.7649   106.1825
 26      0.0000     0.0000E+00    0.0000E+00    1.015200E+08  0.00800  2.148E-03    0   0.7226   age116_m52            0.0000     4.8408E-04     8.1449   2.7073   106.1124
 27      0.0000     0.0000E+00    0.0000E+00    2.861200E+08  0.00800  9.925E-04    0   0.6683   age125_m52            0.0000     4.1127E-04     7.2230   2.2181   110.6857
 28      0.0000     0.0000E+00    0.0000E+00    9.047900E+08  0.00800  3.141E-04    0   0.6138   age135_m52            0.0000     2.6602E-04     5.8990   1.4219   115.5951
 29      0.0000     0.0000E+00    0.0000E+00    1.434000E+09  0.00800  1.719E-04    0   0.5853   age139_m52            0.0000     2.3518E-04     5.6512   0.8449   113.2234
 30      0.0000     0.0000E+00    0.0000E+00    2.500000E+09  0.00800  7.872E-05    0   0.5600   age150_m52            0.0000     1.9679E-04     5.6062   0.5883   110.1904
 31      0.0000     0.0000E+00    0.0000E+00    4.250000E+09  0.00800  4.336E-05    0   0.5426   age158_m52            0.0000     1.9940E-04     5.7175   0.5745   109.1342
 32      0.0000     0.0000E+00    0.0000E+00    6.250000E+09  0.00800  3.159E-05    0   0.5319   age166_m52            0.0000     1.8446E-04     5.5273   0.3735   109.2718
 33      0.0000     0.0000E+00    0.0000E+00    1.300000E+10  0.00800  1.361E-05    0   0.5073   age193_m52            0.0000     1.7940E-04     5.4044  -0.0916   108.6885
 34      0.0000     0.0000E+00    0.0000E+00    1.800000E+10  0.00800  9.886E-06    0   0.4990   age213_m52            0.0000     1.8930E-04     5.5522  -0.1985   108.2916
 35      0.0000     0.0000E+00    0.0000E+00    1.000000E+06  0.02000  1.544E-02    0   1.0000   age020_m62            0.0000     6.8248E-04    10.5984   4.0000    95.4485
 36      0.7226     3.3004E-04    6.3481E-04    3.160000E+06  0.02000  3.762E-02    0   0.9858   age045_m62            0.0000     6.7824E-04    10.5696   3.9653    95.3595
 37      0.0000     0.0000E+00    0.0000E+00    5.010000E+06  0.02000  3.296E-02    0   0.9342   age055_m62            0.0000     5.6213E-04     9.4021   3.5802    99.6106
 38      0.0000     0.0000E+00    0.0000E+00    8.710000E+06  0.02000  1.154E-02    0   0.8861   age067_m62            0.0000     9.4723E-04    12.2931   2.5314   105.7201
 39      0.0000     0.0000E+00    0.0000E+00    1.445000E+07  0.02000  7.663E-03    0   0.8472   age078_m62            0.0000     6.9132E-04     9.9173   2.7361   105.5130
 40      0.0000     0.0000E+00    0.0000E+00    2.512000E+07  0.02000  4.532E-03    0   0.8099   age090_m62            0.0000     7.0614E-04    10.0175   2.7251   105.2428
 41      0.0000     0.0000E+00    0.0000E+00    5.500000E+07  0.02000  2.733E-03    0   0.7595   age110_m62            0.0000     5.4706E-04     8.6746   2.7502   105.3491
 42      0.0000     0.0000E+00    0.0000E+00    1.609000E+08  0.02000  1.369E-03    0   0.6985   age120_m62            0.0000     4.6145E-04     7.7354   2.5867   108.5890
 43      0.0000     0.0000E+00    0.0000E+00    2.861200E+08  0.02000  9.013E-04    0   0.6714   age125_m62            0.0000     4.1162E-04     7.2893   2.3355   111.9173
 44      0.0000     0.0000E+00    0.0000E+00    5.088000E+08  0.02000  5.028E-04    0   0.6449   age130_m62            0.0000     3.1982E-04     6.6323   1.9623   115.0640
 45      0.0000     0.0000E+00    0.0000E+00    9.047900E+08  0.02000  2.428E-04    0   0.6179   age135_m62            0.0000     2.2450E-04     5.7369   1.3767   114.6403
 46      0.0000     0.0000E+00    0.0000E+00    1.434000E+09  0.02000  1.263E-04    0   0.5908   age139_m62            0.0000     1.9638E-04     5.5402   0.9358   113.0145
 47      0.0000     0.0000E+00    0.0000E+00    2.500000E+09  0.02000  5.985E-05    0   0.5673   age150_m62            0.0000     1.8096E-04     5.5651   0.5759   111.5384
 48      0.2241     1.1773E-01    1.2560E-01    4.250000E+09  0.02000  3.271E-05    0   0.5468   age158_m62            0.0000     1.7823E-04     5.4836   0.2749   110.7352
 49     23.8645     3.0152E+01    3.0398E+01    1.000000E+10  0.02000  1.360E-05    0   0.5167   age181_m62            0.0000     1.9477E-04     5.6898  -0.0740   110.5935
 50     15.7267     3.7933E+01    3.7102E+01    1.800000E+10  0.02000  7.124E-06    0   0.5013   age213_m62            0.0000     2.3292E-04     6.2927  -0.2841   109.9283
 51      0.0000     0.0000E+00    0.0000E+00    1.000000E+06  0.05000  2.592E-02    0   0.9998   age020_m72            0.0000     6.9762E-04    10.7181   4.0000    95.1771
 52      0.0000     0.0000E+00    0.0000E+00    3.160000E+06  0.05000  4.845E-02    0   0.9577   age045_m72            0.0000     6.3111E-04    10.1729   3.8456    96.7640
 53      0.0000     0.0000E+00    0.0000E+00    5.010000E+06  0.05000  3.072E-02    0   0.9147   age055_m72            0.0000     6.8524E-04     9.6962   3.3267   101.5436
 54      0.0000     0.0000E+00    0.0000E+00    6.610000E+06  0.05000  1.455E-02    0   0.8877   age061_m72            0.0000     1.3021E-03    15.1430   2.5388   106.9847
 55      0.0000     0.0000E+00    0.0000E+00    1.000000E+07  0.05000  9.074E-03    0   0.8524   age070_m72            0.0000     7.7532E-04    10.3584   3.4893   101.6132
 56      0.0000     0.0000E+00    0.0000E+00    2.512000E+07  0.05000  4.250E-03    0   0.7902   age090_m72            0.0000     6.6697E-04     9.4573   3.1953   103.5013
 57      0.0000     0.0000E+00    0.0000E+00    4.000000E+07  0.05000  3.087E-03    0   0.7618   age104_m72            0.0000     6.6060E-04     9.4257   2.9631   105.3310
 58      0.0000     0.0000E+00    0.0000E+00    1.015200E+08  0.05000  1.700E-03    0   0.7096   age116_m72            0.0000     5.0842E-04     8.0539   2.7214   108.2178
 59      0.0000     0.0000E+00    0.0000E+00    2.861200E+08  0.05000  7.384E-04    0   0.6633   age125_m72            0.0000     3.5438E-04     6.8268   2.2039   113.6344
 60      0.0000     0.0000E+00    0.0000E+00    5.088000E+08  0.05000  3.819E-04    0   0.6372   age130_m72            0.0000     2.5202E-04     6.1479   1.7192   115.6390
 61     64.2657     6.5888E+00    7.8548E+00    9.047900E+08  0.05000  1.676E-04    0   0.6110   age135_m72            0.0000     1.8830E-04     5.6907   1.0332   113.7490
 62      0.0000     0.0000E+00    0.0000E+00    1.434000E+09  0.05000  8.837E-05    0   0.5874   age139_m72            0.0000     1.7500E-04     5.3906   0.5719   113.3829
 63      0.0000     0.0000E+00    0.0000E+00    2.500000E+09  0.05000  4.233E-05    0   0.5598   age150_m72            0.0000     1.7924E-04     5.4654   0.2721   111.8926
 64      2.7864     3.3365E+00    3.4170E+00    6.250000E+09  0.05000  1.435E-05    0   0.5249   age166_m72            0.0000     2.0923E-04     5.8282  -0.1701   110.2211
 65      0.0000     0.0000E+00    0.0000E+00    1.300000E+10  0.05000  6.513E-06    0   0.5036   age193_m72            0.0000     2.6991E-04     6.7928  -0.4489   111.4271
 66      5.7621     2.1871E+01    2.1102E+01    1.800000E+10  0.05000  4.527E-06    0   0.4945   age213_m72            0.0000     3.2109E-04     7.4936  -0.6092   111.2686


## Synthesis Results - Average & Chains ##

# j      x_j: min, <> & last-chain-values for 1 ...  7 chains
  1      0.0000      0.2750      0.0439      0.0163      0.0258      0.0000      0.0055      0.0306      0.0239
  2      0.0000      0.2349      0.0331      0.0081      0.0299      0.1093      0.0080      0.0167      0.0186
  3      0.0000      0.2781      0.0096      0.0175      0.0015      0.0040      0.0000      0.0364      0.0347
  4      0.0000      0.1775      0.0401      0.0171      0.0196      0.0856      0.0318      0.0270      0.0127
  5      0.0000      0.1877      0.0160      0.0388      0.0280      0.0004      0.0000      0.0394      0.0361
  6      0.0000      0.2545      0.0082      0.1343      0.0098      0.0627      0.0044      0.0230      0.0120
  7      0.0000      0.2069      0.0581      0.0024      0.0293      0.0094      0.0109      0.0277      0.0360
  8      0.0000      0.2715      0.0591      0.0361      0.0150      0.0000      0.0221      0.0134      0.0430
  9      0.0000      0.2765      0.0275      0.0108      0.0249      0.0059      0.0000      0.0000      0.0177
 10      0.0000      0.1841      0.1411      0.0248      0.0000      0.0522      0.0005      0.0245      0.0581
 11      0.0000      0.3121      0.1138      0.0122      0.0591      0.0413      0.0270      0.0855      0.0166
 12      0.0000      0.2450      0.0332      0.0028      0.0407      0.0603      0.0282      0.0723      0.0430
 13      0.0000      0.2686      0.0629      0.0437      0.0159      0.0862      0.0169      0.0040      0.0188
 14      0.0000      0.2725      0.0785      0.0705      0.0351      0.0209      0.0480      0.0065      0.0293
 15      0.0000      0.2092      0.1575      0.0214      0.0000      0.0000      0.0232      0.0185      0.0449
 16      0.0000      0.2593      0.0000      0.0173      0.0840      0.0305      0.0107      0.0321      0.0117
 17      0.0000      0.2302      0.0144      0.0000      0.0244      0.0192      0.0881      0.0110      0.0450
 18      0.0000      0.3000      0.0767      0.0271      0.0174      0.0309      0.0244      0.0253      0.0080
 19      0.0000      0.1949      0.0073      0.0000      0.0114      0.0548      0.0029      0.0543      0.0065
 20      0.0000      0.2395      0.0292      0.0351      0.0666      0.0012      0.0220      0.0176      0.0198
 21      0.0000      0.2495      0.0268      0.0170      0.0440      0.0000      0.0253      0.0000      0.0000
 22      0.0000      0.2438      0.0463      0.0364      0.0306      0.0523      0.0000      0.0151      0.0767
 23      0.0000      0.2180      0.0228      0.0000      0.0395      0.0372      0.0000      0.0352      0.0329
 24      0.0000      0.3344      0.0353      0.0239      0.0445      0.0381      0.0259      0.0148      0.0170
 25      0.0000      0.2115      0.0555      0.0000      0.0096      0.0175      0.0205      0.0446      0.0101
 26      0.0000      0.2607      0.0000      0.0764      0.0395      0.0441      0.0236      0.0030      0.0181
 27      0.0000      0.2424      0.0145      0.1050      0.0349      0.0102      0.0059      0.0347      0.0138
 28      0.0000      0.3490      0.0469      0.0191      0.0484      0.0000      0.0419      0.0772      0.0351
 29      0.0000      0.3436      0.0004      0.0536      0.0373      0.1223      0.0263      0.0379      0.0102
 30      0.0000      0.2619      0.0396      0.0081      0.0215      0.0373      0.0000      0.0275      0.0456
 31      0.0000      0.2685      0.0083      0.0251      0.0011      0.0421      0.0002      0.0466      0.0089
 32      0.0000      0.2797      0.0321      0.0380      0.0092      0.0000      0.0289      0.0301      0.0186
 33      0.0000      0.2724      0.0338      0.0257      0.0258      0.0230      0.0229      0.0070      0.0636
 34      0.0000      0.2751      0.1437      0.0348      0.0823      0.2504      0.0153      0.0055      0.0281
 35      0.0000      0.2961      0.0734      0.0605      0.0177      0.0448      0.0000      0.0564      0.0000
 36      0.7226      0.9221      0.8618      1.0208      1.0080      0.9704      0.8003      1.0274      0.8774
 37      0.0000      0.2210      0.0296      0.0210      0.0184      0.0703      0.0000      0.0264      0.0295
 38      0.0000      0.2124      0.0775      0.0017      0.0239      0.1027      0.0533      0.0476      0.0285
 39      0.0000      0.2461      0.0294      0.0063      0.0291      0.0195      0.0150      0.0179      0.0000
 40      0.0000      0.2687      0.0330      0.0207      0.0105      0.0281      0.0114      0.0453      0.0077
 41      0.0000      0.2347      0.0209      0.0530      0.0417      0.1218      0.0084      0.0108      0.0397
 42      0.0000      0.2704      0.0304      0.0269      0.0325      0.0394      0.0110      0.0091      0.0000
 43      0.0000      0.2383      0.1178      0.0210      0.0304      0.1031      0.0278      0.0238      0.0061
 44      0.0000      0.3194      0.0807      0.0372      0.0291      0.1553      0.0073      0.0220      0.0005
 45      0.0000      0.2950      0.0740      0.0510      0.0069      0.0021      0.0173      0.0257      0.0000
 46      0.0000      0.2079      0.0399      0.0289      0.0082      0.0253      0.0194      0.0362      0.0073
 47      0.0000      3.7616      3.0643      3.6660      3.6632      2.9743      7.2513      3.6840      5.4799
 48      0.2241      4.6081      3.5470      5.6663      6.8540      5.5197      3.5846      5.7898      7.0191
 49     23.8645      0.9011      0.8274      0.8354      0.8456      0.8155      0.8395      0.8581      0.8136
 50     15.7267      0.7028      0.6583      0.5934      0.6380      0.6551      0.5953      0.5868      0.6504
 51      0.0000      0.2158      0.0000      0.0000      0.0235      0.0000      0.0185      0.0440      0.0293
 52      0.0000      0.1935      0.0195      0.0221      0.0857      0.0000      0.0000      0.0136      0.0153
 53      0.0000      0.2582      0.0259      0.0153      0.0431      0.0070      0.0324      0.0058      0.0174
 54      0.0000      0.1986      0.0201      0.0150      0.0052      0.0319      0.0701      0.0025      0.0094
 55      0.0000      0.2128      0.0065      0.0517      0.0510      0.0240      0.0000      0.0079      0.0244
 56      0.0000      0.2307      0.0889      0.0079      0.0557      0.0277      0.0202      0.0350      0.0188
 57      0.0000      0.2309      0.0291      0.0835      0.0807      0.0043      0.0058      0.0534      0.0015
 58      0.0000      0.2781      0.0285      0.0474      0.0000      0.0571      0.0142      0.0268      0.0221
 59      0.0000      0.2514      0.0259      0.0489      0.0443      0.0362      0.0000      0.0279      0.0232
 60      0.0000      0.2757      0.0530      0.0388      0.0576      0.0347      0.0326      0.0226      0.0183
 61     64.2657     50.2797     44.9559     46.3358     44.8064     43.4145     35.7696     98.9349     39.1246
 62      0.0000      0.2806      0.0054      0.0370      0.0050      0.0103      0.0193      0.0488      0.0118
 63      0.0000     37.7516     56.8377     53.5540     50.8844     54.3782     62.5977      7.7871     55.9689
 64      2.7864      1.2235      1.3144      1.3299      1.3376      1.2607      1.3077      1.2962      1.3472
 65      0.0000      0.2910      0.1489      0.0709      0.0891      0.0798      0.0984      0.0840      0.0781
 66      5.7621      0.6358      0.5586      0.5535      0.6007      0.5826      0.5426      0.5428      0.5425

# j      m_j: min, <> & last-chain-values for 1 ...  7 chains
  1  0.0000E+00  2.3311E-03  3.2971E-04  1.2398E-04  1.9772E-04  0.0000E+00  3.9136E-05  3.5500E-04  1.7475E-04
  2  0.0000E+00  5.4360E-04  6.7901E-05  1.6902E-05  6.2619E-05  2.2575E-04  1.5542E-05  5.3076E-05  3.7082E-05
  3  0.0000E+00  9.6371E-04  2.9568E-05  5.4495E-05  4.8236E-06  1.2331E-05  0.0000E+00  1.7276E-04  1.0362E-04
  4  0.0000E+00  5.7930E-04  1.1603E-04  4.9954E-05  5.7800E-05  2.4945E-04  8.7362E-05  1.2063E-04  3.5679E-05
  5  0.0000E+00  1.1665E-03  8.8154E-05  2.1669E-04  1.5713E-04  2.0253E-06  0.0000E+00  3.3581E-04  1.9354E-04
  6  0.0000E+00  2.5654E-03  7.3255E-05  1.2159E-03  8.9446E-05  5.6400E-04  3.7683E-05  3.1752E-04  1.0390E-04
  7  0.0000E+00  2.9862E-03  7.4343E-04  3.1109E-05  3.8176E-04  1.2106E-04  1.3191E-04  5.4864E-04  4.4849E-04
  8  0.0000E+00  5.4160E-03  1.0460E-03  6.4580E-04  2.7110E-04  0.0000E+00  3.7121E-04  3.6706E-04  7.3978E-04
  9  0.0000E+00  6.3146E-03  5.5762E-04  2.2157E-04  5.1341E-04  1.2064E-04  0.0000E+00  0.0000E+00  3.4769E-04
 10  0.0000E+00  5.5232E-03  3.7513E-03  6.6828E-04  0.0000E+00  1.3977E-03  1.1674E-05  1.0086E-03  1.5021E-03
 11  0.0000E+00  1.7605E-02  5.6873E-03  6.1611E-04  3.0130E-03  2.0796E-03  1.2790E-03  6.6114E-03  8.0525E-04
 12  0.0000E+00  2.1916E-02  2.6338E-03  2.2705E-04  3.2891E-03  4.8159E-03  2.1220E-03  8.8647E-03  3.3157E-03
 13  0.0000E+00  6.7739E-02  1.4064E-02  9.8938E-03  3.6138E-03  1.9410E-02  3.5926E-03  1.3900E-03  4.0928E-03
 14  0.0000E+00  2.3045E-01  5.8838E-02  5.3513E-02  2.6827E-02  1.5755E-02  3.4130E-02  7.5830E-03  2.1363E-02
 15  0.0000E+00  2.8802E-01  1.9220E-01  2.6395E-02  0.0000E+00  0.0000E+00  2.6885E-02  3.4836E-02  5.3322E-02
 16  0.0000E+00  6.0378E-01  0.0000E+00  3.6089E-02  1.7670E-01  6.3303E-02  2.0913E-02  1.0247E-01  2.3490E-02
 17  0.0000E+00  6.9535E-01  3.8452E-02  0.0000E+00  6.6537E-02  5.1849E-02  2.2388E-01  4.5389E-02  1.1706E-01
 18  0.0000E+00  2.2468E-03  5.0903E-04  1.8226E-04  1.1751E-04  2.0670E-04  1.5366E-04  2.5978E-04  5.1385E-05
 19  0.0000E+00  5.8589E-04  1.9444E-05  0.0000E+00  3.1090E-05  1.4707E-04  7.4121E-06  2.2355E-04  1.6891E-05
 20  0.0000E+00  7.8607E-04  8.4848E-05  1.0346E-04  1.9760E-04  3.5844E-06  6.0635E-05  7.9177E-05  5.6043E-05
 21  0.0000E+00  9.9379E-04  9.4654E-05  6.0933E-05  1.5836E-04  0.0000E+00  8.4678E-05  0.0000E+00  0.0000E+00
 22  0.0000E+00  1.6424E-03  2.7646E-04  2.1989E-04  1.8611E-04  3.1426E-04  0.0000E+00  1.3973E-04  4.4542E-04
 23  0.0000E+00  1.9828E-03  1.8386E-04  0.0000E+00  3.2510E-04  3.0231E-04  0.0000E+00  4.3902E-04  2.5818E-04
 24  0.0000E+00  4.5259E-03  4.2386E-04  2.9088E-04  5.4456E-04  4.6048E-04  2.9489E-04  2.7461E-04  1.9860E-04
 25  0.0000E+00  3.9462E-03  9.1900E-04  0.0000E+00  1.6139E-04  2.9093E-04  3.2236E-04  1.1404E-03  1.6195E-04
 26  0.0000E+00  8.1336E-03  0.0000E+00  2.1398E-03  1.1126E-03  1.2273E-03  6.1903E-04  1.3011E-04  4.8600E-04
 27  0.0000E+00  1.5138E-02  8.0124E-04  5.8890E-03  1.9682E-03  5.6964E-04  3.0949E-04  2.9683E-03  7.4475E-04
 28  0.0000E+00  6.3231E-02  7.5304E-03  3.1034E-03  7.9215E-03  0.0000E+00  6.3801E-03  1.9157E-02  5.4750E-03
 29  0.0000E+00  1.0848E-01  1.0808E-04  1.5200E-02  1.0629E-02  3.4467E-02  6.9874E-03  1.6408E-02  2.7876E-03
 30  0.0000E+00  1.7276E-01  2.3167E-02  4.7812E-03  1.2806E-02  2.1975E-02  0.0000E+00  2.4878E-02  2.5953E-02
 31  0.0000E+00  3.1153E-01  8.5888E-03  2.6154E-02  1.1315E-03  4.3603E-02  2.0985E-04  7.4060E-02  8.9150E-03
 32  0.0000E+00  4.3668E-01  4.4458E-02  5.3251E-02  1.3037E-02  0.0000E+00  3.7914E-02  6.4379E-02  2.5019E-02
 33  0.0000E+00  9.4137E-01  1.0356E-01  7.9787E-02  8.0444E-02  7.0896E-02  6.6454E-02  3.3364E-02  1.8954E-01
 34  0.0000E+00  1.2876E+00  5.9637E-01  1.4643E-01  3.4791E-01  1.0461E+00  6.0219E-02  3.5503E-02  1.1326E-01
 35  0.0000E+00  1.7785E-03  3.9062E-04  3.2627E-04  9.6223E-05  2.3993E-04  0.0000E+00  4.6421E-04  0.0000E+00
 36  6.3481E-04  2.2405E-03  1.8564E-03  2.2271E-03  2.2132E-03  2.1046E-03  1.6357E-03  3.4207E-03  1.8378E-03
 37  0.0000E+00  5.8097E-04  6.8859E-05  4.9457E-05  4.3715E-05  1.6498E-04  0.0000E+00  9.5228E-05  6.6779E-05
 38  0.0000E+00  1.5120E-03  4.8894E-04  1.1010E-05  1.5400E-04  6.5239E-04  3.1895E-04  4.6459E-04  1.7507E-04
 39  0.0000E+00  2.5232E-03  2.6748E-04  5.7803E-05  2.6915E-04  1.7816E-04  1.2970E-04  2.5179E-04  0.0000E+00
 40  0.0000E+00  4.4522E-03  4.8464E-04  3.0766E-04  1.5792E-04  4.1626E-04  1.5892E-04  1.0279E-03  1.1017E-04
 41  0.0000E+00  6.0479E-03  4.7691E-04  1.2266E-03  9.7191E-04  2.8011E-03  1.8164E-04  3.8177E-04  8.8192E-04
 42  0.0000E+00  1.2795E-02  1.2751E-03  1.1417E-03  1.3884E-03  1.6645E-03  4.3838E-04  5.8703E-04  0.0000E+00
 43  0.0000E+00  1.6462E-02  7.2158E-03  1.3043E-03  1.9002E-03  6.3558E-03  1.6155E-03  2.2504E-03  3.6145E-04
 44  0.0000E+00  3.7989E-02  8.5045E-03  3.9749E-03  3.1255E-03  1.6487E-02  7.2997E-04  3.5861E-03  5.3795E-05
 45  0.0000E+00  6.9604E-02  1.5489E-02  1.0815E-02  1.4632E-03  4.4401E-04  3.4241E-03  8.3065E-03  0.0000E+00
 46  0.0000E+00  9.0177E-02  1.5343E-02  1.1241E-02  3.2134E-03  9.7870E-03  7.0659E-03  2.1524E-02  2.7465E-03
 47  0.0000E+00  3.3062E+00  2.3876E+00  2.8930E+00  2.9093E+00  2.3333E+00  5.3609E+00  4.4369E+00  4.1518E+00
 48  1.2560E-01  7.1429E+00  4.8741E+00  7.8860E+00  9.6000E+00  7.6368E+00  4.6737E+00  1.2298E+01  9.3788E+00
 49  3.0398E+01  3.1745E+00  2.5839E+00  2.6424E+00  2.6917E+00  2.5642E+00  2.4876E+00  4.1426E+00  2.4707E+00
 50  3.7102E+01  4.5860E+00  3.8080E+00  3.4765E+00  3.7619E+00  3.8155E+00  3.2672E+00  5.2470E+00  3.6584E+00
 51  0.0000E+00  7.7190E-04  0.0000E+00  0.0000E+00  7.6024E-05  0.0000E+00  5.5787E-05  2.1559E-04  9.0337E-05
 52  0.0000E+00  3.5469E-04  3.1704E-05  3.6448E-05  1.4193E-04  0.0000E+00  0.0000E+00  3.4061E-05  2.4221E-05
 53  0.0000E+00  7.1296E-04  6.3491E-05  3.8033E-05  1.0747E-04  1.7210E-05  7.5340E-05  2.2014E-05  4.1441E-05
 54  0.0000E+00  1.1237E-03  1.0091E-04  7.6352E-05  2.6614E-05  1.6096E-04  3.3368E-04  1.9314E-05  4.5720E-05
 55  0.0000E+00  1.8536E-03  5.0395E-05  4.0426E-04  4.0118E-04  1.8657E-04  0.0000E+00  9.4192E-05  1.8317E-04
 56  0.0000E+00  3.9777E-03  1.3593E-03  1.2158E-04  8.6832E-04  4.2584E-04  2.9356E-04  8.2687E-04  2.7872E-04
 57  0.0000E+00  5.2828E-03  5.9040E-04  1.7155E-03  1.6677E-03  8.8815E-05  1.1149E-04  1.6729E-03  2.8817E-05
 58  0.0000E+00  1.0764E-02  9.7926E-04  1.6476E-03  0.0000E+00  1.9731E-03  4.6204E-04  1.4213E-03  7.3812E-04
 59  0.0000E+00  2.0938E-02  1.9107E-03  3.6574E-03  3.3313E-03  2.6938E-03  0.0000E+00  3.1829E-03  1.6648E-03
 60  0.0000E+00  4.2661E-02  7.2716E-03  5.3916E-03  8.0486E-03  4.7936E-03  4.2415E-03  4.7926E-03  2.4389E-03
 61  7.8548E+00  1.6997E+01  1.3472E+01  1.4064E+01  1.3686E+01  1.3099E+01  1.0171E+01  4.5828E+01  1.1401E+01
 62  0.0000E+00  1.7294E-01  2.9329E-03  2.0502E-02  2.7695E-03  5.6645E-03  1.0004E-02  4.1245E-02  6.2873E-03
 63  0.0000E+00  4.6295E+01  6.1787E+01  5.8964E+01  5.6383E+01  5.9519E+01  6.4568E+01  1.3085E+01  5.9163E+01
 64  3.4170E+00  4.1498E+00  3.9521E+00  4.0500E+00  4.0995E+00  3.8165E+00  3.7309E+00  6.0242E+00  3.9389E+00
 65  0.0000E+00  2.0865E+00  9.4621E-01  4.5669E-01  5.7708E-01  5.1058E-01  5.9319E-01  8.2500E-01  4.8284E-01
 66  2.1102E+01  6.4401E+00  5.0161E+00  5.0339E+00  5.4981E+00  5.2669E+00  4.6226E+00  7.5336E+00  4.7363E+00

# AV, chi2 & Mass for <> & i_chain = 1 ...  7 solutions
AV       0.3778      0.5951      0.5097      0.5147      0.5634      0.5454      0.4627      0.7347      0.5084
chi2 1.6209E-04  2.3595E-04  1.7450E-04  1.7514E-04  1.7107E-04  1.7066E-04  1.7275E-04  2.3676E-04  1.7078E-04
Mass 3.9941E-12  1.9337E-12  1.9449E-12  1.9331E-12  2.0506E-12  2.0265E-12  1.9243E-12  1.7020E-12  1.9965E-12
 -47.24                                  [v0_min (km/s) before EX0s...]
 269.92                                  [vd_min (km/s) before EX0s...]


## Synthetic spectrum (Best Model) ##l_obs f_obs f_syn wei
 3478    [Nl_obs]
 3741.00    0.44289   0.49486    0.000
 3742.00    0.41870   0.48974    0.000
 3743.00    0.36667   0.47646    0.000
 3744.00    0.34681   0.45931    0.000
 3745.00    0.34569   0.44392    0.207
 3746.00    0.39464   0.43074    0.213
 3747.00    0.46901   0.42250    0.220
 3748.00    0.49023   0.42555    0.230
 3749.00    0.48808   0.43969    0.242
 3750.00    0.54038   0.45893    0.235
 3751.00    0.61325   0.48134    0.221
 3752.00    0.59789   0.50723    0.212
 3753.00    0.55424   0.53145    0.206
 3754.00    0.54688   0.54682    0.203
 3755.00    0.54924   0.55173    0.202
 3756.00    0.56891   0.55120    0.202
 3757.00    0.59239   0.54866    0.202
 3758.00    0.57181   0.54312    0.205
 3759.00    0.54353   0.53630    0.208
 3760.00    0.51270   0.53224    0.282
 3761.00    0.48154   0.53136    0.471
 3762.00    0.50537   0.53288    0.293
 3763.00    0.53438   0.53571    0.201
 3764.00    0.53320   0.53587    0.192
 3765.00    0.53027   0.53548    0.187
 3766.00    0.49585   0.53978    0.191
 3767.00    0.46100   0.54511    0.196
 3768.00    0.46460   0.54773    0.194
 3769.00    0.46818   0.55469    0.192
 3770.00    0.47120   0.56881    0.189
 3771.00    0.47610   0.58309    0.186
 3772.00    0.50567   0.59568    0.186
 3773.00    0.53405   0.61162    0.185
 3774.00    0.55205   0.63080    0.184
 3775.00    0.56362   0.64845    0.184
 3776.00    0.53348   0.66387    0.186
 3777.00    0.50790   0.68053    0.189
 3778.00    0.50543   0.69752    0.189
 3779.00    0.50234   0.70926    0.190
 3780.00    0.49670   0.71451    0.192
 3781.00    0.50466   0.71657    0.194
 3782.00    0.55877   0.71422    0.194
 3783.00    0.59857   0.70185    0.195
 3784.00    0.59743   0.68150    0.203
 3785.00    0.58752   0.66162    0.207
 3786.00    0.55618   0.64159    0.198
 3787.00    0.52845   0.61805    0.193
 3788.00    0.50837   0.59640    0.194
 3789.00    0.48880   0.58107    0.194
 3790.00    0.47020   0.56707    0.193
 3791.00    0.46634   0.55099    0.194
 3792.00    0.48607   0.53598    0.198
 3793.00    0.48975   0.52392    0.198
 3794.00    0.47088   0.51336    0.191
 3795.00    0.47888   0.50327    0.190
 3796.00    0.52009   0.49788    0.197
 3797.00    0.53514   0.50235    0.202
 3798.00    0.52169   0.51524    0.206
 3799.00    0.51686   0.53228    0.205
 3800.00    0.52031   0.55383    0.201
 3801.00    0.51434   0.58004    0.197
 3802.00    0.50037   0.60570    0.194
 3803.00    0.49626   0.62688    0.192
 3804.00    0.49951   0.64326    0.191
 3805.00    0.54133   0.65601    0.191
 3806.00    0.60844   0.66596    0.192
 3807.00    0.64656   0.67150    0.191
 3808.00    0.66804   0.67224    0.189
 3809.00    0.64533   0.66970    0.192
 3810.00    0.60052   0.66290    0.197
 3811.00    0.55391   0.65089    0.195
 3812.00    0.50651   0.63650    0.191
 3813.00    0.47584   0.62064    0.185
 3814.00    0.45136   0.60377    0.179
 3815.00    0.42584   0.59005    0.177
 3816.00    0.39999   0.57943    0.176
 3817.00    0.41360   0.56822    0.186
 3818.00    0.43756   0.55688    0.201
 3819.00    0.47065   0.54895    0.198
 3820.00    0.50569   0.54264    0.192
 3821.00    0.48081   0.53229    0.189
 3822.00    0.44576   0.51866    0.186
 3823.00    0.42937   0.50733    0.181
 3824.00    0.41538   0.49764    0.177
 3825.00    0.38787   0.48559    0.182
 3826.00    0.35915   0.47272    0.188
 3827.00    0.37806   0.46213    0.188
 3828.00    0.39952   0.45258    0.188
 3829.00    0.41646   0.44128    0.188
 3830.00    0.43264   0.42859    0.187
 3831.00    0.39193   0.41755    0.187
 3832.00    0.35391   0.40843    0.188
 3833.00    0.37570   0.40096    0.187
 3834.00    0.39670   0.39731    0.187
 3835.00    0.40788   0.39875    0.188
 3836.00    0.41933   0.40513    0.189
 3837.00    0.43299   0.41701    0.193
 3838.00    0.45052   0.43370    0.196
 3839.00    0.49244   0.45482    0.199
 3840.00    0.52059   0.47989    0.202
 3841.00    0.48082   0.50552    0.201
 3842.00    0.44753   0.53044    0.200
 3843.00    0.44015   0.55353    0.197
 3844.00    0.44028   0.57275    0.194
 3845.00    0.46538   0.58915    0.193
 3846.00    0.48805   0.60238    0.193
 3847.00    0.50385   0.60931    0.000
 3848.00    0.51514   0.61328    0.000
 3849.00    0.51556   0.61906    0.000
 3850.00    0.50815   0.62200    0.000
 3851.00    0.48448   0.61996    0.000
 3852.00    0.47125   0.61874    0.000
 3853.00    0.47686   0.61682    0.000
 3854.00    0.47264   0.61098    0.000
 3855.00    0.45293   0.60646    0.000
 3856.00    0.44542   0.60342    0.000
 3857.00    0.45479   0.59922    0.000
 3858.00    0.46931   0.59927    0.000
 3859.00    0.49012   0.60587    0.000
 3860.00    0.50230   0.61389    0.000
 3861.00    0.50521   0.62190    0.000
 3862.00    0.50438   0.63208    0.000
 3863.00    0.50001   0.64142    0.000
 3864.00    0.49471   0.64680    0.000
 3865.00    0.48863   0.64924    0.000
 3866.00    0.48810   0.64889    0.000
 3867.00    0.49164   0.64514    0.000
 3868.00    0.48815   0.63929    0.000
 3869.00    0.48013   0.63312    0.000
 3870.00    0.47975   0.62646    0.000
 3871.00    0.48370   0.62159    0.000
 3872.00    0.48319   0.61995    0.000
 3873.00    0.48050   0.61876    0.000
 3874.00    0.47841   0.61758    0.000
 3875.00    0.47658   0.61602    0.000
 3876.00    0.48909   0.61141    0.000
 3877.00    0.50683   0.60717    0.000
 3878.00    0.51891   0.60428    0.000
 3879.00    0.52926   0.59616    0.000
 3880.00    0.52024   0.58448    0.000
 3881.00    0.50624   0.57694    0.190
 3882.00    0.51694   0.56973    0.190
 3883.00    0.53280   0.55580    0.188
 3884.00    0.54572   0.54263    0.192
 3885.00    0.55816   0.53743    0.196
 3886.00    0.56692   0.53416    0.195
 3887.00    0.57522   0.53206    0.194
 3888.00    0.62030   0.53938    0.193
 3889.00    0.66853   0.55469    0.193
 3890.00    0.66347   0.57133    0.192
 3891.00    0.65576   0.58980    0.191
 3892.00    0.60622   0.61024    0.189
 3893.00    0.55724   0.62774    0.187
 3894.00    0.58815   0.64257    0.189
 3895.00    0.61808   0.65693    0.191
 3896.00    0.62785   0.66725    0.189
 3897.00    0.63658   0.67319    0.186
 3898.00    0.63286   0.67982    0.183
 3899.00    0.62808   0.68811    0.179
 3900.00    0.61462   0.69135    0.177
 3901.00    0.60127   0.69218    0.175
 3902.00    0.58859   0.69849    0.172
 3903.00    0.57628   0.70421    0.170
 3904.00    0.56574   0.70743    0.169
 3905.00    0.55736   0.71697    0.167
 3906.00    0.55749   0.73191    0.164
 3907.00    0.56429   0.74522    0.163
 3908.00    0.59285   0.75811    0.170
 3909.00    0.62290   0.77304    0.177
 3910.00    0.65703   0.78473    0.178
 3911.00    0.67729   0.78885    0.180
 3912.00    0.66478   0.78893    0.182
 3913.00    0.67051   0.78621    0.185
 3914.00    0.71343   0.77646    0.189
 3915.00    0.73567   0.76236    0.193
 3916.00    0.72115   0.74838    0.195
 3917.00    0.70904   0.73256    0.196
 3918.00    0.70065   0.71494    0.196
 3919.00    0.68903   0.69942    0.195
 3920.00    0.67300   0.68479    0.192
 3921.00    0.65955   0.66843    0.192
 3922.00    0.64921   0.65150    0.199
 3923.00    0.63163   0.63109    0.203
 3924.00    0.60638   0.60519    0.206
 3925.00    0.57014   0.57469    0.203
 3926.00    0.52363   0.53856    0.194
 3927.00    0.50503   0.49792    0.195
 3928.00    0.50943   0.45587    0.203
 3929.00    0.50805   0.41504    0.205
 3930.00    0.50249   0.37851    0.203
 3931.00    0.45512   0.35009    0.197
 3932.00    0.38114   0.33250    0.190
 3933.00    0.37653   0.32728    0.188
 3934.00    0.41053   0.33552    0.188
 3935.00    0.45514   0.35522    0.189
 3936.00    0.50489   0.38373    0.190
 3937.00    0.51980   0.41968    0.192
 3938.00    0.52014   0.45836    0.193
 3939.00    0.54727   0.49541    0.193
 3940.00    0.58398   0.53203    0.192
 3941.00    0.60436   0.56631    0.191
 3942.00    0.61980   0.59455    0.190
 3943.00    0.59634   0.62129    0.191
 3944.00    0.56311   0.64870    0.192
 3945.00    0.60405   0.67133    0.192
 3946.00    0.66011   0.69011    0.191
 3947.00    0.69398   0.70956    0.195
 3948.00    0.72430   0.72792    0.200
 3949.00    0.76350   0.74202    0.199
 3950.00    0.80375   0.75124    0.198
 3951.00    0.81359   0.75862    0.197
 3952.00    0.82095   0.76553    0.196
 3953.00    0.78118   0.76589    0.196
 3954.00    0.73924   0.75897    0.197
 3955.00    0.73579   0.75027    0.198
 3956.00    0.73306   0.73724    0.200
 3957.00    0.74224   0.71625    0.198
 3958.00    0.74896   0.68905    0.197
 3959.00    0.70893   0.65606    0.199
 3960.00    0.67248   0.61816    0.000
 3961.00    0.67626   0.57672    0.000
 3962.00    0.67480   0.53176    0.000
 3963.00    0.63209   0.48610    0.000
 3964.00    0.58930   0.44360    0.000
 3965.00    0.54606   0.40601    0.000
 3966.00    0.50406   0.37585    0.000
 3967.00    0.46788   0.35677    0.000
 3968.00    0.44443   0.35057    0.000
 3969.00    0.46978   0.35800    0.000
 3970.00    0.49569   0.37907    0.000
 3971.00    0.52338   0.41126    0.000
 3972.00    0.56062   0.45273    0.000
 3973.00    0.62372   0.50163    0.000
 3974.00    0.67519   0.55315    0.000
 3975.00    0.69966   0.60423    0.000
 3976.00    0.73262   0.65355    0.000
 3977.00    0.78263   0.69873    0.000
 3978.00    0.82177   0.73832    0.000
 3979.00    0.84191   0.77125    0.000
 3980.00    0.87281   0.79833    0.000
 3981.00    0.92019   0.82090    0.218
 3982.00    0.94030   0.83959    0.217
 3983.00    0.92375   0.85635    0.217
 3984.00    0.91961   0.87047    0.216
 3985.00    0.93019   0.88315    0.213
 3986.00    0.94790   0.89749    0.212
 3987.00    0.97306   0.90951    0.212
 3988.00    0.95027   0.91838    0.210
 3989.00    0.88331   0.92795    0.209
 3990.00    0.93404   0.93601    0.209
 3991.00    1.08030   0.94028    0.212
 3992.00    1.11976   0.94250    0.211
 3993.00    1.08292   0.94434    0.207
 3994.00    1.02666   0.94642    0.205
 3995.00    0.95823   0.94766    0.205
 3996.00    0.91626   0.94917    0.205
 3997.00    0.88878   0.95497    0.205
 3998.00    0.92691   0.96262    0.204
 3999.00    0.99630   0.96678    0.203
 4000.00    1.02575   0.97018    0.204
 4001.00    1.03878   0.97551    0.204
 4002.00    0.99743   0.97708    0.206
 4003.00    0.93698   0.97362    0.207
 4004.00    0.92696   0.97340    0.205
 4005.00    0.93188   0.97753    0.201
 4006.00    0.97086   0.98114    0.202
 4007.00    1.01820   0.98726    0.204
 4008.00    1.05020   0.99907    0.205
 4009.00    1.07915   1.01174    0.207
 4010.00    1.07344   1.02333    0.205
 4011.00    1.06235   1.03564    0.202
 4012.00    1.03227   1.04563    0.203
 4013.00    1.00000   1.05414    0.205
 4014.00    0.99409   1.06310    0.202
 4015.00    0.99021   1.06790    0.198
 4016.00    1.03501   1.07083    0.202
 4017.00    1.08186   1.07611    0.206
 4018.00    1.11300   1.07824    0.208
 4019.00    1.14316   1.07599    0.210
 4020.00    1.13656   1.07563    0.209
 4021.00    1.12731   1.07592    0.208
 4022.00    1.07142   1.07159    0.208
 4023.00    1.02112   1.06695    0.208
 4024.00    1.03091   1.06433    0.207
 4025.00    1.04018   1.05627    0.207
 4026.00    1.04542   1.04451    0.214
 4027.00    1.03845   1.03320    0.221
 4028.00    0.96100   1.01652    0.219
 4029.00    0.90310   0.99825    0.219
 4030.00    0.93483   0.98548    0.225
 4031.00    0.96028   0.97585    0.227
 4032.00    0.96215   0.97227    0.219
 4033.00    0.96579   0.97867    0.214
 4034.00    0.97497   0.99160    0.222
 4035.00    0.99095   1.00773    0.230
 4036.00    1.02503   1.02495    0.237
 4037.00    1.03420   1.04029    0.236
 4038.00    0.98649   1.04920    0.220
 4039.00    0.96888   1.04920    0.211
 4040.00    1.01082   1.04238    0.214
 4041.00    1.02457   1.03079    0.215
 4042.00    0.98977   1.01640    0.210
 4043.00    0.94539   1.00107    0.207
 4044.00    0.88654   0.98953    0.205
 4045.00    0.87841   0.98716    0.205
 4046.00    0.93753   0.98938    0.209
 4047.00    0.99550   0.99401    0.211
 4048.00    1.05211   1.00566    0.211
 4049.00    1.07213   1.01720    0.212
 4050.00    1.05448   1.02220    0.213
 4051.00    1.02403   1.02602    0.212
 4052.00    0.98196   1.02595    0.208
 4053.00    0.96761   1.01918    0.209
 4054.00    0.97544   1.01284    0.213
 4055.00    0.98002   1.00601    0.212
 4056.00    0.98230   0.99691    0.208
 4057.00    0.99793   0.99035    0.207
 4058.00    1.02180   0.98400    0.208
 4059.00    1.01629   0.97664    0.208
 4060.00    0.99492   0.97176    0.208
 4061.00    0.96450   0.96585    0.207
 4062.00    0.92985   0.96009    0.207
 4063.00    0.92332   0.96050    0.204
 4064.00    0.92816   0.96273    0.201
 4065.00    0.92152   0.96440    0.201
 4066.00    0.91093   0.97019    0.202
 4067.00    0.92442   0.97825    0.202
 4068.00    0.94491   0.98305    0.201
 4069.00    0.92974   0.98368    0.199
 4070.00    0.90599   0.98364    0.195
 4071.00    0.93802   0.98240    0.198
 4072.00    0.98084   0.97589    0.201
 4073.00    1.06027   0.96880    0.203
 4074.00    1.14521   0.96517    0.205
 4075.00    1.09573   0.96204    0.202
 4076.00    1.03137   0.96266    0.198
 4077.00    1.01060   0.96917    0.198
 4078.00    0.99303   0.97864    0.198
 4079.00    1.00905   0.99257    0.203
 4080.00    1.02636   1.00887    0.209
 4081.00    1.04509   1.02376    0.208
 4082.00    1.06462   1.03949    0.208
 4083.00    1.11451   1.05459    0.209
 4084.00    1.15999   1.06634    0.210
 4085.00    1.13288   1.07804    0.211
 4086.00    1.10662   1.08945    0.211
 4087.00    1.08912   1.09632    0.212
 4088.00    1.07842   1.10039    0.213
 4089.00    1.11765   1.10202    0.213
 4090.00    1.15585   1.09560    0.213
 4091.00    1.18832   1.08320    0.218
 4092.00    1.20189   1.06769    0.000
 4093.00    1.13095   1.04409    0.000
 4094.00    1.06343   1.01586    0.000
 4095.00    1.00851   0.98778    0.000
 4096.00    0.95877   0.95624    0.000
 4097.00    0.92496   0.92581    0.000
 4098.00    0.91388   0.90166    0.000
 4099.00    0.96222   0.88083    0.000
 4100.00    0.98896   0.86804    0.000
 4101.00    0.96724   0.86688    0.000
 4102.00    0.96255   0.87183    0.000
 4103.00    0.99101   0.88399    0.000
 4104.00    1.01841   0.90401    0.000
 4105.00    1.04401   0.92473    0.000
 4106.00    1.04383   0.94502    0.000
 4107.00    1.00533   0.96543    0.000
 4108.00    0.99755   0.98284    0.000
 4109.00    1.02992   0.99784    0.000
 4110.00    1.04864   1.01132    0.000
 4111.00    1.05166   1.02354    0.000
 4112.00    1.05735   1.03495    0.000
 4113.00    1.06575   1.04352    0.209
 4114.00    1.07305   1.04989    0.207
 4115.00    1.07935   1.05520    0.205
 4116.00    1.05266   1.05597    0.203
 4117.00    0.99996   1.05334    0.200
 4118.00    1.00407   1.05170    0.201
 4119.00    1.04762   1.04885    0.204
 4120.00    1.08037   1.04437    0.204
 4121.00    1.10656   1.04192    0.202
 4122.00    1.07107   1.04062    0.202
 4123.00    1.00281   1.03778    0.201
 4124.00    1.00599   1.03367    0.201
 4125.00    1.04212   1.02916    0.200
 4126.00    1.06567   1.02256    0.200
 4127.00    1.08424   1.01366    0.200
 4128.00    1.05636   1.00588    0.202
 4129.00    1.01275   0.99905    0.204
 4130.00    0.99250   0.99379    0.202
 4131.00    0.97890   0.99454    0.199
 4132.00    0.97958   0.99917    0.200
 4133.00    0.98361   1.00711    0.202
 4134.00    0.99761   1.02074    0.201
 4135.00    1.01348   1.03358    0.199
 4136.00    1.01205   1.04453    0.196
 4137.00    1.00810   1.05454    0.192
 4138.00    1.01066   1.05670    0.194
 4139.00    1.01391   1.05364    0.197
 4140.00    1.01845   1.04875    0.201
 4141.00    1.02309   1.03818    0.205
 4142.00    1.01380   1.02755    0.204
 4143.00    1.00402   1.02164    0.202
 4144.00    1.02653   1.01573    0.201
 4145.00    1.04926   1.01212    0.199
 4146.00    1.07690   1.01385    0.200
 4147.00    1.09934   1.01460    0.201
 4148.00    1.04127   1.01388    0.201
 4149.00    0.98683   1.01445    0.200
 4150.00    0.96828   1.01324    0.197
 4151.00    0.95766   1.01083    0.194
 4152.00    1.00332   1.00948    0.200
 4153.00    1.04289   1.00975    0.205
 4154.00    1.04921   1.01270    0.207
 4155.00    1.04941   1.01782    0.208
 4156.00    1.02290   1.02606    0.204
 4157.00    0.99484   1.03776    0.199
 4158.00    0.96118   1.05015    0.197
 4159.00    0.94115   1.06159    0.195
 4160.00    0.96223   1.07332    0.196
 4161.00    0.98773   1.08330    0.196
 4162.00    1.02459   1.08728    0.196
 4163.00    1.04446   1.08893    0.196
 4164.00    1.02680   1.08864    0.199
 4165.00    1.00835   1.08130    0.201
 4166.00    0.98836   1.07135    0.201
 4167.00    0.96476   1.06045    0.201
 4168.00    0.93514   1.04481    0.201
 4169.00    0.93338   1.02814    0.202
 4170.00    0.97243   1.01213    0.202
 4171.00    1.00554   0.99612    0.203
 4172.00    1.03100   0.98319    0.202
 4173.00    1.02674   0.97358    0.203
 4174.00    0.98876   0.96797    0.203
 4175.00    0.98175   0.96764    0.206
 4176.00    1.00573   0.97030    0.211
 4177.00    1.01878   0.97599    0.209
 4178.00    1.02220   0.98509    0.202
 4179.00    1.01532   0.99400    0.199
 4180.00    1.00045   1.00299    0.201
 4181.00    1.00536   1.01358    0.201
 4182.00    1.02379   1.02141    0.201
 4183.00    1.00432   1.02811    0.200
 4184.00    0.96213   1.03651    0.199
 4185.00    0.96442   1.04162    0.199
 4186.00    0.98997   1.04639    0.202
 4187.00    1.05250   1.05385    0.200
 4188.00    1.13181   1.05891    0.196
 4189.00    1.16368   1.06267    0.197
 4190.00    1.17704   1.06684    0.201
 4191.00    1.16669   1.06788    0.199
 4192.00    1.14847   1.06470    0.195
 4193.00    1.11602   1.05775    0.194
 4194.00    1.07961   1.04772    0.193
 4195.00    1.12706   1.03641    0.196
 4196.00    1.19374   1.02296    0.200
 4197.00    1.15299   1.01003    0.199
 4198.00    1.09250   1.00357    0.197
 4199.00    1.08060   0.99965    0.196
 4200.00    1.07556   0.99810    0.194
 4201.00    1.10333   1.00600    0.193
 4202.00    1.13445   1.01708    0.192
 4203.00    1.11315   1.02824    0.191
 4204.00    1.08843   1.04521    0.191
 4205.00    1.09033   1.06189    0.193
 4206.00    1.09316   1.07548    0.196
 4207.00    1.16080   1.08933    0.194
 4208.00    1.22541   1.09910    0.191
 4209.00    1.20079   1.10550    0.191
 4210.00    1.17690   1.11006    0.190
 4211.00    1.16374   1.11061    0.189
 4212.00    1.15434   1.11169    0.188
 4213.00    1.18043   1.11320    0.188
 4214.00    1.20141   1.11350    0.188
 4215.00    1.18732   1.11741    0.186
 4216.00    1.17243   1.12148    0.185
 4217.00    1.15330   1.12191    0.185
 4218.00    1.13775   1.12100    0.186
 4219.00    1.13749   1.11462    0.186
 4220.00    1.13417   1.09944    0.185
 4221.00    1.12009   1.07905    0.183
 4222.00    1.09430   1.05511    0.181
 4223.00    1.03381   1.02955    0.179
 4224.00    0.98786   1.00781    0.178
 4225.00    0.97858   0.99279    0.178
 4226.00    0.98420   0.98821    0.178
 4227.00    1.02219   0.99360    0.178
 4228.00    1.04517   1.00373    0.177
 4229.00    1.03984   1.02124    0.177
 4230.00    1.05107   1.04084    0.176
 4231.00    1.08958   1.05341    0.174
 4232.00    1.10053   1.06608    0.174
 4233.00    1.07168   1.07707    0.177
 4234.00    1.05958   1.08011    0.178
 4235.00    1.06873   1.08578    0.180
 4236.00    1.09386   1.09481    0.180
 4237.00    1.13685   1.10131    0.181
 4238.00    1.14630   1.11212    0.180
 4239.00    1.12264   1.12714    0.178
 4240.00    1.12225   1.13925    0.176
 4241.00    1.14212   1.14977    0.176
 4242.00    1.17389   1.15981    0.177
 4243.00    1.21479   1.16313    0.178
 4244.00    1.21399   1.16001    0.179
 4245.00    1.18509   1.15423    0.179
 4246.00    1.16221   1.14340    0.182
 4247.00    1.14287   1.13003    0.187
 4248.00    1.14307   1.11702    0.188
 4249.00    1.15333   1.10517    0.188
 4250.00    1.13777   1.09756    0.188
 4251.00    1.11071   1.09192    0.187
 4252.00    1.12232   1.08915    0.188
 4253.00    1.14876   1.09112    0.189
 4254.00    1.15141   1.09350    0.187
 4255.00    1.14631   1.09663    0.183
 4256.00    1.12492   1.10124    0.182
 4257.00    1.09909   1.10719    0.181
 4258.00    1.12390   1.11507    0.184
 4259.00    1.16006   1.12361    0.188
 4260.00    1.17364   1.13552    0.188
 4261.00    1.18319   1.14963    0.187
 4262.00    1.20351   1.16105    0.189
 4263.00    1.22530   1.17065    0.193
 4264.00    1.27236   1.17566    0.194
 4265.00    1.32189   1.17145    0.196
 4266.00    1.26742   1.15981    0.192
 4267.00    1.20658   1.14164    0.188
 4268.00    1.11654   1.11831    0.183
 4269.00    1.02608   1.09357    0.178
 4270.00    1.00720   1.07156    0.180
 4271.00    0.98984   1.05753    0.181
 4272.00    1.01259   1.04988    0.183
 4273.00    1.03755   1.05002    0.184
 4274.00    1.09292   1.06253    0.188
 4275.00    1.14397   1.07719    0.192
 4276.00    1.15575   1.09239    0.192
 4277.00    1.16603   1.11217    0.193
 4278.00    1.16625   1.12516    0.189
 4279.00    1.16954   1.13251    0.186
 4280.00    1.18868   1.13786    0.187
 4281.00    1.20097   1.13455    0.188
 4282.00    1.18469   1.12789   -2.000
 4283.00    1.16313   1.11840   -2.000
 4284.00    1.12337   1.10370   -2.000
 4285.00    1.10484   1.08995   -2.000
 4286.00    1.14804   1.07572   -2.000
 4287.00    1.18896   1.06086   -2.000
 4288.00    1.22425   1.05060   -2.000
 4289.00    1.25299   1.04286   -2.000
 4290.00    1.26773   1.03594   -2.000
 4291.00    1.26945   1.03260   -2.000
 4292.00    1.24700   1.02847   -2.000
 4293.00    1.20549   1.02181   -2.000
 4294.00    1.13305   1.01349   -2.000
 4295.00    1.09757   0.99780   -2.000
 4296.00    1.11466   0.98022   -2.000
 4297.00    1.11607   0.96154   -2.000
 4298.00    1.09786   0.93715    0.187
 4299.00    1.06276   0.91765    0.185
 4300.00    1.00900   0.90102    0.181
 4301.00    0.97336   0.88432    0.179
 4302.00    0.95534   0.87677    0.178
 4303.00    0.94923   0.87123    0.179
 4304.00    0.95334   0.86703    0.182
 4305.00    0.93854   0.87227    0.182
 4306.00    0.90946   0.87973    0.179
 4307.00    0.93639   0.89081    0.180
 4308.00    1.00051   0.91164    0.184
 4309.00    1.03361   0.93786    0.184
 4310.00    1.04866   0.96940    0.182
 4311.00    1.07026   1.00853    0.180
 4312.00    1.09518   1.05154    0.178
 4313.00    1.13588   1.09418    0.177
 4314.00    1.18351   1.13710    0.176
 4315.00    1.23690   1.17531    0.178
 4316.00    1.29246   1.20308    0.181
 4317.00    1.30919   1.22350    0.184
 4318.00    1.31351   1.23201    0.187
 4319.00    1.32984   1.22654    0.186
 4320.00    1.34939   1.21613    0.184
 4321.00    1.31953   1.19897    0.183
 4322.00    1.27886   1.17689    0.182
 4323.00    1.24626   1.16075    0.184
 4324.00    1.21506   1.14987    0.186
 4325.00    1.21312   1.14607    0.186
 4326.00    1.21506   1.15174    0.184
 4327.00    1.22431   1.16339    0.183
 4328.00    1.23424   1.18020    0.181
 4329.00    1.26039   1.19622    0.179
 4330.00    1.28747   1.20740    0.000
 4331.00    1.31694   1.21338    0.000
 4332.00    1.34619   1.21020    0.000
 4333.00    1.34502   1.19613    0.000
 4334.00    1.34366   1.17327    0.000
 4335.00    1.33763   1.14405    0.000
 4336.00    1.32645   1.11213    0.000
 4337.00    1.24809   1.08275    0.000
 4338.00    1.17904   1.05787    0.000
 4339.00    1.19132   1.04238    0.000
 4340.00    1.20835   1.04073    0.000
 4341.00    1.25602   1.04797    0.000
 4342.00    1.29690   1.06468    0.000
 4343.00    1.30358   1.09201    0.000
 4344.00    1.30845   1.11917    0.000
 4345.00    1.30593   1.14384    0.000
 4346.00    1.30005   1.16957    0.000
 4347.00    1.28276   1.18735    0.000
 4348.00    1.28204   1.19612    0.000
 4349.00    1.32859   1.20385    0.000
 4350.00    1.35083   1.20893    0.000
 4351.00    1.31382   1.21113    0.182
 4352.00    1.28105   1.21471    0.178
 4353.00    1.25722   1.22236    0.177
 4354.00    1.25362   1.23459    0.175
 4355.00    1.28701   1.24739    0.174
 4356.00    1.31202   1.26108    0.174
 4357.00    1.32365   1.27935    0.174
 4358.00    1.34601   1.29801    0.175
 4359.00    1.38342   1.31288    0.177
 4360.00    1.40397   1.32654    0.177
 4361.00    1.40370   1.33977    0.174
 4362.00    1.39777   1.34922    0.173
 4363.00    1.38568   1.35261    0.174
 4364.00    1.39382   1.35175    0.175
 4365.00    1.42136   1.34829    0.177
 4366.00    1.43228   1.33962    0.178
 4367.00    1.42913   1.32633    0.180
 4368.00    1.39936   1.31163    0.179
 4369.00    1.34977   1.29713    0.176
 4370.00    1.32780   1.28369    0.174
 4371.00    1.32390   1.27004    0.173
 4372.00    1.31948   1.25849    0.174
 4373.00    1.31477   1.25116    0.176
 4374.00    1.30000   1.24516    0.176
 4375.00    1.28021   1.23824    0.175
 4376.00    1.27135   1.23008    0.174
 4377.00    1.26719   1.22116    0.173
 4378.00    1.28055   1.20851    0.175
 4379.00    1.30039   1.19023    0.178
 4380.00    1.28823   1.16939    0.177
 4381.00    1.26605   1.14826    0.175
 4382.00    1.22792   1.13032    0.173
 4383.00    1.18563   1.11649    0.171
 4384.00    1.20453   1.10793    0.170
 4385.00    1.23651   1.10961    0.169
 4386.00    1.23976   1.11929    0.170
 4387.00    1.23815   1.13342    0.172
 4388.00    1.24147   1.15040    0.169
 4389.00    1.24541   1.16967    0.166
 4390.00    1.27784   1.18995    0.168
 4391.00    1.31280   1.20639    0.170
 4392.00    1.32207   1.22118    0.171
 4393.00    1.32996   1.23507    0.172
 4394.00    1.35303   1.24528    0.172
 4395.00    1.37619   1.25337    0.173
 4396.00    1.38157   1.25615    0.174
 4397.00    1.38693   1.25572    0.175
 4398.00    1.39200   1.25433    0.176
 4399.00    1.39312   1.24642    0.178
 4400.00    1.34547   1.23552    0.175
 4401.00    1.30280   1.22480    0.172
 4402.00    1.30204   1.21479    0.173
 4403.00    1.30164   1.20884    0.173
 4404.00    1.30354   1.20501    0.174
 4405.00    1.30678   1.20457    0.175
 4406.00    1.31656   1.21222    0.175
 4407.00    1.32643   1.22467    0.174
 4408.00    1.33670   1.23691    0.175
 4409.00    1.34338   1.24988    0.175
 4410.00    1.33819   1.26281    0.173
 4411.00    1.34657   1.27325    0.172
 4412.00    1.39299   1.28024    0.174
 4413.00    1.42470   1.28385    0.176
 4414.00    1.42116   1.28798    0.176
 4415.00    1.41823   1.29098    0.176
 4416.00    1.41659   1.29264    0.177
 4417.00    1.40967   1.29939    0.177
 4418.00    1.39326   1.30520    0.175
 4419.00    1.38578   1.30912    0.173
 4420.00    1.39234   1.31627    0.174
 4421.00    1.39579   1.32100    0.174
 4422.00    1.39494   1.32308    0.175
 4423.00    1.40300   1.32310    0.176
 4424.00    1.42190   1.32325    0.177
 4425.00    1.41435   1.32416    0.177
 4426.00    1.37843   1.32001    0.177
 4427.00    1.37728   1.31682    0.177
 4428.00    1.40900   1.31424    0.178
 4429.00    1.41454   1.30970    0.177
 4430.00    1.39825   1.30678    0.174
 4431.00    1.39847   1.30134    0.173
 4432.00    1.41082   1.29996    0.175
 4433.00    1.41526   1.30370    0.176
 4434.00    1.41461   1.30558    0.177
 4435.00    1.44733   1.31074    0.179
 4436.00    1.49886   1.31747    0.180
 4437.00    1.50059   1.32382    0.181
 4438.00    1.47788   1.33099    0.183
 4439.00    1.47601   1.33505    0.183
 4440.00    1.48298   1.33854    0.183
 4441.00    1.47472   1.34378    0.180
 4442.00    1.46093   1.34759    0.177
 4443.00    1.47961   1.35088    0.178
 4444.00    1.50828   1.35771    0.181
 4445.00    1.52449   1.36447    0.180
 4446.00    1.53752   1.36911    0.179
 4447.00    1.51708   1.37263    0.178
 4448.00    1.48966   1.36979    0.177
 4449.00    1.47032   1.36385    0.178
 4450.00    1.45230   1.35400    0.178
 4451.00    1.42840   1.33529    0.176
 4452.00    1.40376   1.31721    0.174
 4453.00    1.40621   1.29957    0.174
 4454.00    1.41095   1.27893    0.174
 4455.00    1.37252   1.26106    0.173
 4456.00    1.33196   1.24783    0.171
 4457.00    1.33840   1.23853    0.169
 4458.00    1.34529   1.23410    0.167
 4459.00    1.33382   1.23556    0.169
 4460.00    1.32477   1.23998    0.172
 4461.00    1.36453   1.24896    0.000
 4462.00    1.40408   1.26013    0.000
 4463.00    1.44124   1.27115    0.000
 4464.00    1.47137   1.28657    0.000
 4465.00    1.44463   1.30020    0.000
 4466.00    1.42592   1.31268    0.000
 4467.00    1.45610   1.32832    0.000
 4468.00    1.48209   1.34390    0.000
 4469.00    1.48802   1.36088    0.000
 4470.00    1.49169   1.37842    0.000
 4471.00    1.48653   1.39601    0.000
 4472.00    1.48997   1.41380    0.000
 4473.00    1.52138   1.42921    0.000
 4474.00    1.54498   1.44090    0.000
 4475.00    1.54710   1.44734    0.000
 4476.00    1.54982   1.44793    0.000
 4477.00    1.55395   1.44465    0.000
 4478.00    1.54897   1.43969    0.000
 4479.00    1.52542   1.43452    0.000
 4480.00    1.51396   1.42856    0.000
 4481.00    1.52396   1.42417    0.000
 4482.00    1.52345   1.42346    0.172
 4483.00    1.50665   1.42389    0.173
 4484.00    1.49747   1.42535    0.173
 4485.00    1.49866   1.42600    0.171
 4486.00    1.51415   1.42460    0.170
 4487.00    1.54680   1.42261    0.170
 4488.00    1.54117   1.41896    0.169
 4489.00    1.49509   1.41315    0.168
 4490.00    1.47278   1.40606    0.168
 4491.00    1.47262   1.40242    0.170
 4492.00    1.48453   1.40199    0.171
 4493.00    1.50637   1.40402    0.171
 4494.00    1.50752   1.41034    0.171
 4495.00    1.49371   1.41825    0.171
 4496.00    1.49849   1.43087    0.171
 4497.00    1.51508   1.44585    0.171
 4498.00    1.55190   1.46273    0.172
 4499.00    1.59995   1.48420    0.174
 4500.00    1.59723   1.50349    0.173
 4501.00    1.56999   1.52200    0.171
 4502.00    1.56954   1.53819    0.170
 4503.00    1.58027   1.55126    0.170
 4504.00    1.58511   1.56383    0.170
 4505.00    1.58785   1.57044    0.170
 4506.00    1.58673   1.57297    0.169
 4507.00    1.58443   1.57277    0.169
 4508.00    1.59699   1.56744    0.168
 4509.00    1.61328   1.56029    0.168
 4510.00    1.60816   1.55113    0.168
 4511.00    1.59870   1.54078    0.167
 4512.00    1.58324   1.53171    0.167
 4513.00    1.56682   1.52061    0.168
 4514.00    1.56540   1.51034    0.169
 4515.00    1.56576   1.50342    0.169
 4516.00    1.55189   1.49594    0.167
 4517.00    1.53687   1.49123    0.165
 4518.00    1.54651   1.48392    0.166
 4519.00    1.55728   1.47303    0.166
 4520.00    1.56818   1.46483    0.167
 4521.00    1.57840   1.45067    0.167
 4522.00    1.55414   1.43333    0.167
 4523.00    1.53003   1.41431    0.167
 4524.00    1.50867   1.39120    0.165
 4525.00    1.48475   1.37210    0.163
 4526.00    1.43209   1.35400    0.162
 4527.00    1.38765   1.33711    0.162
 4528.00    1.40741   1.32857    0.162
 4529.00    1.42004   1.32265    0.162
 4530.00    1.39041   1.32132    0.160
 4531.00    1.37059   1.32735    0.158
 4532.00    1.39673   1.33673    0.160
 4533.00    1.42436   1.35376    0.162
 4534.00    1.45770   1.37022    0.163
 4535.00    1.47918   1.38498    0.164
 4536.00    1.46281   1.40218    0.164
 4537.00    1.45717   1.41702    0.164
 4538.00    1.48052   1.43245    0.164
 4539.00    1.50305   1.44338    0.165
 4540.00    1.52370   1.44649    0.165
 4541.00    1.53585   1.44816    0.165
 4542.00    1.53096   1.44804    0.164
 4543.00    1.52989   1.44566    0.163
 4544.00    1.53550   1.44210    0.165
 4545.00    1.51775   1.43341    0.166
 4546.00    1.46430   1.42584    0.165
 4547.00    1.44219   1.42312    0.163
 4548.00    1.46216   1.41770    0.163
 4549.00    1.48971   1.41396    0.163
 4550.00    1.52623   1.41150    0.000
 4551.00    1.54647   1.41155    0.000
 4552.00    1.54974   1.41896    0.000
 4553.00    1.55234   1.42750    0.000
 4554.00    1.55432   1.43687    0.000
 4555.00    1.56670   1.44915    0.000
 4556.00    1.58750   1.46176    0.000
 4557.00    1.60376   1.47530    0.000
 4558.00    1.61677   1.48893    0.000
 4559.00    1.59760   1.49632    0.000
 4560.00    1.55831   1.50072    0.000
 4561.00    1.56863   1.50426    0.000
 4562.00    1.60609   1.50541    0.000
 4563.00    1.61420   1.50823    0.000
 4564.00    1.60835   1.50860    0.000
 4565.00    1.58156   1.50808    0.000
 4566.00    1.54618   1.51158    0.000
 4567.00    1.56949   1.51293    0.000
 4568.00    1.61337   1.51632    0.000
 4569.00    1.62823   1.52221    0.000
 4570.00    1.63450   1.52292    0.000
 4571.00    1.62831   1.52341    0.000
 4572.00    1.61906   1.52221    0.000
 4573.00    1.60699   1.51881    0.000
 4574.00    1.59435   1.51666    0.000
 4575.00    1.59432   1.50882    0.000
 4576.00    1.59623   1.49748    0.000
 4577.00    1.58389   1.48736    0.000
 4578.00    1.56991   1.47729    0.000
 4579.00    1.53914   1.46694    0.000
 4580.00    1.50709   1.45749    0.000
 4581.00    1.50559   1.45126    0.000
 4582.00    1.50537   1.44822    0.000
 4583.00    1.52292   1.45042    0.000
 4584.00    1.54060   1.45463    0.000
 4585.00    1.55709   1.45960    0.000
 4586.00    1.57291   1.46633    0.000
 4587.00    1.57686   1.47100    0.000
 4588.00    1.58035   1.47508    0.000
 4589.00    1.57878   1.47828    0.000
 4590.00    1.57656   1.47859    0.000
 4591.00    1.56932   1.47589    0.000
 4592.00    1.56117   1.47247    0.000
 4593.00    1.54784   1.46915    0.000
 4594.00    1.53197   1.46635    0.000
 4595.00    1.50451   1.46600    0.000
 4596.00    1.48807   1.46361    0.000
 4597.00    1.51284   1.46382    0.000
 4598.00    1.53949   1.46794    0.000
 4599.00    1.57203   1.47098    0.000
 4600.00    1.58531   1.47807    0.000
 4601.00    1.54744   1.48409    0.000
 4602.00    1.52620   1.49231    0.000
 4603.00    1.54287   1.50571    0.000
 4604.00    1.57241   1.51797    0.000
 4605.00    1.62736   1.53234    0.000
 4606.00    1.65942   1.54510    0.000
 4607.00    1.65216   1.55643    0.000
 4608.00    1.64791   1.56884    0.000
 4609.00    1.64822   1.57738    0.000
 4610.00    1.64215   1.58359    0.000
 4611.00    1.62763   1.58800    0.000
 4612.00    1.62482   1.58796    0.000
 4613.00    1.63566   1.58931    0.000
 4614.00    1.64125   1.58986    0.000
 4615.00    1.64144   1.58835    0.000
 4616.00    1.64815   1.58993    0.000
 4617.00    1.66077   1.59054    0.000
 4618.00    1.64678   1.59107    0.000
 4619.00    1.61152   1.59305    0.000
 4620.00    1.62193   1.59340    0.000
 4621.00    1.66442   1.59402    0.000
 4622.00    1.66122   1.59583    0.000
 4623.00    1.62984   1.59535    0.000
 4624.00    1.61431   1.59395    0.000
 4625.00    1.60731   1.59173    0.000
 4626.00    1.62884   1.58835    0.000
 4627.00    1.66372   1.58610    0.000
 4628.00    1.65453   1.58199    0.000
 4629.00    1.62758   1.57581    0.000
 4630.00    1.61416   1.56918    0.000
 4631.00    1.60539   1.56184    0.000
 4632.00    1.59683   1.55566    0.000
 4633.00    1.58831   1.54706    0.000
 4634.00    1.59194   1.53647    0.000
 4635.00    1.59848   1.52831    0.000
 4636.00    1.61288   1.51996    0.000
 4637.00    1.62880   1.51355    0.000
 4638.00    1.58064   1.50699    0.000
 4639.00    1.52285   1.49869    0.000
 4640.00    1.49437   1.49238    0.000
 4641.00    1.46912   1.48523    0.000
 4642.00    1.47514   1.47763    0.000
 4643.00    1.48343   1.47108    0.000
 4644.00    1.49860   1.46442    0.000
 4645.00    1.51402   1.45944    0.000
 4646.00    1.50471   1.45807    0.000
 4647.00    1.49579   1.45823    0.000
 4648.00    1.50628   1.46172    0.000
 4649.00    1.51751   1.46973    0.000
 4650.00    1.54073   1.47773    0.000
 4651.00    1.56177   1.48774    0.000
 4652.00    1.56051   1.49838    0.000
 4653.00    1.56074   1.50786    0.000
 4654.00    1.57182   1.51966    0.000
 4655.00    1.58101   1.52844    0.000
 4656.00    1.57966   1.53522    0.000
 4657.00    1.57677   1.54038    0.000
 4658.00    1.56700   1.54135    0.000
 4659.00    1.56165   1.53989    0.000
 4660.00    1.57253   1.53317    0.000
 4661.00    1.57969   1.52085    0.000
 4662.00    1.57541   1.50372    0.000
 4663.00    1.56327   1.48411    0.000
 4664.00    1.53062   1.46659    0.000
 4665.00    1.49941   1.45283    0.000
 4666.00    1.47145   1.44288    0.000
 4667.00    1.45828   1.43714    0.000
 4668.00    1.47382   1.43619    0.000
 4669.00    1.49940   1.44223    0.000
 4670.00    1.54200   1.45477    0.000
 4671.00    1.56017   1.46846    0.000
 4672.00    1.54212   1.48238    0.000
 4673.00    1.55632   1.49371    0.000
 4674.00    1.61258   1.50184    0.000
 4675.00    1.62530   1.50890    0.000
 4676.00    1.58798   1.51277    0.000
 4677.00    1.56803   1.51491    0.000
 4678.00    1.56570   1.51463    0.000
 4679.00    1.54762   1.51278    0.000
 4680.00    1.51545   1.51194    0.000
 4681.00    1.50871   1.51173    0.000
 4682.00    1.52198   1.51313    0.000
 4683.00    1.55277   1.51472    0.000
 4684.00    1.59569   1.51696    0.000
 4685.00    1.58532   1.51951    0.000
 4686.00    1.54260   1.52094    0.000
 4687.00    1.52424   1.52221    0.000
 4688.00    1.51880   1.52334    0.000
 4689.00    1.52301   1.52435    0.000
 4690.00    1.53166   1.52546    0.000
 4691.00    1.53248   1.52606    0.000
 4692.00    1.53022   1.52480    0.000
 4693.00    1.53646   1.52297    0.000
 4694.00    1.54558   1.51954    0.000
 4695.00    1.53849   1.51437    0.000
 4696.00    1.52681   1.50863    0.000
 4697.00    1.52148   1.50011    0.000
 4698.00    1.51763   1.49084    0.000
 4699.00    1.52780   1.48079    0.000
 4700.00    1.54061   1.47256    0.000
 4701.00    1.53987   1.46752    0.000
 4702.00    1.53716   1.46279    0.000
 4703.00    1.53171   1.45938    0.000
 4704.00    1.52597   1.45784    0.000
 4705.00    1.53192   1.46022    0.000
 4706.00    1.53868   1.46487    0.000
 4707.00    1.51960   1.47058    0.000
 4708.00    1.49965   1.47580    0.000
 4709.00    1.51602   1.48310    0.000
 4710.00    1.53268   1.49300    0.000
 4711.00    1.55644   1.50408    0.000
 4712.00    1.57796   1.51826    0.000
 4713.00    1.56498   1.53120    0.000
 4714.00    1.55450   1.54452    0.000
 4715.00    1.56853   1.55883    0.000
 4716.00    1.58320   1.57270    0.000
 4717.00    1.60241   1.58780    0.000
 4718.00    1.62134   1.59956    0.000
 4719.00    1.63869   1.60730    0.000
 4720.00    1.64975   1.61248    0.000
 4721.00    1.63338   1.61254    0.000
 4722.00    1.61931   1.60833    0.000
 4723.00    1.61344   1.59914    0.000
 4724.00    1.60694   1.58667    0.000
 4725.00    1.59853   1.57369    0.000
 4726.00    1.59223   1.55953    0.000
 4727.00    1.59135   1.54551    0.000
 4728.00    1.58889   1.53271    0.000
 4729.00    1.58292   1.52401    0.000
 4730.00    1.56829   1.51989    0.000
 4731.00    1.53707   1.52039    0.000
 4732.00    1.53276   1.52364    0.000
 4733.00    1.57335   1.52921    0.000
 4734.00    1.59691   1.53801    0.000
 4735.00    1.59558   1.54624    0.000
 4736.00    1.59941   1.55578    0.000
 4737.00    1.60988   1.56443    0.000
 4738.00    1.62451   1.57213    0.000
 4739.00    1.64383   1.58202    0.000
 4740.00    1.66245   1.59046    0.000
 4741.00    1.68035   1.59656    0.000
 4742.00    1.67483   1.60262    0.000
 4743.00    1.64867   1.60849    0.000
 4744.00    1.64737   1.61372    0.000
 4745.00    1.66538   1.61746    0.000
 4746.00    1.67026   1.61809    0.000
 4747.00    1.66617   1.61844    0.000
 4748.00    1.66484   1.61674    0.000
 4749.00    1.66516   1.61266    0.000
 4750.00    1.65445   1.60714    0.000
 4751.00    1.63797   1.60080    0.000
 4752.00    1.62475   1.59418    0.000
 4753.00    1.61301   1.58645    0.000
 4754.00    1.61755   1.57986    0.000
 4755.00    1.62843   1.57256    0.000
 4756.00    1.63126   1.56581    0.000
 4757.00    1.63143   1.55877    0.000
 4758.00    1.64326   1.55082    0.000
 4759.00    1.65834   1.54315    0.000
 4760.00    1.65125   1.53453    0.000
 4761.00    1.63910   1.52688    0.144
 4762.00    1.59231   1.51971    0.143
 4763.00    1.53918   1.51432    0.142
 4764.00    1.54431   1.51333    0.142
 4765.00    1.55765   1.51512    0.142
 4766.00    1.54744   1.52052    0.141
 4767.00    1.53485   1.52857    0.139
 4768.00    1.54840   1.54059    0.141
 4769.00    1.56364   1.55462    0.142
 4770.00    1.57778   1.56838    0.142
 4771.00    1.59188   1.58279    0.142
 4772.00    1.60262   1.59393    0.141
 4773.00    1.61347   1.60427    0.141
 4774.00    1.62758   1.61346    0.142
 4775.00    1.64050   1.62002    0.143
 4776.00    1.63613   1.62352    0.143
 4777.00    1.63218   1.62179    0.143
 4778.00    1.63210   1.61910    0.143
 4779.00    1.62769   1.61444    0.142
 4780.00    1.59352   1.60622    0.139
 4781.00    1.56141   1.59843    0.137
 4782.00    1.54020   1.59039    0.137
 4783.00    1.51987   1.58302    0.137
 4784.00    1.50329   1.57717    0.136
 4785.00    1.48931   1.57375    0.136
 4786.00    1.48449   1.57494    0.136
 4787.00    1.49375   1.57718    0.137
 4788.00    1.54462   1.58285    0.138
 4789.00    1.57988   1.59270    0.140
 4790.00    1.57586   1.60187    0.141
 4791.00    1.58317   1.61240    0.142
 4792.00    1.61505   1.62245    0.142
 4793.00    1.63535   1.63053    0.142
 4794.00    1.63387   1.63726    0.140
 4795.00    1.63073   1.64162    0.140
 4796.00    1.62485   1.64369    0.141
 4797.00    1.62782   1.64250    0.142
 4798.00    1.64355   1.63989    0.142
 4799.00    1.65770   1.63570    0.142
 4800.00    1.66985   1.63200    0.143
 4801.00    1.66559   1.62812    0.143
 4802.00    1.64301   1.62490    0.144
 4803.00    1.63743   1.62251    0.144
 4804.00    1.64857   1.61898    0.143
 4805.00    1.64692   1.61630    0.142
 4806.00    1.63416   1.61343    0.141
 4807.00    1.62152   1.61371    0.142
 4808.00    1.60899   1.61557    0.144
 4809.00    1.61208   1.61823    0.144
 4810.00    1.62568   1.62379    0.144
 4811.00    1.62524   1.63042    0.143
 4812.00    1.61653   1.63740    0.143
 4813.00    1.62233   1.64497    0.143
 4814.00    1.63558   1.65161    0.145
 4815.00    1.64963   1.65759    0.144
 4816.00    1.66404   1.66146    0.144
 4817.00    1.66135   1.66167    0.144
 4818.00    1.65212   1.66023    0.145
 4819.00    1.66007   1.65633    0.145
 4820.00    1.67360   1.65074    0.145
 4821.00    1.66669   1.64368    0.145
 4822.00    1.65422   1.63475    0.145
 4823.00    1.65393   1.62702    0.146
 4824.00    1.65637   1.61916    0.147
 4825.00    1.64185   1.61281    0.147
 4826.00    1.62431   1.60986    0.147
 4827.00    1.62879   1.60777    0.147
 4828.00    1.63626   1.60585    0.147
 4829.00    1.61992   1.60419    0.147
 4830.00    1.60127   1.60250    0.146
 4831.00    1.60425   1.60275    0.145
 4832.00    1.60854   1.60193    0.144
 4833.00    1.62556   1.59971    0.145
 4834.00    1.64263   1.59878    0.145
 4835.00    1.60685   1.59769    0.145
 4836.00    1.57321   1.59584    0.145
 4837.00    1.59530   1.59197    0.146
 4838.00    1.61490   1.58957    0.147
 4839.00    1.60054   1.58751    0.146
 4840.00    1.58521   1.58475    0.145
 4841.00    1.56114   1.58273    0.143
 4842.00    1.54418   1.58103    0.142
 4843.00    1.57439   1.57999    0.142
 4844.00    1.59858   1.57813    0.143
 4845.00    1.59168   1.57558    0.143
 4846.00    1.58665   1.57254    0.144
 4847.00    1.58941   1.56654    0.144
 4848.00    1.59204   1.55695    0.000
 4849.00    1.59420   1.54354    0.000
 4850.00    1.59924   1.52814    0.000
 4851.00    1.61258   1.51214    0.000
 4852.00    1.60914   1.49114    0.000
 4853.00    1.56415   1.46589    0.000
 4854.00    1.52247   1.43834    0.000
 4855.00    1.48786   1.40844    0.000
 4856.00    1.46630   1.37945    0.000
 4857.00    1.46893   1.35495    0.000
 4858.00    1.46394   1.33478    0.000
 4859.00    1.44662   1.31908    0.000
 4860.00    1.44332   1.30811    0.000
 4861.00    1.45991   1.30448    0.000
 4862.00    1.46791   1.30712    0.000
 4863.00    1.46515   1.31801    0.000
 4864.00    1.45780   1.33506    0.000
 4865.00    1.44539   1.35004    0.000
 4866.00    1.45875   1.36676    0.000
 4867.00    1.49713   1.38314    0.000
 4868.00    1.50947   1.39771    0.000
 4869.00    1.49949   1.41014    0.000
 4870.00    1.50336   1.42217    0.000
 4871.00    1.51766   1.43486    0.000
 4872.00    1.53492   1.44502    0.000
 4873.00    1.55414   1.45895    0.000
 4874.00    1.55773   1.47547    0.000
 4875.00    1.55226   1.49008    0.141
 4876.00    1.55520   1.50339    0.140
 4877.00    1.56241   1.51490    0.139
 4878.00    1.57285   1.52452    0.139
 4879.00    1.58471   1.52877    0.140
 4880.00    1.59233   1.53091    0.140
 4881.00    1.59835   1.53007    0.141
 4882.00    1.58426   1.52396    0.141
 4883.00    1.56375   1.51666    0.140
 4884.00    1.54705   1.51052    0.140
 4885.00    1.53137   1.50338    0.139
 4886.00    1.49700   1.49986    0.139
 4887.00    1.45856   1.50041    0.140
 4888.00    1.46156   1.50613    0.140
 4889.00    1.47175   1.51702    0.140
 4890.00    1.49113   1.53064    0.140
 4891.00    1.51173   1.54899    0.139
 4892.00    1.54327   1.56741    0.139
 4893.00    1.57583   1.58971    0.139
 4894.00    1.58992   1.61174    0.139
 4895.00    1.60296   1.62957    0.139
 4896.00    1.63677   1.64381    0.141
 4897.00    1.67065   1.65227    0.142
 4898.00    1.65997   1.65689    0.142
 4899.00    1.64885   1.65845    0.142
 4900.00    1.62749   1.65739    0.140
 4901.00    1.60860   1.65344    0.137
 4902.00    1.62157   1.64986    0.138
 4903.00    1.63404   1.64528    0.138
 4904.00    1.64215   1.63845    0.139
 4905.00    1.64564   1.63262    0.139
 4906.00    1.61940   1.62755    0.138
 4907.00    1.59892   1.62251    0.138
 4908.00    1.60734   1.61567    0.138
 4909.00    1.61601   1.60863    0.139
 4910.00    1.62565   1.60156    0.139
 4911.00    1.63162   1.59308    0.140
 4912.00    1.62517   1.58434    0.140
 4913.00    1.61430   1.57491    0.140
 4914.00    1.59086   1.56359    0.139
 4915.00    1.57392   1.54992    0.138
 4916.00    1.57278   1.53646    0.138
 4917.00    1.56966   1.52247    0.138
 4918.00    1.56237   1.50977    0.137
 4919.00    1.55116   1.50014    0.137
 4920.00    1.53276   1.49653    0.136
 4921.00    1.51857   1.50019    0.136
 4922.00    1.51106   1.51041    0.135
 4923.00    1.50545   1.52779    0.135
 4924.00    1.50249   1.54652    0.136
 4925.00    1.52471   1.56543    0.136
 4926.00    1.57793   1.58420    0.137
 4927.00    1.61895   1.60182    0.137
 4928.00    1.64672   1.61473    0.137
 4929.00    1.65128   1.62195    0.137
 4930.00    1.63364   1.62505    0.137
 4931.00    1.61666   1.62197    0.136
 4932.00    1.60025   1.61504    0.134
 4933.00    1.58562   1.60697    0.134
 4934.00    1.57233   1.59754    0.136
 4935.00    1.55989   1.59019    0.135
 4936.00    1.54800   1.58822    0.134
 4937.00    1.55089   1.58885    0.135
 4938.00    1.56225   1.59207    0.137
 4939.00    1.57934   1.59909    0.139
 4940.00    1.59929   1.61020    0.000
 4941.00    1.62213   1.62567    0.000
 4942.00    1.64623   1.64247    0.000
 4943.00    1.66224   1.65733    0.000
 4944.00    1.67527   1.67064    0.000
 4945.00    1.67688   1.68202    0.000
 4946.00    1.67492   1.68956    0.000
 4947.00    1.69048   1.69316    0.000
 4948.00    1.71062   1.69515    0.000
 4949.00    1.68572   1.69200    0.000
 4950.00    1.65124   1.68554    0.000
 4951.00    1.66114   1.67526    0.000
 4952.00    1.67852   1.66374    0.000
 4953.00    1.63953   1.65119    0.000
 4954.00    1.59337   1.63752    0.000
 4955.00    1.57500   1.62712    0.000
 4956.00    1.55909   1.61798    0.000
 4957.00    1.58427   1.61253    0.000
 4958.00    1.61161   1.60745    0.000
 4959.00    1.60784   1.60699    0.000
 4960.00    1.60355   1.61230    0.000
 4961.00    1.60625   1.61634    0.000
 4962.00    1.60894   1.61897    0.000
 4963.00    1.61156   1.62045    0.000
 4964.00    1.61294   1.62213    0.000
 4965.00    1.59910   1.62312    0.000
 4966.00    1.58765   1.62357    0.000
 4967.00    1.59622   1.62471    0.000
 4968.00    1.60443   1.62830    0.000
 4969.00    1.61031   1.63142    0.000
 4970.00    1.61323   1.63472    0.000
 4971.00    1.60168   1.63716    0.000
 4972.00    1.59520   1.63719    0.000
 4973.00    1.60897   1.63533    0.000
 4974.00    1.61603   1.62819    0.000
 4975.00    1.60091   1.61783    0.000
 4976.00    1.58709   1.60373    0.000
 4977.00    1.57691   1.58617    0.000
 4978.00    1.55932   1.56833    0.000
 4979.00    1.52401   1.54979    0.000
 4980.00    1.50010   1.53379    0.000
 4981.00    1.49974   1.52166    0.000
 4982.00    1.49907   1.51364    0.000
 4983.00    1.49787   1.50935    0.000
 4984.00    1.49906   1.51105    0.000
 4985.00    1.50401   1.51798    0.000
 4986.00    1.50784   1.52795    0.000
 4987.00    1.51013   1.53934    0.000
 4988.00    1.52198   1.55146    0.000
 4989.00    1.54543   1.56209    0.000
 4990.00    1.55402   1.56967    0.000
 4991.00    1.54668   1.57546    0.000
 4992.00    1.55098   1.57764    0.000
 4993.00    1.56627   1.57835    0.000
 4994.00    1.56511   1.57615    0.000
 4995.00    1.55025   1.56993    0.000
 4996.00    1.54318   1.56289    0.000
 4997.00    1.54181   1.55283    0.000
 4998.00    1.52841   1.54044    0.000
 4999.00    1.50727   1.52811    0.000
 5000.00    1.50036   1.51521    0.000
 5001.00    1.50146   1.50315    0.000
 5002.00    1.52112   1.49318    0.000
 5003.00    1.54987   1.48504    0.000
 5004.00    1.55412   1.47850    0.000
 5005.00    1.54799   1.47375    0.000
 5006.00    1.56808   1.46894    0.000
 5007.00    1.59768   1.46514    0.000
 5008.00    1.60595   1.46255    0.000
 5009.00    1.60767   1.46030    0.000
 5010.00    1.58860   1.45653    0.000
 5011.00    1.56422   1.45127    0.000
 5012.00    1.51936   1.44711    0.000
 5013.00    1.47025   1.44205    0.000
 5014.00    1.45654   1.43940    0.000
 5015.00    1.44862   1.43878    0.000
 5016.00    1.42606   1.44159    0.000
 5017.00    1.40171   1.44675    0.000
 5018.00    1.41910   1.45346    0.000
 5019.00    1.44003   1.46048    0.000
 5020.00    1.47153   1.47079    0.000
 5021.00    1.50354   1.48209    0.000
 5022.00    1.50021   1.49352    0.000
 5023.00    1.49637   1.50496    0.000
 5024.00    1.49463   1.51662    0.000
 5025.00    1.49443   1.52983    0.000
 5026.00    1.52503   1.54046    0.000
 5027.00    1.55211   1.55098    0.000
 5028.00    1.53806   1.55848    0.000
 5029.00    1.52688   1.56479    0.134
 5030.00    1.53899   1.56974    0.133
 5031.00    1.54874   1.56990    0.133
 5032.00    1.54418   1.56645    0.134
 5033.00    1.54098   1.55919    0.134
 5034.00    1.54428   1.54983    0.135
 5035.00    1.54347   1.53769    0.135
 5036.00    1.52669   1.52471    0.134
 5037.00    1.51091   1.51240    0.133
 5038.00    1.49843   1.50497    0.134
 5039.00    1.48494   1.50116    0.134
 5040.00    1.46871   1.50004    0.131
 5041.00    1.45505   1.50398    0.130
 5042.00    1.44746   1.51039    0.130
 5043.00    1.45120   1.52109    0.131
 5044.00    1.47801   1.53347    0.131
 5045.00    1.49895   1.54385    0.132
 5046.00    1.50952   1.55304    0.133
 5047.00    1.51534   1.56051    0.133
 5048.00    1.51381   1.56610    0.132
 5049.00    1.50968   1.57056    0.132
 5050.00    1.50200   1.57606    0.133
 5051.00    1.50917   1.58347    0.134
 5052.00    1.53411   1.59275    0.135
 5053.00    1.54538   1.60285    0.135
 5054.00    1.54222   1.61436    0.134
 5055.00    1.54496   1.62525    0.134
 5056.00    1.55320   1.63473    0.134
 5057.00    1.56516   1.64119    0.134
 5058.00    1.58016   1.64496    0.132
 5059.00    1.58649   1.64524    0.133
 5060.00    1.58656   1.64208    0.134
 5061.00    1.58206   1.63531    0.134
 5062.00    1.57465   1.62676    0.134
 5063.00    1.55328   1.61604    0.133
 5064.00    1.52415   1.60432    0.132
 5065.00    1.52723   1.59275    0.133
 5066.00    1.54582   1.58159    0.133
 5067.00    1.54325   1.57422    0.134
 5068.00    1.53187   1.56733    0.135
 5069.00    1.51979   1.56131    0.134
 5070.00    1.50746   1.55620    0.133
 5071.00    1.49665   1.55152    0.132
 5072.00    1.48631   1.54614    0.132
 5073.00    1.48735   1.53878    0.132
 5074.00    1.49123   1.53178    0.133
 5075.00    1.49653   1.52442    0.132
 5076.00    1.50212   1.51594    0.132
 5077.00    1.49818   1.50864    0.131
 5078.00    1.49273   1.50274    0.131
 5079.00    1.47145   1.49957    0.130
 5080.00    1.44829   1.49763    0.129
 5081.00    1.44388   1.50017    0.129
 5082.00    1.44097   1.50726    0.128
 5083.00    1.45032   1.51749    0.127
 5084.00    1.46023   1.52946    0.127
 5085.00    1.47000   1.54274    0.127
 5086.00    1.47987   1.55680    0.127
 5087.00    1.49471   1.56950    0.126
 5088.00    1.50973   1.58019    0.126
 5089.00    1.52802   1.58823    0.126
 5090.00    1.54407   1.59367    0.127
 5091.00    1.53508   1.59550    0.127
 5092.00    1.52787   1.59385    0.127
 5093.00    1.53451   1.58940    0.128
 5094.00    1.53662   1.58265    0.129
 5095.00    1.51197   1.57416    0.129
 5096.00    1.49101   1.56470    0.129
 5097.00    1.48726   1.55592    0.129
 5098.00    1.48217   1.54778    0.128
 5099.00    1.47196   1.54189    0.128
 5100.00    1.46440   1.53678    0.128
 5101.00    1.46526   1.53495    0.127
 5102.00    1.46195   1.53390    0.127
 5103.00    1.44739   1.53360    0.126
 5104.00    1.43854   1.53306    0.127
 5105.00    1.44286   1.53323    0.128
 5106.00    1.44433   1.53417    0.129
 5107.00    1.44011   1.53661    0.129
 5108.00    1.44918   1.54036    0.129
 5109.00    1.48141   1.54576    0.129
 5110.00    1.50073   1.55364    0.129
 5111.00    1.50038   1.56160    0.130
 5112.00    1.50571   1.57085    0.130
 5113.00    1.51866   1.57950    0.131
 5114.00    1.52972   1.58578    0.132
 5115.00    1.53855   1.58971    0.133
 5116.00    1.55149   1.59003    0.134
 5117.00    1.56871   1.58627    0.135
 5118.00    1.56603   1.57923    0.135
 5119.00    1.54511   1.56861    0.134
 5120.00    1.52743   1.55525    0.133
 5121.00    1.51238   1.54097    0.132
 5122.00    1.49912   1.52615    0.131
 5123.00    1.48714   1.51329    0.131
 5124.00    1.45342   1.50214    0.130
 5125.00    1.40613   1.49449    0.129
 5126.00    1.39025   1.49065    0.129
 5127.00    1.39152   1.48994    0.130
 5128.00    1.41044   1.49207    0.130
 5129.00    1.43772   1.49590    0.130
 5130.00    1.46221   1.50118    0.131
 5131.00    1.48555   1.50635    0.132
 5132.00    1.49267   1.51150    0.131
 5133.00    1.49411   1.51466    0.130
 5134.00    1.49149   1.51631    0.130
 5135.00    1.48768   1.51566    0.130
 5136.00    1.46374   1.51366    0.129
 5137.00    1.43488   1.51001    0.128
 5138.00    1.43791   1.50454    0.129
 5139.00    1.44725   1.49978    0.129
 5140.00    1.44095   1.49424    0.129
 5141.00    1.43224   1.48999    0.129
 5142.00    1.43581   1.48706    0.129
 5143.00    1.44078   1.48325    0.129
 5144.00    1.42828   1.48113    0.129
 5145.00    1.41445   1.48029    0.129
 5146.00    1.41266   1.47978    0.129
 5147.00    1.41137   1.48011    0.128
 5148.00    1.41582   1.48180    0.128
 5149.00    1.42060   1.48452    0.127
 5150.00    1.43768   1.48928    0.127
 5151.00    1.45344   1.49498    0.127
 5152.00    1.44647   1.50166    0.128
 5153.00    1.44287   1.50906    0.129
 5154.00    1.47507   1.51629    0.129
 5155.00    1.50336   1.52199    0.129
 5156.00    1.50217   1.52566    0.130
 5157.00    1.50102   1.52525    0.130
 5158.00    1.50010   1.51988    0.129
 5159.00    1.49635   1.50830    0.129
 5160.00    1.47971   1.49008    0.128
 5161.00    1.45881   1.46599    0.128
 5162.00    1.42207   1.43733    0.128
 5163.00    1.38642   1.40484    0.127
 5164.00    1.35423   1.37166    0.126
 5165.00    1.31697   1.34004    0.126
 5166.00    1.26628   1.31114    0.126
 5167.00    1.22503   1.28857    0.127
 5168.00    1.20524   1.27238    0.125
 5169.00    1.18855   1.26542    0.125
 5170.00    1.17796   1.26683    0.125
 5171.00    1.18642   1.27598    0.125
 5172.00    1.22756   1.28997    0.127
 5173.00    1.25837   1.30667    0.128
 5174.00    1.27364   1.32522    0.127
 5175.00    1.29458   1.34373    0.127
 5176.00    1.32301   1.35929    0.127
 5177.00    1.34429   1.37050    0.127
 5178.00    1.35726   1.37665    0.126
 5179.00    1.35148   1.37897    0.126
 5180.00    1.32648   1.37802    0.125
 5181.00    1.29199   1.37666    0.125
 5182.00    1.24892   1.37598    0.123
 5183.00    1.23475   1.37736    0.123
 5184.00    1.24364   1.38182    0.124
 5185.00    1.27383   1.38944    0.124
 5186.00    1.31898   1.40163    0.125
 5187.00    1.35413   1.41442    0.126
 5188.00    1.38312   1.42814    0.127
 5189.00    1.40353   1.44033    0.128
 5190.00    1.41934   1.45108    0.000
 5191.00    1.43055   1.46131    0.000
 5192.00    1.43959   1.46929    0.000
 5193.00    1.44799   1.47687    0.000
 5194.00    1.45613   1.48419    0.000
 5195.00    1.45932   1.49131    0.000
 5196.00    1.46081   1.49674    0.000
 5197.00    1.47873   1.50091    0.000
 5198.00    1.50140   1.50248    0.000
 5199.00    1.49833   1.50072    0.000
 5200.00    1.48912   1.49648    0.000
 5201.00    1.48505   1.48881    0.000
 5202.00    1.48198   1.47969    0.000
 5203.00    1.45871   1.46930    0.000
 5204.00    1.43243   1.46056    0.000
 5205.00    1.40337   1.45345    0.000
 5206.00    1.37401   1.45045    0.000
 5207.00    1.38157   1.45164    0.000
 5208.00    1.39180   1.45828    0.000
 5209.00    1.39955   1.46833    0.000
 5210.00    1.40721   1.48217    0.000
 5211.00    1.44355   1.49837    0.127
 5212.00    1.47959   1.51451    0.128
 5213.00    1.50002   1.53126    0.128
 5214.00    1.52032   1.54533    0.129
 5215.00    1.53849   1.55751    0.128
 5216.00    1.55496   1.56573    0.128
 5217.00    1.55424   1.57088    0.128
 5218.00    1.55062   1.57245    0.128
 5219.00    1.52590   1.57046    0.129
 5220.00    1.50494   1.56552    0.129
 5221.00    1.50486   1.55733    0.128
 5222.00    1.50487   1.54756    0.128
 5223.00    1.50522   1.53692    0.127
 5224.00    1.49836   1.52700    0.127
 5225.00    1.46516   1.51926    0.127
 5226.00    1.44266   1.51440    0.127
 5227.00    1.45288   1.51353    0.127
 5228.00    1.45807   1.51634    0.128
 5229.00    1.45014   1.52365    0.128
 5230.00    1.45309   1.53393    0.128
 5231.00    1.48038   1.54618    0.128
 5232.00    1.51279   1.56011    0.129
 5233.00    1.55514   1.57401    0.128
 5234.00    1.58335   1.58781    0.128
 5235.00    1.58763   1.60194    0.128
 5236.00    1.58927   1.61472    0.128
 5237.00    1.58696   1.62681    0.127
 5238.00    1.59586   1.63684    0.128
 5239.00    1.61934   1.64405    0.129
 5240.00    1.62361   1.64847    0.129
 5241.00    1.60586   1.64928    0.128
 5242.00    1.59314   1.64740    0.128
 5243.00    1.58550   1.64249    0.128
 5244.00    1.57684   1.63561    0.128
 5245.00    1.56726   1.62746    0.128
 5246.00    1.56476   1.61885    0.128
 5247.00    1.56784   1.61058    0.129
 5248.00    1.55063   1.60357    0.129
 5249.00    1.51939   1.59862    0.129
 5250.00    1.50917   1.59588    0.129
 5251.00    1.51168   1.59537    0.129
 5252.00    1.52323   1.59647    0.129
 5253.00    1.53956   1.59828    0.129
 5254.00    1.55122   1.59887    0.129
 5255.00    1.56072   1.59811    0.130
 5256.00    1.56116   1.59306    0.129
 5257.00    1.55803   1.58427    0.129
 5258.00    1.55089   1.57029    0.128
 5259.00    1.54240   1.55161    0.128
 5260.00    1.52315   1.52908    0.128
 5261.00    1.50086   1.50299    0.128
 5262.00    1.46891   1.47621    0.129
 5263.00    1.43471   1.44982    0.130
 5264.00    1.40805   1.42701    0.129
 5265.00    1.38281   1.40855    0.129
 5266.00    1.37094   1.39678    0.129
 5267.00    1.36101   1.39158    0.130
 5268.00    1.36887   1.39397    0.131
 5269.00    1.37859   1.40290    0.132
 5270.00    1.40368   1.41726    0.132
 5271.00    1.42981   1.43662    0.133
 5272.00    1.44346   1.45872    0.132
 5273.00    1.45668   1.48295    0.131
 5274.00    1.47035   1.50779    0.130
 5275.00    1.48505   1.53176    0.130
 5276.00    1.53282   1.55311    0.130
 5277.00    1.57859   1.57214    0.129
 5278.00    1.59390   1.58947    0.130
 5279.00    1.60587   1.60419    0.130
 5280.00    1.58524   1.61845    0.129
 5281.00    1.56600   1.63106    0.128
 5282.00    1.55655   1.64383    0.128
 5283.00    1.55352   1.65621    0.127
 5284.00    1.58532   1.66939    0.127
 5285.00    1.60932   1.68181    0.127
 5286.00    1.59939   1.69392    0.126
 5287.00    1.59888   1.70351    0.126
 5288.00    1.63205   1.71061    0.127
 5289.00    1.65732   1.71377    0.128
 5290.00    1.65890   1.71250    0.128
 5291.00    1.66008   1.70723    0.128
 5292.00    1.66027   1.69871    0.128
 5293.00    1.65346   1.68810    0.129
 5294.00    1.63128   1.67653    0.129
 5295.00    1.61393   1.66545    0.130
 5296.00    1.60579   1.65652    0.129
 5297.00    1.59804   1.65072    0.128
 5298.00    1.59092   1.64915    0.128
 5299.00    1.58610   1.65153    0.128
 5300.00    1.58460   1.65819    0.128
 5301.00    1.59862   1.66835    0.128
 5302.00    1.63253   1.68126    0.128
 5303.00    1.64872   1.69544    0.128
 5304.00    1.64487   1.70905    0.128
 5305.00    1.66384   1.72181    0.128
 5306.00    1.70557   1.73282    0.129
 5307.00    1.78382   1.74141    0.131
 5308.00    1.89420   1.74700    0.133
 5309.00    1.88649   1.74956    0.138
 5310.00    1.78726   1.74939    0.145
 5311.00    1.71526   1.74681    0.147
 5312.00    1.66180   1.74223    0.146
 5313.00    1.63889   1.73567    0.145
 5314.00    1.63423   1.72737    0.146
 5315.00    1.61960   1.71775    0.145
 5316.00    1.59979   1.70681    0.143
 5317.00    1.60815   1.69461    0.136
 5318.00    1.62923   1.68118    0.128
 5319.00    1.63671   1.66611    0.126
 5320.00    1.63891   1.64997    0.126
 5321.00    1.61310   1.63290    0.126
 5322.00    1.57804   1.61586    0.125
 5323.00    1.55621   1.59871    0.124
 5324.00    1.53807   1.58421    0.124
 5325.00    1.50504   1.57171    0.124
 5326.00    1.46861   1.56418    0.123
 5327.00    1.47026   1.56029    0.124
 5328.00    1.47885   1.56248    0.124
 5329.00    1.50045   1.56881    0.124
 5330.00    1.52387   1.57883    0.124
 5331.00    1.53805   1.59059    0.124
 5332.00    1.55130   1.60418    0.124
 5333.00    1.56596   1.61813    0.124
 5334.00    1.58070   1.62955    0.123
 5335.00    1.59163   1.63848    0.123
 5336.00    1.60239   1.64444    0.122
 5337.00    1.59321   1.64864    0.123
 5338.00    1.58449   1.65091    0.124
 5339.00    1.58894   1.65195    0.124
 5340.00    1.59278   1.65256    0.124
 5341.00    1.58798   1.65366    0.124
 5342.00    1.58212   1.65552    0.124
 5343.00    1.56642   1.65821    0.123
 5344.00    1.55431   1.66273    0.122
 5345.00    1.56676   1.66914    0.122
 5346.00    1.58053   1.67719    0.122
 5347.00    1.60131   1.68638    0.123
 5348.00    1.61637   1.69761    0.123
 5349.00    1.60716   1.70973    0.124
 5350.00    1.60365   1.72365    0.125
 5351.00    1.62013   1.73752    0.125
 5352.00    1.64104   1.75114    0.125
 5353.00    1.67502   1.76358    0.125
 5354.00    1.70238   1.77415    0.126
 5355.00    1.71309   1.78137    0.126
 5356.00    1.72000   1.78506    0.126
 5357.00    1.71866   1.78457    0.126
 5358.00    1.71190   1.78048    0.126
 5359.00    1.69494   1.77215    0.126
 5360.00    1.68188   1.76078    0.126
 5361.00    1.67520   1.74667    0.125
 5362.00    1.65613   1.73087    0.125
 5363.00    1.61924   1.71436    0.125
 5364.00    1.59415   1.69786    0.125
 5365.00    1.58398   1.68278    0.125
 5366.00    1.57962   1.66974    0.125
 5367.00    1.58174   1.66004    0.125
 5368.00    1.57875   1.65364   -2.000
 5369.00    1.57073   1.65151   -2.000
 5370.00    1.56318   1.65345   -2.000
 5371.00    1.55605   1.65875   -2.000
 5372.00    1.56298   1.66746   -2.000
 5373.00    1.58067   1.67742   -2.000
 5374.00    1.60651   1.68888   -2.000
 5375.00    1.63784   1.69978   -2.000
 5376.00    1.66157   1.71006   -2.000
 5377.00    1.68083   1.71800   -2.000
 5378.00    1.67315   1.72376   -2.000
 5379.00    1.65166   1.72706   -2.000
 5380.00    1.64249   1.72796   -2.000
 5381.00    1.63879   1.72717   -2.000
 5382.00    1.64416   1.72451   -2.000
 5383.00    1.65299   1.72040    0.123
 5384.00    1.64937   1.71481    0.123
 5385.00    1.64173   1.70796    0.123
 5386.00    1.62138   1.69976    0.122
 5387.00    1.59757   1.69042    0.119
 5388.00    1.59063   1.68025    0.120
 5389.00    1.58744   1.66914    0.120
 5390.00    1.57413   1.65790    0.120
 5391.00    1.55901   1.64660    0.119
 5392.00    1.54662   1.63587    0.120
 5393.00    1.53459   1.62603    0.121
 5394.00    1.53308   1.61728    0.121
 5395.00    1.53258   1.60980    0.121
 5396.00    1.54182   1.60317    0.121
 5397.00    1.55166   1.59761    0.122
 5398.00    1.55128   1.59221    0.122
 5399.00    1.55054   1.58730    0.122
 5400.00    1.53441   1.58209    0.120
 5401.00    1.51921   1.57744    0.118
 5402.00    1.52786   1.57309    0.121
 5403.00    1.53440   1.56980    0.123
 5404.00    1.51229   1.56832    0.122
 5405.00    1.49249   1.56882    0.121
 5406.00    1.49336   1.57232    0.121
 5407.00    1.49541   1.57863    0.121
 5408.00    1.50524   1.58829    0.121
 5409.00    1.51795   1.60023    0.121
 5410.00    1.54547   1.61456    0.122
 5411.00    1.56823   1.62989    0.123
 5412.00    1.57121   1.64556    0.122
 5413.00    1.57699   1.66040    0.121
 5414.00    1.59237   1.67351    0.122
 5415.00    1.60954   1.68461    0.123
 5416.00    1.63188   1.69314    0.123
 5417.00    1.64683   1.69931    0.122
 5418.00    1.64353   1.70254    0.122
 5419.00    1.63748   1.70356    0.122
 5420.00    1.62558   1.70242    0.121
 5421.00    1.62293   1.69976    0.121
 5422.00    1.63738   1.69568    0.122
 5423.00    1.64059   1.69036    0.122
 5424.00    1.62564   1.68420    0.121
 5425.00    1.61659   1.67739    0.121
 5426.00    1.61587   1.67042    0.120
 5427.00    1.61453   1.66347    0.120
 5428.00    1.61241   1.65727    0.120
 5429.00    1.60840   1.65193    0.120
 5430.00    1.60232   1.64888    0.119
 5431.00    1.59246   1.64808    0.119
 5432.00    1.57895   1.65020    0.118
 5433.00    1.57406   1.65503    0.118
 5434.00    1.57653   1.66248    0.118
 5435.00    1.59541   1.67214    0.118
 5436.00    1.62664   1.68299    0.118
 5437.00    1.63661   1.69403    0.118
 5438.00    1.63253   1.70341    0.118
 5439.00    1.63309   1.71127    0.118
 5440.00    1.63633   1.71568    0.118
 5441.00    1.63160   1.71771    0.117
 5442.00    1.62286   1.71616    0.117
 5443.00    1.62266   1.71292    0.118
 5444.00    1.62621   1.70737    0.120
 5445.00    1.61992   1.70177    0.119
 5446.00    1.60994   1.69547    0.118
 5447.00    1.59926   1.69050    0.118
 5448.00    1.58835   1.68568    0.118
 5449.00    1.58603   1.68258    0.118
 5450.00    1.58599   1.67964    0.118
 5451.00    1.57981   1.67810    0.118
 5452.00    1.57228   1.67668    0.119
 5453.00    1.56052   1.67629    0.119
 5454.00    1.54802   1.67619    0.119
 5455.00    1.56800   1.67670    0.121
 5456.00    1.59224   1.67774    0.122
 5457.00    1.60159   1.67888    0.122
 5458.00    1.60957   1.68050    0.121
 5459.00    1.61013   1.68193    0.121
 5460.00    1.61027   1.68355    0.121
 5461.00    1.60777   1.68473    0.120
 5462.00    1.60510   1.68569    0.119
 5463.00    1.59165   1.68612    0.119
 5464.00    1.57850   1.68595    0.119
 5465.00    1.57228   1.68497    0.119
 5466.00    1.56723   1.68270    0.119
 5467.00    1.57728   1.67941    0.119
 5468.00    1.58540   1.67453    0.119
 5469.00    1.57682   1.66862    0.118
 5470.00    1.57041   1.66133    0.117
 5471.00    1.57797   1.65359    0.118
 5472.00    1.58356   1.64548    0.119
 5473.00    1.57929   1.63802    0.119
 5474.00    1.57322   1.63146    0.119
 5475.00    1.55988   1.62690    0.118
 5476.00    1.54822   1.62416    0.117
 5477.00    1.54222   1.62411    0.117
 5478.00    1.53723   1.62605   -2.000
 5479.00    1.53512   1.63045   -2.000
 5480.00    1.53870   1.63611   -2.000
 5481.00    1.55607   1.64324   -2.000
 5482.00    1.56835   1.65063   -2.000
 5483.00    1.56999   1.65818   -2.000
 5484.00    1.55188   1.66524   -2.000
 5485.00    1.49782   1.67148   -2.000
 5486.00    1.44873   1.67696   -2.000
 5487.00    1.40754   1.68124   -2.000
 5488.00    1.42527   1.68491   -2.000
 5489.00    1.52531   1.68736   -2.000
 5490.00    1.63629   1.68944   -2.000
 5491.00    1.76071   1.69057   -2.000
 5492.00    1.82059   1.69146   -2.000
 5493.00    1.81051   1.69150   -2.000
 5494.00    1.76050   1.69124   -2.000
 5495.00    1.67230   1.69013   -2.000
 5496.00    1.62201   1.68864   -2.000
 5497.00    1.60366   1.68622   -2.000
 5498.00    1.59993   1.68353   -2.000
 5499.00    1.60705   1.67990   -2.000
 5500.00    1.60840   1.67629   -2.000
 5501.00    1.60600   1.67191   -2.000
 5502.00    1.60646   1.66796    0.120
 5503.00    1.60855   1.66357    0.119
 5504.00    1.59481   1.66000    0.119
 5505.00    1.57321   1.65636    0.119
 5506.00    1.57806   1.65381    0.119
 5507.00    1.59428   1.65163    0.119
 5508.00    1.58041   1.65074    0.119
 5509.00    1.55546   1.65070    0.119
 5510.00    1.55449   1.65218    0.119
 5511.00    1.56101   1.65495    0.118
 5512.00    1.56201   1.65923    0.118
 5513.00    1.56157   1.66491    0.117
 5514.00    1.56681   1.67156    0.117
 5515.00    1.57325   1.67907    0.119
 5516.00    1.59164   1.68641    0.118
 5517.00    1.61204   1.69345    0.118
 5518.00    1.62687   1.69904    0.119
 5519.00    1.64100   1.70318    0.119
 5520.00    1.64413   1.70511    0.119
 5521.00    1.64628   1.70508    0.118
 5522.00    1.62345   1.70314    0.118
 5523.00    1.59930   1.69970    0.117
 5524.00    1.59388   1.69549    0.115
 5525.00    1.58872   1.69090    0.114
 5526.00    1.57826   1.68691    0.115
 5527.00    1.56829   1.68364    0.115
 5528.00    1.56879   1.68184    0.115
 5529.00    1.56998   1.68133    0.114
 5530.00    1.57956   1.68235    0.115
 5531.00    1.58879   1.68460    0.115
 5532.00    1.59517   1.68797    0.115
 5533.00    1.60110   1.69209    0.115
 5534.00    1.60432   1.69685    0.115
 5535.00    1.60838   1.70179    0.114
 5536.00    1.61661   1.70704    0.116
 5537.00    1.62089   1.71199    0.117
 5538.00    1.60946   1.71707    0.117
 5539.00    1.60193   1.72155    0.117
 5540.00    1.60725   1.72611    0.120
 5541.00    1.61112   1.73005    0.142
 5542.00    1.61096   1.73410    0.342
 5543.00    1.61202   1.73765   -1.000
 5544.00    1.61599   1.74129   -1.000
 5545.00    1.62496   1.74447   -1.000
 5546.00    1.64423   1.74749   -1.000
 5547.00    1.65925   1.74989   -1.000
 5548.00    1.66665   1.75172   -1.000
 5549.00    1.66872   1.75263   -1.000
 5550.00    1.66241   1.75266   -1.000
 5551.00    1.65622   1.75160    0.559
 5552.00    1.65017   1.74964    0.165
 5553.00    1.64823   1.74668    0.119
 5554.00    1.65126   1.74308    0.119
 5555.00    1.64749   1.73870    0.119
 5556.00    1.63646   1.73395    0.119
 5557.00    1.62925   1.72867    0.119
 5558.00    1.62566   1.72321    0.118
 5559.00    1.61522   1.71745    0.117
 5560.00    1.59909   1.71170    0.116
 5561.00    1.59229   1.70594    0.116
 5562.00    1.59231   1.70047    0.116
 5563.00    1.59146   1.69538    0.115
 5564.00    1.59006   1.69100    0.114
 5565.00    1.59274   1.68736    0.114
 5566.00    1.59772   1.68482    0.114
 5567.00    1.59618   1.68324    0.114
 5568.00    1.59145   1.68294    0.114
 5569.00    1.59379   1.68360    0.113
 5570.00    1.59913   1.68539    0.113
 5571.00    1.60542   1.68788    0.113
 5572.00    1.61206   1.69095    0.114
 5573.00    1.61130   1.69417    0.114
 5574.00    1.60828   1.69715    0.114
 5575.00    1.60626   1.69944    0.114
 5576.00    1.60449   1.70057    0.114
 5577.00    1.60325   1.70007    0.114
 5578.00    1.60210   1.69769    0.114
 5579.00    1.61112   1.69308    0.115
 5580.00    1.62180   1.68642    0.115
 5581.00    1.60345   1.67770    0.115
 5582.00    1.58156   1.66758    0.115
 5583.00    1.57350   1.65651    0.115
 5584.00    1.56661   1.64542    0.115
 5585.00    1.55516   1.63504    0.116
 5586.00    1.54349   1.62623    0.117
 5587.00    1.52220   1.61953    0.117
 5588.00    1.50118   1.61540    0.117
 5589.00    1.50493   1.61383    0.118
 5590.00    1.50873   1.61471    0.119
 5591.00    1.51355   1.61755    0.118
 5592.00    1.52014   1.62178    0.118
 5593.00    1.54722   1.62695    0.119
 5594.00    1.57114   1.63221    0.120
 5595.00    1.56959   1.63788    0.121
 5596.00    1.56846   1.64291    0.121
 5597.00    1.56984   1.64871    0.121
 5598.00    1.56916   1.65397    0.121
 5599.00    1.55869   1.66090    0.121
 5600.00    1.55184   1.66771    0.121
 5601.00    1.55907   1.67675    0.119
 5602.00    1.56934   1.68566    0.119
 5603.00    1.58944   1.69624    0.119
 5604.00    1.60817   1.70582    0.119
 5605.00    1.62313   1.71557    0.118
 5606.00    1.63621   1.72300    0.117
 5607.00    1.64488   1.72884    0.116
 5608.00    1.65148   1.73134    0.115
 5609.00    1.65388   1.73141    0.115
 5610.00    1.65431   1.72818    0.114
 5611.00    1.65125   1.72299    0.113
 5612.00    1.63624   1.71566    0.113
 5613.00    1.60276   1.70769    0.112
 5614.00    1.57729   1.69934    0.112
 5615.00    1.56270   1.69166    0.112
 5616.00    1.56036   1.68502    0.112
 5617.00    1.57266   1.67980    0.113
 5618.00    1.57769   1.67622    0.113
 5619.00    1.57506   1.67410    0.112
 5620.00    1.57406   1.67358    0.112
 5621.00    1.57459   1.67433    0.113
 5622.00    1.56898   1.67641    0.113
 5623.00    1.55833   1.67952    0.113
 5624.00    1.56094   1.68367    0.113
 5625.00    1.57311   1.68845    0.113
 5626.00    1.58788   1.69374    0.114
 5627.00    1.60429   1.69896    0.114
 5628.00    1.60358   1.70384    0.115
 5629.00    1.59339   1.70775    0.115
 5630.00    1.58236   1.71051    0.114
 5631.00    1.57093   1.71171    0.114
 5632.00    1.57647   1.71142    0.114
 5633.00    1.58906   1.70970    0.115
 5634.00    1.58043   1.70688    0.115
 5635.00    1.56426   1.70342    0.114
 5636.00    1.55578   1.69981    0.114
 5637.00    1.54960   1.69645    0.114
 5638.00    1.55691   1.69387    0.115
 5639.00    1.56757   1.69211    0.116
 5640.00    1.56213   1.69168    0.115
 5641.00    1.55343   1.69203    0.114
 5642.00    1.56087   1.69367    0.113
 5643.00    1.57088   1.69558    0.113
 5644.00    1.58573   1.69833    0.113
 5645.00    1.60116   1.70059    0.114
 5646.00    1.59364   1.70284    0.113
 5647.00    1.58429   1.70380    0.111
 5648.00    1.58933   1.70395    0.111
 5649.00    1.59502   1.70258    0.112
 5650.00    1.59570   1.69983    0.111
 5651.00    1.59596   1.69533    0.111
 5652.00    1.57847   1.68979    0.111
 5653.00    1.56210   1.68342    0.110
 5654.00    1.56632   1.67651    0.110
 5655.00    1.57153   1.66981    0.110
 5656.00    1.58777   1.66370    0.110
 5657.00    1.60005   1.65908    0.111
 5658.00    1.58159   1.65583    0.111
 5659.00    1.56651   1.65492    0.111
 5660.00    1.57134   1.65551    0.111
 5661.00    1.57540   1.65853    0.111
 5662.00    1.57584   1.66273    0.111
 5663.00    1.57431   1.66892    0.112
 5664.00    1.56527   1.67572    0.111
 5665.00    1.55950   1.68385    0.111
 5666.00    1.56409   1.69205    0.111
 5667.00    1.57134   1.70091    0.112
 5668.00    1.58578   1.70940    0.113
 5669.00    1.59485   1.71793    0.114
 5670.00    1.59153   1.72557    0.114
 5671.00    1.59824   1.73260    0.115
 5672.00    1.62498   1.73831    0.115
 5673.00    1.64003   1.74259    0.115
 5674.00    1.63472   1.74512    0.114
 5675.00    1.63280   1.74577    0.115
 5676.00    1.63605   1.74475    0.117
 5677.00    1.63885   1.74175    0.118
 5678.00    1.64107   1.73765    0.118
 5679.00    1.62952   1.73249    0.117
 5680.00    1.60177   1.72703    0.116
 5681.00    1.60130   1.72155    0.115
 5682.00    1.62918   1.71652    0.115
 5683.00    1.63672   1.71285    0.114
 5684.00    1.62563   1.71020    0.112
 5685.00    1.61769   1.70974    0.111
 5686.00    1.61229   1.71002    0.110
 5687.00    1.60874   1.71245    0.110
 5688.00    1.60650   1.71509    0.111
 5689.00    1.60517   1.71876    0.111
 5690.00    1.60440   1.72194    0.109
 5691.00    1.61145   1.72481    0.109
 5692.00    1.62276   1.72654    0.110
 5693.00    1.62824   1.72642    0.110
 5694.00    1.63096   1.72506    0.110
 5695.00    1.62979   1.72149    0.111
 5696.00    1.62703   1.71658    0.112
 5697.00    1.61270   1.70983    0.112
 5698.00    1.59432   1.70239    0.111
 5699.00    1.59189   1.69391    0.111
 5700.00    1.59414   1.68510    0.111
 5701.00    1.60198   1.67604    0.111
 5702.00    1.61119   1.66728    0.112
 5703.00    1.61069   1.65931    0.112
 5704.00    1.60828   1.65209    0.112
 5705.00    1.59497   1.64691    0.111
 5706.00    1.57999   1.64320    0.111
 5707.00    1.57254   1.64207    0.111
 5708.00    1.56594   1.64354    0.111
 5709.00    1.56295   1.64770    0.111
 5710.00    1.56023   1.65459    0.112
 5711.00    1.56144   1.66387    0.111
 5712.00    1.56282   1.67526    0.111
 5713.00    1.59140   1.68794    0.112
 5714.00    1.61963   1.70180    0.114
 5715.00    1.62450   1.71557    0.113
 5716.00    1.62987   1.72920    0.113
 5717.00    1.64377   1.74172    0.113
 5718.00    1.65802   1.75293    0.114
 5719.00    1.67592   1.76239    0.113
 5720.00    1.69183   1.76994    0.112
 5721.00    1.69270   1.77556    0.112
 5722.00    1.69381   1.77915    0.112
 5723.00    1.69623   1.78132    0.112
 5724.00    1.69985   1.78196    0.113
 5725.00    1.70889   1.78175    0.112
 5726.00    1.71414   1.78077    0.111
 5727.00    1.70525   1.77946    0.111
 5728.00    1.69571   1.77824    0.111
 5729.00    1.68412   1.77705    0.111
 5730.00    1.67515   1.77671    0.111
 5731.00    1.67309   1.77629    0.110
 5732.00    1.67512   1.77662    0.109
 5733.00    1.68644   1.77678    0.108
 5734.00    1.69594   1.77742    0.107
 5735.00    1.70190   1.77776    0.108
 5736.00    1.70523   1.77824    0.109
 5737.00    1.70405   1.77829    0.108
 5738.00    1.69991   1.77817    0.108
 5739.00    1.69134   1.77766    0.109
 5740.00    1.68725   1.77685    0.000
 5741.00    1.68909   1.77568    0.000
 5742.00    1.69363   1.77420    0.000
 5743.00    1.70132   1.77207    0.000
 5744.00    1.70430   1.76967    0.000
 5745.00    1.70245   1.76658    0.000
 5746.00    1.70021   1.76366    0.000
 5747.00    1.69763   1.76032    0.000
 5748.00    1.69377   1.75697    0.000
 5749.00    1.68890   1.75344    0.000
 5750.00    1.67713   1.75029    0.000
 5751.00    1.66052   1.74777    0.000
 5752.00    1.66087   1.74591    0.000
 5753.00    1.67162   1.74512    0.000
 5754.00    1.67749   1.74438    0.000
 5755.00    1.68073   1.74472    0.000
 5756.00    1.68282   1.74490    0.000
 5757.00    1.68438   1.74621    0.000
 5758.00    1.67901   1.74732    0.000
 5759.00    1.67087   1.74983    0.000
 5760.00    1.67854   1.75220    0.000
 5761.00    1.69162   1.75627    0.000
 5762.00    1.69543   1.76010    0.000
 5763.00    1.69656   1.76460    0.000
 5764.00    1.70551   1.76878    0.000
 5765.00    1.71632   1.77295    0.000
 5766.00    1.70748   1.77633    0.000
 5767.00    1.69487   1.77880    0.000
 5768.00    1.69396   1.78018    0.000
 5769.00    1.69478   1.77991    0.000
 5770.00    1.69723   1.77841    0.000
 5771.00    1.69986   1.77525    0.000
 5772.00    1.69337   1.77045    0.000
 5773.00    1.68623   1.76452    0.000
 5774.00    1.68974   1.75692    0.000
 5775.00    1.69364   1.74841    0.000
 5776.00    1.70769   1.73856    0.000
 5777.00    1.72099   1.72849    0.000
 5778.00    1.70582   1.71779    0.000
 5779.00    1.68988   1.70847    0.000
 5780.00    1.66148   1.70014    0.000
 5781.00    1.63452   1.69367    0.000
 5782.00    1.62214   1.68894    0.000
 5783.00    1.61043   1.68694    0.000
 5784.00    1.60357   1.68797    0.000
 5785.00    1.59950   1.69081    0.000
 5786.00    1.61087   1.69613    0.000
 5787.00    1.62400   1.70269    0.000
 5788.00    1.64499   1.71031    0.000
 5789.00    1.66183   1.71916    0.000
 5790.00    1.66357   1.72809    0.000
 5791.00    1.66509   1.73708   -2.000
 5792.00    1.66594   1.74557   -2.000
 5793.00    1.66734   1.75342   -2.000
 5794.00    1.67015   1.76023   -2.000
 5795.00    1.67607   1.76621   -2.000
 5796.00    1.68890   1.77203   -2.000
 5797.00    1.70418   1.77685   -2.000
 5798.00    1.72418   1.78078   -2.000
 5799.00    1.73430   1.78368   -2.000
 5800.00    1.72777   1.78585   -2.000
 5801.00    1.72505   1.78672   -2.000
 5802.00    1.72796   1.78741   -2.000
 5803.00    1.72750   1.78752   -2.000
 5804.00    1.72268   1.78756   -2.000
 5805.00    1.72384   1.78732   -2.000
 5806.00    1.73184   1.78717   -2.000
 5807.00    1.73083   1.78705   -2.000
 5808.00    1.72072   1.78733   -2.000
 5809.00    1.71308   1.78750   -2.000
 5810.00    1.70765   1.78820   -2.000
 5811.00    1.70887   1.78890    0.000
 5812.00    1.71531   1.79005    0.000
 5813.00    1.71433   1.79137    0.000
 5814.00    1.70822   1.79348    0.000
 5815.00    1.70453   1.79634    0.000
 5816.00    1.70231   1.79940    0.000
 5817.00    1.71015   1.80288    0.000
 5818.00    1.72330   1.80640    0.000
 5819.00    1.72583   1.80996    0.000
 5820.00    1.72348   1.81332    0.000
 5821.00    1.72514   1.81644    0.000
 5822.00    1.72838   1.81931    0.000
 5823.00    1.73532   1.82147    0.000
 5824.00    1.74350   1.82323    0.000
 5825.00    1.74575   1.82421    0.000
 5826.00    1.74631   1.82489    0.000
 5827.00    1.74244   1.82487    0.000
 5828.00    1.73754   1.82443    0.000
 5829.00    1.73254   1.82359    0.000
 5830.00    1.72754   1.82262    0.000
 5831.00    1.71968   1.82130    0.000
 5832.00    1.71142   1.82016    0.000
 5833.00    1.71503   1.81920    0.000
 5834.00    1.71988   1.81866    0.000
 5835.00    1.71699   1.81786    0.000
 5836.00    1.71358   1.81778    0.000
 5837.00    1.71692   1.81749    0.000
 5838.00    1.72048   1.81748    0.000
 5839.00    1.71594   1.81684    0.000
 5840.00    1.71183   1.81586    0.000
 5841.00    1.72115   1.81390    0.000
 5842.00    1.73015   1.81099    0.000
 5843.00    1.73419   1.80708    0.000
 5844.00    1.73660   1.80188    0.000
 5845.00    1.72318   1.79597    0.000
 5846.00    1.71089   1.78897    0.000
 5847.00    1.70641   1.78149    0.000
 5848.00    1.70187   1.77321    0.000
 5849.00    1.69699   1.76469    0.000
 5850.00    1.69070   1.75582    0.000
 5851.00    1.67824   1.74758    0.000
 5852.00    1.66682   1.74007    0.000
 5853.00    1.65905   1.73327    0.000
 5854.00    1.65240   1.72770    0.000
 5855.00    1.64914   1.72320    0.000
 5856.00    1.64426   1.72120    0.000
 5857.00    1.63529   1.72009    0.000
 5858.00    1.63273   1.72171    0.000
 5859.00    1.64422   1.72361    0.000
 5860.00    1.65131   1.72760    0.000
 5861.00    1.65005   1.73201    0.000
 5862.00    1.65100   1.73751    0.000
 5863.00    1.65563   1.74308    0.000
 5864.00    1.66060   1.74873    0.000
 5865.00    1.66608   1.75461    0.000
 5866.00    1.67076   1.75978    0.000
 5867.00    1.67440   1.76483    0.000
 5868.00    1.67907   1.76866    0.000
 5869.00    1.68488   1.77170    0.000
 5870.00    1.68711   1.77332    0.000
 5871.00    1.68577   1.77384    0.000
 5872.00    1.68273   1.77312    0.000
 5873.00    1.67820   1.77050    0.000
 5874.00    1.67583   1.76685    0.000
 5875.00    1.67513   1.76072    0.000
 5876.00    1.67204   1.75354    0.000
 5877.00    1.66732   1.74348    0.000
 5878.00    1.65926   1.73221    0.000
 5879.00    1.64920   1.71809    0.000
 5880.00    1.63930   1.70184    0.000
 5881.00    1.62949   1.68267    0.000
 5882.00    1.61064   1.66113    0.000
 5883.00    1.58771   1.63712    0.000
 5884.00    1.56568   1.61122    0.000
 5885.00    1.54399   1.58393    0.000
 5886.00    1.50213   1.55585    0.000
 5887.00    1.45360   1.52868    0.000
 5888.00    1.40178   1.50527    0.000
 5889.00    1.34904   1.48595    0.000
 5890.00    1.32693   1.47215    0.000
 5891.00    1.31179   1.46434    0.000
 5892.00    1.30731   1.46124    0.000
 5893.00    1.30477   1.46412    0.000
 5894.00    1.32314   1.47382    0.000
 5895.00    1.34443   1.48860    0.000
 5896.00    1.37343   1.50854    0.000
 5897.00    1.40320   1.53194    0.000
 5898.00    1.44175   1.55680    0.000
 5899.00    1.48085   1.58252    0.000
 5900.00    1.50855   1.60764    0.000
 5901.00    1.53590   1.63174    0.102
 5902.00    1.55709   1.65314    0.102
 5903.00    1.57806   1.67246    0.102
 5904.00    1.59276   1.68845    0.102
 5905.00    1.60759   1.70194    0.101
 5906.00    1.62436   1.71223    0.102
 5907.00    1.63955   1.72014    0.102
 5908.00    1.64007   1.72566    0.102
 5909.00    1.64026   1.72917    0.101
 5910.00    1.63818   1.73140    0.101
 5911.00    1.63594   1.73207    0.100
 5912.00    1.63288   1.73280    0.100
 5913.00    1.63021   1.73264    0.100
 5914.00    1.62924   1.73352    0.100
 5915.00    1.62849   1.73446    0.100
 5916.00    1.62849   1.73590    0.101
 5917.00    1.62967   1.73807    0.102
 5918.00    1.63430   1.73997    0.104
 5919.00    1.64035   1.74250    0.106
 5920.00    1.64995   1.74450    0.106
 5921.00    1.65156   1.74678    0.106
 5922.00    1.63592   1.74822    0.106
 5923.00    1.62535   1.74984    0.107
 5924.00    1.62430   1.75039    0.107
 5925.00    1.62756   1.75065    0.107
 5926.00    1.63789   1.75046    0.106
 5927.00    1.64722   1.74958    0.105
 5928.00    1.65511   1.74937    0.104
 5929.00    1.65877   1.74872    0.104
 5930.00    1.65708   1.74882    0.104
 5931.00    1.65611   1.74879    0.104
 5932.00    1.65593   1.74893    0.103
 5933.00    1.65457   1.74952    0.103
 5934.00    1.65204   1.75013    0.102
 5935.00    1.65285   1.75135    0.102
 5936.00    1.65657   1.75251    0.103
 5937.00    1.66188   1.75333    0.102
 5938.00    1.66840   1.75407    0.101
 5939.00    1.67221   1.75449    0.101
 5940.00    1.67419   1.75466    0.101
 5941.00    1.67485   1.75464    0.101
 5942.00    1.67475   1.75463    0.102
 5943.00    1.67198   1.75412    0.101
 5944.00    1.66785   1.75337    0.100
 5945.00    1.66573   1.75214    0.100
 5946.00    1.66450   1.75053    0.100
 5947.00    1.66593   1.74909    0.101
 5948.00    1.66838   1.74753    0.103
 5949.00    1.65975   1.74650    0.103
 5950.00    1.64753   1.74554    0.102
 5951.00    1.64206   1.74523    0.102
 5952.00    1.63843   1.74514    0.103
 5953.00    1.64018   1.74613    0.103
 5954.00    1.64313   1.74772    0.103
 5955.00    1.64656   1.74985    0.103
 5956.00    1.65008   1.75257    0.104
 5957.00    1.66022   1.75623    0.104
 5958.00    1.67125   1.76016    0.105
 5959.00    1.67989   1.76463    0.106
 5960.00    1.68830   1.76869    0.106
 5961.00    1.67844   1.77304    0.105
 5962.00    1.66748   1.77664    0.104
 5963.00    1.67348   1.78008    0.103
 5964.00    1.67992   1.78314    0.101
 5965.00    1.68624   1.78532    0.102
 5966.00    1.69222   1.78744    0.103
 5967.00    1.68933   1.78840    0.102
 5968.00    1.68710   1.78881    0.101
 5969.00    1.69368   1.78797    0.100
 5970.00    1.70044   1.78656    0.100
 5971.00    1.70876   1.78394    0.100
 5972.00    1.71558   1.78060    0.101
 5973.00    1.71255   1.77651    0.101
 5974.00    1.70845   1.77182    0.101
 5975.00    1.69889   1.76705    0.100
 5976.00    1.68809   1.76217    0.100
 5977.00    1.67214   1.75806    0.099
 5978.00    1.65850   1.75377    0.099
 5979.00    1.65274   1.75045    0.099
 5980.00    1.64729   1.74715    0.099
 5981.00    1.64273   1.74439    0.100
 5982.00    1.63981   1.74246    0.100
 5983.00    1.64097   1.74140    0.100
 5984.00    1.64035   1.74136    0.101
 5985.00    1.63597   1.74271    0.101
 5986.00    1.63243   1.74410    0.102
 5987.00    1.63046   1.74628    0.102
 5988.00    1.63618   1.74837    0.103
 5989.00    1.65432   1.75067    0.103
 5990.00    1.66937   1.75269    0.103
 5991.00    1.68004   1.75423    0.104
 5992.00    1.68902   1.75572    0.104
 5993.00    1.69587   1.75621    0.103
 5994.00    1.69954   1.75579    0.103
 5995.00    1.69971   1.75459    0.103
 5996.00    1.69644   1.75285    0.102
 5997.00    1.68983   1.75069    0.101
 5998.00    1.67995   1.74852    0.101
 5999.00    1.66728   1.74585    0.101
 6000.00    1.66547   1.74291    0.101
 6001.00    1.67183   1.74005    0.100
 6002.00    1.67187   1.73680    0.100
 6003.00    1.66775   1.73422    0.099
 6004.00    1.65930   1.73172    0.098
 6005.00    1.64833   1.72884    0.098
 6006.00    1.64269   1.72678    0.098
 6007.00    1.63971   1.72469    0.098
 6008.00    1.63738   1.72336    0.099
 6009.00    1.63533   1.72263    0.099
 6010.00    1.63523   1.72121    0.100
 6011.00    1.63586   1.72003    0.100
 6012.00    1.64221   1.71863    0.101
 6013.00    1.65037   1.71773    0.102
 6014.00    1.65437   1.71722    0.103
 6015.00    1.65728   1.71676    0.103
 6016.00    1.65063   1.71659    0.103
 6017.00    1.64192   1.71714    0.103
 6018.00    1.63977   1.71857    0.104
 6019.00    1.63876   1.72000    0.104
 6020.00    1.63815   1.72343    0.104
 6021.00    1.63760   1.72698    0.103
 6022.00    1.64685   1.73228    0.103
 6023.00    1.65700   1.73760    0.104
 6024.00    1.66684   1.74387    0.104
 6025.00    1.67665   1.75095    0.104
 6026.00    1.68610   1.75730    0.103
 6027.00    1.69545   1.76468    0.103
 6028.00    1.69502   1.77111    0.102
 6029.00    1.69460   1.77774    0.100
 6030.00    1.69455   1.78307    0.100
 6031.00    1.69526   1.78843    0.100
 6032.00    1.70569   1.79267    0.100
 6033.00    1.71564   1.79637    0.099
 6034.00    1.72134   1.79911    0.100
 6035.00    1.72613   1.80146    0.100
 6036.00    1.72504   1.80325    0.099
 6037.00    1.72407   1.80448    0.099
 6038.00    1.72366   1.80574    0.098
 6039.00    1.72208   1.80622    0.098
 6040.00    1.71575   1.80754    0.099
 6041.00    1.71234   1.80809    0.100
 6042.00    1.71868   1.80926    0.101
 6043.00    1.72458   1.81009    0.101
 6044.00    1.72922   1.81053    0.101
 6045.00    1.73337   1.81075    0.101
 6046.00    1.73630   1.81030    0.101
 6047.00    1.73749   1.80973    0.102
 6048.00    1.73504   1.80801    0.103
 6049.00    1.73257   1.80634    0.104
 6050.00    1.73007   1.80375    0.103
 6051.00    1.73036   1.80072    0.103
 6052.00    1.73507   1.79752    0.103
 6053.00    1.73345   1.79385    0.103
 6054.00    1.72300   1.79114    0.103
 6055.00    1.71542   1.78762    0.103
 6056.00    1.71135   1.78551    0.104
 6057.00    1.70597   1.78325    0.103
 6058.00    1.69915   1.78193    0.102
 6059.00    1.69446   1.78091    0.101
 6060.00    1.69180   1.78024    0.101
 6061.00    1.69359   1.78062    0.101
 6062.00    1.69911   1.78086    0.101
 6063.00    1.70659   1.78294    0.100
 6064.00    1.71551   1.78496    0.100
 6065.00    1.71790   1.78849    0.100
 6066.00    1.71604   1.79295    0.099
 6067.00    1.72065   1.79704    0.099
 6068.00    1.72895   1.80075    0.099
 6069.00    1.74193   1.80370    0.099
 6070.00    1.75722   1.80581    0.100
 6071.00    1.76619   1.80680    0.100
 6072.00    1.77244   1.80646    0.101
 6073.00    1.76509   1.80459    0.101
 6074.00    1.75273   1.80156    0.102
 6075.00    1.73923   1.79705    0.102
 6076.00    1.72538   1.79190    0.102
 6077.00    1.71913   1.78613    0.102
 6078.00    1.71484   1.78000    0.102
 6079.00    1.70424   1.77457    0.102
 6080.00    1.69230   1.76922    0.102
 6081.00    1.68408   1.76407    0.103
 6082.00    1.67649   1.76002    0.104
 6083.00    1.68015   1.75713    0.104
 6084.00    1.68524   1.75445    0.104
 6085.00    1.69130   1.75274    0.103
 6086.00    1.69745   1.75169    0.102
 6087.00    1.70449   1.75128    0.102
 6088.00    1.71158   1.75111    0.102
 6089.00    1.70636   1.75083    0.102
 6090.00    1.70089   1.75106    0.101
 6091.00    1.69273   1.75156    0.100
 6092.00    1.68500   1.75192    0.099
 6093.00    1.68636   1.75198    0.099
 6094.00    1.68819   1.75224    0.098
 6095.00    1.69565   1.75130    0.099
 6096.00    1.70233   1.74989    0.099
 6097.00    1.70256   1.74837    0.100
 6098.00    1.70228   1.74690    0.101
 6099.00    1.69883   1.74504    0.100
 6100.00    1.69335   1.74298    0.100
 6101.00    1.67795   1.74150    0.101
 6102.00    1.66621   1.74032    0.101
 6103.00    1.66896   1.74271    0.100
 6104.00    1.67380   1.74495    0.100
 6105.00    1.68550   1.74753    0.101
 6106.00    1.69643   1.75055    0.102
 6107.00    1.70522   1.75333    0.101
 6108.00    1.71400   1.75676    0.101
 6109.00    1.72278   1.75964    0.101
 6110.00    1.72628   1.76114    0.102
 6111.00    1.71892   1.76193    0.103
 6112.00    1.71335   1.76244    0.104
 6113.00    1.71097   1.76139    0.103
 6114.00    1.70555   1.75936    0.102
 6115.00    1.69539   1.75587    0.101
 6116.00    1.68797   1.75167    0.101
 6117.00    1.68433   1.74764    0.101
 6118.00    1.67935   1.74309    0.101
 6119.00    1.67273   1.73816    0.101
 6120.00    1.66725   1.73449    0.100
 6121.00    1.66300   1.73103    0.100
 6122.00    1.66524   1.72924    0.100
 6123.00    1.67359   1.72943    0.099
 6124.00    1.68259   1.72830    0.098
 6125.00    1.69213   1.72734    0.098
 6126.00    1.69768   1.72645    0.098
 6127.00    1.70031   1.72532    0.099
 6128.00    1.70268   1.72392    0.099
 6129.00    1.70488   1.72183    0.099
 6130.00    1.70625   1.71909    0.100
 6131.00    1.70715   1.71531    0.100
 6132.00    1.69488   1.71125    0.100
 6133.00    1.67617   1.70694    0.100
 6134.00    1.66395   1.70203    0.101
 6135.00    1.65447   1.69849    0.103
 6136.00    1.65256   1.69545    0.104
 6137.00    1.65340   1.69624    0.104
 6138.00    1.65546   1.69951    0.104
 6139.00    1.65791   1.70300    0.103
 6140.00    1.66753   1.70688    0.103
 6141.00    1.67898   1.71095    0.102
 6142.00    1.69118   1.71713    0.103
 6143.00    1.70353   1.72276    0.103
 6144.00    1.71512   1.72738    0.102
 6145.00    1.72658   1.73076    0.101
 6146.00    1.72442   1.73334    0.101
 6147.00    1.72060   1.73440    0.100
 6148.00    1.70965   1.73437    0.100
 6149.00    1.69811   1.73250    0.100
 6150.00    1.69748   1.72969    0.100
 6151.00    1.69737   1.72501    0.099
 6152.00    1.69680   1.71925    0.099
 6153.00    1.69596   1.71170    0.099
 6154.00    1.68048   1.70259    0.099
 6155.00    1.66483   1.69371    0.099
 6156.00    1.64597   1.68356    0.099
 6157.00    1.62679   1.67316    0.099
 6158.00    1.60394   1.66269    0.099
 6159.00    1.58197   1.65256    0.099
 6160.00    1.56704   1.64252    0.099
 6161.00    1.55507   1.63439    0.099
 6162.00    1.56091   1.63002    0.099
 6163.00    1.56645   1.62762    0.100
 6164.00    1.57061   1.62792    0.100
 6165.00    1.57388   1.62869    0.101
 6166.00    1.57374   1.63174    0.101
 6167.00    1.57295   1.63602    0.101
 6168.00    1.57011   1.64042    0.101
 6169.00    1.57222   1.64633    0.100
 6170.00    1.58789   1.65456    0.101
 6171.00    1.60311   1.66384    0.101
 6172.00    1.61725   1.67163    0.102
 6173.00    1.62319   1.67982    0.102
 6174.00    1.61253   1.68734    0.100
 6175.00    1.60383   1.69430    0.099
 6176.00    1.59860   1.70004    0.098
 6177.00    1.59685   1.70528    0.098
 6178.00    1.60045   1.70974    0.099
 6179.00    1.60525   1.71196    0.100
 6180.00    1.61170   1.71390    0.099
 6181.00    1.61538   1.71382    0.098
 6182.00    1.61578   1.71265    0.097
 6183.00    1.61386   1.71008    0.097
 6184.00    1.60949   1.70715    0.097
 6185.00    1.60627   1.70304    0.097
 6186.00    1.60412   1.69883    0.098
 6187.00    1.59845   1.69572    0.099
 6188.00    1.58991   1.69230    0.100
 6189.00    1.58317   1.69046    0.100
 6190.00    1.57774   1.68831    0.100
 6191.00    1.57802   1.68813    0.100
 6192.00    1.58192   1.69145    0.101
 6193.00    1.59119   1.69434    0.101
 6194.00    1.60342   1.69786    0.102
 6195.00    1.60060   1.70164    0.106
 6196.00    1.59056   1.70613   -2.000
 6197.00    1.56165   1.71030   -2.000
 6198.00    1.52492   1.71362   -2.000
 6199.00    1.52398   1.71684   -2.000
 6200.00    1.53571   1.72052   -2.000
 6201.00    1.60380   1.72421   -2.000
 6202.00    1.68876   1.72611   -2.000
 6203.00    1.74312   1.72632   -2.000
 6204.00    1.78989   1.72513   -2.000
 6205.00    1.77907   1.72308   -2.000
 6206.00    1.75666   1.71948   -2.000
 6207.00    1.72338   1.71454   -2.000
 6208.00    1.68839   1.70851    0.102
 6209.00    1.66398   1.70139    0.101
 6210.00    1.64080   1.69345    0.101
 6211.00    1.61532   1.68542    0.099
 6212.00    1.58965   1.67684    0.097
 6213.00    1.57740   1.66858    0.097
 6214.00    1.56575   1.66214    0.098
 6215.00    1.56285   1.65678    0.098
 6216.00    1.56028   1.65317    0.098
 6217.00    1.56823   1.65056    0.098
 6218.00    1.57606   1.64788    0.098
 6219.00    1.58153   1.64616    0.098
 6220.00    1.58685   1.64562    0.099
 6221.00    1.59055   1.64555    0.099
 6222.00    1.59378   1.64611    0.100
 6223.00    1.59339   1.64564    0.100
 6224.00    1.59198   1.64585    0.100
 6225.00    1.58458   1.64612    0.100
 6226.00    1.58009   1.64554    0.100
 6227.00    1.58907   1.64475    0.101
 6228.00    1.59551   1.64319    0.102
 6229.00    1.59230   1.64170    0.102
 6230.00    1.58897   1.63995    0.102
 6231.00    1.58530   1.64127    0.101
 6232.00    1.58259   1.64109    0.101
 6233.00    1.58245   1.64149    0.099
 6234.00    1.58070   1.64195    0.098
 6235.00    1.57523   1.64086    0.098
 6236.00    1.57201   1.63928    0.098
 6237.00    1.57328   1.63687    0.097
 6238.00    1.57714   1.63500    0.097
 6239.00    1.58550   1.63229    0.098
 6240.00    1.59027   1.63080    0.098
 6241.00    1.58957   1.62969    0.098
 6242.00    1.58858   1.62610    0.098
 6243.00    1.58722   1.62425    0.097
 6244.00    1.58650   1.62288    0.098
 6245.00    1.58653   1.62079    0.098
 6246.00    1.58475   1.61944    0.098
 6247.00    1.58110   1.61853    0.098
 6248.00    1.57941   1.61675    0.098
 6249.00    1.57953   1.61424    0.099
 6250.00    1.57528   1.61254    0.099
 6251.00    1.56750   1.60859    0.099
 6252.00    1.56148   1.60658    0.099
 6253.00    1.55671   1.60564    0.099
 6254.00    1.55329   1.60561    0.100
 6255.00    1.55072   1.60575    0.100
 6256.00    1.54342   1.60706    0.100
 6257.00    1.53354   1.61020    0.101
 6258.00    1.52953   1.61384    0.102
 6259.00    1.52829   1.62090    0.104
 6260.00    1.53142   1.62683    0.108
 6261.00    1.53634   1.63395    0.114
 6262.00    1.56431   1.64192    0.118
 6263.00    1.60031   1.64898    0.120
 6264.00    1.63491   1.65466    0.118
 6265.00    1.66910   1.66058    0.114
 6266.00    1.66878   1.66724    0.109
 6267.00    1.66009   1.67212    0.103
 6268.00    1.65088   1.67637    0.100
 6269.00    1.64158   1.67981    0.098
 6270.00    1.63886   1.68260    0.098
 6271.00    1.63714   1.68508    0.098
 6272.00    1.63696   1.68719    0.098
 6273.00    1.63696   1.68822    0.098
 6274.00    1.64497   1.68942    0.099
 6275.00    1.65359   1.69054    0.100
 6276.00    1.65711   1.69160    0.100
 6277.00    1.66043   1.69212    0.101
 6278.00    1.65687   1.69354    0.100
 6279.00    1.65332   1.69427    0.100
 6280.00    1.65201   1.69579    0.000
 6281.00    1.65111   1.69849    0.000
 6282.00    1.65695   1.70037    0.000
 6283.00    1.66315   1.70340    0.000
 6284.00    1.67308   1.70486    0.000
 6285.00    1.68313   1.70656    0.000
 6286.00    1.69395   1.70780    0.000
 6287.00    1.70296   1.70813    0.000
 6288.00    1.70160   1.70782    0.000
 6289.00    1.69952   1.70588    0.000
 6290.00    1.69416   1.70325    0.000
 6291.00    1.68838   1.69995    0.000
 6292.00    1.68100   1.69616    0.000
 6293.00    1.67392   1.69215    0.000
 6294.00    1.66773   1.68850    0.000
 6295.00    1.66350   1.68373    0.000
 6296.00    1.66443   1.67970    0.000
 6297.00    1.66389   1.67694    0.000
 6298.00    1.65999   1.67540    0.000
 6299.00    1.65692   1.67467    0.000
 6300.00    1.65547   1.67373    0.000
 6301.00    1.65550   1.67389    0.000
 6302.00    1.65808   1.67549    0.000
 6303.00    1.65925   1.67794    0.000
 6304.00    1.65829   1.67964    0.000
 6305.00    1.65718   1.68068    0.000
 6306.00    1.65588   1.68283    0.000
 6307.00    1.65711   1.68338    0.000
 6308.00    1.66129   1.68268    0.000
 6309.00    1.66525   1.68110    0.000
 6310.00    1.66897   1.67850    0.000
 6311.00    1.66824   1.67628    0.000
 6312.00    1.66348   1.67409    0.000
 6313.00    1.65625   1.67172    0.000
 6314.00    1.64706   1.66847    0.000
 6315.00    1.63339   1.66720    0.000
 6316.00    1.61658   1.66773    0.000
 6317.00    1.61086   1.66662    0.000
 6318.00    1.61193   1.66877    0.000
 6319.00    1.62235   1.67267    0.000
 6320.00    1.63779   1.67690    0.000
 6321.00    1.64626   1.68144    0.098
 6322.00    1.65149   1.68569    0.098
 6323.00    1.65829   1.69185    0.099
 6324.00    1.66572   1.69587    0.099
 6325.00    1.67643   1.70011    0.099
 6326.00    1.68826   1.70260    0.099
 6327.00    1.69183   1.70393    0.099
 6328.00    1.69302   1.70570    0.100
 6329.00    1.68953   1.70443    0.100
 6330.00    1.68493   1.70357    0.100
 6331.00    1.68213   1.70187    0.099
 6332.00    1.67967   1.69984    0.099
 6333.00    1.67167   1.69714    0.099
 6334.00    1.66284   1.69218    0.099
 6335.00    1.65642   1.68896    0.099
 6336.00    1.65026   1.68655    0.099
 6337.00    1.64693   1.68609    0.100
 6338.00    1.64381   1.68475    0.101
 6339.00    1.65097   1.68453    0.100
 6340.00    1.65851   1.68564    0.099
 6341.00    1.65498   1.68531    0.100
 6342.00    1.65160   1.68597    0.101
 6343.00    1.65486   1.68622    0.100
 6344.00    1.65866   1.68846    0.099
 6345.00    1.67093   1.69051    0.100
 6346.00    1.68248   1.69126    0.100
 6347.00    1.68669   1.69220    0.100
 6348.00    1.69044   1.69211    0.100
 6349.00    1.69082   1.69097    0.099
 6350.00    1.68978   1.68846    0.098
 6351.00    1.68086   1.68526    0.099
 6352.00    1.67172   1.68122    0.099
 6353.00    1.66168   1.67571    0.099
 6354.00    1.65453   1.66951    0.099
 6355.00    1.65789   1.66450    0.099
 6356.00    1.65891   1.65963    0.099
 6357.00    1.65277   1.65416    0.099
 6358.00    1.64397   1.64964    0.100
 6359.00    1.62825   1.64742    0.099
 6360.00    1.61453   1.64655    0.099
 6361.00    1.60524   1.64640    0.101
 6362.00    1.60156   1.64894    0.101
 6363.00    1.60870   1.65356    0.101
 6364.00    1.62020   1.65946    0.102
 6365.00    1.63906   1.66649    0.103
 6366.00    1.66024   1.67387    0.103
 6367.00    1.68488   1.68232    0.103
 6368.00    1.69997   1.68983    0.103
 6369.00    1.70270   1.69704    0.103
 6370.00    1.70293   1.70359    0.102
 6371.00    1.70029   1.71019    0.101
 6372.00    1.70117   1.71617    0.100
 6373.00    1.70559   1.71994    0.101
 6374.00    1.70711   1.72317    0.101
 6375.00    1.70603   1.72535    0.100
 6376.00    1.70219   1.72692    0.100
 6377.00    1.69617   1.72701    0.099
 6378.00    1.69040   1.72718    0.099
 6379.00    1.68479   1.72770    0.099
 6380.00    1.68221   1.72718    0.098
 6381.00    1.68146   1.72721    0.098
 6382.00    1.68941   1.72704    0.099
 6383.00    1.70196   1.72566    0.100
 6384.00    1.71552   1.72429    0.100
 6385.00    1.72954   1.72258    0.100
 6386.00    1.73222   1.72136    0.100
 6387.00    1.73044   1.71973    0.101
 6388.00    1.72564   1.71791    0.100
 6389.00    1.71982   1.71621    0.098
 6390.00    1.70228   1.71317    0.099
 6391.00    1.68144   1.71010    0.100
 6392.00    1.67735   1.70518    0.101
 6393.00    1.67715   1.70317    0.103
 6394.00    1.67815   1.70381    0.105
 6395.00    1.67937   1.70322    0.106
 6396.00    1.67981   1.70344    0.105
 6397.00    1.68014   1.70253    0.104
 6398.00    1.68850   1.70185    0.104
 6399.00    1.69770   1.69936    0.104
 6400.00    1.70201   1.70046    0.102
 6401.00    1.70600   1.70455    0.101
 6402.00    1.70811   1.70556    0.101
 6403.00    1.71015   1.70640    0.101
 6404.00    1.71365   1.70607    0.101
 6405.00    1.71689   1.70568    0.101
 6406.00    1.71195   1.70441    0.100
 6407.00    1.70645   1.70301    0.099
 6408.00    1.69241   1.70453    0.100
 6409.00    1.67987   1.70481    0.100
 6410.00    1.68176   1.70307    0.100
 6411.00    1.68402   1.70180    0.100
 6412.00    1.68882   1.70151    0.100
 6413.00    1.69285   1.70107    0.100
 6414.00    1.69271   1.70082    0.101
 6415.00    1.69288   1.70292    0.101
 6416.00    1.69443   1.70390    0.103
 6417.00    1.69470   1.70480    0.104
 6418.00    1.69042   1.70596    0.103
 6419.00    1.68694   1.70733    0.103
 6420.00    1.68585   1.70931    0.103
 6421.00    1.68617   1.71191    0.103
 6422.00    1.69010   1.71558    0.103
 6423.00    1.69498   1.71662    0.103
 6424.00    1.70195   1.71793    0.102
 6425.00    1.70819   1.71928    0.101
 6426.00    1.71306   1.72047    0.102
 6427.00    1.71516   1.72124    0.103
 6428.00    1.71267   1.72121    0.102
 6429.00    1.70710   1.72065    0.102
 6430.00    1.69705   1.71825    0.102
 6431.00    1.69375   1.71794    0.101
 6432.00    1.69907   1.71914    0.101
 6433.00    1.70313   1.72050    0.100
 6434.00    1.70576   1.72169    0.100
 6435.00    1.70582   1.72239    0.100
 6436.00    1.70332   1.72338    0.100
 6437.00    1.70204   1.72343    0.101
 6438.00    1.70182   1.72408    0.102
 6439.00    1.70226   1.72713    0.103
 6440.00    1.70323   1.72990    0.104
 6441.00    1.70800   1.72946    0.104
 6442.00    1.71537   1.72804    0.104
 6443.00    1.72984   1.72718    0.105
 6444.00    1.74854   1.72547    0.106
 6445.00    1.73741   1.72375    0.105
 6446.00    1.71082   1.72171    0.104
 6447.00    1.69057   1.71851    0.104
 6448.00    1.67319   1.71307    0.104
 6449.00    1.67223   1.70827    0.105
 6450.00    1.67763   1.70832    0.105
 6451.00    1.68237   1.70848    0.103
 6452.00    1.68690   1.70897    0.101
 6453.00    1.68850   1.70948    0.100
 6454.00    1.68929   1.70744    0.100
 6455.00    1.68960   1.70626    0.100
 6456.00    1.68980   1.70808    0.101
 6457.00    1.68916   1.71167    0.101
 6458.00    1.68837   1.71501    0.100
 6459.00    1.69453   1.71689    0.101
 6460.00    1.70165   1.71842    0.102
 6461.00    1.70036   1.71713    0.102
 6462.00    1.69822   1.71673    0.101
 6463.00    1.70131   1.72020    0.102
 6464.00    1.70474   1.72257    0.102
 6465.00    1.72491   1.72546    0.103
 6466.00    1.74550   1.72675    0.105
 6467.00    1.74599   1.72781    0.105
 6468.00    1.74641   1.72754    0.105
 6469.00    1.74538   1.72813    0.105
 6470.00    1.74473   1.72962    0.105
 6471.00    1.74959   1.72998    0.106
 6472.00    1.75475   1.73164    0.107
 6473.00    1.76271   1.73082    0.107
 6474.00    1.76969   1.72890    0.106
 6475.00    1.76997   1.72692    0.105
 6476.00    1.76965   1.72603    0.105
 6477.00    1.76616   1.72436    0.105
 6478.00    1.76279   1.72168    0.104
 6479.00    1.75993   1.71967    0.103
 6480.00    1.75667   1.71575    0.101
 6481.00    1.75201   1.71022    0.101
 6482.00    1.74796   1.70533    0.101
 6483.00    1.74566   1.70105    0.102
 6484.00    1.74406   1.69547    0.102
 6485.00    1.74416   1.68815    0.101
 6486.00    1.74089   1.67884    0.101
 6487.00    1.73035   1.66908    0.102
 6488.00    1.71606   1.65822    0.103
 6489.00    1.69472   1.64737    0.103
 6490.00    1.67538   1.63811    0.104
 6491.00    1.65929   1.62816    0.104
 6492.00    1.64814   1.61995    0.105
 6493.00    1.64405   1.61089    0.107
 6494.00    1.63575   1.60532    0.107
 6495.00    1.62217   1.60455    0.106
 6496.00    1.61489   1.60505    0.105
 6497.00    1.61462   1.61063    0.105
 6498.00    1.62567   1.61608    0.105
 6499.00    1.64781   1.62449    0.105
 6500.00    1.66139   1.63395    0.105
 6501.00    1.66756   1.64359    0.103
 6502.00    1.68112   1.65591    0.102
 6503.00    1.70032   1.66652    0.101
 6504.00    1.71848   1.67727    0.101
 6505.00    1.73595   1.68621    0.102
 6506.00    1.74367   1.69369    0.103
 6507.00    1.74568   1.69951    0.102
 6508.00    1.74689   1.70344    0.103
 6509.00    1.74770   1.70728    0.103
 6510.00    1.74406   1.70942    0.103
 6511.00    1.73844   1.71038    0.103
 6512.00    1.73995   1.71121    0.104
 6513.00    1.74416   1.71126    0.105
 6514.00    1.74813   1.71056    0.105
 6515.00    1.75202   1.70944    0.105
 6516.00    1.76279   1.70980    0.106
 6517.00    1.77540   1.70992    0.108
 6518.00    1.78078   1.70939    0.108
 6519.00    1.78455   1.71058    0.107
 6520.00    1.78531   1.71146    0.107
 6521.00    1.78555   1.71209    0.107
 6522.00    1.77538   1.71266    0.106
 6523.00    1.76382   1.71352    0.105
 6524.00    1.76221   1.71445    0.106
 6525.00    1.76155   1.71401    0.107
 6526.00    1.75937   1.71379    0.106
 6527.00    1.75710   1.71473    0.105
 6528.00    1.75981   1.71531    0.000
 6529.00    1.76264   1.71561    0.000
 6530.00    1.76295   1.71553    0.000
 6531.00    1.76336   1.71499    0.000
 6532.00    1.76634   1.71470    0.000
 6533.00    1.76931   1.71433    0.000
 6534.00    1.77212   1.71501    0.000
 6535.00    1.77453   1.71500    0.000
 6536.00    1.77329   1.71344    0.000
 6537.00    1.77385   1.71148    0.000
 6538.00    1.78624   1.70876    0.000
 6539.00    1.79781   1.70640    0.000
 6540.00    1.80528   1.70263    0.000
 6541.00    1.81105   1.69848    0.000
 6542.00    1.80986   1.69370    0.000
 6543.00    1.80646   1.68753    0.000
 6544.00    1.79550   1.68146    0.000
 6545.00    1.78856   1.67335    0.000
 6546.00    1.79320   1.66627    0.000
 6547.00    1.79809   1.65857    0.000
 6548.00    1.80357   1.64942    0.000
 6549.00    1.80699   1.63953    0.000
 6550.00    1.80601   1.62741    0.000
 6551.00    1.80025   1.61585    0.000
 6552.00    1.78570   1.60277    0.000
 6553.00    1.76895   1.58859    0.000
 6554.00    1.74866   1.57221    0.000
 6555.00    1.72655   1.55512    0.000
 6556.00    1.70186   1.54053    0.000
 6557.00    1.68775   1.52589    0.000
 6558.00    1.68678   1.51474    0.000
 6559.00    1.69001   1.50511    0.000
 6560.00    1.69786   1.49684    0.000
 6561.00    1.70665   1.48816    0.000
 6562.00    1.71633   1.48241    0.000
 6563.00    1.71945   1.48905    0.000
 6564.00    1.71698   1.49830    0.000
 6565.00    1.71659   1.50793    0.000
 6566.00    1.71776   1.51890    0.000
 6567.00    1.70978   1.52986    0.000
 6568.00    1.69577   1.54189    0.000
 6569.00    1.69115   1.55484    0.000
 6570.00    1.69196   1.57193    0.000
 6571.00    1.68677   1.58750    0.000
 6572.00    1.67856   1.59932    0.000
 6573.00    1.67655   1.60992    0.000
 6574.00    1.67725   1.61956    0.000
 6575.00    1.68875   1.62983    0.000
 6576.00    1.70429   1.63949    0.000
 6577.00    1.74022   1.64803    0.000
 6578.00    1.78261   1.65443    0.000
 6579.00    1.82213   1.65922    0.000
 6580.00    1.86089   1.66277    0.000
 6581.00    1.90183   1.66691    0.000
 6582.00    1.94323   1.67122    0.000
 6583.00    1.96095   1.67358    0.000
 6584.00    1.97460   1.67461    0.000
 6585.00    1.95849   1.67305    0.000
 6586.00    1.93850   1.67221    0.000
 6587.00    1.90912   1.67138    0.000
 6588.00    1.87889   1.67042    0.000
 6589.00    1.84598   1.67017    0.000
 6590.00    1.81291   1.66823    0.000
 6591.00    1.78741   1.66582    0.000
 6592.00    1.76213   1.66257    0.000
 6593.00    1.74302   1.66258    0.000
 6594.00    1.72451   1.66509    0.000
 6595.00    1.71995   1.66628    0.000
 6596.00    1.71538   1.66716    0.000
 6597.00    1.71067   1.66742    0.000
 6598.00    1.70854   1.66845    0.000
 6599.00    1.72856   1.67036    0.000
 6600.00    1.74664   1.67257    0.000
 6601.00    1.75244   1.67429    0.000
 6602.00    1.75560   1.67522    0.000
 6603.00    1.74559   1.67529    0.000
 6604.00    1.73552   1.67561    0.000
 6605.00    1.72514   1.67687    0.000
 6606.00    1.71642   1.67804    0.000
 6607.00    1.71326   1.67942    0.000
 6608.00    1.70855   1.67981    0.000
 6609.00    1.69947   1.68222    0.110
 6610.00    1.70033   1.68586    0.112
 6611.00    1.72523   1.68847    0.112
 6612.00    1.74436   1.69099    0.111
 6613.00    1.75144   1.69325    0.111
 6614.00    1.76114   1.69673    0.111
 6615.00    1.77559   1.69937    0.113
 6616.00    1.78504   1.70067    0.114
 6617.00    1.78657   1.70166    0.113
 6618.00    1.78526   1.70194    0.112
 6619.00    1.78001   1.70124    0.111
 6620.00    1.77175   1.70032    0.110
 6621.00    1.75982   1.69857    0.111
 6622.00    1.75514   1.69593    0.111
 6623.00    1.75828   1.69238    0.112
 6624.00    1.75870   1.68812    0.112
 6625.00    1.75652   1.68552    0.110
 6626.00    1.75242   1.68209    0.110
 6627.00    1.74670   1.67831    0.111
 6628.00    1.73565   1.67505    0.111
 6629.00    1.72068   1.67203    0.111
 6630.00    1.70746   1.66999    0.111
 6631.00    1.69538   1.66777    0.110
 6632.00    1.68379   1.66603    0.109
 6633.00    1.67246   1.66475    0.110
 6634.00    1.67724   1.66472    0.110
 6635.00    1.68999   1.66566    0.111
 6636.00    1.70180   1.66646    0.112
 6637.00    1.71322   1.66689    0.113
 6638.00    1.72005   1.66714    0.114
 6639.00    1.72520   1.66815    0.115
 6640.00    1.73135   1.67021    0.116
 6641.00    1.73781   1.67200    0.117
 6642.00    1.72908   1.67238    0.117
 6643.00    1.71641   1.67311    0.117
 6644.00    1.72098   1.67501    0.117
 6645.00    1.72919   1.67645    0.118
 6646.00    1.72041   1.67725    0.116
 6647.00    1.70879   1.67804    0.115
 6648.00    1.70996   1.67895    0.114
 6649.00    1.71272   1.67959    0.113
 6650.00    1.72389   1.67932    0.113
 6651.00    1.73580   1.67915    0.113
 6652.00    1.73843   1.67887    0.112
 6653.00    1.74059   1.67755    0.111
 6654.00    1.74735   1.67622    0.112
 6655.00    1.75397   1.67386    0.112
 6656.00    1.74530   1.67157    0.113
 6657.00    1.73683   1.66901    0.114
 6658.00    1.73251   1.66624    0.115
 6659.00    1.72829   1.66418    0.115
 6660.00    1.72520   1.66149    0.115
 6661.00    1.71981   1.65957    0.115
 6662.00    1.69539   1.65703    0.116
 6663.00    1.67545   1.65601    0.117
 6664.00    1.68323   1.65670    0.117
 6665.00    1.69072   1.65631    0.116
 6666.00    1.69681   1.65655    0.117
 6667.00    1.70219   1.65676    0.117
 6668.00    1.70480   1.65783    0.119
 6669.00    1.70835   1.65926    0.120
 6670.00    1.71495   1.65968    0.118
 6671.00    1.71712   1.65977    0.116
 6672.00    1.70699   1.65900    0.115
 6673.00    1.69588   1.65936    0.114
 6674.00    1.68244   1.66029    0.114
 6675.00    1.67581   1.66021    0.114
 6676.00    1.68320   1.65960    0.115
 6677.00    1.68931   1.65798    0.115
 6678.00    1.69311   1.65929    0.115
 6679.00    1.69947   1.66187    0.116
 6680.00    1.70983   1.66319    0.117
 6681.00    1.71971   1.66509    0.118
 6682.00    1.72893   1.66621    0.119
 6683.00    1.73710   1.66843    0.119
 6684.00    1.74401   1.67061    0.119
 6685.00    1.74655   1.67237    0.119
 6686.00    1.74445   1.67434    0.119
 6687.00    1.73896   1.67473    0.120
 6688.00    1.73028   1.67514    0.121
 6689.00    1.72727   1.67498    0.121
 6690.00    1.72896   1.67387    0.121
 6691.00    1.72496   1.67304    0.121
 6692.00    1.71680   1.67167    0.122
 6693.00    1.70830   1.67020    0.122
 6694.00    1.69958   1.66898    0.122
 6695.00    1.67839   1.66638    0.120
 6696.00    1.65021   1.66482    0.000
 6697.00    1.64903   1.66338    0.000
 6698.00    1.66099   1.66177    0.000
 6699.00    1.67622   1.66148    0.000
 6700.00    1.69282   1.66031    0.000
 6701.00    1.69825   1.65946    0.000
 6702.00    1.69967   1.65765    0.000
 6703.00    1.69619   1.65585    0.000
 6704.00    1.69122   1.65451    0.000
 6705.00    1.69144   1.65309    0.000
 6706.00    1.69297   1.65159    0.000
 6707.00    1.69969   1.64852    0.000
 6708.00    1.70748   1.64607    0.000
 6709.00    1.70768   1.64266    0.000
 6710.00    1.70666   1.63964    0.000
 6711.00    1.71636   1.63721    0.000
 6712.00    1.72736   1.63411    0.000
 6713.00    1.73164   1.63314    0.000
 6714.00    1.73535   1.63126    0.000
 6715.00    1.74402   1.62978    0.000
 6716.00    1.75292   1.62902    0.000
 6717.00    1.76801   1.62920    0.000
 6718.00    1.78245   1.63240    0.000
 6719.00    1.75496   1.63428    0.000
 6720.00    1.72827   1.63590    0.000
 6721.00    1.71698   1.63819    0.000
 6722.00    1.70650   1.64113    0.000
 6723.00    1.70525   1.64525    0.000
 6724.00    1.70554   1.64801    0.000
 6725.00    1.71816   1.65015    0.000
 6726.00    1.72964   1.65238    0.000
 6727.00    1.73428   1.65391    0.000
 6728.00    1.74105   1.65560    0.000
 6729.00    1.75791   1.65675    0.000
 6730.00    1.77534   1.65743    0.000
 6731.00    1.79498   1.65706    0.000
 6732.00    1.80606   1.65544    0.000
 6733.00    1.78961   1.65432    0.000
 6734.00    1.78092   1.65338    0.000
 6735.00    1.79336   1.65241    0.000
 6736.00    1.78990   1.65008    0.000
 6737.00    1.74932   1.64673    0.000
 6738.00    1.72146   1.64440    0.000
 6739.00    1.71930   1.64264    0.000
 6740.00    1.70942   1.64111    0.000
 6741.00    1.68595   1.63902    0.000
 6742.00    1.67332   1.63612    0.000
 6743.00    1.67739   1.63499    0.000
 6744.00    1.67368   1.63381    0.000
 6745.00    1.65946   1.63334    0.000
 6746.00    1.65290   1.63352    0.000
 6747.00    1.65546   1.63252    0.000
 6748.00    1.65186   1.63406    0.000
 6749.00    1.64182   1.63471    0.000
 6750.00    1.63001   1.63686    0.000
 6751.00    1.61656   1.63975    0.000
 6752.00    1.61481   1.64121    0.000
 6753.00    1.62262   1.64512    0.133
 6754.00    1.62570   1.64760    0.136
 6755.00    1.62539   1.65074    0.138
 6756.00    1.64142   1.65354    0.141
 6757.00    1.66776   1.65570    0.145
 6758.00    1.72137   1.65856    0.148
 6759.00    1.79001   1.65969    0.151
 6760.00    1.84535   1.66052    0.153
 6761.00    1.89432   1.66011    0.155
 6762.00    1.94190   1.66012    0.157
 6763.00    1.98891   1.66080    0.160
 6764.00    2.00135   1.66008    0.161
 6765.00    2.00156   1.65899    0.161
 6766.00    1.99425   1.65754    0.158
 6767.00    1.98469   1.65739    0.154
 6768.00    1.95713   1.65887    0.149
 6769.00    1.92512   1.65930    0.145
 6770.00    1.91848   1.65967    0.144
 6771.00    1.91694   1.66001    0.144
 6772.00    1.87432   1.66105    0.142
 6773.00    1.82525   1.66330    0.139
 6774.00    1.79662   1.66429    0.139
 6775.00    1.77038   1.66492    0.140
 6776.00    1.74121   1.66455    0.139
 6777.00    1.71180   1.66360    0.139
 6778.00    1.75681   1.66305    0.143
 6779.00    1.80506   1.66194    0.147
 6780.00    1.80731   1.66040    0.149
 6781.00    1.80891   1.65840    0.151
 6782.00    1.80280   1.65600    0.150
 6783.00    1.79778   1.65354    0.150
 6784.00    1.81256   1.65196    0.150
 6785.00    1.82643   1.65070    0.149
 6786.00    1.83034   1.65004    0.149
 6787.00    1.83089   1.64918    0.148
 6788.00    1.80565   1.64809    0.145
 6789.00    1.78481   1.64822    0.143
 6790.00    1.78966   1.64848    0.143
 6791.00    1.79164   1.64956    0.142
 6792.00    1.78030   1.64996    0.141
 6793.00    1.77640   1.64998    0.141
 6794.00    1.80064   1.65116    0.142
 6795.00    1.81632   1.65193    0.143
 6796.00    1.80499   1.65316    0.142
 6797.00    1.80113   1.65395    0.142
 6798.00    1.81726   1.65386    0.143
 6799.00    1.81544   1.65490    0.144
 6800.00    1.77238   1.65563    0.143
 6801.00    1.74679   1.65581    0.143
 6802.00    1.75591   1.65658    0.146
 6803.00    1.76374   1.65590    0.147
 6804.00    1.76929   1.65567    0.147
 6805.00    1.77152   1.65625    0.147
 6806.00    1.76870   1.65581    0.144
 6807.00    1.76299   1.65644    0.142
 6808.00    1.75341   1.65572    0.141
 6809.00    1.75312   1.65454    0.140
 6810.00    1.76375   1.65574    0.142
 6811.00    1.76100   1.65644    0.143
 6812.00    1.74439   1.65738    0.142
 6813.00    1.74811   1.65762    0.142
 6814.00    1.77040   1.65684    0.144
 6815.00    1.78148   1.65877    0.144
 6816.00    1.78354   1.66073    0.142
 6817.00    1.79144   1.66192    0.141
 6818.00    1.80348   1.66298    0.141
 6819.00    1.80562   1.66287    0.140
 6820.00    1.80160   1.66448    0.139
 6821.00    1.82421   1.66582    0.141
 6822.00    1.86128   1.66579    0.145
 6823.00    1.85790   1.66628    0.146
 6824.00    1.83544   1.66627    0.146
 6825.00    1.81442   1.66658    0.146
 6826.00    1.79400   1.66601    0.145
 6827.00    1.78173   1.66422    0.145
 6828.00    1.77230   1.66316    0.146
 6829.00    1.78649   1.66240    0.148
 6830.00    1.80758   1.66078    0.150
 6831.00    1.81688   1.65827    0.148
 6832.00    1.82332   1.65532    0.144
 6833.00    1.81869   1.65247    0.143
 6834.00    1.81189   1.65039    0.143
 6835.00    1.79520   1.64719    0.142
 6836.00    1.77701   1.64388    0.142
 6837.00    1.75720   1.64144    0.143
 6838.00    1.73721   1.63913    0.145
 6839.00    1.75778   1.63798    0.146
 6840.00    1.78139   1.63633    0.147
 6841.00    1.77679   1.63521    0.146
 6842.00    1.77107   1.63570    0.144
 6843.00    1.73956   1.63610    0.141
 6844.00    1.70865   1.63696    0.138
 6845.00    1.70834   1.63768    0.139
 6846.00    1.70922   1.63833    0.141
 6847.00    1.73012   1.63984    0.143
 6848.00    1.75367   1.64021    0.146
 6849.00    1.80485   1.63941    0.148
 6850.00    1.84584   1.63893    0.150
 6851.00    1.81108   1.63813    0.148
 6852.00    1.78235   1.63765    0.146
 6853.00    1.78778   1.63664    0.145
 6854.00    1.78917   1.63398    0.143
 6855.00    1.77226   1.63176    0.143
 6856.00    1.75050   1.63006    0.143
 6857.00    1.71076   1.62931    0.142
 6858.00    1.68453   1.62948    0.141
 6859.00    1.70013   1.62834    0.140
 6860.00    1.71240   1.62686    0.139
 6861.00    1.71593   1.62567    0.139
 6862.00    1.72086   1.62575    0.139
 6863.00    1.72898   1.62736    0.140
 6864.00    1.73373   1.62808    0.141
 6865.00    1.73191   1.62768    0.143
 6866.00    1.73295   1.62666    0.145
 6867.00    1.73887   1.62694    0.147
 6868.00    1.75381   1.62870    0.148
 6869.00    1.78223   1.62999    0.149
 6870.00    1.78999   1.63017    0.150
 6871.00    1.77062   1.62989    0.151
 6872.00    1.77071   1.63069    0.151
 6873.00    1.79331   1.63259    0.149
 6874.00    1.78991   1.63427    0.148
 6875.00    1.76000   1.63472    0.148
 6876.00    1.74610   1.63546    0.147
 6877.00    1.74662   1.63690    0.145
 6878.00    1.73637   1.63918    0.144
 6879.00    1.71757   1.64147    0.142
 6880.00    1.71095   1.64224    0.141
 6881.00    1.71282   1.64398    0.140
 6882.00    1.74164   1.64624    0.141
 6883.00    1.78697   1.64930    0.143
 6884.00    1.79623   1.65241    0.144
 6885.00    1.78621   1.65411    0.144
 6886.00    1.78481   1.65667    0.144
 6887.00    1.78742   1.65943    0.145
 6888.00    1.77119   1.66249    0.144
 6889.00    1.74742   1.66481    0.142
 6890.00    1.74847   1.66648    0.143
 6891.00    1.75798   1.66855    0.145
 6892.00    1.75602   1.67027    0.147
 6893.00    1.75076   1.67201    0.149
 6894.00    1.74959   1.67245    0.149
 6895.00    1.74939   1.67322    0.149
 6896.00    1.75190   1.67485    0.149
 6897.00    1.75491   1.67556    0.149
 6898.00    1.76296   1.67635    0.147
 6899.00    1.77174   1.67623    0.145
 6900.00    1.77337   1.67644    0.146
 6901.00    1.77422   1.67807    0.148
 6902.00    1.79968   1.67811    0.148
 6903.00    1.82689   1.67793    0.148
 6904.00    1.82065   1.67771    0.147
 6905.00    1.81321   1.67686    0.145
 6906.00    1.80610   1.67719    0.144
 6907.00    1.79849   1.67612    0.143
 6908.00    1.77408   1.67426    0.142
 6909.00    1.75029   1.67348    0.141
 6910.00    1.73640   1.67190    0.142
 6911.00    1.72559   1.67060    0.143
 6912.00    1.74555   1.66944    0.144
 6913.00    1.76154   1.66716    0.144
 6914.00    1.74892   1.66642    0.147
 6915.00    1.73713   1.66576    0.150
 6916.00    1.72998   1.66453    0.149
 6917.00    1.72908   1.66422    0.149
 6918.00    1.75572   1.66279    0.151
 6919.00    1.77357   1.66217    0.152
 6920.00    1.75960   1.66206    0.151
 6921.00    1.74979   1.66165    0.150
 6922.00    1.75263   1.66143    0.148
 6923.00    1.75574   1.66041    0.147
 6924.00    1.75955   1.65993    0.147
 6925.00    1.75502   1.65977    0.147
 6926.00    1.73194   1.66025    0.147
 6927.00    1.71869   1.66005    0.147
 6928.00    1.72441   1.65981    0.147
 6929.00    1.74099   1.66049    0.147
 6930.00    1.77583   1.66086    0.148
 6931.00    1.79646   1.66190    0.148
 6932.00    1.79618   1.66180    0.147
 6933.00    1.78200   1.66215    0.148
 6934.00    1.74984   1.66323    0.149
 6935.00    1.73921   1.66359    0.150
 6936.00    1.75314   1.66382    0.151
 6937.00    1.76993   1.66297    0.154
 6938.00    1.78960   1.66269    0.157
 6939.00    1.78657   1.66218    0.157
 6940.00    1.76339   1.66158    0.155
 6941.00    1.76435   1.66089    0.155
 6942.00    1.78416   1.65917    0.155
 6943.00    1.79017   1.65846    0.154
 6944.00    1.78667   1.65699    0.152
 6945.00    1.78907   1.65597    0.152
 6946.00    1.79501   1.65609    0.154
 6947.00    1.79562   1.65519    0.153
 6948.00    1.79342   1.65535    0.150
 6949.00    1.78657   1.65524    0.149
 6950.00    1.77759   1.65537    0.149
 6951.00    1.76156   1.65708    0.147
 6952.00    1.74276   1.65819    0.146
 6953.00    1.74345   1.65988    0.147
 6954.00    1.75066   1.66141    0.150
 6955.00    1.75478   1.66320    0.151
 6956.00    1.75804   1.66589    0.152
 6957.00    1.76915   1.66791    0.154
 6958.00    1.78209   1.67047    0.157
 6959.00    1.79344   1.67212    0.157
 6960.00    1.80449   1.67346    0.158
 6961.00    1.78689   1.67565    0.156
 6962.00    1.76518   1.67670    0.154
 6963.00    1.73467   1.67783    0.154
 6964.00    1.70325   1.67781    0.154
 6965.00    1.73119   1.67605    0.154
 6966.00    1.76308   1.67575    0.153
 6967.00    1.76262   1.67463    0.154
 6968.00    1.76112   1.67224    0.154
 6969.00    1.77277   1.66947    0.154
 6970.00    1.78342   1.66481    0.153
 6971.00    1.76319   1.66197    0.153
 6972.00    1.74394   1.65926    0.153
 6973.00    1.73936   1.65494    0.153
 6974.00    1.73203   1.65222    0.153
 6975.00    1.69842   1.64920    0.151
 6976.00    1.66977   1.64797    0.150
 6977.00    1.67562   1.64759    0.152
 6978.00    1.68371   1.64625    0.155
 6979.00    1.70377   1.64806    0.156
 6980.00    1.71986   1.65035    0.157
 6981.00    1.71882   1.65304    0.157
 6982.00    1.71894   1.65643    0.157
 6983.00    1.72318   1.65835    0.158
 6984.00    1.72771   1.66231    0.159
 6985.00    1.73313   1.66641    0.158
 6986.00    1.73202   1.66934    0.157
 6987.00    1.71430   1.67236    0.156
 6988.00    1.70939   1.67313    0.156
 6989.00    1.73250   1.67421    0.156
 6990.00    1.74547   1.67581    0.156
 6991.00    1.73922   1.67615    0.154
 6992.00    1.74184   1.67630    0.153
 6993.00    1.75916   1.67428    0.153
 6994.00    1.75955   1.67195    0.153
 6995.00    1.73537   1.67111    0.153
 6996.00    1.73034   1.66982    0.154
 6997.00    1.74974   1.66821    0.156
 6998.00    1.76787   1.66507    0.157
 6999.00    1.78455   1.66178    0.157
 7000.00    1.77959   1.66048    0.157
 7001.00    1.75316   1.65968    0.156
 7002.00    1.37147   1.65827    0.123
 7003.00    0.67895   1.65604    0.088
 7004.00    0.63556   1.65402    0.110
 7005.00    1.09250   1.65287    0.384
 7006.00    1.28007   1.65267   -1.000
 7007.00    1.28512   1.65195   -1.000
 7008.00    1.27579   1.65087   -1.000
 7009.00    1.25790   1.64991   -1.000
 7010.00    1.26187   1.64779   -1.000
 7011.00    1.27716   1.64704   -1.000
 7012.00    1.27848   1.64729   -1.000
 7013.00    1.27352   1.64701   -1.000
 7014.00    1.26551   1.64658   -1.000
 7015.00    1.25632   1.64448   -1.000
 7016.00    1.25318   1.64396   -1.000
 7017.00    1.25203   1.64599   -1.000
 7018.00    1.25896   1.64689   -1.000
 7019.00    1.26812   1.64729   -1.000
 7020.00    1.26495   1.64748   -1.000
 7021.00    1.25900   1.64830   -1.000
 7022.00    1.26767   1.65101   -1.000
 7023.00    1.27899   1.65268   -1.000
 7024.00    1.26546   1.65395   -1.000
 7025.00    1.24850   1.65652   -1.000
 7026.00    1.26726   1.65840   -1.000
 7027.00    1.28958   1.66055   -1.000
 7028.00    1.29175   1.66255   -1.000
 7029.00    1.29267   1.66438   -1.000
 7030.00    1.28759   1.66817   -1.000
 7031.00    1.28236   1.67087   -1.000
 7032.00    1.28401   1.67248   -1.000
 7033.00    1.28537   1.67502   -1.000
 7034.00    1.27907   1.67788   -1.000
 7035.00    1.27338   1.68235   -1.000
 7036.00    1.27603   1.68613   -1.000
 7037.00    1.27938   1.68792   -1.000
 7038.00    1.28926   1.69065   -1.000
 7039.00    1.29799   1.69442   -1.000
 7040.00    1.29910   1.69871   -1.000
 7041.00    1.30147   1.70152   -1.000
 7042.00    1.31040   1.70236   -1.000
 7043.00    1.31957   1.70280   -1.000
 7044.00    1.32975   1.70326   -1.000
 7045.00    1.33723   1.70395   -1.000
 7046.00    1.33539   1.70225   -1.000
 7047.00    1.33106   1.69907   -1.000
 7048.00    1.31950   1.69524   -1.000
 7049.00    1.30919   1.68990   -1.000
 7050.00    1.30202   1.68579   -2.000
 7051.00    1.30503   1.68018   -2.000
 7052.00    1.32995   1.67344   -2.000
 7053.00    1.34447   1.66762   -2.000
 7054.00    1.33955   1.66054   -2.000
 7055.00    1.33865   1.65542   -2.000
 7056.00    1.34431   1.65044   -2.000
 7057.00    1.34417   1.64427   -2.000
 7058.00    1.33576   1.63997   -2.000
 7059.00    1.34020   1.63524   -2.000
 7060.00    1.36082   1.63222   -2.000
 7061.00    1.36565   1.63073   -2.000
 7062.00    1.35298   1.62753   -2.000
 7063.00    1.35562   1.62590   -2.000
 7064.00    1.37323   1.62526   -2.000
 7065.00    1.37169   1.62491   -2.000
 7066.00    1.35362   1.62600   -2.000
 7067.00    1.34217   1.62597   -2.000
 7068.00    1.33575   1.62680   -2.000
 7069.00    1.33759   1.62971   -2.000
 7070.00    1.34493   1.63128   -2.000
 7071.00    1.37196   1.63236   -2.000
 7072.00    1.41050   1.63352   -2.000
 7073.00    1.43895   1.63401   -2.000
 7074.00    1.46226   1.63534   -2.000
 7075.00    1.44903   1.63523   -2.000
 7076.00    1.41966   1.63298   -2.000
 7077.00    1.42167   1.63126   -2.000
 7078.00    1.43558   1.62753   -2.000
 7079.00    1.44043   1.62302   -2.000
 7080.00    1.44238   1.61916   -2.000
 7081.00    1.42145   1.61302   -2.000
 7082.00    1.39437   1.60740   -2.000
 7083.00    1.38090   1.60084   -2.000
 7084.00    1.37044   1.59326   -2.000
 7085.00    1.33774   1.58956   -2.000
 7086.00    1.30112   1.58442   -2.000
 7087.00    1.31898   1.57864   -2.000
 7088.00    1.34413   1.57501   -2.000
 7089.00    1.32450   1.57023   -2.000
 7090.00    1.30060   1.56975   -2.000
 7091.00    1.29029   1.56961   -2.000
 7092.00    1.28077   1.56718   -2.000
 7093.00    1.27423   1.56833   -2.000
 7094.00    1.26794   1.56824   -2.000
 7095.00    1.28636   1.56986   -2.000
 7096.00    1.30241   1.57252   -2.000
 7097.00    1.25926   1.57246   -2.000
 7098.00    1.21882   1.57512   -2.000
 7099.00    1.21428   1.57685   -2.000
 7100.00    1.20965   1.57816   -2.000
 7101.00    1.20432   1.57930   -2.000
 7102.00    1.20059   1.57883   -2.000
 7103.00    1.20730   1.58041   -2.000
 7104.00    1.21178   1.58126   -2.000
 7105.00    1.20489   1.58081   -2.000
 7106.00    1.19718   1.57949   -2.000
 7107.00    1.18617   1.57850   -2.000
 7108.00    1.17819   1.57897   -2.000
 7109.00    1.18054   1.57891   -2.000
 7110.00    1.18239   1.57779   -2.000
 7111.00    1.18284   1.57592   -2.000
 7112.00    1.18490   1.57577   -2.000
 7113.00    1.19088   1.57592   -2.000
 7114.00    1.19648   1.57509   -2.000
 7115.00    1.20125   1.57454   -2.000
 7116.00    1.20653   1.57245   -2.000
 7117.00    1.21275   1.57204   -2.000
 7118.00    1.22285   1.57166   -2.000
 7119.00    1.23919   1.56976   -2.000
 7120.00    1.25790   1.56937   -2.000
 7121.00    1.27995   1.56621   -2.000
 7122.00    1.29809   1.56447   -2.000
 7123.00    1.31139   1.56474   -2.000
 7124.00    1.30756   1.56232   -2.000
 7125.00    1.28499   1.56118   -2.000
 7126.00    1.26396   1.55932   -2.000
 7127.00    1.24439   1.55875   -2.000
 7128.00    1.24203   1.56111   -2.000
 7129.00    1.25430   1.56009   -2.000
 7130.00    1.26924   1.55937   -2.000
 7131.00    1.28617   1.56135   -2.000
 7132.00    1.28489   1.56366   -2.000
 7133.00    1.27163   1.56642   -2.000
 7134.00    1.25313   1.56697   -2.000
 7135.00    1.23161   1.56761   -2.000
 7136.00    1.21445   1.57068   -2.000
 7137.00    1.19948   1.57319   -2.000
 7138.00    1.21474   1.57406   -2.000
 7139.00    1.24312   1.57364   -2.000
 7140.00    1.26675   1.57507   -2.000
 7141.00    1.28862   1.57623   -2.000
 7142.00    1.25830   1.57572   -2.000
 7143.00    1.21150   1.57600   -2.000
 7144.00    1.19173   1.57502   -2.000
 7145.00    1.17909   1.57655   -2.000
 7146.00    1.19338   1.57754   -2.000
 7147.00    1.21348   1.57567   -2.000
 7148.00    1.20860   1.57810   -2.000
 7149.00    1.19946   1.57956   -2.000
 7150.00    1.19942   1.58026   -2.000
 7151.00    1.20056   1.58239   -2.000
 7152.00    1.20152   1.58229   -2.000
 7153.00    1.20246   1.58511   -2.000
 7154.00    1.22296   1.58670   -2.000
 7155.00    1.24453   1.58582   -2.000
 7156.00    1.21939   1.58788   -2.000
 7157.00    1.19374   1.58888   -2.000
 7158.00    1.21032   1.58939   -2.000
 7159.00    1.22753   1.58897   -2.000
 7160.00    1.25877   1.58802   -2.000
 7161.00    1.28837   1.59003   -2.000
 7162.00    1.29732   1.59143   -2.000
 7163.00    1.30509   1.59114   -2.000
 7164.00    1.30287   1.59119   -2.000
 7165.00    1.29882   1.59292   -2.000
 7166.00    1.28319   1.59582   -2.000
 7167.00    1.27569   1.59774   -2.000
 7168.00    1.30856   1.59856   -2.000
 7169.00    1.32997   1.59943   -2.000
 7170.00    1.30529   1.60114   -2.000
 7171.00    1.28030   1.60304   -2.000
 7172.00    1.25426   1.60329   -2.000
 7173.00    1.23497   1.60287   -2.000
 7174.00    1.23475   1.60261   -2.000
 7175.00    1.23869   1.60045   -2.000
 7176.00    1.25266   1.59883   -2.000
 7177.00    1.26621   1.59818   -2.000
 7178.00    1.27888   1.59515   -2.000
 7179.00    1.28370   1.59218   -2.000
 7180.00    1.27430   1.58824   -2.000
 7181.00    1.25412   1.58493   -2.000
 7182.00    1.21689   1.58528   -2.000
 7183.00    1.19285   1.58232   -2.000
 7184.00    1.18715   1.57841   -2.000
 7185.00    1.16970   1.57677   -2.000
 7186.00    1.13786   1.57474   -2.000
 7187.00    1.13435   1.57507   -2.000
 7188.00    1.16139   1.57434   -2.000
 7189.00    1.18150   1.57342   -2.000
 7190.00    1.19504   1.57531   -2.000
 7191.00    1.20060   1.57554   -2.000
 7192.00    1.19948   1.57572   -2.000
 7193.00    1.19053   1.57648   -2.000
 7194.00    1.17580   1.57891   -2.000
 7195.00    1.16668   1.58203   -2.000
 7196.00    1.16120   1.58243   -2.000
 7197.00    1.16478   1.58325   -2.000
 7198.00    1.17350   1.58367   -2.000
 7199.00    1.19184   1.58564   -2.000
 7200.00    1.21494   1.58740   -2.000
 7201.00    1.22322   1.58572   -2.000
 7202.00    1.22517   1.58687   -2.000
 7203.00    1.22500   1.58762   -2.000
 7204.00    1.22404   1.58772   -2.000
 7205.00    1.17310   1.58860   -2.000
 7206.00    1.10667   1.58644   -2.000
 7207.00    1.10167   1.58747   -2.000
 7208.00    1.11251   1.59005   -2.000
 7209.00    1.12508   1.59082   -2.000
 7210.00    1.13800   1.59280   -2.000
 7211.00    1.13518   1.59303   -2.000
 7212.00    1.12975   1.59409   -2.000
 7213.00    1.15114   1.59753   -2.000
 7214.00    1.17587   1.59938   -2.000
 7215.00    1.17932   1.60169   -2.000
 7216.00    1.18093   1.60497   -2.000
 7217.00    1.16691   1.60692   -2.000
 7218.00    1.15211   1.60982   -2.000
