###################################################################
## OUTPUT of StarlightChains_v04.for    [Cid@UFSC - 01/Apr/2007] ##
###################################################################

## Some input info
KUG0210-078._29_38.txt                   [arq_obs]
Base.CB07.vall.4m                        [arq_base]
Masks.EmLines.NEW.gm                     [arq_masks]
StCv04.C11.config                        [arq_config]
   66                                    [N_base]
    0                                    [N_YAV_components = # of components with extra extinction!]
    0                                    [i_FitPowerLaw (1/0 = Yes/No)]
-9.99                                    [alpha_PowerLaw]
CCM                                      [red_law_option]
 1.458241                                [q_norm = A(l_norm)/A(V)]

## (Re)Sampling Parameters
 3741.00                                 [l_ini (A)]
 7218.00                                 [l_fin (A)]
    1.00                                 [dl    (A)]     (OBS: dl_cushion =    50.00 A)

## Normalization info
 4020.00                                 [l_norm (A) - for base]
 4010.00                                 [llow_norm (A) - window for f_obs]
 4060.00                                 [lupp_norm (A) - window for f_obs]
3.664912E-17                             [fobs_norm (in input units)]

## S/N
 3691.00                                 [llow_SN (A) - window for S/N]
 7268.00                                 [lupp_SN (A) - window for S/N]
   6.748                                 [S/N in S/N window]
   7.000                                 [S/N in norm. window]
   0.053                                 [S/N_err in S/N window]
   0.055                                 [S/N_err in norm. window]
  1.0000                                 [fscale_chi2]

## etc...
    -2007414                             [idum_orig]
  2432                                   [NOl_eff]
  2432                                   [Nl_eff]
     0    NSIGMA                         [Ntot_cliped & clip_method]
   444780                                [Nglobal_steps]
   7                                     [N_chains]
  19                                     [NEX0s_base = N_base in EX0s-fits]
 0   0   1       22   2.0   8.773E-02    [Clip-Bug, RC-Crash & Burn-In warning-flags, n_censored_weights, wei_nsig_threshold & wei_limit]
    10      9.875      9.491      0.384  [idt_all, wdt_TotTime, wdt_UsrTime & wdt_SysTime (sec)]

## Synthesis Results - Best model ##

 4.88024E-05                             [chi2/Nl_eff]
     9.73269                             [adev (%)]

    93.13657                             [sum-of-x (%)]
 3.97954E-16                             [Flux_tot (units of input spectrum!)]
 7.01723E-13                             [Mini_tot (???)]
 3.77647E-13                             [Mcor_tot (???)]

 107.27                                  [v0_min  (km/s)]
 458.00                                  [vd_min  (km/s)]
 1.8287                                  [AV_min  (mag)]
 0.0000                                  [YAV_min (mag)]

# j     x_j(%)      Mini_j(%)     Mcor_j(%)     age_j(yr)     Z_j      (L/M)_j    YAV?  Mstars   component_j        a/Fe...       SSP_chi2r SSP_adev(%)   SSP_AV   SSP_x(%)
  1      0.0000     0.0000E+00    0.0000E+00    1.000000E+06  0.00400  1.094E-02    0   1.0000   age020_m42            0.0000     1.0298E-04    15.0783   3.2586    82.4050
  2      0.0000     0.0000E+00    0.0000E+00    3.160000E+06  0.00400  4.007E-02    0   0.9999   age045_m42            0.0000     8.8779E-05    13.9251   2.5232    88.4410
  3      2.0461     4.9070E-02    8.6511E-02    5.010000E+06  0.00400  2.539E-02    0   0.9488   age055_m42            0.0000     9.2849E-05    14.3087   2.8471    86.1587
  4      0.0000     0.0000E+00    0.0000E+00    6.610000E+06  0.00400  2.620E-02    0   0.9220   age061_m42            0.0000     8.5496E-05    13.6739   2.4501    88.6721
  5      0.0000     0.0000E+00    0.0000E+00    1.000000E+07  0.00400  1.322E-02    0   0.8862   age070_m42            0.0000     6.9536E-05    12.2860   2.1921    90.0522
  6      0.0000     0.0000E+00    0.0000E+00    1.445000E+07  0.00400  7.883E-03    0   0.8571   age078_m42            0.0000     7.4706E-05    12.7481   2.5173    87.7626
  7      0.0000     0.0000E+00    0.0000E+00    2.512000E+07  0.00400  5.251E-03    0   0.8174   age090_m42            0.0000     6.5990E-05    11.9437   2.0664    90.4939
  8      0.0000     0.0000E+00    0.0000E+00    4.000000E+07  0.00400  3.649E-03    0   0.7851   age104_m42            0.0000     6.6126E-05    11.9532   1.8353    91.3768
  9      0.0000     0.0000E+00    0.0000E+00    5.500000E+07  0.00400  3.098E-03    0   0.7629   age110_m42            0.0000     7.1821E-05    12.4477   1.9764    91.6619
 10      0.0000     0.0000E+00    0.0000E+00    1.015200E+08  0.00400  2.228E-03    0   0.7207   age116_m42            0.0000     7.5836E-05    12.7821   1.9897    91.9988
 11      0.0000     0.0000E+00    0.0000E+00    2.861200E+08  0.00400  1.093E-03    0   0.6648   age125_m42            0.0000     6.7271E-05    11.9578   1.4228    94.6692
 12      0.0000     0.0000E+00    0.0000E+00    5.088000E+08  0.00400  6.597E-04    0   0.6365   age130_m42            0.0000     7.6265E-05    12.7424   1.4036    95.6856
 13      0.0000     0.0000E+00    0.0000E+00    1.434000E+09  0.00400  2.132E-04    0   0.5798   age139_m42            0.0000     8.2542E-05    13.1569   0.4389    97.4032
 14      0.0000     0.0000E+00    0.0000E+00    4.250000E+09  0.00400  5.895E-05    0   0.5377   age158_m42            0.0000     1.0226E-04    14.5725  -0.0107    93.7505
 15      0.0000     0.0000E+00    0.0000E+00    7.500000E+09  0.00400  3.510E-05    0   0.5212   age171_m42            0.0000     1.1129E-04    15.1259  -0.2016    93.1160
 16      0.0000     0.0000E+00    0.0000E+00    1.300000E+10  0.00400  2.005E-05    0   0.5034   age193_m42            0.0000     1.1974E-04    15.6244  -0.3707    92.6271
 17      0.0000     0.0000E+00    0.0000E+00    1.800000E+10  0.00400  1.525E-05    0   0.4967   age213_m42            0.0000     1.1842E-04    15.5316  -0.3920    92.1875
 18      0.0000     0.0000E+00    0.0000E+00    1.000000E+06  0.00800  1.238E-02    0   1.0000   age020_m52            0.0000     1.0321E-04    15.0947   3.2550    82.5682
 19      0.0000     0.0000E+00    0.0000E+00    3.160000E+06  0.00800  3.074E-02    0   0.9966   age045_m52            0.0000     1.0255E-04    15.0512   3.1763    83.3775
 20      0.0000     0.0000E+00    0.0000E+00    5.010000E+06  0.00800  2.668E-02    0   0.9443   age055_m52            0.0000     9.4177E-05    14.4140   2.9320    85.3251
 21      0.0000     0.0000E+00    0.0000E+00    6.610000E+06  0.00800  2.136E-02    0   0.9177   age061_m52            0.0000     7.4686E-05    12.7813   1.6978    90.9124
 22      0.0000     0.0000E+00    0.0000E+00    1.000000E+07  0.00800  1.215E-02    0   0.8827   age070_m52            0.0000     6.7036E-05    12.0145   2.3770    89.6828
 23      0.0000     0.0000E+00    0.0000E+00    1.445000E+07  0.00800  8.717E-03    0   0.8552   age078_m52            0.0000     7.2804E-05    12.5794   2.4834    88.9911
 24      0.0000     0.0000E+00    0.0000E+00    2.512000E+07  0.00800  5.592E-03    0   0.8162   age090_m52            0.0000     6.4016E-05    11.7373   2.1294    91.5915
 25      0.0000     0.0000E+00    0.0000E+00    4.000000E+07  0.00800  3.896E-03    0   0.7841   age104_m52            0.0000     6.4884E-05    11.8156   2.0354    92.4550
 26      0.0000     0.0000E+00    0.0000E+00    1.015200E+08  0.00800  2.148E-03    0   0.7226   age116_m52            0.0000     7.1001E-05    12.3722   1.9623    92.6065
 27      0.0000     0.0000E+00    0.0000E+00    2.861200E+08  0.00800  9.925E-04    0   0.6683   age125_m52            0.0000     7.5505E-05    12.6980   1.4685    96.5941
 28      0.0000     0.0000E+00    0.0000E+00    9.047900E+08  0.00800  3.141E-04    0   0.6138   age135_m52            0.0000     9.1847E-05    13.7480   0.6668   100.5272
 29      0.0000     0.0000E+00    0.0000E+00    1.434000E+09  0.00800  1.719E-04    0   0.5853   age139_m52            0.0000     9.2785E-05    13.9061   0.0861    98.4759
 30      0.0000     0.0000E+00    0.0000E+00    2.500000E+09  0.00800  7.872E-05    0   0.5600   age150_m52            0.0000     1.1360E-04    15.3032  -0.1910    95.9977
 31      0.0000     0.0000E+00    0.0000E+00    4.250000E+09  0.00800  4.336E-05    0   0.5426   age158_m52            0.0000     1.1680E-04    15.4271  -0.2048    95.0263
 32      0.0000     0.0000E+00    0.0000E+00    6.250000E+09  0.00800  3.159E-05    0   0.5319   age166_m52            0.0000     1.2990E-04    16.1614  -0.4140    95.1384
 33      1.9439     8.6970E+01    8.1981E+01    1.300000E+10  0.00800  1.361E-05    0   0.5073   age193_m52            0.0000     1.4878E-04    17.1689  -0.8885    94.6033
 34      0.0000     0.0000E+00    0.0000E+00    1.800000E+10  0.00800  9.886E-06    0   0.4990   age213_m52            0.0000     1.6407E-04    17.9674  -1.0000    94.1417
 35      0.0000     0.0000E+00    0.0000E+00    1.000000E+06  0.02000  1.544E-02    0   1.0000   age020_m62            0.0000     1.0372E-04    15.1301   3.2513    82.7518
 36      0.0000     0.0000E+00    0.0000E+00    3.160000E+06  0.02000  3.762E-02    0   0.9858   age045_m62            0.0000     1.0392E-04    15.1483   3.1876    83.5553
 37      0.0000     0.0000E+00    0.0000E+00    5.010000E+06  0.02000  3.296E-02    0   0.9342   age055_m62            0.0000     9.2452E-05    14.2739   2.8005    87.4253
 38      0.0000     0.0000E+00    0.0000E+00    8.710000E+06  0.02000  1.154E-02    0   0.8861   age067_m62            0.0000     5.1749E-05     9.7112   1.8668    91.2688
 39      0.0000     0.0000E+00    0.0000E+00    1.445000E+07  0.02000  7.663E-03    0   0.8472   age078_m62            0.0000     5.9382E-05    11.1173   2.0340    91.4607
 40      0.0000     0.0000E+00    0.0000E+00    2.512000E+07  0.02000  4.532E-03    0   0.8099   age090_m62            0.0000     5.6406E-05    10.8194   2.0244    91.2839
 41      0.0000     0.0000E+00    0.0000E+00    5.500000E+07  0.02000  2.733E-03    0   0.7595   age110_m62            0.0000     6.5780E-05    11.9085   2.0185    91.7929
 42      0.0000     0.0000E+00    0.0000E+00    1.609000E+08  0.02000  1.369E-03    0   0.6985   age120_m62            0.0000     7.2107E-05    12.4468   1.8389    94.8388
 43      0.0000     0.0000E+00    0.0000E+00    2.861200E+08  0.02000  9.013E-04    0   0.6714   age125_m62            0.0000     7.8598E-05    12.9292   1.5831    97.7362
 44      0.0000     0.0000E+00    0.0000E+00    5.088000E+08  0.02000  5.028E-04    0   0.6449   age130_m62            0.0000     9.4680E-05    14.1024   1.1958   100.4565
 45      0.0000     0.0000E+00    0.0000E+00    9.047900E+08  0.02000  2.428E-04    0   0.6179   age135_m62            0.0000     1.0259E-04    14.5704   0.6057    99.8834
 46      0.0000     0.0000E+00    0.0000E+00    1.434000E+09  0.02000  1.263E-04    0   0.5908   age139_m62            0.0000     1.1031E-04    15.0031   0.1618    98.3718
 47      0.0000     0.0000E+00    0.0000E+00    2.500000E+09  0.02000  5.985E-05    0   0.5673   age150_m62            0.0000     1.2889E-04    16.1396  -0.2136    97.1783
 48      0.0000     0.0000E+00    0.0000E+00    4.250000E+09  0.02000  3.271E-05    0   0.5468   age158_m62            0.0000     1.4977E-04    17.3205  -0.5291    96.5346
 49      0.0000     0.0000E+00    0.0000E+00    1.000000E+10  0.02000  1.360E-05    0   0.5167   age181_m62            0.0000     1.7664E-04    18.6337  -0.8883    96.2980
 50      0.0000     0.0000E+00    0.0000E+00    1.800000E+10  0.02000  7.124E-06    0   0.5013   age213_m62            0.0000     1.9959E-04    19.6055  -1.0000    92.5991
 51      0.0000     0.0000E+00    0.0000E+00    1.000000E+06  0.05000  2.592E-02    0   0.9998   age020_m72            0.0000     1.0480E-04    15.1958   3.2454    82.7089
 52      1.4006     1.7602E-02    3.1324E-02    3.160000E+06  0.05000  4.845E-02    0   0.9577   age045_m72            0.0000     1.0049E-04    14.9151   3.0634    84.9004
 53      0.0000     0.0000E+00    0.0000E+00    5.010000E+06  0.05000  3.072E-02    0   0.9147   age055_m72            0.0000     7.3040E-05    12.5193   2.6031    88.1875
 54     58.3733     2.4429E+00    4.0294E+00    6.610000E+06  0.05000  1.455E-02    0   0.8877   age061_m72            0.0000     5.3538E-05     9.7005   1.8988    92.0013
 55      0.0000     0.0000E+00    0.0000E+00    1.000000E+07  0.05000  9.074E-03    0   0.8524   age070_m72            0.0000     7.3369E-05    12.5981   2.7671    88.1588
 56      0.0000     0.0000E+00    0.0000E+00    2.512000E+07  0.05000  4.250E-03    0   0.7902   age090_m72            0.0000     6.5156E-05    11.8438   2.4738    89.9428
 57      0.0000     0.0000E+00    0.0000E+00    4.000000E+07  0.05000  3.087E-03    0   0.7618   age104_m72            0.0000     6.0623E-05    11.4000   2.2477    91.4757
 58     29.3726     1.0521E+01    1.3872E+01    1.015200E+08  0.05000  1.700E-03    0   0.7096   age116_m72            0.0000     6.6634E-05    11.9453   1.9846    94.3506
 59      0.0000     0.0000E+00    0.0000E+00    2.861200E+08  0.05000  7.384E-04    0   0.6633   age125_m72            0.0000     8.6645E-05    13.5463   1.4448    99.2039
 60      0.0000     0.0000E+00    0.0000E+00    5.088000E+08  0.05000  3.819E-04    0   0.6372   age130_m72            0.0000     1.0103E-04    14.5796   0.9446   100.9616
 61      0.0000     0.0000E+00    0.0000E+00    9.047900E+08  0.05000  1.676E-04    0   0.6110   age135_m72            0.0000     1.2614E-04    16.0838   0.2393    99.2834
 62      0.0000     0.0000E+00    0.0000E+00    1.434000E+09  0.05000  8.837E-05    0   0.5874   age139_m72            0.0000     1.3272E-04    16.3085  -0.2172    98.7019
 63      0.0000     0.0000E+00    0.0000E+00    2.500000E+09  0.05000  4.233E-05    0   0.5598   age150_m72            0.0000     1.5739E-04    17.7401  -0.5355    97.5235
 64      0.0000     0.0000E+00    0.0000E+00    6.250000E+09  0.05000  1.435E-05    0   0.5249   age166_m72            0.0000     1.8292E-04    19.0233  -0.9907    96.0602
 65      0.0000     0.0000E+00    0.0000E+00    1.300000E+10  0.05000  6.513E-06    0   0.5036   age193_m72            0.0000     2.1837E-04    20.2642  -1.0000    88.8801
 66      0.0000     0.0000E+00    0.0000E+00    1.800000E+10  0.05000  4.527E-06    0   0.4945   age213_m72            0.0000     2.4708E-04    21.1103  -1.0000    83.8287


## Synthesis Results - Average & Chains ##

# j      x_j: min, <> & last-chain-values for 1 ...  7 chains
  1      0.0000      1.6252      0.0109      3.3073      0.1024      0.0000      0.0000      0.0000      0.0000
  2      0.0000      1.8451      0.1295      1.2717      0.0000      0.0000      0.0094      0.0000      0.0000
  3      2.0461      1.2975      0.8198      0.5735      1.3690      0.0141      0.0000      0.0387      0.0000
  4      0.0000      1.8905      0.0000     18.0903      6.2228      0.0000      0.0000      1.0843      0.0000
  5      0.0000      2.0729      0.0113      0.0000      8.1176      0.0000      0.0000      0.0000     12.7011
  6      0.0000      1.8327      0.0000      0.0043      0.1976      0.0003      2.3904      3.3431      0.0001
  7      0.0000      1.7332      0.4007      0.2034      0.0000      0.0000      0.5903      0.0829      0.0000
  8      0.0000      1.7947      3.6822     15.4580     18.0551      0.0000      1.4850      0.0000      0.0000
  9      0.0000      1.4268      5.0981     10.6032      0.2745      0.0000      5.1914      0.0774      0.0046
 10      0.0000      1.7845      0.0000      0.0004      0.2052      0.0002     16.9222      0.0000      0.0057
 11      0.0000      1.7429      0.0000      0.2002      0.0000      0.0000      0.0000      4.7425      0.0000
 12      0.0000      1.3978      0.2653      1.9491      0.0000      7.4266      0.0000      2.5737      0.1478
 13      0.0000      1.0923      1.2266      0.0000      0.0000      0.0000      0.0000      0.9864      0.2099
 14      0.0000      1.8251      5.6798      0.0011      5.2861      0.0000      0.0189      0.0000      0.0000
 15      0.0000      1.5900      0.0000      0.0000      0.0000      0.0000      0.3005      0.0000      0.0000
 16      0.0000      1.4155      1.8095      0.0010      0.0346      0.1903      0.0000      4.1397      0.6588
 17      0.0000      1.2501      0.0000      0.4394      7.1115      0.0000      0.0000      0.0000      7.1193
 18      0.0000      1.5698      0.0280      0.0000      0.0863      0.0000      0.0000      1.4418      0.0739
 19      0.0000      1.8941      0.0000      5.1947      0.0000      0.0000      6.4673      6.2500      5.0249
 20      0.0000      1.4100      0.1891      0.0293      0.0000      0.0000      1.2209      0.1929      0.7838
 21      0.0000      1.4425      0.0689      0.0210      0.0832      1.6726      0.0853      1.3023      0.0000
 22      0.0000      1.3967      0.0000      0.0000      0.0000      0.0000      0.1877      8.0453      0.0000
 23      0.0000      1.7688      0.7586      0.0007      0.0000      0.0000      0.6229      0.0011      0.2870
 24      0.0000      1.3348      0.9142      0.0000      1.4372     26.1704      0.0000      1.2853      0.0000
 25      0.0000      1.2905      0.0000      0.1474      0.0000      0.0000      0.0176      0.0000      0.0001
 26      0.0000      1.8548      0.0000      0.0000      0.1390      4.3602      0.0646      0.0016      1.3273
 27      0.0000      1.4301      0.0000      0.0000      2.0217      0.5706      1.3134      0.0000      0.0000
 28      0.0000      1.3039      0.0000      0.0000      0.0000      0.9373      0.0058      0.5927      0.0000
 29      0.0000      1.4186      0.6802      0.0000      0.0163      0.0000      1.0895      0.0000      0.0881
 30      0.0000      1.2030      0.0000      0.0000      0.0000      0.0000      0.0000      0.0574      0.0001
 31      0.0000      2.0761      0.0000      0.0000      0.2761      0.0000      0.0000      0.0052     12.1093
 32      0.0000      1.2532      0.0000      0.0000      0.0000      0.0000      0.0000      0.0184      1.7984
 33      1.9439      1.3290      0.0000     16.0478      0.0000      0.0000      0.0102      0.0000      0.0000
 34      0.0000      1.0353     10.7859      0.0090      0.0000      9.9528      0.0663      0.5998      0.0205
 35      0.0000      1.0147      0.1099      0.0000      0.1808      0.0000      2.5576      0.0000      0.0608
 36      0.0000      2.0563      0.0000      0.0000      0.0000      0.0000      0.0000      0.0000      0.3515
 37      0.0000      1.4570      0.0002      0.0389      0.1706      0.0000      0.0000      0.0000      4.5868
 38      0.0000      2.0053      0.0000      4.2839      0.7819      1.1209      2.8110      0.2124     14.3226
 39      0.0000      1.0209      0.0005      0.0385      0.0000      0.0000      0.0438      0.0023      0.0036
 40      0.0000      2.0558      0.1723      0.0000      5.1696      0.0000      5.0200      4.8703      0.2978
 41      0.0000      1.1708     11.0408      0.0514      0.1482      0.0000      6.9916      0.6078      0.0000
 42      0.0000      1.5810      0.0116      1.4573      0.0190     21.6787      0.4518      0.0000      0.0067
 43      0.0000      1.4754      0.0000      0.2923      0.0000      4.1040      0.6021      6.8859      0.0126
 44      0.0000      1.0353      0.0000      0.0000      0.0002      0.0000      0.0063      0.0000      0.0000
 45      0.0000      1.2417      0.1582      0.1088      0.0000      0.7319      3.6736      0.0000      0.0000
 46      0.0000      1.5301      0.4734      0.0000      0.0362      0.0000      0.1787     10.6008      3.3197
 47      0.0000      1.5832      0.0000      0.0000      0.0000      0.0000      2.6741      0.0000      0.0000
 48      0.0000      1.2633      0.0000      0.0447      5.0928      0.0000      1.2952      0.0000      0.0000
 49      0.0000      1.3666      0.0000      0.0000      0.0000      0.0065      0.0000      0.0000      0.0000
 50      0.0000      1.3146      1.8475      0.0003      0.0000      0.0728      0.8227      1.6126      0.0000
 51      0.0000      1.7086     12.2061      0.0002      0.0000      0.0000      2.8795      0.0000      0.0000
 52      1.4006      1.4122      1.8493      0.8871      0.2201      0.0000      6.3463      2.8889      0.0187
 53      0.0000      1.7514      6.9810      0.0000      0.6687      0.0170      8.7083      0.0000      0.0000
 54     58.3733      2.3062      0.0000      7.2396      6.6204      5.2631      0.9228     14.6488     24.4457
 55      0.0000      1.9426      4.0715      0.0106     21.2942      0.4893      2.9875      0.0227      0.0585
 56      0.0000      1.9263     19.3882      0.7467      0.0000      0.0000      0.0000     10.3347      0.0000
 57      0.0000      1.8694      0.0000      0.7489      0.0000      1.2179      1.9601      0.0000      0.0000
 58     29.3726      1.3024      0.0000      1.5090      0.1150      4.4632      0.0000      0.0000      0.0000
 59      0.0000      1.9057      0.0000      0.0000      0.0000      3.2166      0.7101      0.0000      0.0000
 60      0.0000      1.4425      2.0636      1.6572      2.3182      0.0000      0.0008      0.0000      0.0000
 61      0.0000      0.9446      0.0991      0.4480      0.0000      0.1605      0.0000      1.8550      0.0000
 62      0.0000      1.5777      0.0000      0.0150      0.4079      0.0000      1.6604      0.0000      3.1155
 63      0.0000      1.5400      0.1342      0.0326      0.0000      0.2316      0.0000      0.0000      0.4168
 64      0.0000      1.1123      0.7512      0.1072      0.0000      1.1882      0.2027      0.9916      0.0007
 65      0.0000      1.0026      0.0000      0.2403      0.5323      0.0000      0.0000      0.0073      0.0000
 66      0.0000      0.5590      0.0000      0.0000      0.0877      0.0017      5.2051      0.0000      0.0000

# j      m_j: min, <> & last-chain-values for 1 ...  7 chains
  1  0.0000E+00  2.1034E-02  1.2090E-04  4.6272E-02  2.1424E-03  0.0000E+00  0.0000E+00  0.0000E+00  0.0000E+00
  2  0.0000E+00  6.5190E-03  3.9259E-04  4.8572E-03  0.0000E+00  0.0000E+00  3.2352E-05  0.0000E+00  2.2870E-07
  3  8.6511E-02  6.8652E-03  3.7205E-03  3.2802E-03  1.1711E-02  8.8449E-05  0.0000E+00  4.0055E-04  0.0000E+00
  4  0.0000E+00  9.4197E-03  0.0000E+00  9.7441E-02  5.0127E-02  0.0000E+00  0.0000E+00  1.0555E-02  0.0000E+00
  5  0.0000E+00  1.9675E-02  9.1634E-05  0.0000E+00  1.2456E-01  0.0000E+00  0.0000E+00  0.0000E+00  1.7797E-01
  6  0.0000E+00  2.8214E-02  0.0000E+00  7.1879E-05  4.9181E-03  6.1304E-06  3.5665E-02  1.0055E-01  1.6667E-06
  7  0.0000E+00  3.8200E-02  7.5753E-03  4.8453E-03  0.0000E+00  0.0000E+00  1.2609E-02  3.5699E-03  0.0000E+00
  8  0.0000E+00  5.4673E-02  9.6214E-02  5.0906E-01  8.8921E-01  0.0000E+00  4.3846E-02  0.0000E+00  0.0000E+00
  9  0.0000E+00  4.9746E-02  1.5246E-01  3.9966E-01  1.5472E-02  0.0000E+00  1.7543E-01  5.2702E-03  2.3799E-04
 10  0.0000E+00  8.1730E-02  0.0000E+00  2.1549E-05  1.5192E-02  9.6547E-06  7.5116E-01  0.0000E+00  3.8271E-04
 11  0.0000E+00  1.5010E-01  0.0000E+00  1.8635E-02  0.0000E+00  0.0000E+00  0.0000E+00  7.9792E-01  0.0000E+00
 12  0.0000E+00  1.9095E-01  3.1082E-02  2.8784E-01  0.0000E+00  1.2022E+00  0.0000E+00  6.8690E-01  2.9802E-02
 13  0.0000E+00  4.2058E-01  4.0509E-01  0.0000E+00  0.0000E+00  2.0227E-07  0.0000E+00  7.4203E-01  1.1933E-01
 14  0.0000E+00  2.3571E+00  6.2916E+00  1.5377E-03  1.1037E+01  0.0000E+00  2.3602E-02  0.0000E+00  0.0000E+00
 15  0.0000E+00  3.3428E+00  0.0000E+00  0.0000E+00  0.0000E+00  0.0000E+00  6.1227E-01  0.0000E+00  0.0000E+00
 16  0.0000E+00  5.0317E+00  5.5175E+00  3.9418E-03  1.9901E-01  8.0151E-01  0.0000E+00  2.8750E+01  3.4574E+00
 17  0.0000E+00  5.7649E+00  0.0000E+00  2.1908E+00  5.3020E+01  0.0000E+00  0.0000E+00  0.0000E+00  4.8470E+01
 18  0.0000E+00  1.7953E-02  2.7449E-04  0.0000E+00  1.5949E-03  0.0000E+00  0.0000E+00  3.2214E-02  1.2481E-03
 19  0.0000E+00  8.6947E-03  0.0000E+00  2.5777E-02  0.0000E+00  0.0000E+00  2.8773E-02  5.6049E-02  3.4054E-02
 20  0.0000E+00  7.0658E-03  8.1302E-04  1.5886E-04  0.0000E+00  0.0000E+00  5.9300E-03  1.8881E-03  5.7991E-03
 21  0.0000E+00  8.7746E-03  3.5935E-04  1.3803E-04  8.1824E-04  1.2057E-02  5.0304E-04  1.5477E-02  0.0000E+00
 22  0.0000E+00  1.4366E-02  0.0000E+00  3.8994E-10  0.0000E+00  0.0000E+00  1.8710E-03  1.6168E-01  0.0000E+00
 23  0.0000E+00  2.4570E-02  9.0381E-03  9.9394E-06  0.0000E+00  0.0000E+00  8.3856E-03  2.9174E-05  5.8857E-03
 24  0.0000E+00  2.7585E-02  1.6204E-02  0.0000E+00  4.8017E-02  6.4086E-01  0.0000E+00  5.1893E-02  0.0000E+00
 25  0.0000E+00  3.6774E-02  0.0000E+00  4.5396E-03  0.0000E+00  0.0000E+00  4.8471E-04  0.0000E+00  5.6276E-06
 26  0.0000E+00  8.8345E-02  0.0000E+00  6.1902E-08  1.0705E-02  2.4609E-01  2.9827E-03  1.5263E-04  9.3336E-02
 27  0.0000E+00  1.3634E-01  0.0000E+00  0.0000E+00  3.1160E-01  6.4457E-02  1.2136E-01  0.0000E+00  0.0000E+00
 28  0.0000E+00  3.6077E-01  0.0000E+00  0.0000E+00  0.0000E+00  3.0731E-01  1.5595E-03  3.2039E-01  0.0000E+00
 29  0.0000E+00  6.8390E-01  2.8127E-01  0.0000E+00  1.2732E-02  0.0000E+00  5.0908E-01  0.0000E+00  6.2724E-02
 30  0.0000E+00  1.2117E+00  0.0000E+00  0.0000E+00  0.0000E+00  1.6828E-05  0.0000E+00  1.1293E-01  1.2960E-04
 31  0.0000E+00  3.6784E+00  0.0000E+00  0.0000E+00  7.9075E-01  0.0000E+00  0.0000E+00  1.8003E-02  3.1676E+01
 32  0.0000E+00  2.9876E+00  0.0000E+00  0.0000E+00  0.0000E+00  1.4837E-05  0.0000E+00  8.5856E-02  6.3298E+00
 33  8.1981E+01  7.0140E+00  0.0000E+00  9.1556E+01  0.0000E+00  0.0000E+00  5.2375E-02  0.0000E+00  0.0000E+00
 34  0.0000E+00  7.3988E+00  6.6116E+01  6.9522E-02  0.0000E+00  8.4285E+01  4.5957E-01  8.3750E+00  2.1681E-01
 35  0.0000E+00  9.3051E-03  8.6462E-04  0.0000E+00  2.6797E-03  0.0000E+00  2.2731E-02  0.0000E+00  8.2258E-04
 36  0.0000E+00  7.6294E-03  0.0000E+00  0.0000E+00  0.0000E+00  0.0000E+00  0.0000E+00  0.0000E+00  1.9255E-03
 37  0.0000E+00  5.8468E-03  7.3500E-07  1.6874E-04  1.1071E-03  0.0000E+00  0.0000E+00  0.0000E+00  2.7176E-02
 38  0.0000E+00  2.1801E-02  0.0000E+00  5.0348E-02  1.3743E-02  1.4440E-02  2.9619E-02  4.5108E-03  2.2989E-01
 39  0.0000E+00  1.5980E-02  6.7780E-06  6.5210E-04  0.0000E+00  0.0000E+00  6.6501E-04  7.1665E-05  8.4239E-05
 40  0.0000E+00  5.2016E-02  3.7390E-03  0.0000E+00  2.1147E-01  0.0000E+00  1.2311E-01  2.4075E-01  1.1125E-02
 41  0.0000E+00  4.6066E-02  3.7262E-01  2.1863E-03  9.4280E-03  0.0000E+00  2.6663E-01  4.6723E-02  0.0000E+00
 42  0.0000E+00  1.1421E-01  7.2150E-04  1.1381E-01  2.2161E-03  1.8558E+00  3.1635E-02  0.0000E+00  7.1943E-04
 43  0.0000E+00  1.5561E-01  0.0000E+00  3.3331E-02  0.0000E+00  5.1291E-01  6.1551E-02  1.4189E+00  1.9625E-03
 44  0.0000E+00  1.8800E-01  0.0000E+00  0.0000E+00  5.9038E-05  0.0000E+00  1.1144E-03  0.0000E+00  0.0000E+00
 45  0.0000E+00  4.4739E-01  4.8905E-02  4.2383E-02  0.0000E+00  3.1249E-01  1.2829E+00  0.0000E+00  0.0000E+00
 46  0.0000E+00  1.0134E+00  2.6890E-01  0.0000E+00  3.8730E-02  0.0000E+00  1.1474E-01  1.3717E+01  3.2460E+00
 47  0.0000E+00  2.1248E+00  0.0000E+00  0.0000E+00  0.0000E+00  0.0000E+00  3.4783E+00  0.0000E+00  0.0000E+00
 48  0.0000E+00  2.9901E+00  0.0000E+00  1.1449E-01  1.9488E+01  0.0000E+00  2.9712E+00  0.0000E+00  0.0000E+00
 49  0.0000E+00  7.3511E+00  0.0000E+00  0.0000E+00  0.0000E+00  4.1148E-02  0.0000E+00  0.0000E+00  1.0478E-04
 50  0.0000E+00  1.3097E+01  1.5788E+01  3.3389E-03  0.0000E+00  8.5893E-01  7.9445E+00  3.1388E+01  0.0000E+00
 51  0.0000E+00  9.3311E-03  5.7178E-02  1.0841E-06  0.0000E+00  0.0000E+00  1.5242E-02  0.0000E+00  0.0000E+00
 52  3.1324E-02  3.9523E-03  4.4394E-03  2.6839E-03  9.9567E-04  0.0000E+00  1.7215E-02  1.5796E-02  7.7381E-05
 53  0.0000E+00  7.3835E-03  2.5244E-02  9.4438E-08  4.5580E-03  8.4762E-05  3.5582E-02  0.0000E+00  0.0000E+00
 54  4.0294E+00  1.9921E-02  0.0000E+00  6.7605E-02  9.2458E-02  5.3873E-02  7.7263E-03  2.4722E-01  3.1176E-01
 55  0.0000E+00  2.5837E-02  4.6448E-02  1.5182E-04  4.5789E-01  7.7118E-03  3.8512E-02  5.8864E-04  1.1491E-03
 56  0.0000E+00  5.0709E-02  4.3778E-01  2.1250E-02  0.0000E+00  0.0000E+00  0.0000E+00  5.3152E-01  1.6385E-07
 57  0.0000E+00  6.5317E-02  0.0000E+00  2.8286E-02  0.0000E+00  5.0423E-02  6.6378E-02  0.0000E+00  0.0000E+00
 58  1.3872E+01  7.6969E-02  0.0000E+00  9.6408E-02  1.0987E-02  3.1256E-01  0.0000E+00  0.0000E+00  0.0000E+00
 59  0.0000E+00  2.4238E-01  0.0000E+00  2.0086E-08  0.0000E+00  4.8477E-01  8.7529E-02  0.0000E+00  0.0000E+00
 60  0.0000E+00  3.4078E-01  4.1814E-01  4.2321E-01  8.8539E-01  0.0000E+00  1.8047E-04  0.0000E+00  0.0000E+00
 61  0.0000E+00  4.8758E-01  4.3893E-02  2.4997E-01  0.0000E+00  9.8157E-02  0.0000E+00  1.8706E+00  0.0000E+00
 62  0.0000E+00  1.4848E+00  0.0000E+00  1.5220E-02  6.2067E-01  9.4794E-07  1.5145E+00  0.0000E+00  4.3288E+00
 63  0.0000E+00  2.8835E+00  2.1546E-01  6.6040E-02  0.0000E+00  5.1387E-01  0.0000E+00  0.0000E+00  1.1521E+00
 64  0.0000E+00  5.7607E+00  3.3368E+00  6.0006E-01  0.0000E+00  7.2917E+00  1.0177E+00  1.0033E+01  5.2246E-03
 65  0.0000E+00  1.0976E+01  0.0000E+00  2.8441E+00  9.4214E+00  4.7164E-06  0.0000E+00  1.5609E-01  0.0000E+00
 66  0.0000E+00  8.6449E+00  3.7787E-04  0.0000E+00  2.1933E+00  3.1605E-02  7.8023E+01  0.0000E+00  0.0000E+00

# AV, chi2 & Mass for <> & i_chain = 1 ...  7 solutions
AV       1.8287      0.9524      1.1074      1.1337      1.3031      1.1877      1.3282      1.3760      1.0750
chi2 4.8802E-05  7.0758E-05  5.8866E-05  5.7501E-05  5.9778E-05  5.9003E-05  6.0455E-05  5.8626E-05  5.8525E-05
Mass 3.7765E-13  9.3019E-13  1.3355E-12  1.0977E-12  9.2157E-13  1.0767E-12  1.5898E-12  8.4105E-13  7.4279E-13
 107.27                                  [v0_min (km/s) before EX0s...]
 458.00                                  [vd_min (km/s) before EX0s...]


## Synthetic spectrum (Best Model) ##l_obs f_obs f_syn wei
 3478    [Nl_obs]
 3741.00    0.54775   0.69836    0.000
 3742.00    0.65391   0.70135    0.000
 3743.00    0.71262   0.70311    0.000
 3744.00    0.69602   0.70340    0.000
 3745.00    0.63552   0.70199    0.088
 3746.00    0.58113   0.69933    0.088
 3747.00    0.52983   0.69575    0.088
 3748.00    0.45445   0.69195    0.088
 3749.00    0.36847   0.68896    0.088
 3750.00    0.42620   0.68811    0.088
 3751.00    0.53818   0.68923    0.088
 3752.00    0.55260   0.69198    0.088
 3753.00    0.53574   0.69685    0.088
 3754.00    0.55963   0.70305    0.088
 3755.00    0.59444   0.71074    0.088
 3756.00    0.57049   0.71927    0.088
 3757.00    0.53364   0.72863    0.087
 3758.00    0.54026   0.73753    0.086
 3759.00    0.55446   0.74507    0.086
 3760.00    0.58384   0.75078    0.088
 3761.00    0.61525   0.75364    0.088
 3762.00    0.58555   0.75414    0.088
 3763.00    0.55011   0.75203    0.083
 3764.00    0.51471   0.74791    0.082
 3765.00    0.47930   0.74159    0.082
 3766.00    0.54385   0.73402    0.082
 3767.00    0.61050   0.72576    0.082
 3768.00    0.64415   0.71738    0.082
 3769.00    0.67602   0.71008    0.082
 3770.00    0.66436   0.70512    0.081
 3771.00    0.65270   0.70361    0.081
 3772.00    0.64108   0.70471    0.080
 3773.00    0.62488   0.70873    0.080
 3774.00    0.56845   0.71557    0.079
 3775.00    0.51669   0.72494    0.078
 3776.00    0.49521   0.73642    0.078
 3777.00    0.48278   0.74987    0.078
 3778.00    0.51613   0.76494    0.079
 3779.00    0.54246   0.78003    0.081
 3780.00    0.54008   0.79415    0.082
 3781.00    0.54024   0.80666    0.084
 3782.00    0.54905   0.81716    0.085
 3783.00    0.55780   0.82510    0.086
 3784.00    0.56637   0.83035    0.087
 3785.00    0.59819   0.83297    0.088
 3786.00    0.68682   0.83237    0.088
 3787.00    0.72377   0.82874    0.088
 3788.00    0.65180   0.82188    0.088
 3789.00    0.63296   0.81230    0.087
 3790.00    0.71145   0.80023    0.088
 3791.00    0.73867   0.78665    0.088
 3792.00    0.68382   0.77209    0.088
 3793.00    0.62653   0.75655    0.086
 3794.00    0.56582   0.74111    0.084
 3795.00    0.53053   0.72644    0.082
 3796.00    0.52665   0.71354    0.080
 3797.00    0.52591   0.70330    0.079
 3798.00    0.52858   0.69733    0.080
 3799.00    0.54598   0.69536    0.081
 3800.00    0.57754   0.69684    0.083
 3801.00    0.58050   0.70166    0.082
 3802.00    0.55921   0.70973    0.081
 3803.00    0.58140   0.72070    0.081
 3804.00    0.63603   0.73418    0.081
 3805.00    0.67478   0.74957    0.081
 3806.00    0.70313   0.76658    0.080
 3807.00    0.70113   0.78364    0.079
 3808.00    0.68173   0.79934    0.078
 3809.00    0.67562   0.81393    0.078
 3810.00    0.67617   0.82656    0.078
 3811.00    0.67018   0.83699    0.079
 3812.00    0.66135   0.84520    0.081
 3813.00    0.74547   0.85207    0.082
 3814.00    0.86404   0.85725    0.084
 3815.00    0.85646   0.85998    0.084
 3816.00    0.80923   0.86062    0.083
 3817.00    0.75312   0.85972    0.083
 3818.00    0.69469   0.85641    0.082
 3819.00    0.69322   0.85277    0.083
 3820.00    0.70395   0.84988    0.084
 3821.00    0.74007   0.84536    0.084
 3822.00    0.78050   0.84008    0.083
 3823.00    0.75172   0.83291    0.084
 3824.00    0.71404   0.82463    0.085
 3825.00    0.62282   0.81501    0.084
 3826.00    0.52678   0.80399    0.082
 3827.00    0.62295   0.79308    0.084
 3828.00    0.72946   0.78023    0.087
 3829.00    0.71146   0.76635    0.086
 3830.00    0.69154   0.75159    0.086
 3831.00    0.71964   0.73644    0.087
 3832.00    0.74870   0.72220    0.088
 3833.00    0.79912   0.70892    0.087
 3834.00    0.84313   0.69788    0.086
 3835.00    0.80737   0.69045    0.085
 3836.00    0.77598   0.68701    0.084
 3837.00    0.78151   0.68666    0.084
 3838.00    0.78225   0.69026    0.084
 3839.00    0.75281   0.69724    0.082
 3840.00    0.72056   0.70732    0.081
 3841.00    0.67449   0.72054    0.082
 3842.00    0.63823   0.73589    0.083
 3843.00    0.64126   0.75358    0.083
 3844.00    0.65621   0.77114    0.083
 3845.00    0.71076   0.78859    0.083
 3846.00    0.75797   0.80552    0.083
 3847.00    0.78459   0.82060    0.000
 3848.00    0.81488   0.83495    0.000
 3849.00    0.85398   0.84725    0.000
 3850.00    0.87745   0.85815    0.000
 3851.00    0.86848   0.86790    0.000
 3852.00    0.84195   0.87526    0.000
 3853.00    0.78375   0.88165    0.000
 3854.00    0.78093   0.88635    0.000
 3855.00    0.86544   0.88987    0.000
 3856.00    0.93223   0.89341    0.000
 3857.00    0.97447   0.89579    0.000
 3858.00    0.96749   0.89782    0.000
 3859.00    0.90054   0.89847    0.000
 3860.00    0.85812   0.89912    0.000
 3861.00    0.84203   0.89951    0.000
 3862.00    0.84685   0.89915    0.000
 3863.00    0.87149   0.89906    0.000
 3864.00    0.84126   0.89823    0.000
 3865.00    0.76519   0.89772    0.000
 3866.00    0.66414   0.89562    0.000
 3867.00    0.54474   0.89412    0.000
 3868.00    0.47092   0.89257    0.000
 3869.00    0.42655   0.88992    0.000
 3870.00    0.39293   0.88688    0.000
 3871.00    0.36538   0.88246    0.000
 3872.00    0.37366   0.87906    0.000
 3873.00    0.39958   0.87410    0.000
 3874.00    0.52963   0.86809    0.000
 3875.00    0.70395   0.86065    0.000
 3876.00    0.70860   0.85234    0.000
 3877.00    0.65144   0.84322    0.000
 3878.00    0.67618   0.83210    0.000
 3879.00    0.72617   0.82051    0.000
 3880.00    0.75791   0.80661    0.000
 3881.00    0.78496   0.79152    0.078
 3882.00    0.81888   0.77571    0.078
 3883.00    0.85424   0.75981    0.079
 3884.00    0.87393   0.74434    0.079
 3885.00    0.89104   0.72864    0.080
 3886.00    0.82674   0.71418    0.079
 3887.00    0.75236   0.70099    0.078
 3888.00    0.69618   0.69047    0.077
 3889.00    0.64156   0.68488    0.076
 3890.00    0.67002   0.68279    0.077
 3891.00    0.70262   0.68394    0.077
 3892.00    0.77343   0.68825    0.078
 3893.00    0.84415   0.69567    0.078
 3894.00    0.86834   0.70677    0.080
 3895.00    0.89005   0.72048    0.081
 3896.00    0.86109   0.73670    0.079
 3897.00    0.82864   0.75378    0.078
 3898.00    0.75511   0.77064    0.075
 3899.00    0.68525   0.78774    0.072
 3900.00    0.64527   0.80436    0.070
 3901.00    0.61107   0.82038    0.068
 3902.00    0.61214   0.83502    0.069
 3903.00    0.60918   0.84809    0.068
 3904.00    0.58683   0.85964    0.067
 3905.00    0.56475   0.86951    0.066
 3906.00    0.54375   0.87830    0.066
 3907.00    0.53637   0.88599    0.067
 3908.00    0.57336   0.89222    0.068
 3909.00    0.62615   0.89736    0.070
 3910.00    0.72251   0.90076    0.072
 3911.00    0.80641   0.90326    0.075
 3912.00    0.86086   0.90538    0.076
 3913.00    0.88345   0.90634    0.077
 3914.00    0.84101   0.90713    0.077
 3915.00    0.82380   0.90663    0.078
 3916.00    0.85139   0.90599    0.080
 3917.00    0.88571   0.90436    0.081
 3918.00    0.93047   0.90180    0.083
 3919.00    0.95709   0.90009    0.083
 3920.00    0.95896   0.89790    0.083
 3921.00    0.92251   0.89685    0.082
 3922.00    0.84001   0.89461    0.081
 3923.00    0.78558   0.89182    0.081
 3924.00    0.76086   0.89020    0.083
 3925.00    0.74940   0.88735    0.083
 3926.00    0.75032   0.88617    0.081
 3927.00    0.79794   0.88484    0.082
 3928.00    0.88401   0.88327    0.085
 3929.00    0.94281   0.88279    0.086
 3930.00    0.98184   0.88079    0.086
 3931.00    0.91841   0.88037    0.084
 3932.00    0.78977   0.87908    0.082
 3933.00    0.78506   0.87886    0.081
 3934.00    0.84931   0.88051    0.081
 3935.00    0.86130   0.88066    0.081
 3936.00    0.84801   0.88234    0.080
 3937.00    0.92957   0.88294    0.082
 3938.00    1.05079   0.88438    0.084
 3939.00    1.11279   0.88688    0.084
 3940.00    1.15361   0.88861    0.084
 3941.00    1.10100   0.89113    0.082
 3942.00    1.02016   0.89258    0.079
 3943.00    0.96418   0.89381    0.079
 3944.00    0.91446   0.89476    0.080
 3945.00    0.88399   0.89580    0.080
 3946.00    0.85746   0.89638    0.080
 3947.00    0.88529   0.89601    0.081
 3948.00    0.92183   0.89511    0.082
 3949.00    0.99109   0.89358    0.082
 3950.00    1.06426   0.89175    0.081
 3951.00    1.06871   0.88876    0.082
 3952.00    1.06756   0.88527    0.084
 3953.00    1.05544   0.88035    0.083
 3954.00    1.04282   0.87473    0.083
 3955.00    1.03628   0.86793    0.084
 3956.00    1.03044   0.85955    0.086
 3957.00    1.05718   0.85037    0.085
 3958.00    1.07907   0.83891    0.084
 3959.00    1.00933   0.82633    0.084
 3960.00    0.94366   0.81206    0.000
 3961.00    0.92392   0.79632    0.000
 3962.00    0.91530   0.78009    0.000
 3963.00    0.99415   0.76174    0.000
 3964.00    1.05054   0.74358    0.000
 3965.00    0.97364   0.72671    0.000
 3966.00    0.90648   0.70996    0.000
 3967.00    0.88508   0.69470    0.000
 3968.00    0.87405   0.68065    0.000
 3969.00    0.90281   0.66979    0.000
 3970.00    0.93288   0.66418    0.000
 3971.00    0.96717   0.66189    0.000
 3972.00    1.00568   0.66286    0.000
 3973.00    1.05566   0.66735    0.000
 3974.00    1.05637   0.67535    0.000
 3975.00    0.94272   0.68717    0.000
 3976.00    0.89151   0.70158    0.000
 3977.00    0.96574   0.71785    0.000
 3978.00    0.99126   0.73540    0.000
 3979.00    0.93158   0.75335    0.000
 3980.00    0.93818   0.77130    0.000
 3981.00    1.04626   0.78855    0.082
 3982.00    1.11595   0.80505    0.083
 3983.00    1.13403   0.82061    0.083
 3984.00    1.08959   0.83474    0.084
 3985.00    0.97111   0.84725    0.085
 3986.00    0.90583   0.85816    0.084
 3987.00    0.89611   0.86789    0.082
 3988.00    0.92310   0.87598    0.082
 3989.00    0.98389   0.88304    0.082
 3990.00    1.04023   0.88913    0.082
 3991.00    1.09296   0.89415    0.082
 3992.00    1.12315   0.89841    0.082
 3993.00    1.13723   0.90121    0.083
 3994.00    1.08297   0.90363    0.083
 3995.00    0.98587   0.90590    0.081
 3996.00    0.93626   0.90751    0.081
 3997.00    0.91268   0.90844    0.082
 3998.00    0.96059   0.90884    0.083
 3999.00    1.04256   0.90906    0.084
 4000.00    1.01764   0.90918    0.084
 4001.00    0.94877   0.90897    0.083
 4002.00    0.88158   0.90820    0.083
 4003.00    0.81497   0.90729    0.083
 4004.00    0.87811   0.90651    0.084
 4005.00    0.97969   0.90602    0.085
 4006.00    1.00465   0.90561    0.085
 4007.00    1.01080   0.90464    0.084
 4008.00    0.98447   0.90351    0.084
 4009.00    0.95168   0.90354    0.084
 4010.00    0.90339   0.90424    0.084
 4011.00    0.85269   0.90477    0.084
 4012.00    0.92415   0.90508    0.085
 4013.00    1.00966   0.90514    0.086
 4014.00    0.98366   0.90575    0.086
 4015.00    0.94903   0.90636    0.085
 4016.00    0.99374   0.90656    0.086
 4017.00    1.04178   0.90628    0.087
 4018.00    1.00000   0.90535    0.086
 4019.00    0.95977   0.90366    0.084
 4020.00    1.02338   0.90112    0.086
 4021.00    1.08850   0.89921    0.087
 4022.00    1.18023   0.89697    0.086
 4023.00    1.25136   0.89421    0.085
 4024.00    1.10087   0.89077    0.085
 4025.00    0.97310   0.88680    0.085
 4026.00    1.01776   0.88569    0.084
 4027.00    1.05636   0.88530    0.084
 4028.00    1.06006   0.88477    0.084
 4029.00    1.05984   0.88443    0.084
 4030.00    1.04168   0.88429    0.084
 4031.00    1.01452   0.88675    0.083
 4032.00    0.95365   0.88974    0.081
 4033.00    0.89830   0.89271    0.079
 4034.00    0.86029   0.89539    0.079
 4035.00    0.85536   0.89814    0.080
 4036.00    0.93840   0.90195    0.080
 4037.00    0.99123   0.90489    0.080
 4038.00    0.97505   0.90769    0.080
 4039.00    0.97097   0.90967    0.081
 4040.00    0.99081   0.91128    0.082
 4041.00    1.01228   0.91362    0.082
 4042.00    1.03652   0.91453    0.082
 4043.00    1.02136   0.91533    0.081
 4044.00    0.94676   0.91585    0.082
 4045.00    0.91149   0.91596    0.082
 4046.00    0.92835   0.91695    0.082
 4047.00    0.96588   0.91688    0.082
 4048.00    1.02754   0.91666    0.082
 4049.00    1.04274   0.91683    0.083
 4050.00    1.01012   0.91663    0.083
 4051.00    1.01398   0.91679    0.083
 4052.00    1.05095   0.91638    0.083
 4053.00    1.04130   0.91565    0.083
 4054.00    0.99432   0.91536    0.084
 4055.00    0.96753   0.91485    0.084
 4056.00    0.95497   0.91409    0.083
 4057.00    0.98423   0.91311    0.085
 4058.00    1.03934   0.91185    0.087
 4059.00    1.08032   0.91091    0.087
 4060.00    1.11368   0.90989    0.086
 4061.00    1.10900   0.90843    0.086
 4062.00    1.08649   0.90711    0.085
 4063.00    1.02670   0.90541    0.085
 4064.00    0.95183   0.90392    0.084
 4065.00    0.95069   0.90238    0.085
 4066.00    0.97495   0.90023    0.086
 4067.00    1.03363   0.89889    0.085
 4068.00    1.10230   0.89675    0.084
 4069.00    1.09336   0.89446    0.085
 4070.00    1.06577   0.89259    0.085
 4071.00    1.06934   0.89011    0.086
 4072.00    1.07896   0.88905    0.086
 4073.00    1.05199   0.88725    0.084
 4074.00    1.01951   0.88482    0.083
 4075.00    0.93769   0.88341    0.083
 4076.00    0.85040   0.88185    0.082
 4077.00    1.00644   0.88124    0.083
 4078.00    1.18030   0.88016    0.084
 4079.00    1.08670   0.87837    0.082
 4080.00    0.98287   0.87722    0.081
 4081.00    1.02890   0.87579    0.083
 4082.00    1.07388   0.87424    0.084
 4083.00    1.04855   0.87175    0.083
 4084.00    1.02030   0.86865    0.082
 4085.00    0.94383   0.86527    0.081
 4086.00    0.87286   0.86046    0.081
 4087.00    0.85845   0.85481    0.081
 4088.00    0.86274   0.84761    0.081
 4089.00    1.00426   0.83939    0.083
 4090.00    1.12510   0.83011    0.084
 4091.00    1.12984   0.81864    0.083
 4092.00    1.13775   0.80640    0.000
 4093.00    1.15982   0.79297    0.000
 4094.00    1.18263   0.77841    0.000
 4095.00    1.20817   0.76281    0.000
 4096.00    1.19344   0.74683    0.000
 4097.00    1.05484   0.73225    0.000
 4098.00    0.96519   0.71848    0.000
 4099.00    1.00345   0.70546    0.000
 4100.00    1.04978   0.69333    0.000
 4101.00    1.11421   0.68430    0.000
 4102.00    1.12915   0.68017    0.000
 4103.00    1.04778   0.67856    0.000
 4104.00    0.98250   0.67918    0.000
 4105.00    0.94452   0.68228    0.000
 4106.00    0.94878   0.68885    0.000
 4107.00    1.01583   0.70001    0.000
 4108.00    1.06431   0.71247    0.000
 4109.00    1.08850   0.72516    0.000
 4110.00    1.15167   0.73892    0.000
 4111.00    1.25970   0.75347    0.000
 4112.00    1.25927   0.76869    0.000
 4113.00    1.14873   0.78295    0.083
 4114.00    1.09781   0.79519    0.083
 4115.00    1.10027   0.80666    0.082
 4116.00    1.02105   0.81792    0.082
 4117.00    0.87739   0.82758    0.081
 4118.00    0.85401   0.83563    0.082
 4119.00    0.91409   0.84198    0.082
 4120.00    0.98499   0.84751    0.083
 4121.00    1.06247   0.85360    0.084
 4122.00    1.10786   0.85808    0.084
 4123.00    1.13620   0.86176    0.085
 4124.00    1.06511   0.86460    0.083
 4125.00    0.94818   0.86706    0.082
 4126.00    0.97798   0.87029    0.082
 4127.00    1.06606   0.87225    0.084
 4128.00    1.09254   0.87469    0.084
 4129.00    1.09819   0.87643    0.083
 4130.00    1.02907   0.87752    0.082
 4131.00    0.93868   0.87928    0.080
 4132.00    0.91409   0.87998    0.080
 4133.00    0.90495   0.88175    0.081
 4134.00    0.92567   0.88298    0.082
 4135.00    0.95203   0.88315    0.082
 4136.00    1.00116   0.88378    0.083
 4137.00    1.05362   0.88351    0.083
 4138.00    1.05425   0.88371    0.083
 4139.00    1.04938   0.88417    0.082
 4140.00    1.08065   0.88386    0.082
 4141.00    1.11442   0.88336    0.082
 4142.00    0.99716   0.88196    0.081
 4143.00    0.87470   0.88121    0.080
 4144.00    0.96216   0.88210    0.082
 4145.00    1.04821   0.88266    0.083
 4146.00    1.07413   0.88275    0.082
 4147.00    1.09808   0.88231    0.082
 4148.00    1.09143   0.88272    0.081
 4149.00    1.08426   0.88502    0.081
 4150.00    1.07190   0.88720    0.082
 4151.00    1.05801   0.88870    0.082
 4152.00    1.03335   0.88983    0.081
 4153.00    1.00383   0.89164    0.080
 4154.00    0.94776   0.89396    0.081
 4155.00    0.88690   0.89592    0.081
 4156.00    0.80512   0.89765    0.079
 4157.00    0.76266   0.89868    0.077
 4158.00    0.86166   0.90012    0.077
 4159.00    0.96175   0.90151    0.077
 4160.00    1.06511   0.90198    0.078
 4161.00    1.11462   0.90266    0.079
 4162.00    1.02587   0.90276    0.079
 4163.00    0.95056   0.90270    0.078
 4164.00    0.90491   0.90282    0.078
 4165.00    0.89238   0.90222    0.078
 4166.00    0.94330   0.90177    0.079
 4167.00    1.00530   0.90077    0.079
 4168.00    1.08582   0.89966    0.081
 4169.00    1.06527   0.89959    0.081
 4170.00    0.89665   0.89879    0.080
 4171.00    0.80851   0.89791    0.079
 4172.00    0.82403   0.89709    0.079
 4173.00    0.86873   0.89630    0.079
 4174.00    0.94654   0.89698    0.082
 4175.00    0.96417   0.89688    0.083
 4176.00    0.92159   0.89640    0.082
 4177.00    0.89546   0.89675    0.082
 4178.00    0.88384   0.89689    0.081
 4179.00    0.91139   0.89802    0.081
 4180.00    0.96942   0.89869    0.081
 4181.00    0.96043   0.89863    0.081
 4182.00    0.90562   0.89969    0.081
 4183.00    0.90993   0.90009    0.082
 4184.00    0.94968   0.90071    0.083
 4185.00    0.97561   0.90160    0.083
 4186.00    0.99431   0.90143    0.082
 4187.00    1.00560   0.90241    0.082
 4188.00    1.01352   0.90264    0.082
 4189.00    1.01375   0.90235    0.082
 4190.00    1.01098   0.90320    0.081
 4191.00    0.97423   0.90308    0.081
 4192.00    0.92620   0.90348    0.081
 4193.00    0.92845   0.90362    0.081
 4194.00    0.94471   0.90291    0.081
 4195.00    0.90823   0.90341    0.082
 4196.00    0.85965   0.90339    0.082
 4197.00    0.89201   0.90330    0.082
 4198.00    0.93926   0.90335    0.082
 4199.00    0.98275   0.90287    0.081
 4200.00    1.02571   0.90319    0.080
 4201.00    1.06622   0.90331    0.080
 4202.00    1.10649   0.90353    0.079
 4203.00    1.08061   0.90391    0.080
 4204.00    1.05043   0.90394    0.080
 4205.00    0.96946   0.90469    0.079
 4206.00    0.88708   0.90513    0.079
 4207.00    0.89921   0.90575    0.078
 4208.00    0.91329   0.90645    0.076
 4209.00    0.98449   0.90642    0.078
 4210.00    1.04661   0.90700    0.079
 4211.00    0.97667   0.90736    0.078
 4212.00    0.91734   0.90739    0.077
 4213.00    0.95838   0.90747    0.078
 4214.00    0.98823   0.90676    0.079
 4215.00    0.94108   0.90630    0.078
 4216.00    0.90615   0.90598    0.078
 4217.00    0.93612   0.90509    0.077
 4218.00    0.96643   0.90404    0.077
 4219.00    0.99816   0.90272    0.076
 4220.00    1.01004   0.90152    0.076
 4221.00    0.95200   0.90012    0.076
 4222.00    0.89830   0.89883    0.076
 4223.00    0.85741   0.89748    0.076
 4224.00    0.82395   0.89590    0.075
 4225.00    0.80924   0.89492    0.074
 4226.00    0.80708   0.89338    0.073
 4227.00    0.83220   0.89239    0.073
 4228.00    0.85311   0.89220    0.072
 4229.00    0.86607   0.89135    0.072
 4230.00    0.89110   0.89113    0.072
 4231.00    0.93600   0.89097    0.072
 4232.00    0.92929   0.89051    0.072
 4233.00    0.84807   0.89138    0.071
 4234.00    0.80169   0.89213    0.071
 4235.00    0.79956   0.89224    0.071
 4236.00    0.84337   0.89294    0.071
 4237.00    0.93858   0.89345    0.071
 4238.00    0.99507   0.89436    0.071
 4239.00    1.01333   0.89563    0.072
 4240.00    0.99485   0.89578    0.072
 4241.00    0.94437   0.89605    0.072
 4242.00    0.88391   0.89714    0.072
 4243.00    0.81579   0.89792    0.072
 4244.00    0.85309   0.89805    0.072
 4245.00    0.96145   0.89776    0.074
 4246.00    1.04954   0.89762    0.076
 4247.00    1.12567   0.89784    0.078
 4248.00    1.11234   0.89793    0.078
 4249.00    1.05296   0.89689    0.079
 4250.00    1.05856   0.89601    0.079
 4251.00    1.09314   0.89623    0.080
 4252.00    1.07913   0.89509    0.081
 4253.00    1.04648   0.89405    0.081
 4254.00    0.99679   0.89381    0.080
 4255.00    0.94154   0.89321    0.078
 4256.00    0.99513   0.89349    0.078
 4257.00    1.07842   0.89234    0.078
 4258.00    1.02397   0.89088    0.078
 4259.00    0.93866   0.89162    0.078
 4260.00    0.94979   0.89108    0.079
 4261.00    0.97817   0.89025    0.081
 4262.00    1.05280   0.88983    0.082
 4263.00    1.13376   0.88840    0.083
 4264.00    1.09828   0.88871    0.081
 4265.00    1.05142   0.88742    0.078
 4266.00    0.91770   0.88445    0.078
 4267.00    0.77866   0.88471    0.078
 4268.00    0.80601   0.88428    0.078
 4269.00    0.83784   0.88324    0.079
 4270.00    0.86923   0.88232    0.078
 4271.00    0.90101   0.87997    0.078
 4272.00    0.94299   0.88057    0.078
 4273.00    0.97996   0.88112    0.079
 4274.00    0.94790   0.87969    0.079
 4275.00    0.92310   0.87998    0.078
 4276.00    0.96425   0.88016    0.081
 4277.00    0.97894   0.88089    0.082
 4278.00    0.81738   0.88176    0.081
 4279.00    0.71177   0.88105    0.079
 4280.00    0.89574   0.88170    0.080
 4281.00    1.05495   0.88251    0.081
 4282.00    1.11075   0.88260   -2.000
 4283.00    1.14794   0.88329   -2.000
 4284.00    1.12089   0.88310   -2.000
 4285.00    1.08368   0.88301   -2.000
 4286.00    1.01697   0.88358   -2.000
 4287.00    0.95573   0.88310   -2.000
 4288.00    0.90809   0.88269   -2.000
 4289.00    0.85293   0.88262   -2.000
 4290.00    0.78166   0.88196   -2.000
 4291.00    0.74738   0.88221   -2.000
 4292.00    0.78179   0.88225   -2.000
 4293.00    0.84188   0.88070   -2.000
 4294.00    0.94365   0.88017   -2.000
 4295.00    1.01190   0.87990   -2.000
 4296.00    1.03246   0.87903   -2.000
 4297.00    1.00219   0.87878   -2.000
 4298.00    0.90831   0.87720    0.077
 4299.00    0.83465   0.87578    0.077
 4300.00    0.78330   0.87585    0.076
 4301.00    0.80847   0.87449    0.075
 4302.00    0.90809   0.87291    0.075
 4303.00    0.95310   0.87233    0.075
 4304.00    0.95124   0.87147    0.075
 4305.00    0.94657   0.87116    0.075
 4306.00    0.93976   0.87052    0.076
 4307.00    0.90857   0.86947    0.076
 4308.00    0.86118   0.86972    0.076
 4309.00    0.84629   0.87019    0.075
 4310.00    0.85032   0.87015    0.074
 4311.00    0.87132   0.87038    0.074
 4312.00    0.90092   0.87073    0.074
 4313.00    0.95032   0.87099    0.074
 4314.00    1.00840   0.87154    0.073
 4315.00    1.02087   0.87189    0.073
 4316.00    1.01617   0.87152    0.074
 4317.00    0.99783   0.87141    0.073
 4318.00    0.97513   0.87100    0.073
 4319.00    1.00212   0.86979    0.073
 4320.00    1.04238   0.86867    0.074
 4321.00    1.02386   0.86637    0.075
 4322.00    0.99247   0.86365    0.075
 4323.00    0.92931   0.86092    0.075
 4324.00    0.86063   0.85615    0.075
 4325.00    0.84499   0.85102    0.074
 4326.00    0.83637   0.84590    0.073
 4327.00    0.84207   0.83901    0.073
 4328.00    0.84911   0.83111    0.073
 4329.00    0.94157   0.82210    0.074
 4330.00    1.03890   0.81183    0.000
 4331.00    1.01442   0.80100    0.000
 4332.00    0.98685   0.78919    0.000
 4333.00    0.93135   0.77651    0.000
 4334.00    0.87904   0.76417    0.000
 4335.00    0.90372   0.75142    0.000
 4336.00    0.92755   0.73774    0.000
 4337.00    0.94041   0.72601    0.000
 4338.00    0.95035   0.71584    0.000
 4339.00    0.93467   0.70566    0.000
 4340.00    0.91998   0.69897    0.000
 4341.00    0.91166   0.69535    0.000
 4342.00    0.91013   0.69321    0.000
 4343.00    0.94278   0.69411    0.000
 4344.00    0.95082   0.69687    0.000
 4345.00    0.85841   0.70264    0.000
 4346.00    0.80075   0.71189    0.000
 4347.00    0.86070   0.72114    0.000
 4348.00    0.89352   0.73260    0.000
 4349.00    0.84895   0.74649    0.000
 4350.00    0.80914   0.75926    0.000
 4351.00    0.78095   0.77268    0.075
 4352.00    0.77656   0.78660    0.075
 4353.00    0.82223   0.79963    0.077
 4354.00    0.84114   0.81252    0.077
 4355.00    0.81113   0.82397    0.077
 4356.00    0.81758   0.83489    0.076
 4357.00    0.88227   0.84504    0.076
 4358.00    0.95411   0.85333    0.077
 4359.00    1.03599   0.86128    0.078
 4360.00    1.03472   0.86814    0.078
 4361.00    0.93087   0.87428    0.078
 4362.00    0.89319   0.87934    0.077
 4363.00    0.92746   0.88283    0.078
 4364.00    0.96381   0.88691    0.077
 4365.00    1.00215   0.88941    0.077
 4366.00    0.97914   0.89093    0.078
 4367.00    0.90424   0.89314    0.079
 4368.00    0.85740   0.89392    0.079
 4369.00    0.83148   0.89508    0.078
 4370.00    0.80320   0.89572    0.077
 4371.00    0.77339   0.89502    0.077
 4372.00    0.76544   0.89572    0.077
 4373.00    0.77000   0.89556    0.077
 4374.00    0.78467   0.89458    0.077
 4375.00    0.80439   0.89423    0.077
 4376.00    0.82537   0.89354    0.077
 4377.00    0.84690   0.89318    0.078
 4378.00    0.87295   0.89173    0.079
 4379.00    0.90068   0.88991    0.079
 4380.00    0.90043   0.88923    0.080
 4381.00    0.89140   0.88772    0.080
 4382.00    0.87240   0.88621    0.078
 4383.00    0.85079   0.88420    0.077
 4384.00    0.84239   0.88263    0.076
 4385.00    0.83682   0.88329    0.076
 4386.00    0.93108   0.88134    0.077
 4387.00    1.04223   0.87961    0.079
 4388.00    1.00732   0.88142    0.078
 4389.00    0.95375   0.88152    0.077
 4390.00    0.86907   0.88208    0.075
 4391.00    0.78162   0.88339    0.073
 4392.00    0.83270   0.88439    0.075
 4393.00    0.89117   0.88805    0.076
 4394.00    0.91193   0.88947    0.075
 4395.00    0.93190   0.89025    0.075
 4396.00    0.94769   0.89431    0.075
 4397.00    0.95944   0.89649    0.076
 4398.00    0.88250   0.89800    0.076
 4399.00    0.81571   0.89983    0.076
 4400.00    0.87446   0.90093    0.077
 4401.00    0.92748   0.90301    0.078
 4402.00    0.93236   0.90341    0.077
 4403.00    0.93914   0.90329    0.077
 4404.00    0.95777   0.90432    0.077
 4405.00    0.96878   0.90440    0.077
 4406.00    0.94234   0.90466    0.077
 4407.00    0.92372   0.90397    0.078
 4408.00    0.93634   0.90335    0.078
 4409.00    0.95441   0.90445    0.078
 4410.00    0.99053   0.90328    0.075
 4411.00    1.01052   0.90247    0.074
 4412.00    0.98528   0.90339    0.075
 4413.00    0.97081   0.90237    0.075
 4414.00    0.98215   0.90274    0.074
 4415.00    0.98351   0.90317    0.074
 4416.00    0.96425   0.90251    0.074
 4417.00    0.94329   0.90444    0.075
 4418.00    0.91930   0.90444    0.074
 4419.00    0.92853   0.90415    0.074
 4420.00    0.99006   0.90669    0.074
 4421.00    1.04088   0.90628    0.074
 4422.00    1.07689   0.90647    0.073
 4423.00    1.06541   0.90835    0.072
 4424.00    0.99617   0.90817    0.073
 4425.00    0.92165   0.90932    0.073
 4426.00    0.84148   0.90970    0.074
 4427.00    0.81161   0.90931    0.074
 4428.00    0.82933   0.91068    0.073
 4429.00    0.87990   0.90983    0.073
 4430.00    0.95789   0.90922    0.074
 4431.00    0.98286   0.91009    0.075
 4432.00    0.96891   0.90942    0.074
 4433.00    0.98444   0.90921    0.074
 4434.00    1.01897   0.90904    0.073
 4435.00    0.99427   0.90889    0.073
 4436.00    0.93615   0.90946    0.074
 4437.00    0.90802   0.90908    0.075
 4438.00    0.89459   0.90927    0.075
 4439.00    0.94339   0.91004    0.075
 4440.00    1.01859   0.91007    0.076
 4441.00    0.98496   0.91057    0.074
 4442.00    0.91179   0.91094    0.071
 4443.00    0.89805   0.91123    0.071
 4444.00    0.90259   0.91230    0.072
 4445.00    0.93983   0.91271    0.073
 4446.00    0.98544   0.91284    0.074
 4447.00    0.96092   0.91366    0.073
 4448.00    0.92179   0.91369    0.073
 4449.00    0.96378   0.91360    0.072
 4450.00    1.01910   0.91386    0.072
 4451.00    0.98340   0.91329    0.073
 4452.00    0.93648   0.91364    0.074
 4453.00    0.92692   0.91364    0.073
 4454.00    0.92053   0.91209    0.071
 4455.00    0.95300   0.91188    0.072
 4456.00    0.98738   0.91156    0.073
 4457.00    0.96328   0.91008    0.072
 4458.00    0.93875   0.90913    0.071
 4459.00    0.94585   0.90781    0.071
 4460.00    0.95184   0.90646    0.070
 4461.00    0.93528   0.90501    0.000
 4462.00    0.91811   0.90308    0.000
 4463.00    0.89366   0.90167    0.000
 4464.00    0.87625   0.89964    0.000
 4465.00    0.91591   0.89773    0.000
 4466.00    0.95601   0.89639    0.000
 4467.00    0.99881   0.89362    0.000
 4468.00    1.01626   0.89208    0.000
 4469.00    0.91213   0.89193    0.000
 4470.00    0.83334   0.88973    0.000
 4471.00    0.85351   0.88913    0.000
 4472.00    0.88326   0.89025    0.000
 4473.00    0.94416   0.88989    0.000
 4474.00    0.99168   0.89068    0.000
 4475.00    1.00241   0.89207    0.000
 4476.00    0.98941   0.89296    0.000
 4477.00    0.92053   0.89500    0.000
 4478.00    0.89210   0.89672    0.000
 4479.00    0.94607   0.89843    0.000
 4480.00    0.99065   0.90131    0.000
 4481.00    1.01858   0.90400    0.000
 4482.00    1.02432   0.90620    0.070
 4483.00    0.99567   0.90863    0.070
 4484.00    0.95979   0.91102    0.070
 4485.00    0.91406   0.91276    0.069
 4486.00    0.85841   0.91501    0.069
 4487.00    0.79086   0.91696    0.069
 4488.00    0.76473   0.91784    0.069
 4489.00    0.78240   0.92001    0.070
 4490.00    0.81413   0.92220    0.070
 4491.00    0.85897   0.92318    0.070
 4492.00    0.92274   0.92481    0.070
 4493.00    1.00206   0.92629    0.071
 4494.00    1.07540   0.92746    0.071
 4495.00    1.14442   0.92879    0.072
 4496.00    1.12658   0.92982    0.072
 4497.00    1.05358   0.93104    0.072
 4498.00    0.99639   0.93240    0.071
 4499.00    0.94799   0.93368    0.070
 4500.00    0.92776   0.93474    0.071
 4501.00    0.92115   0.93567    0.072
 4502.00    0.91437   0.93693    0.072
 4503.00    0.90754   0.93775    0.071
 4504.00    0.98457   0.93824    0.071
 4505.00    1.09153   0.93892    0.070
 4506.00    1.04366   0.93938    0.070
 4507.00    0.94910   0.93956    0.071
 4508.00    0.94690   0.93920    0.071
 4509.00    0.96782   0.93922    0.070
 4510.00    1.00900   0.93921    0.070
 4511.00    1.05430   0.93811    0.071
 4512.00    0.94932   0.93769    0.070
 4513.00    0.82036   0.93720    0.070
 4514.00    0.88092   0.93591    0.070
 4515.00    0.96401   0.93526    0.070
 4516.00    0.93258   0.93428    0.070
 4517.00    0.89190   0.93342    0.071
 4518.00    0.92658   0.93241    0.070
 4519.00    0.96469   0.93075    0.070
 4520.00    0.95424   0.93028    0.070
 4521.00    0.94301   0.92901    0.070
 4522.00    0.92268   0.92712    0.070
 4523.00    0.90394   0.92660    0.069
 4524.00    0.91499   0.92508    0.069
 4525.00    0.92637   0.92354    0.069
 4526.00    0.94137   0.92280    0.069
 4527.00    0.96069   0.92143    0.070
 4528.00    1.01368   0.92088    0.070
 4529.00    1.05704   0.92009    0.071
 4530.00    1.04339   0.91908    0.071
 4531.00    1.02808   0.91942    0.071
 4532.00    1.00506   0.91932    0.071
 4533.00    0.98100   0.91939    0.071
 4534.00    0.95293   0.92009    0.072
 4535.00    0.92771   0.92068    0.073
 4536.00    0.91155   0.92184    0.073
 4537.00    0.90725   0.92251    0.072
 4538.00    0.93504   0.92348    0.072
 4539.00    0.95802   0.92513    0.072
 4540.00    0.96986   0.92551    0.072
 4541.00    0.96371   0.92637    0.071
 4542.00    0.92151   0.92747    0.072
 4543.00    0.90320   0.92774    0.072
 4544.00    0.92660   0.92853    0.071
 4545.00    0.93450   0.92784    0.072
 4546.00    0.91873   0.92796    0.072
 4547.00    0.92643   0.92938    0.073
 4548.00    0.96566   0.92735    0.072
 4549.00    0.97361   0.92710    0.072
 4550.00    0.94460   0.92886    0.000
 4551.00    0.94788   0.92681    0.000
 4552.00    0.98483   0.92696    0.000
 4553.00    1.02729   0.92874    0.000
 4554.00    1.07482   0.92772    0.000
 4555.00    1.03906   0.92884    0.000
 4556.00    0.93579   0.92995    0.000
 4557.00    0.91955   0.93005    0.000
 4558.00    0.96540   0.93248    0.000
 4559.00    0.99367   0.93289    0.000
 4560.00    1.01095   0.93333    0.000
 4561.00    1.02767   0.93626    0.000
 4562.00    1.04409   0.93676    0.000
 4563.00    0.97434   0.93730    0.000
 4564.00    0.86362   0.93925    0.000
 4565.00    0.85405   0.93991    0.000
 4566.00    0.88597   0.94090    0.000
 4567.00    0.96484   0.94137    0.000
 4568.00    1.06016   0.94164    0.000
 4569.00    1.07861   0.94302    0.000
 4570.00    1.07433   0.94261    0.000
 4571.00    1.01416   0.94227    0.000
 4572.00    0.94029   0.94346    0.000
 4573.00    0.94019   0.94290    0.000
 4574.00    0.95472   0.94251    0.000
 4575.00    0.94526   0.94280    0.000
 4576.00    0.93210   0.94207    0.000
 4577.00    0.91847   0.94214    0.000
 4578.00    0.90478   0.94184    0.000
 4579.00    0.88366   0.94070    0.000
 4580.00    0.86197   0.94089    0.000
 4581.00    0.90207   0.94037    0.000
 4582.00    0.94474   0.93910    0.000
 4583.00    0.89556   0.93913    0.000
 4584.00    0.84829   0.93862    0.000
 4585.00    0.91752   0.93772    0.000
 4586.00    0.98024   0.93738    0.000
 4587.00    0.92911   0.93655    0.000
 4588.00    0.88614   0.93617    0.000
 4589.00    0.93038   0.93588    0.000
 4590.00    0.96766   0.93504    0.000
 4591.00    0.95241   0.93468    0.000
 4592.00    0.93501   0.93454    0.000
 4593.00    0.90529   0.93426    0.000
 4594.00    0.88287   0.93394    0.000
 4595.00    0.89389   0.93392    0.000
 4596.00    0.89567   0.93433    0.000
 4597.00    0.86291   0.93398    0.000
 4598.00    0.84391   0.93416    0.000
 4599.00    0.86795   0.93525    0.000
 4600.00    0.89295   0.93528    0.000
 4601.00    0.92048   0.93588    0.000
 4602.00    0.96369   0.93703    0.000
 4603.00    1.04263   0.93735    0.000
 4604.00    1.09654   0.93889    0.000
 4605.00    1.10110   0.94013    0.000
 4606.00    1.06521   0.94026    0.000
 4607.00    0.95977   0.94236    0.000
 4608.00    0.89192   0.94379    0.000
 4609.00    0.88067   0.94357    0.000
 4610.00    0.87719   0.94577    0.000
 4611.00    0.88399   0.94716    0.000
 4612.00    0.93072   0.94659    0.000
 4613.00    1.02398   0.94874    0.000
 4614.00    1.06217   0.94969    0.000
 4615.00    1.04377   0.94859    0.000
 4616.00    1.00765   0.95041    0.000
 4617.00    0.95545   0.95093    0.000
 4618.00    0.96149   0.94980    0.000
 4619.00    1.01406   0.95119    0.000
 4620.00    1.03255   0.95095    0.000
 4621.00    1.02709   0.94996    0.000
 4622.00    0.96931   0.95073    0.000
 4623.00    0.87927   0.94972    0.000
 4624.00    0.86992   0.94911    0.000
 4625.00    0.90403   0.94922    0.000
 4626.00    0.94909   0.94737    0.000
 4627.00    0.99928   0.94699    0.000
 4628.00    0.97257   0.94677    0.000
 4629.00    0.91486   0.94446    0.000
 4630.00    0.92393   0.94366    0.000
 4631.00    0.95597   0.94278    0.000
 4632.00    0.95011   0.94072    0.000
 4633.00    0.93327   0.93963    0.000
 4634.00    0.97916   0.93795    0.000
 4635.00    1.04008   0.93609    0.000
 4636.00    0.98777   0.93482    0.000
 4637.00    0.91358   0.93283    0.000
 4638.00    0.90006   0.93131    0.000
 4639.00    0.89565   0.92991    0.000
 4640.00    0.87225   0.92808    0.000
 4641.00    0.84676   0.92704    0.000
 4642.00    0.93544   0.92568    0.000
 4643.00    1.03242   0.92422    0.000
 4644.00    0.94815   0.92362    0.000
 4645.00    0.85703   0.92289    0.000
 4646.00    0.92099   0.92237    0.000
 4647.00    0.98062   0.92223    0.000
 4648.00    0.85082   0.92235    0.000
 4649.00    0.73568   0.92311    0.000
 4650.00    0.86029   0.92349    0.000
 4651.00    0.97289   0.92441    0.000
 4652.00    0.96263   0.92602    0.000
 4653.00    0.95305   0.92702    0.000
 4654.00    0.94848   0.92868    0.000
 4655.00    0.94584   0.93074    0.000
 4656.00    0.95396   0.93202    0.000
 4657.00    0.95853   0.93364    0.000
 4658.00    0.94733   0.93533    0.000
 4659.00    0.94870   0.93639    0.000
 4660.00    0.99611   0.93750    0.000
 4661.00    1.00083   0.93856    0.000
 4662.00    0.87452   0.93903    0.000
 4663.00    0.80010   0.93921    0.000
 4664.00    0.86102   0.93956    0.000
 4665.00    0.90480   0.93948    0.000
 4666.00    0.91015   0.93906    0.000
 4667.00    0.91534   0.93907    0.000
 4668.00    0.92023   0.93857    0.000
 4669.00    0.91797   0.93779    0.000
 4670.00    0.90362   0.93788    0.000
 4671.00    0.91875   0.93743    0.000
 4672.00    0.97766   0.93686    0.000
 4673.00    0.98373   0.93728    0.000
 4674.00    0.92090   0.93706    0.000
 4675.00    0.87383   0.93678    0.000
 4676.00    0.84485   0.93758    0.000
 4677.00    0.87513   0.93768    0.000
 4678.00    0.96546   0.93767    0.000
 4679.00    0.97582   0.93878    0.000
 4680.00    0.91469   0.93912    0.000
 4681.00    0.90605   0.93921    0.000
 4682.00    0.93877   0.94048    0.000
 4683.00    0.92176   0.94094    0.000
 4684.00    0.87029   0.94106    0.000
 4685.00    0.83561   0.94239    0.000
 4686.00    0.81111   0.94283    0.000
 4687.00    0.81560   0.94291    0.000
 4688.00    0.83547   0.94409    0.000
 4689.00    0.89795   0.94436    0.000
 4690.00    0.98004   0.94455    0.000
 4691.00    0.91801   0.94534    0.000
 4692.00    0.79888   0.94512    0.000
 4693.00    0.80891   0.94545    0.000
 4694.00    0.86255   0.94577    0.000
 4695.00    0.86326   0.94490    0.000
 4696.00    0.84895   0.94521    0.000
 4697.00    0.85455   0.94516    0.000
 4698.00    0.86481   0.94396    0.000
 4699.00    0.90026   0.94401    0.000
 4700.00    0.94044   0.94352    0.000
 4701.00    0.94794   0.94253    0.000
 4702.00    0.95070   0.94229    0.000
 4703.00    0.91770   0.94137    0.000
 4704.00    0.88091   0.94113    0.000
 4705.00    0.86879   0.94081    0.000
 4706.00    0.85836   0.93940    0.000
 4707.00    0.84950   0.94014    0.000
 4708.00    0.84069   0.94017    0.000
 4709.00    0.89989   0.93857    0.000
 4710.00    0.95549   0.94012    0.000
 4711.00    0.89043   0.94075    0.000
 4712.00    0.83257   0.93957    0.000
 4713.00    0.88512   0.94170    0.000
 4714.00    0.93008   0.94277    0.000
 4715.00    0.90061   0.94236    0.000
 4716.00    0.87406   0.94478    0.000
 4717.00    0.86815   0.94606    0.000
 4718.00    0.86974   0.94642    0.000
 4719.00    0.91210   0.94883    0.000
 4720.00    0.92918   0.94981    0.000
 4721.00    0.83611   0.95045    0.000
 4722.00    0.78845   0.95259    0.000
 4723.00    0.90374   0.95302    0.000
 4724.00    0.97666   0.95339    0.000
 4725.00    0.92204   0.95507    0.000
 4726.00    0.88088   0.95496    0.000
 4727.00    0.87425   0.95484    0.000
 4728.00    0.87278   0.95613    0.000
 4729.00    0.88268   0.95567    0.000
 4730.00    0.89136   0.95517    0.000
 4731.00    0.89771   0.95633    0.000
 4732.00    0.87739   0.95589    0.000
 4733.00    0.81262   0.95544    0.000
 4734.00    0.78592   0.95660    0.000
 4735.00    0.81490   0.95630    0.000
 4736.00    0.86439   0.95632    0.000
 4737.00    0.94025   0.95764    0.000
 4738.00    0.96226   0.95738    0.000
 4739.00    0.92327   0.95792    0.000
 4740.00    0.90480   0.95935    0.000
 4741.00    0.90685   0.95908    0.000
 4742.00    0.91907   0.95994    0.000
 4743.00    0.94024   0.96129    0.000
 4744.00    0.91076   0.96096    0.000
 4745.00    0.84198   0.96183    0.000
 4746.00    0.86669   0.96286    0.000
 4747.00    0.95522   0.96241    0.000
 4748.00    0.98420   0.96301    0.000
 4749.00    0.97753   0.96349    0.000
 4750.00    0.94918   0.96285    0.000
 4751.00    0.90950   0.96290    0.000
 4752.00    0.85735   0.96263    0.000
 4753.00    0.79957   0.96173    0.000
 4754.00    0.81159   0.96115    0.000
 4755.00    0.85079   0.96007    0.000
 4756.00    0.86698   0.95884    0.000
 4757.00    0.87555   0.95772    0.000
 4758.00    0.87693   0.95602    0.000
 4759.00    0.87631   0.95455    0.000
 4760.00    0.89764   0.95317    0.000
 4761.00    0.92400   0.95121    0.065
 4762.00    0.91436   0.94974    0.064
 4763.00    0.89813   0.94844    0.063
 4764.00    0.85760   0.94667    0.063
 4765.00    0.81365   0.94552    0.064
 4766.00    0.83667   0.94458    0.064
 4767.00    0.86649   0.94339    0.063
 4768.00    0.91697   0.94280    0.062
 4769.00    0.96879   0.94231    0.061
 4770.00    0.94802   0.94178    0.063
 4771.00    0.92510   0.94177    0.064
 4772.00    0.92949   0.94165    0.064
 4773.00    0.93409   0.94155    0.064
 4774.00    0.94471   0.94191    0.064
 4775.00    0.95541   0.94201    0.063
 4776.00    0.96732   0.94200    0.063
 4777.00    0.97360   0.94247    0.062
 4778.00    0.92691   0.94263    0.063
 4779.00    0.88003   0.94246    0.063
 4780.00    0.83179   0.94291    0.062
 4781.00    0.79219   0.94315    0.061
 4782.00    0.79841   0.94280    0.062
 4783.00    0.80497   0.94328    0.062
 4784.00    0.81298   0.94373    0.061
 4785.00    0.82251   0.94339    0.060
 4786.00    0.83739   0.94403    0.061
 4787.00    0.84513   0.94476    0.061
 4788.00    0.83173   0.94465    0.062
 4789.00    0.82272   0.94549    0.062
 4790.00    0.82479   0.94644    0.061
 4791.00    0.83329   0.94667    0.061
 4792.00    0.85577   0.94754    0.062
 4793.00    0.87678   0.94850    0.062
 4794.00    0.89503   0.94891    0.062
 4795.00    0.91765   0.94952    0.062
 4796.00    0.94745   0.95020    0.062
 4797.00    0.93151   0.95056    0.062
 4798.00    0.84965   0.95065    0.062
 4799.00    0.79165   0.95085    0.061
 4800.00    0.76391   0.95094    0.061
 4801.00    0.77552   0.95045    0.062
 4802.00    0.83107   0.95019    0.062
 4803.00    0.89004   0.94994    0.062
 4804.00    0.95238   0.94908    0.062
 4805.00    0.96798   0.94853    0.062
 4806.00    0.94297   0.94805    0.061
 4807.00    0.92057   0.94712    0.060
 4808.00    0.90017   0.94657    0.061
 4809.00    0.87191   0.94604    0.061
 4810.00    0.83836   0.94531    0.061
 4811.00    0.82176   0.94498    0.060
 4812.00    0.81514   0.94454    0.060
 4813.00    0.85783   0.94410    0.061
 4814.00    0.92586   0.94407    0.061
 4815.00    0.94233   0.94376    0.062
 4816.00    0.93584   0.94345    0.063
 4817.00    0.92243   0.94367    0.063
 4818.00    0.90637   0.94345    0.064
 4819.00    0.94665   0.94302    0.063
 4820.00    1.00525   0.94338    0.062
 4821.00    1.00928   0.94315    0.061
 4822.00    0.99846   0.94243    0.062
 4823.00    0.95841   0.94280    0.062
 4824.00    0.91182   0.94252    0.062
 4825.00    0.87116   0.94148    0.062
 4826.00    0.83155   0.94180    0.062
 4827.00    0.83439   0.94144    0.062
 4828.00    0.84302   0.94019    0.061
 4829.00    0.84080   0.94039    0.061
 4830.00    0.83752   0.93993    0.062
 4831.00    0.82543   0.93856    0.062
 4832.00    0.81280   0.93848    0.062
 4833.00    0.86541   0.93778    0.062
 4834.00    0.91925   0.93631    0.061
 4835.00    0.88296   0.93565    0.062
 4836.00    0.84884   0.93442    0.063
 4837.00    0.87145   0.93264    0.063
 4838.00    0.88812   0.93101    0.063
 4839.00    0.82363   0.92880    0.061
 4840.00    0.76925   0.92633    0.060
 4841.00    0.80618   0.92326    0.061
 4842.00    0.84108   0.91955    0.061
 4843.00    0.86252   0.91585    0.062
 4844.00    0.87692   0.91084    0.062
 4845.00    0.85503   0.90504    0.062
 4846.00    0.84297   0.89958    0.062
 4847.00    0.87190   0.89223    0.062
 4848.00    0.88994   0.88387    0.000
 4849.00    0.87054   0.87635    0.000
 4850.00    0.86348   0.86666    0.000
 4851.00    0.89222   0.85571    0.000
 4852.00    0.90494   0.84648    0.000
 4853.00    0.87798   0.83530    0.000
 4854.00    0.85215   0.82269    0.000
 4855.00    0.82875   0.81305    0.000
 4856.00    0.83716   0.80235    0.000
 4857.00    0.90450   0.79012    0.000
 4858.00    0.94124   0.78228    0.000
 4859.00    0.92842   0.77475    0.000
 4860.00    0.91936   0.76569    0.000
 4861.00    0.91561   0.76193    0.000
 4862.00    0.91155   0.75993    0.000
 4863.00    0.90711   0.75643    0.000
 4864.00    0.91321   0.75806    0.000
 4865.00    0.93093   0.76237    0.000
 4866.00    0.89117   0.76519    0.000
 4867.00    0.79559   0.77180    0.000
 4868.00    0.76674   0.78114    0.000
 4869.00    0.79504   0.78916    0.000
 4870.00    0.80938   0.79890    0.000
 4871.00    0.81320   0.81060    0.000
 4872.00    0.82589   0.82139    0.000
 4873.00    0.84447   0.83196    0.000
 4874.00    0.86840   0.84324    0.000
 4875.00    0.89544   0.85425    0.064
 4876.00    0.91547   0.86388    0.065
 4877.00    0.93195   0.87295    0.066
 4878.00    0.90944   0.88241    0.066
 4879.00    0.86986   0.89027    0.066
 4880.00    0.88842   0.89663    0.066
 4881.00    0.92882   0.90379    0.065
 4882.00    0.90657   0.90992    0.065
 4883.00    0.86435   0.91403    0.065
 4884.00    0.85246   0.91900    0.064
 4885.00    0.84866   0.92390    0.064
 4886.00    0.83782   0.92662    0.064
 4887.00    0.82543   0.92992    0.064
 4888.00    0.77860   0.93420    0.064
 4889.00    0.72581   0.93635    0.064
 4890.00    0.81826   0.93858    0.065
 4891.00    0.92984   0.94265    0.066
 4892.00    0.89828   0.94470    0.066
 4893.00    0.85342   0.94622    0.065
 4894.00    0.87250   0.95015    0.066
 4895.00    0.89520   0.95219    0.066
 4896.00    0.95110   0.95313    0.067
 4897.00    1.00685   0.95667    0.067
 4898.00    0.96247   0.95857    0.066
 4899.00    0.91839   0.95891    0.065
 4900.00    0.88156   0.96168    0.065
 4901.00    0.84957   0.96328    0.065
 4902.00    0.88029   0.96306    0.064
 4903.00    0.90381   0.96480    0.063
 4904.00    0.86470   0.96599    0.064
 4905.00    0.83600   0.96531    0.066
 4906.00    0.87427   0.96592    0.066
 4907.00    0.90138   0.96661    0.066
 4908.00    0.87233   0.96557    0.065
 4909.00    0.84741   0.96514    0.065
 4910.00    0.83929   0.96523    0.064
 4911.00    0.83139   0.96376    0.064
 4912.00    0.82423   0.96255    0.066
 4913.00    0.82370   0.96209    0.066
 4914.00    0.84208   0.96013    0.065
 4915.00    0.85209   0.95852    0.065
 4916.00    0.84175   0.95793    0.065
 4917.00    0.84455   0.95559    0.065
 4918.00    0.87495   0.95414    0.065
 4919.00    0.91766   0.95419    0.065
 4920.00    0.98283   0.95194    0.065
 4921.00    0.99755   0.95119    0.064
 4922.00    0.93180   0.95267    0.063
 4923.00    0.88768   0.95113    0.062
 4924.00    0.87382   0.95132    0.062
 4925.00    0.87067   0.95451    0.062
 4926.00    0.88073   0.95400    0.062
 4927.00    0.88126   0.95492    0.063
 4928.00    0.87145   0.95932    0.062
 4929.00    0.85873   0.95965    0.062
 4930.00    0.84323   0.96077    0.061
 4931.00    0.83533   0.96544    0.061
 4932.00    0.83385   0.96606    0.062
 4933.00    0.84363   0.96691    0.062
 4934.00    0.86180   0.97101    0.061
 4935.00    0.87087   0.97145    0.061
 4936.00    0.87399   0.97193    0.061
 4937.00    0.85754   0.97520    0.061
 4938.00    0.82991   0.97530    0.061
 4939.00    0.85968   0.97558    0.061
 4940.00    0.91802   0.97820    0.000
 4941.00    0.90537   0.97801    0.000
 4942.00    0.86215   0.97823    0.000
 4943.00    0.84302   0.98041    0.000
 4944.00    0.83279   0.97991    0.000
 4945.00    0.89764   0.97988    0.000
 4946.00    0.98599   0.98156    0.000
 4947.00    1.00052   0.98054    0.000
 4948.00    0.99579   0.97982    0.000
 4949.00    0.99762   0.98068    0.000
 4950.00    1.00084   0.97888    0.000
 4951.00    1.00441   0.97714    0.000
 4952.00    1.00803   0.97697    0.000
 4953.00    0.96039   0.97439    0.000
 4954.00    0.90623   0.97168    0.000
 4955.00    0.91130   0.97065    0.000
 4956.00    0.92163   0.96769    0.000
 4957.00    0.87825   0.96452    0.000
 4958.00    0.83203   0.96316    0.000
 4959.00    0.88236   0.96050    0.000
 4960.00    0.93336   0.95755    0.000
 4961.00    0.89213   0.95643    0.000
 4962.00    0.85168   0.95464    0.000
 4963.00    0.82791   0.95249    0.000
 4964.00    0.80749   0.95187    0.000
 4965.00    0.82830   0.95117    0.000
 4966.00    0.84619   0.95001    0.000
 4967.00    0.83958   0.94989    0.000
 4968.00    0.83655   0.95000    0.000
 4969.00    0.85590   0.94963    0.000
 4970.00    0.86942   0.94978    0.000
 4971.00    0.85438   0.95019    0.000
 4972.00    0.84580   0.95013    0.000
 4973.00    0.86293   0.95033    0.000
 4974.00    0.86760   0.95055    0.000
 4975.00    0.83104   0.95034    0.000
 4976.00    0.80520   0.95044    0.000
 4977.00    0.80927   0.95028    0.000
 4978.00    0.81260   0.94965    0.000
 4979.00    0.81415   0.94967    0.000
 4980.00    0.82353   0.94925    0.000
 4981.00    0.84909   0.94825    0.000
 4982.00    0.83823   0.94831    0.000
 4983.00    0.76191   0.94790    0.000
 4984.00    0.72753   0.94675    0.000
 4985.00    0.75905   0.94697    0.000
 4986.00    0.79261   0.94678    0.000
 4987.00    0.82897   0.94559    0.000
 4988.00    0.84479   0.94597    0.000
 4989.00    0.83567   0.94596    0.000
 4990.00    0.84364   0.94461    0.000
 4991.00    0.86992   0.94496    0.000
 4992.00    0.87168   0.94490    0.000
 4993.00    0.85027   0.94311    0.000
 4994.00    0.86846   0.94312    0.000
 4995.00    0.91961   0.94277    0.000
 4996.00    0.89781   0.94041    0.000
 4997.00    0.82255   0.93981    0.000
 4998.00    0.79826   0.93909    0.000
 4999.00    0.80676   0.93631    0.000
 5000.00    0.81003   0.93507    0.000
 5001.00    0.81036   0.93403    0.000
 5002.00    0.82680   0.93121    0.000
 5003.00    0.85115   0.92961    0.000
 5004.00    0.85029   0.92845    0.000
 5005.00    0.83876   0.92591    0.000
 5006.00    0.82686   0.92437    0.000
 5007.00    0.81482   0.92341    0.000
 5008.00    0.81189   0.92128    0.000
 5009.00    0.81175   0.92016    0.000
 5010.00    0.80791   0.91979    0.000
 5011.00    0.80312   0.91801    0.000
 5012.00    0.79734   0.91754    0.000
 5013.00    0.79135   0.91816    0.000
 5014.00    0.82986   0.91669    0.000
 5015.00    0.87566   0.91688    0.000
 5016.00    0.86709   0.91879    0.000
 5017.00    0.85185   0.91780    0.000
 5018.00    0.84087   0.91845    0.000
 5019.00    0.83025   0.92162    0.000
 5020.00    0.78164   0.92136    0.000
 5021.00    0.73118   0.92215    0.000
 5022.00    0.81137   0.92610    0.000
 5023.00    0.89206   0.92670    0.000
 5024.00    0.88024   0.92735    0.000
 5025.00    0.86993   0.93130    0.000
 5026.00    0.88992   0.93253    0.000
 5027.00    0.90603   0.93286    0.000
 5028.00    0.87675   0.93604    0.000
 5029.00    0.84683   0.93756    0.060
 5030.00    0.81181   0.93746    0.059
 5031.00    0.78696   0.93931    0.059
 5032.00    0.82382   0.94062    0.059
 5033.00    0.85861   0.94027    0.059
 5034.00    0.88347   0.94070    0.060
 5035.00    0.89988   0.94160    0.060
 5036.00    0.88332   0.94132    0.061
 5037.00    0.85994   0.94063    0.061
 5038.00    0.81444   0.94125    0.060
 5039.00    0.78985   0.94139    0.060
 5040.00    0.82263   0.94001    0.060
 5041.00    0.83800   0.94071    0.060
 5042.00    0.81244   0.94163    0.059
 5043.00    0.80113   0.94003    0.059
 5044.00    0.81876   0.94091    0.058
 5045.00    0.84300   0.94268    0.057
 5046.00    0.87895   0.94138    0.058
 5047.00    0.89315   0.94245    0.058
 5048.00    0.87369   0.94469    0.057
 5049.00    0.85905   0.94391    0.058
 5050.00    0.85096   0.94515    0.059
 5051.00    0.85881   0.94755    0.059
 5052.00    0.88576   0.94731    0.058
 5053.00    0.90328   0.94864    0.058
 5054.00    0.91083   0.95067    0.058
 5055.00    0.91074   0.95074    0.058
 5056.00    0.90352   0.95224    0.058
 5057.00    0.88548   0.95366    0.057
 5058.00    0.85855   0.95357    0.057
 5059.00    0.84324   0.95533    0.057
 5060.00    0.83632   0.95633    0.058
 5061.00    0.85072   0.95553    0.057
 5062.00    0.87864   0.95728    0.057
 5063.00    0.87413   0.95809    0.057
 5064.00    0.85165   0.95652    0.058
 5065.00    0.84796   0.95769    0.058
 5066.00    0.85334   0.95856    0.057
 5067.00    0.84545   0.95671    0.057
 5068.00    0.83203   0.95707    0.058
 5069.00    0.84364   0.95757    0.058
 5070.00    0.86417   0.95599    0.057
 5071.00    0.87281   0.95571    0.057
 5072.00    0.87787   0.95571    0.058
 5073.00    0.88346   0.95464    0.059
 5074.00    0.88917   0.95405    0.059
 5075.00    0.89004   0.95371    0.059
 5076.00    0.88993   0.95335    0.060
 5077.00    0.86213   0.95276    0.059
 5078.00    0.82993   0.95198    0.059
 5079.00    0.82714   0.95219    0.059
 5080.00    0.82783   0.95225    0.060
 5081.00    0.86679   0.95124    0.060
 5082.00    0.90883   0.95159    0.059
 5083.00    0.89740   0.95259    0.059
 5084.00    0.88356   0.95190    0.059
 5085.00    0.82657   0.95200    0.058
 5086.00    0.77089   0.95350    0.058
 5087.00    0.80598   0.95352    0.057
 5088.00    0.83689   0.95343    0.057
 5089.00    0.79025   0.95468    0.057
 5090.00    0.74777   0.95526    0.057
 5091.00    0.75155   0.95524    0.058
 5092.00    0.76643   0.95582    0.059
 5093.00    0.86774   0.95626    0.060
 5094.00    0.94438   0.95630    0.061
 5095.00    0.87562   0.95633    0.061
 5096.00    0.81069   0.95623    0.060
 5097.00    0.76359   0.95617    0.060
 5098.00    0.73050   0.95599    0.060
 5099.00    0.75084   0.95546    0.059
 5100.00    0.76051   0.95518    0.059
 5101.00    0.73626   0.95508    0.059
 5102.00    0.73469   0.95443    0.058
 5103.00    0.79428   0.95406    0.059
 5104.00    0.82751   0.95427    0.059
 5105.00    0.79978   0.95383    0.059
 5106.00    0.79231   0.95336    0.059
 5107.00    0.82541   0.95418    0.060
 5108.00    0.83229   0.95433    0.061
 5109.00    0.79348   0.95344    0.061
 5110.00    0.78419   0.95468    0.061
 5111.00    0.81994   0.95565    0.061
 5112.00    0.86200   0.95428    0.061
 5113.00    0.91252   0.95533    0.062
 5114.00    0.92188   0.95695    0.062
 5115.00    0.88269   0.95537    0.062
 5116.00    0.86200   0.95567    0.062
 5117.00    0.86058   0.95739    0.061
 5118.00    0.82795   0.95596    0.060
 5119.00    0.76668   0.95526    0.059
 5120.00    0.77884   0.95645    0.058
 5121.00    0.85039   0.95562    0.058
 5122.00    0.86172   0.95407    0.058
 5123.00    0.83018   0.95434    0.057
 5124.00    0.80285   0.95447    0.057
 5125.00    0.77813   0.95256    0.057
 5126.00    0.79024   0.95180    0.057
 5127.00    0.82244   0.95310    0.057
 5128.00    0.85663   0.95153    0.057
 5129.00    0.89177   0.94987    0.057
 5130.00    0.83238   0.95216    0.057
 5131.00    0.73431   0.95165    0.057
 5132.00    0.75377   0.94925    0.056
 5133.00    0.81431   0.95169    0.056
 5134.00    0.82291   0.95237    0.056
 5135.00    0.81621   0.94949    0.056
 5136.00    0.84524   0.95147    0.056
 5137.00    0.88299   0.95308    0.057
 5138.00    0.88849   0.94973    0.057
 5139.00    0.88762   0.95065    0.058
 5140.00    0.89574   0.95302    0.058
 5141.00    0.90526   0.94961    0.058
 5142.00    0.87301   0.94935    0.056
 5143.00    0.83602   0.95191    0.054
 5144.00    0.80589   0.94884    0.055
 5145.00    0.77629   0.94785    0.056
 5146.00    0.77869   0.95056    0.056
 5147.00    0.78241   0.94846    0.057
 5148.00    0.78123   0.94698    0.057
 5149.00    0.78126   0.94922    0.057
 5150.00    0.83364   0.94864    0.057
 5151.00    0.88031   0.94744    0.058
 5152.00    0.82776   0.94866    0.057
 5153.00    0.78383   0.94908    0.057
 5154.00    0.83141   0.94854    0.058
 5155.00    0.87768   0.94836    0.059
 5156.00    0.91407   0.94880    0.058
 5157.00    0.93881   0.94854    0.058
 5158.00    0.89686   0.94676    0.060
 5159.00    0.85979   0.94629    0.060
 5160.00    0.84491   0.94599    0.059
 5161.00    0.82045   0.94251    0.059
 5162.00    0.76029   0.94026    0.059
 5163.00    0.72546   0.93975    0.059
 5164.00    0.76968   0.93487    0.058
 5165.00    0.79296   0.93052    0.058
 5166.00    0.76084   0.92951    0.059
 5167.00    0.73771   0.92478    0.060
 5168.00    0.73505   0.91914    0.060
 5169.00    0.73602   0.91756    0.060
 5170.00    0.74416   0.91419    0.061
 5171.00    0.76964   0.90867    0.062
 5172.00    0.82488   0.90672    0.062
 5173.00    0.83883   0.90539    0.061
 5174.00    0.79070   0.90158    0.060
 5175.00    0.76844   0.90007    0.060
 5176.00    0.78033   0.90087    0.061
 5177.00    0.77291   0.89903    0.061
 5178.00    0.74303   0.89754    0.059
 5179.00    0.72218   0.89948    0.059
 5180.00    0.71060   0.90034    0.060
 5181.00    0.72069   0.89965    0.059
 5182.00    0.75038   0.90127    0.059
 5183.00    0.75762   0.90354    0.058
 5184.00    0.74695   0.90397    0.059
 5185.00    0.76090   0.90519    0.059
 5186.00    0.79212   0.90789    0.058
 5187.00    0.81482   0.90919    0.058
 5188.00    0.83228   0.91010    0.058
 5189.00    0.83721   0.91278    0.058
 5190.00    0.83541   0.91432    0.000
 5191.00    0.79838   0.91517    0.000
 5192.00    0.74490   0.91797    0.000
 5193.00    0.73885   0.91898    0.000
 5194.00    0.75188   0.91869    0.000
 5195.00    0.78111   0.92136    0.000
 5196.00    0.81590   0.92237    0.000
 5197.00    0.83113   0.92091    0.000
 5198.00    0.84071   0.92263    0.000
 5199.00    0.82150   0.92402    0.000
 5200.00    0.79541   0.92227    0.000
 5201.00    0.79808   0.92277    0.000
 5202.00    0.80629   0.92416    0.000
 5203.00    0.79885   0.92281    0.000
 5204.00    0.78906   0.92234    0.000
 5205.00    0.78687   0.92375    0.000
 5206.00    0.78552   0.92355    0.000
 5207.00    0.79477   0.92268    0.000
 5208.00    0.80478   0.92425    0.000
 5209.00    0.81132   0.92559    0.000
 5210.00    0.81772   0.92535    0.000
 5211.00    0.81958   0.92678    0.055
 5212.00    0.82265   0.92930    0.055
 5213.00    0.87056   0.93050    0.054
 5214.00    0.91251   0.93209    0.054
 5215.00    0.85773   0.93460    0.056
 5216.00    0.81146   0.93681    0.057
 5217.00    0.85183   0.93890    0.058
 5218.00    0.88148   0.94081    0.058
 5219.00    0.83317   0.94288    0.057
 5220.00    0.78903   0.94522    0.057
 5221.00    0.76816   0.94671    0.056
 5222.00    0.75452   0.94772    0.056
 5223.00    0.77311   0.94985    0.056
 5224.00    0.79927   0.95185    0.057
 5225.00    0.85308   0.95203    0.058
 5226.00    0.88314   0.95306    0.059
 5227.00    0.84046   0.95572    0.058
 5228.00    0.81775   0.95604    0.058
 5229.00    0.84700   0.95567    0.058
 5230.00    0.83613   0.95874    0.058
 5231.00    0.73553   0.96027    0.058
 5232.00    0.70406   0.95909    0.058
 5233.00    0.80656   0.96167    0.059
 5234.00    0.87106   0.96453    0.059
 5235.00    0.87130   0.96335    0.058
 5236.00    0.87828   0.96416    0.058
 5237.00    0.89526   0.96718    0.059
 5238.00    0.91091   0.96692    0.059
 5239.00    0.92485   0.96605    0.060
 5240.00    0.91003   0.96821    0.060
 5241.00    0.86223   0.96906    0.059
 5242.00    0.85036   0.96715    0.058
 5243.00    0.87481   0.96774    0.059
 5244.00    0.88291   0.96911    0.059
 5245.00    0.87643   0.96685    0.060
 5246.00    0.85042   0.96583    0.060
 5247.00    0.80904   0.96768    0.059
 5248.00    0.83667   0.96606    0.059
 5249.00    0.91201   0.96336    0.059
 5250.00    0.92198   0.96481    0.059
 5251.00    0.89231   0.96472    0.059
 5252.00    0.86321   0.96135    0.059
 5253.00    0.83439   0.96139    0.059
 5254.00    0.84723   0.96230    0.059
 5255.00    0.87919   0.95983    0.058
 5256.00    0.88093   0.95873    0.058
 5257.00    0.87072   0.95925    0.057
 5258.00    0.83455   0.95733    0.058
 5259.00    0.78962   0.95554    0.058
 5260.00    0.82845   0.95580    0.058
 5261.00    0.89098   0.95412    0.057
 5262.00    0.86640   0.95156    0.058
 5263.00    0.82148   0.95209    0.058
 5264.00    0.83368   0.95094    0.059
 5265.00    0.85659   0.94731    0.059
 5266.00    0.82344   0.94830    0.059
 5267.00    0.78217   0.94893    0.059
 5268.00    0.76708   0.94524    0.059
 5269.00    0.75473   0.94650    0.058
 5270.00    0.80865   0.94954    0.058
 5271.00    0.86707   0.94692    0.058
 5272.00    0.84223   0.94758    0.058
 5273.00    0.81458   0.95282    0.058
 5274.00    0.78726   0.95288    0.058
 5275.00    0.76137   0.95290    0.058
 5276.00    0.78111   0.95866    0.058
 5277.00    0.80160   0.96135    0.058
 5278.00    0.83356   0.96146    0.058
 5279.00    0.86359   0.96640    0.057
 5280.00    0.87473   0.97044    0.057
 5281.00    0.88088   0.97117    0.057
 5282.00    0.85180   0.97456    0.056
 5283.00    0.83039   0.97853    0.056
 5284.00    0.85058   0.98013    0.056
 5285.00    0.86333   0.98205    0.056
 5286.00    0.84381   0.98458    0.057
 5287.00    0.83593   0.98638    0.058
 5288.00    0.86972   0.98783    0.058
 5289.00    0.90100   0.98911    0.059
 5290.00    0.92474   0.99005    0.059
 5291.00    0.93919   0.99109    0.060
 5292.00    0.92990   0.99166    0.060
 5293.00    0.91663   0.99164    0.060
 5294.00    0.89459   0.99210    0.059
 5295.00    0.88179   0.99232    0.058
 5296.00    0.88663   0.99187    0.059
 5297.00    0.88619   0.99218    0.060
 5298.00    0.87695   0.99257    0.060
 5299.00    0.87980   0.99175    0.060
 5300.00    0.90031   0.99175    0.060
 5301.00    0.90119   0.99303    0.060
 5302.00    0.87690   0.99288    0.060
 5303.00    0.85719   0.99258    0.060
 5304.00    0.84267   0.99415    0.059
 5305.00    0.86137   0.99472    0.059
 5306.00    0.91319   0.99456    0.060
 5307.00    0.91537   0.99602    0.060
 5308.00    0.87391   0.99668    0.059
 5309.00    0.85419   0.99604    0.059
 5310.00    0.85133   0.99710    0.059
 5311.00    0.85599   0.99801    0.059
 5312.00    0.86578   0.99673    0.059
 5313.00    0.87231   0.99653    0.059
 5314.00    0.87689   0.99742    0.058
 5315.00    0.84472   0.99604    0.058
 5316.00    0.79340   0.99442    0.057
 5317.00    0.81381   0.99451    0.057
 5318.00    0.86663   0.99338    0.058
 5319.00    0.84686   0.99089    0.058
 5320.00    0.79889   0.98988    0.057
 5321.00    0.79218   0.98925    0.056
 5322.00    0.79910   0.98674    0.056
 5323.00    0.79833   0.98483    0.055
 5324.00    0.79542   0.98454    0.055
 5325.00    0.80828   0.98303    0.055
 5326.00    0.82473   0.98042    0.056
 5327.00    0.82881   0.97988    0.055
 5328.00    0.83062   0.98010    0.054
 5329.00    0.85555   0.97806    0.055
 5330.00    0.88371   0.97655    0.056
 5331.00    0.87017   0.97759    0.056
 5332.00    0.85242   0.97739    0.055
 5333.00    0.83768   0.97660    0.055
 5334.00    0.82314   0.97760    0.056
 5335.00    0.82348   0.97805    0.056
 5336.00    0.82432   0.97859    0.055
 5337.00    0.84997   0.97978    0.055
 5338.00    0.87445   0.98007    0.055
 5339.00    0.86567   0.98092    0.055
 5340.00    0.85683   0.98275    0.056
 5341.00    0.84711   0.98338    0.055
 5342.00    0.84206   0.98385    0.054
 5343.00    0.88064   0.98609    0.055
 5344.00    0.90778   0.98758    0.056
 5345.00    0.85691   0.98796    0.056
 5346.00    0.81574   0.99105    0.057
 5347.00    0.82571   0.99293    0.057
 5348.00    0.84298   0.99281    0.057
 5349.00    0.89120   0.99612    0.057
 5350.00    0.92087   0.99904    0.057
 5351.00    0.88556   0.99871    0.057
 5352.00    0.86817   1.00087    0.057
 5353.00    0.90360   1.00453    0.058
 5354.00    0.92432   1.00503    0.058
 5355.00    0.90806   1.00549    0.058
 5356.00    0.89252   1.00843    0.058
 5357.00    0.87853   1.00966    0.058
 5358.00    0.85925   1.00899    0.058
 5359.00    0.83001   1.01043    0.057
 5360.00    0.82313   1.01125    0.057
 5361.00    0.85291   1.01006    0.057
 5362.00    0.86476   1.01008    0.057
 5363.00    0.85081   1.01002    0.057
 5364.00    0.88077   1.00868    0.057
 5365.00    0.96628   1.00815    0.059
 5366.00    0.97480   1.00774    0.060
 5367.00    0.89749   1.00690    0.059
 5368.00    0.85674   1.00608   -2.000
 5369.00    0.85196   1.00524   -2.000
 5370.00    0.84694   1.00495   -2.000
 5371.00    0.84173   1.00497   -2.000
 5372.00    0.86129   1.00419   -2.000
 5373.00    0.89977   1.00353   -2.000
 5374.00    0.91170   1.00447   -2.000
 5375.00    0.90579   1.00489   -2.000
 5376.00    0.89933   1.00446   -2.000
 5377.00    0.89254   1.00579   -2.000
 5378.00    0.90861   1.00652   -2.000
 5379.00    0.93640   1.00564   -2.000
 5380.00    0.91885   1.00691   -2.000
 5381.00    0.88116   1.00816   -2.000
 5382.00    0.88785   1.00656   -2.000
 5383.00    0.91148   1.00640    0.055
 5384.00    0.87461   1.00801    0.055
 5385.00    0.81813   1.00644    0.054
 5386.00    0.82876   1.00452    0.054
 5387.00    0.85762   1.00590    0.054
 5388.00    0.90101   1.00481    0.054
 5389.00    0.94764   1.00127    0.054
 5390.00    0.93562   1.00170    0.055
 5391.00    0.91318   1.00183    0.055
 5392.00    0.89485   0.99772    0.054
 5393.00    0.87707   0.99606    0.053
 5394.00    0.81023   0.99720    0.054
 5395.00    0.73864   0.99453    0.054
 5396.00    0.79058   0.99114    0.054
 5397.00    0.84995   0.99199    0.055
 5398.00    0.85119   0.99100    0.054
 5399.00    0.85085   0.98716    0.054
 5400.00    0.83937   0.98771    0.055
 5401.00    0.82973   0.98871    0.056
 5402.00    0.86724   0.98582    0.057
 5403.00    0.89901   0.98515    0.057
 5404.00    0.85300   0.98701    0.057
 5405.00    0.81152   0.98650    0.057
 5406.00    0.81079   0.98568    0.056
 5407.00    0.81185   0.98695    0.056
 5408.00    0.82471   0.98773    0.056
 5409.00    0.84197   0.98829    0.056
 5410.00    0.88188   0.99046    0.057
 5411.00    0.90399   0.99176    0.058
 5412.00    0.85219   0.99220    0.058
 5413.00    0.81159   0.99475    0.057
 5414.00    0.80944   0.99739    0.057
 5415.00    0.82583   0.99839    0.057
 5416.00    0.89585   0.99996    0.057
 5417.00    0.93550   1.00219    0.057
 5418.00    0.90011   1.00343    0.057
 5419.00    0.88844   1.00498    0.057
 5420.00    0.92729   1.00685    0.057
 5421.00    0.92966   1.00677    0.057
 5422.00    0.86456   1.00686    0.056
 5423.00    0.83445   1.00861    0.056
 5424.00    0.86090   1.00874    0.056
 5425.00    0.88568   1.00763    0.056
 5426.00    0.90810   1.00800    0.055
 5427.00    0.92757   1.00808    0.055
 5428.00    0.94337   1.00624    0.055
 5429.00    0.94243   1.00651    0.055
 5430.00    0.92309   1.00741    0.054
 5431.00    0.88885   1.00431    0.054
 5432.00    0.84015   1.00328    0.054
 5433.00    0.84733   1.00559    0.054
 5434.00    0.90228   1.00407    0.055
 5435.00    0.93636   1.00178    0.055
 5436.00    0.95474   1.00316    0.055
 5437.00    0.94948   1.00348    0.055
 5438.00    0.92857   1.00083    0.054
 5439.00    0.91941   1.00073    0.054
 5440.00    0.91705   1.00214    0.054
 5441.00    0.91205   0.99982    0.054
 5442.00    0.90571   0.99799    0.054
 5443.00    0.89426   0.99883    0.054
 5444.00    0.88059   0.99714    0.055
 5445.00    0.86722   0.99391    0.055
 5446.00    0.85397   0.99302    0.055
 5447.00    0.85520   0.99151    0.056
 5448.00    0.86104   0.98750    0.056
 5449.00    0.85508   0.98472    0.056
 5450.00    0.84598   0.98393    0.056
 5451.00    0.83469   0.98098    0.056
 5452.00    0.82292   0.97744    0.056
 5453.00    0.84613   0.97633    0.056
 5454.00    0.87538   0.97441    0.056
 5455.00    0.90879   0.97091    0.057
 5456.00    0.94275   0.96989    0.057
 5457.00    0.88600   0.96914    0.058
 5458.00    0.82087   0.96629    0.058
 5459.00    0.82291   0.96512    0.057
 5460.00    0.82873   0.96664    0.056
 5461.00    0.82064   0.96561    0.056
 5462.00    0.81287   0.96340    0.056
 5463.00    0.87093   0.96510    0.057
 5464.00    0.92712   0.96618    0.057
 5465.00    0.93915   0.96353    0.056
 5466.00    0.94946   0.96427    0.055
 5467.00    0.93775   0.96724    0.055
 5468.00    0.92606   0.96528    0.055
 5469.00    0.91452   0.96382    0.056
 5470.00    0.90907   0.96771    0.056
 5471.00    0.94266   0.96842    0.056
 5472.00    0.96114   0.96504    0.056
 5473.00    0.90383   0.96666    0.055
 5474.00    0.86126   0.96998    0.054
 5475.00    0.87848   0.96736    0.054
 5476.00    0.88157   0.96633    0.054
 5477.00    0.83710   0.97076    0.054
 5478.00    0.80627   0.97059   -2.000
 5479.00    0.81418   0.96753   -2.000
 5480.00    0.82996   0.97068   -2.000
 5481.00    0.86487   0.97398   -2.000
 5482.00    0.88109   0.97153   -2.000
 5483.00    0.85818   0.97125   -2.000
 5484.00    0.85556   0.97553   -2.000
 5485.00    0.88988   0.97535   -2.000
 5486.00    0.89309   0.97357   -2.000
 5487.00    0.84680   0.97724   -2.000
 5488.00    0.79022   0.97902   -2.000
 5489.00    0.71926   0.97597   -2.000
 5490.00    0.71471   0.97716   -2.000
 5491.00    0.79182   0.98090   -2.000
 5492.00    1.07665   0.97890   -2.000
 5493.00    1.58658   0.97711   -2.000
 5494.00    1.67821   0.98029   -2.000
 5495.00    1.36999   0.98003   -2.000
 5496.00    1.11123   0.97709   -2.000
 5497.00    0.89416   0.97853   -2.000
 5498.00    0.83915   0.97956   -2.000
 5499.00    0.90441   0.97619   -2.000
 5500.00    0.88913   0.97559   -2.000
 5501.00    0.82135   0.97748   -2.000
 5502.00    0.79328   0.97575    0.056
 5503.00    0.78787   0.97383    0.055
 5504.00    0.82311   0.97463    0.055
 5505.00    0.87855   0.97416    0.055
 5506.00    0.87649   0.97284    0.056
 5507.00    0.84972   0.97326    0.057
 5508.00    0.85690   0.97304    0.057
 5509.00    0.87659   0.97201    0.056
 5510.00    0.88319   0.97316    0.056
 5511.00    0.88570   0.97399    0.056
 5512.00    0.88615   0.97362    0.056
 5513.00    0.88606   0.97440    0.056
 5514.00    0.92043   0.97558    0.056
 5515.00    0.96213   0.97595    0.056
 5516.00    0.92932   0.97678    0.056
 5517.00    0.88401   0.97856    0.056
 5518.00    0.87438   0.97973    0.056
 5519.00    0.86927   0.98027    0.057
 5520.00    0.90614   0.98187    0.055
 5521.00    0.94672   0.98385    0.054
 5522.00    0.90858   0.98474    0.054
 5523.00    0.86633   0.98503    0.054
 5524.00    0.85895   0.98637    0.054
 5525.00    0.85231   0.98821    0.053
 5526.00    0.85213   0.98855    0.053
 5527.00    0.85299   0.98858    0.054
 5528.00    0.87618   0.99038    0.053
 5529.00    0.89503   0.99147    0.052
 5530.00    0.86093   0.99039    0.053
 5531.00    0.83253   0.99130    0.054
 5532.00    0.85163   0.99381    0.053
 5533.00    0.87377   0.99363    0.053
 5534.00    0.91485   0.99292    0.053
 5535.00    0.94108   0.99483    0.053
 5536.00    0.89474   0.99620    0.053
 5537.00    0.85939   0.99508    0.053
 5538.00    0.86769   0.99573    0.053
 5539.00    0.87525   0.99826    0.053
 5540.00    0.88037   0.99823    0.053
 5541.00    0.88614   0.99773    0.053
 5542.00    0.89375   0.99954    0.054
 5543.00    0.90309   1.00118    0.054
 5544.00    0.91655   1.00066    0.054
 5545.00    0.91901   1.00043    0.054
 5546.00    0.89879   1.00195    0.055
 5547.00    0.89950   1.00245    0.055
 5548.00    0.93774   1.00155    0.055
 5549.00    0.96732   1.00187    0.056
 5550.00    0.98331   1.00300    0.055
 5551.00    0.97418   1.00257    0.055
 5552.00    0.93046   1.00145    0.056
 5553.00    0.90274   1.00176    0.056
 5554.00    0.89441   1.00176    0.056
 5555.00    0.90762   1.00035    0.056
 5556.00    0.94382   0.99962    0.056
 5557.00    0.91743   0.99955    0.056
 5558.00    0.83204   0.99859    0.056
 5559.00    0.81702   0.99752    0.056
 5560.00    0.86045   0.99708    0.056
 5561.00    0.89913   0.99617    0.055
 5562.00    0.93432   0.99534    0.055
 5563.00    0.92852   0.99508    0.055
 5564.00    0.89637   0.99382    0.054
 5565.00    0.91477   0.99275    0.054
 5566.00    0.96156   0.99340    0.053
 5567.00    0.94559   0.99270    0.053
 5568.00    0.89893   0.99080    0.053
 5569.00    0.89499   0.99154    0.053
 5570.00    0.90909   0.99229    0.053
 5571.00    0.91762   0.99026    0.053
 5572.00    0.92414   0.98988    0.052
 5573.00    0.92783   0.99171    0.053
 5574.00    0.93065   0.99037    0.053
 5575.00    0.90058   0.98854    0.053
 5576.00    0.86213   0.99013    0.052
 5577.00    0.86362   0.99011    0.052
 5578.00    0.87338   0.98790    0.051
 5579.00    0.89493   0.98810    0.052
 5580.00    0.91840   0.98853    0.052
 5581.00    0.90027   0.98651    0.052
 5582.00    0.87707   0.98557    0.052
 5583.00    0.87896   0.98576    0.053
 5584.00    0.88295   0.98412    0.054
 5585.00    0.86194   0.98279    0.054
 5586.00    0.83971   0.98238    0.053
 5587.00    0.87530   0.98115    0.054
 5588.00    0.91154   0.97995    0.055
 5589.00    0.93467   0.97889    0.056
 5590.00    0.95316   0.97741    0.057
 5591.00    0.87949   0.97670    0.057
 5592.00    0.81398   0.97661    0.056
 5593.00    0.84330   0.97511    0.056
 5594.00    0.86944   0.97397    0.056
 5595.00    0.87005   0.97458    0.058
 5596.00    0.87225   0.97363    0.058
 5597.00    0.88408   0.97211    0.058
 5598.00    0.89557   0.97350    0.058
 5599.00    0.90541   0.97418    0.058
 5600.00    0.90941   0.97191    0.059
 5601.00    0.89069   0.97203    0.058
 5602.00    0.88652   0.97405    0.058
 5603.00    0.92940   0.97349    0.056
 5604.00    0.95454   0.97266    0.055
 5605.00    0.93106   0.97444    0.055
 5606.00    0.91633   0.97529    0.055
 5607.00    0.92215   0.97392    0.054
 5608.00    0.90957   0.97486    0.053
 5609.00    0.85969   0.97636    0.052
 5610.00    0.85168   0.97544    0.051
 5611.00    0.91758   0.97501    0.051
 5612.00    0.96358   0.97618    0.051
 5613.00    0.97882   0.97616    0.052
 5614.00    0.95505   0.97528    0.053
 5615.00    0.87835   0.97592    0.052
 5616.00    0.85540   0.97605    0.052
 5617.00    0.89667   0.97434    0.051
 5618.00    0.90877   0.97394    0.050
 5619.00    0.89016   0.97443    0.050
 5620.00    0.87633   0.97364    0.050
 5621.00    0.86693   0.97303    0.049
 5622.00    0.88410   0.97303    0.050
 5623.00    0.92305   0.97255    0.051
 5624.00    0.92740   0.97183    0.052
 5625.00    0.90681   0.97179    0.051
 5626.00    0.90486   0.97132    0.051
 5627.00    0.91471   0.97047    0.052
 5628.00    0.93055   0.97079    0.052
 5629.00    0.94972   0.97094    0.052
 5630.00    0.96557   0.97045    0.052
 5631.00    0.97983   0.97017    0.053
 5632.00    0.96742   0.97010    0.053
 5633.00    0.94393   0.96991    0.054
 5634.00    0.93621   0.96956    0.054
 5635.00    0.93409   0.96956    0.054
 5636.00    0.92600   0.96950    0.054
 5637.00    0.91613   0.96973    0.054
 5638.00    0.88853   0.96943    0.053
 5639.00    0.85652   0.96888    0.053
 5640.00    0.89421   0.96939    0.053
 5641.00    0.94598   0.96984    0.054
 5642.00    0.91696   0.96944    0.053
 5643.00    0.87516   0.96905    0.052
 5644.00    0.84994   0.97054    0.052
 5645.00    0.82668   0.97112    0.051
 5646.00    0.87034   0.97018    0.052
 5647.00    0.91935   0.97096    0.053
 5648.00    0.94548   0.97285    0.052
 5649.00    0.97059   0.97254    0.050
 5650.00    0.93538   0.97140    0.050
 5651.00    0.90048   0.97354    0.050
 5652.00    0.91404   0.97519    0.049
 5653.00    0.92752   0.97309    0.048
 5654.00    0.93955   0.97303    0.049
 5655.00    0.94643   0.97623    0.049
 5656.00    0.89643   0.97549    0.049
 5657.00    0.85437   0.97262    0.049
 5658.00    0.87396   0.97469    0.049
 5659.00    0.89417   0.97685    0.049
 5660.00    0.91810   0.97342    0.049
 5661.00    0.93417   0.97248    0.049
 5662.00    0.91367   0.97630    0.049
 5663.00    0.89992   0.97536    0.048
 5664.00    0.91182   0.97232    0.050
 5665.00    0.92189   0.97438    0.050
 5666.00    0.92615   0.97654    0.050
 5667.00    0.92570   0.97400    0.051
 5668.00    0.91255   0.97419    0.052
 5669.00    0.89141   0.97764    0.053
 5670.00    0.85179   0.97667    0.054
 5671.00    0.83639   0.97561    0.054
 5672.00    0.86932   0.97859    0.055
 5673.00    0.88590   0.98003    0.055
 5674.00    0.87403   0.97850    0.056
 5675.00    0.86987   0.98028    0.055
 5676.00    0.87743   0.98333    0.054
 5677.00    0.88701   0.98213    0.053
 5678.00    0.89928   0.98182    0.054
 5679.00    0.92521   0.98534    0.054
 5680.00    0.96721   0.98637    0.052
 5681.00    0.98706   0.98475    0.051
 5682.00    0.98389   0.98611    0.051
 5683.00    0.96242   0.98865    0.051
 5684.00    0.92419   0.98792    0.051
 5685.00    0.90277   0.98718    0.051
 5686.00    0.89492   0.98960    0.050
 5687.00    0.91528   0.99062    0.050
 5688.00    0.95569   0.98955    0.050
 5689.00    0.93331   0.98953    0.050
 5690.00    0.87177   0.99045    0.049
 5691.00    0.85163   0.99054    0.048
 5692.00    0.85404   0.99020    0.047
 5693.00    0.87155   0.99052    0.048
 5694.00    0.89620   0.99072    0.048
 5695.00    0.89742   0.99073    0.049
 5696.00    0.88908   0.99000    0.049
 5697.00    0.90113   0.98870    0.050
 5698.00    0.92031   0.98892    0.050
 5699.00    0.93702   0.98943    0.050
 5700.00    0.95300   0.98820    0.050
 5701.00    0.96260   0.98743    0.049
 5702.00    0.97064   0.98815    0.048
 5703.00    0.94866   0.98752    0.049
 5704.00    0.92077   0.98542    0.049
 5705.00    0.89757   0.98600    0.049
 5706.00    0.87510   0.98722    0.049
 5707.00    0.90126   0.98588    0.049
 5708.00    0.93294   0.98565    0.049
 5709.00    0.93213   0.98722    0.050
 5710.00    0.92887   0.98723    0.051
 5711.00    0.96068   0.98620    0.051
 5712.00    0.99392   0.98783    0.050
 5713.00    0.95809   0.98959    0.050
 5714.00    0.92254   0.98902    0.051
 5715.00    0.92067   0.98996    0.051
 5716.00    0.91889   0.99207    0.051
 5717.00    0.91875   0.99293    0.050
 5718.00    0.92142   0.99309    0.049
 5719.00    0.95386   0.99449    0.050
 5720.00    0.98376   0.99622    0.051
 5721.00    0.99464   0.99660    0.051
 5722.00    0.99992   0.99719    0.050
 5723.00    0.97322   0.99842    0.050
 5724.00    0.94602   1.00007    0.050
 5725.00    0.91654   1.00067    0.050
 5726.00    0.90215   1.00030    0.049
 5727.00    0.94392   1.00142    0.049
 5728.00    0.97043   1.00277    0.048
 5729.00    0.94943   1.00250    0.048
 5730.00    0.93893   1.00249    0.047
 5731.00    0.95618   1.00426    0.047
 5732.00    0.97052   1.00522    0.048
 5733.00    0.97827   1.00425    0.048
 5734.00    0.97589   1.00476    0.048
 5735.00    0.95359   1.00620    0.048
 5736.00    0.94127   1.00627    0.048
 5737.00    0.94607   1.00648    0.047
 5738.00    0.94937   1.00731    0.047
 5739.00    0.95043   1.00824    0.048
 5740.00    0.93607   1.00845    0.000
 5741.00    0.90140   1.00893    0.000
 5742.00    0.90358   1.00924    0.000
 5743.00    0.94857   1.00956    0.000
 5744.00    0.97982   1.01079    0.000
 5745.00    0.99699   1.01104    0.000
 5746.00    0.99712   1.01126    0.000
 5747.00    0.98185   1.01192    0.000
 5748.00    0.98327   1.01256    0.000
 5749.00    0.99799   1.01206    0.000
 5750.00    1.00623   1.01168    0.000
 5751.00    1.00991   1.01281    0.000
 5752.00    0.99963   1.01335    0.000
 5753.00    0.98077   1.01314    0.000
 5754.00    0.98136   1.01279    0.000
 5755.00    0.99240   1.01287    0.000
 5756.00    0.99643   1.01249    0.000
 5757.00    0.99720   1.01157    0.000
 5758.00    0.99212   1.01159    0.000
 5759.00    0.98469   1.01231    0.000
 5760.00    0.97908   1.01223    0.000
 5761.00    0.97408   1.01100    0.000
 5762.00    0.94929   1.01042    0.000
 5763.00    0.91879   1.01055    0.000
 5764.00    0.94303   1.00970    0.000
 5765.00    0.98032   1.00888    0.000
 5766.00    0.98452   1.00951    0.000
 5767.00    0.98236   1.00972    0.000
 5768.00    0.96600   1.00837    0.000
 5769.00    0.94751   1.00736    0.000
 5770.00    0.93383   1.00771    0.000
 5771.00    0.92068   1.00730    0.000
 5772.00    0.95285   1.00600    0.000
 5773.00    0.98827   1.00587    0.000
 5774.00    0.97546   1.00622    0.000
 5775.00    0.96087   1.00519    0.000
 5776.00    0.95525   1.00338    0.000
 5777.00    0.95034   1.00343    0.000
 5778.00    0.96923   1.00379    0.000
 5779.00    0.98662   1.00241    0.000
 5780.00    0.97982   1.00131    0.000
 5781.00    0.97297   1.00204    0.000
 5782.00    0.96549   1.00220    0.000
 5783.00    0.95838   1.00069    0.000
 5784.00    0.95403   1.00112    0.000
 5785.00    0.95069   1.00246    0.000
 5786.00    0.95299   1.00199    0.000
 5787.00    0.95811   1.00195    0.000
 5788.00    0.97574   1.00397    0.000
 5789.00    0.98257   1.00548    0.000
 5790.00    0.95006   1.00598    0.000
 5791.00    0.92533   1.00805   -2.000
 5792.00    0.92434   1.00967   -2.000
 5793.00    0.92342   1.01009   -2.000
 5794.00    0.92272   1.01245   -2.000
 5795.00    0.92213   1.01558   -2.000
 5796.00    0.92180   1.01674   -2.000
 5797.00    0.93142   1.01838   -2.000
 5798.00    0.96032   1.02150   -2.000
 5799.00    0.97840   1.02216   -2.000
 5800.00    0.97824   1.02200   -2.000
 5801.00    0.96764   1.02491   -2.000
 5802.00    0.94162   1.02749   -2.000
 5803.00    0.93097   1.02685   -2.000
 5804.00    0.94031   1.02733   -2.000
 5805.00    0.94852   1.02959   -2.000
 5806.00    0.95543   1.02912   -2.000
 5807.00    0.96637   1.02751   -2.000
 5808.00    0.98136   1.02872   -2.000
 5809.00    0.99271   1.02993   -2.000
 5810.00    1.00083   1.02799   -2.000
 5811.00    1.00946   1.02659    0.000
 5812.00    1.01848   1.02746    0.000
 5813.00    1.01031   1.02710    0.000
 5814.00    0.99026   1.02489    0.000
 5815.00    0.99437   1.02429    0.000
 5816.00    1.01310   1.02513    0.000
 5817.00    1.00489   1.02385    0.000
 5818.00    0.98245   1.02181    0.000
 5819.00    0.96393   1.02192    0.000
 5820.00    0.94720   1.02294    0.000
 5821.00    0.96519   1.02180    0.000
 5822.00    0.99687   1.02046    0.000
 5823.00    1.01938   1.02144    0.000
 5824.00    1.03879   1.02214    0.000
 5825.00    1.02482   1.02100    0.000
 5826.00    1.00142   1.02040    0.000
 5827.00    1.00891   1.02217    0.000
 5828.00    1.02360   1.02272    0.000
 5829.00    1.00657   1.02131    0.000
 5830.00    0.98361   1.02130    0.000
 5831.00    0.97590   1.02319    0.000
 5832.00    0.97039   1.02335    0.000
 5833.00    0.96247   1.02165    0.000
 5834.00    0.95429   1.02211    0.000
 5835.00    0.97340   1.02336    0.000
 5836.00    0.99435   1.02233    0.000
 5837.00    0.99147   1.02064    0.000
 5838.00    0.98779   1.02145    0.000
 5839.00    1.00188   1.02185    0.000
 5840.00    1.01555   1.01955    0.000
 5841.00    1.01603   1.01771    0.000
 5842.00    1.01556   1.01774    0.000
 5843.00    1.00076   1.01689    0.000
 5844.00    0.98748   1.01417    0.000
 5845.00    0.98906   1.01255    0.000
 5846.00    0.99135   1.01178    0.000
 5847.00    0.99862   1.00949    0.000
 5848.00    1.00572   1.00620    0.000
 5849.00    1.01190   1.00440    0.000
 5850.00    1.01112   1.00333    0.000
 5851.00    0.98014   1.00057    0.000
 5852.00    0.95517   0.99743    0.000
 5853.00    0.95163   0.99562    0.000
 5854.00    0.95391   0.99398    0.000
 5855.00    0.97366   0.99100    0.000
 5856.00    0.98719   0.98886    0.000
 5857.00    0.98480   0.98787    0.000
 5858.00    0.97076   0.98571    0.000
 5859.00    0.93113   0.98297    0.000
 5860.00    0.91297   0.98152    0.000
 5861.00    0.93571   0.98069    0.000
 5862.00    0.95616   0.97868    0.000
 5863.00    0.97282   0.97691    0.000
 5864.00    0.97650   0.97603    0.000
 5865.00    0.96129   0.97454    0.000
 5866.00    0.96358   0.97263    0.000
 5867.00    0.98828   0.97108    0.000
 5868.00    1.00501   0.97037    0.000
 5869.00    1.01276   0.96862    0.000
 5870.00    0.99769   0.96591    0.000
 5871.00    0.95992   0.96422    0.000
 5872.00    0.93169   0.96320    0.000
 5873.00    0.91182   0.96174    0.000
 5874.00    0.91550   0.95795    0.000
 5875.00    0.93739   0.95632    0.000
 5876.00    0.94859   0.95496    0.000
 5877.00    0.95252   0.95137    0.000
 5878.00    0.95152   0.94750    0.000
 5879.00    0.94760   0.94595    0.000
 5880.00    0.92617   0.94448    0.000
 5881.00    0.89564   0.93902    0.000
 5882.00    0.90226   0.93629    0.000
 5883.00    0.92564   0.93471    0.000
 5884.00    0.95508   0.93048    0.000
 5885.00    0.98686   0.92507    0.000
 5886.00    0.97223   0.92344    0.000
 5887.00    0.94230   0.92162    0.000
 5888.00    0.93317   0.91661    0.000
 5889.00    0.92980   0.91491    0.000
 5890.00    0.91027   0.91312    0.000
 5891.00    0.88706   0.90848    0.000
 5892.00    0.89629   0.90523    0.000
 5893.00    0.91142   0.90679    0.000
 5894.00    0.91260   0.90604    0.000
 5895.00    0.91183   0.90299    0.000
 5896.00    0.91586   0.90456    0.000
 5897.00    0.92037   0.90529    0.000
 5898.00    0.94300   0.90330    0.000
 5899.00    0.96677   0.90472    0.000
 5900.00    0.95930   0.90993    0.000
 5901.00    0.95094   0.91042    0.046
 5902.00    0.94895   0.90968    0.045
 5903.00    0.94823   0.91407    0.044
 5904.00    0.98330   0.91800    0.044
 5905.00    1.01525   0.91858    0.045
 5906.00    1.00279   0.92138    0.044
 5907.00    0.99198   0.92663    0.043
 5908.00    0.99660   0.92777    0.043
 5909.00    0.99958   0.92804    0.043
 5910.00    0.99148   0.93210    0.043
 5911.00    0.98373   0.93572    0.043
 5912.00    0.97781   0.93621    0.043
 5913.00    0.97172   0.93775    0.044
 5914.00    0.96497   0.94071    0.044
 5915.00    0.96160   0.94195    0.044
 5916.00    0.97007   0.94227    0.043
 5917.00    0.97958   0.94391    0.043
 5918.00    0.99217   0.94555    0.043
 5919.00    0.99832   0.94620    0.044
 5920.00    0.98836   0.94686    0.045
 5921.00    0.98359   0.94765    0.045
 5922.00    0.99005   0.94868    0.046
 5923.00    0.98492   0.94968    0.046
 5924.00    0.95805   0.95009    0.045
 5925.00    0.93946   0.95015    0.045
 5926.00    0.93440   0.95115    0.045
 5927.00    0.94955   0.95263    0.045
 5928.00    0.99371   0.95266    0.046
 5929.00    1.02236   0.95265    0.046
 5930.00    1.03142   0.95416    0.046
 5931.00    1.03200   0.95547    0.046
 5932.00    1.02314   0.95472    0.045
 5933.00    1.01657   0.95502    0.045
 5934.00    1.01225   0.95764    0.045
 5935.00    1.01507   0.95821    0.045
 5936.00    1.02406   0.95663    0.045
 5937.00    1.01810   0.95743    0.044
 5938.00    1.00075   0.96039    0.043
 5939.00    1.00102   0.96001    0.043
 5940.00    1.01309   0.95846    0.043
 5941.00    1.02059   0.96044    0.043
 5942.00    1.02541   0.96255    0.043
 5943.00    1.02336   0.96036    0.043
 5944.00    1.01779   0.95924    0.043
 5945.00    1.00510   0.96243    0.043
 5946.00    0.98926   0.96343    0.043
 5947.00    0.99709   0.96043    0.043
 5948.00    1.01394   0.96021    0.044
 5949.00    1.02415   0.96337    0.044
 5950.00    1.03222   0.96290    0.044
 5951.00    1.02159   0.96013    0.044
 5952.00    1.00589   0.96125    0.044
 5953.00    1.01150   0.96380    0.044
 5954.00    1.02185   0.96217    0.044
 5955.00    1.01699   0.96051    0.044
 5956.00    1.00943   0.96262    0.044
 5957.00    0.98725   0.96440    0.044
 5958.00    0.96309   0.96289    0.044
 5959.00    0.98299   0.96251    0.045
 5960.00    1.00713   0.96465    0.045
 5961.00    1.00136   0.96563    0.045
 5962.00    0.99379   0.96515    0.046
 5963.00    0.98814   0.96566    0.045
 5964.00    0.98269   0.96731    0.044
 5965.00    0.99983   0.96803    0.044
 5966.00    1.01632   0.96840    0.045
 5967.00    1.01649   0.96897    0.044
 5968.00    1.01675   0.96990    0.044
 5969.00    1.01827   0.97056    0.043
 5970.00    1.01893   0.97107    0.042
 5971.00    1.01188   0.97117    0.042
 5972.00    1.00469   0.97185    0.041
 5973.00    0.99662   0.97267    0.041
 5974.00    0.98841   0.97269    0.041
 5975.00    0.97947   0.97230    0.042
 5976.00    0.97499   0.97293    0.042
 5977.00    0.98902   0.97398    0.043
 5978.00    1.00184   0.97359    0.043
 5979.00    1.01055   0.97295    0.042
 5980.00    1.01236   0.97359    0.042
 5981.00    0.99425   0.97498    0.042
 5982.00    0.98298   0.97454    0.042
 5983.00    0.98853   0.97435    0.043
 5984.00    0.99689   0.97589    0.043
 5985.00    1.01125   0.97720    0.043
 5986.00    1.01545   0.97622    0.043
 5987.00    1.00090   0.97646    0.044
 5988.00    0.98576   0.97939    0.044
 5989.00    0.96969   0.98047    0.044
 5990.00    0.95789   0.97906    0.044
 5991.00    0.95213   0.97996    0.044
 5992.00    0.96244   0.98310    0.044
 5993.00    0.99278   0.98320    0.043
 5994.00    1.00564   0.98187    0.043
 5995.00    0.99931   0.98396    0.043
 5996.00    0.99641   0.98634    0.043
 5997.00    0.99683   0.98507    0.043
 5998.00    0.99443   0.98403    0.043
 5999.00    0.98963   0.98637    0.043
 6000.00    0.99726   0.98741    0.043
 6001.00    1.01424   0.98579    0.043
 6002.00    1.01841   0.98583    0.043
 6003.00    1.01411   0.98730    0.042
 6004.00    1.00217   0.98669    0.041
 6005.00    0.98581   0.98556    0.041
 6006.00    0.97203   0.98692    0.041
 6007.00    0.95956   0.98753    0.041
 6008.00    0.97169   0.98617    0.042
 6009.00    0.99455   0.98612    0.042
 6010.00    1.02445   0.98749    0.043
 6011.00    1.05698   0.98714    0.043
 6012.00    1.06107   0.98674    0.043
 6013.00    1.05613   0.98840    0.043
 6014.00    1.03733   0.98898    0.043
 6015.00    1.01487   0.98779    0.043
 6016.00    0.98716   0.98889    0.043
 6017.00    0.95832   0.99181    0.044
 6018.00    0.97027   0.99169    0.045
 6019.00    0.98925   0.99069    0.046
 6020.00    0.97734   0.99318    0.045
 6021.00    0.96140   0.99591    0.044
 6022.00    0.94958   0.99525    0.044
 6023.00    0.93815   0.99556    0.044
 6024.00    0.96058   0.99914    0.043
 6025.00    0.98489   1.00093    0.043
 6026.00    0.98448   1.00015    0.044
 6027.00    0.98343   1.00176    0.044
 6028.00    0.97389   1.00549    0.043
 6029.00    0.96586   1.00633    0.043
 6030.00    0.99274   1.00609    0.042
 6031.00    1.01931   1.00858    0.042
 6032.00    1.04177   1.01163    0.043
 6033.00    1.06058   1.01178    0.043
 6034.00    1.04806   1.01224    0.042
 6035.00    1.03470   1.01507    0.042
 6036.00    1.01604   1.01719    0.041
 6037.00    1.00246   1.01731    0.041
 6038.00    1.01423   1.01823    0.041
 6039.00    1.02694   1.02058    0.041
 6040.00    1.04350   1.02176    0.041
 6041.00    1.05290   1.02230    0.042
 6042.00    1.03824   1.02352    0.042
 6043.00    1.02485   1.02499    0.042
 6044.00    1.01505   1.02535    0.043
 6045.00    1.00827   1.02606    0.043
 6046.00    1.00880   1.02734    0.043
 6047.00    1.01094   1.02801    0.043
 6048.00    1.01648   1.02792    0.043
 6049.00    1.02133   1.02846    0.043
 6050.00    1.02493   1.02938    0.043
 6051.00    1.01859   1.02934    0.043
 6052.00    0.99644   1.02911    0.042
 6053.00    0.97299   1.02956    0.042
 6054.00    0.94772   1.03003    0.043
 6055.00    0.93959   1.02947    0.043
 6056.00    0.95249   1.02883    0.043
 6057.00    0.97195   1.02935    0.043
 6058.00    0.99851   1.03020    0.042
 6059.00    1.01096   1.02957    0.042
 6060.00    1.00995   1.02856    0.042
 6061.00    1.00471   1.02939    0.042
 6062.00    0.99593   1.03070    0.042
 6063.00    0.99585   1.03015    0.042
 6064.00    1.00222   1.02933    0.042
 6065.00    1.01795   1.03069    0.041
 6066.00    1.03977   1.03204    0.041
 6067.00    1.05083   1.03139    0.041
 6068.00    1.05577   1.03117    0.041
 6069.00    1.06186   1.03295    0.042
 6070.00    1.06852   1.03393    0.041
 6071.00    1.07344   1.03336    0.041
 6072.00    1.07761   1.03337    0.042
 6073.00    1.07059   1.03459    0.042
 6074.00    1.05946   1.03540    0.042
 6075.00    1.05235   1.03546    0.042
 6076.00    1.04649   1.03502    0.042
 6077.00    1.02690   1.03482    0.042
 6078.00    1.00375   1.03572    0.043
 6079.00    0.99702   1.03627    0.042
 6080.00    0.99378   1.03480    0.041
 6081.00    1.01303   1.03363    0.042
 6082.00    1.03605   1.03514    0.043
 6083.00    1.03885   1.03565    0.043
 6084.00    1.03910   1.03293    0.043
 6085.00    1.02377   1.03207    0.044
 6086.00    1.00707   1.03485    0.044
 6087.00    1.00604   1.03471    0.043
 6088.00    1.00582   1.03111    0.042
 6089.00    1.00563   1.03116    0.043
 6090.00    1.00519   1.03441    0.043
 6091.00    0.98537   1.03389    0.042
 6092.00    0.96700   1.03093    0.042
 6093.00    0.97946   1.03146    0.041
 6094.00    0.99136   1.03385    0.041
 6095.00    0.99667   1.03319    0.041
 6096.00    1.00289   1.03160    0.040
 6097.00    1.01658   1.03282    0.041
 6098.00    1.02760   1.03426    0.041
 6099.00    1.02203   1.03325    0.040
 6100.00    1.01779   1.03276    0.040
 6101.00    1.01999   1.03416    0.041
 6102.00    1.02319   1.03495    0.041
 6103.00    1.03031   1.03445    0.041
 6104.00    1.03454   1.03415    0.041
 6105.00    1.02923   1.03456    0.042
 6106.00    1.02135   1.03550    0.042
 6107.00    1.00629   1.03609    0.042
 6108.00    0.99652   1.03566    0.042
 6109.00    0.99931   1.03493    0.042
 6110.00    1.00461   1.03552    0.042
 6111.00    1.01508   1.03690    0.043
 6112.00    1.02670   1.03692    0.043
 6113.00    1.04037   1.03539    0.044
 6114.00    1.03822   1.03525    0.044
 6115.00    1.01131   1.03694    0.043
 6116.00    0.98822   1.03689    0.042
 6117.00    0.97036   1.03522    0.042
 6118.00    0.96106   1.03499    0.042
 6119.00    0.96214   1.03588    0.042
 6120.00    0.96074   1.03513    0.041
 6121.00    0.95672   1.03427    0.041
 6122.00    0.95449   1.03466    0.040
 6123.00    0.95395   1.03446    0.040
 6124.00    0.96353   1.03266    0.039
 6125.00    0.98148   1.03250    0.039
 6126.00    1.00343   1.03408    0.039
 6127.00    1.02831   1.03311    0.040
 6128.00    1.03934   1.03005    0.040
 6129.00    1.04149   1.03049    0.040
 6130.00    1.03330   1.03328    0.040
 6131.00    1.01932   1.03218    0.041
 6132.00    1.00271   1.02933    0.041
 6133.00    0.98482   1.02986    0.041
 6134.00    0.97894   1.03194    0.042
 6135.00    0.97813   1.03061    0.043
 6136.00    0.96336   1.02861    0.043
 6137.00    0.94354   1.02964    0.043
 6138.00    0.95865   1.03126    0.043
 6139.00    0.98442   1.02914    0.044
 6140.00    1.00894   1.02682    0.044
 6141.00    1.03314   1.02825    0.043
 6142.00    1.02265   1.02974    0.043
 6143.00    1.00499   1.02666    0.043
 6144.00    1.01839   1.02344    0.043
 6145.00    1.03684   1.02484    0.044
 6146.00    1.02824   1.02592    0.042
 6147.00    1.01635   1.02246    0.040
 6148.00    1.00558   1.01769    0.040
 6149.00    0.99491   1.01699    0.040
 6150.00    0.99457   1.01700    0.040
 6151.00    0.99472   1.01354    0.040
 6152.00    1.00120   1.00758    0.039
 6153.00    1.00753   1.00448    0.039
 6154.00    0.99930   1.00348    0.039
 6155.00    0.99159   0.99979    0.040
 6156.00    0.99424   0.99259    0.040
 6157.00    0.99859   0.98775    0.041
 6158.00    1.02247   0.98707    0.041
 6159.00    1.04171   0.98380    0.042
 6160.00    1.02382   0.97570    0.042
 6161.00    1.00479   0.97025    0.042
 6162.00    0.97896   0.97072    0.042
 6163.00    0.95575   0.96759    0.041
 6164.00    0.94502   0.95934    0.042
 6165.00    0.94113   0.95572    0.042
 6166.00    0.96380   0.95777    0.042
 6167.00    0.98376   0.95453    0.042
 6168.00    0.99499   0.94714    0.043
 6169.00    1.00015   0.94646    0.044
 6170.00    0.98871   0.94977    0.043
 6171.00    0.98386   0.94649    0.043
 6172.00    0.99442   0.94120    0.042
 6173.00    0.99936   0.94300    0.042
 6174.00    0.99289   0.94612    0.041
 6175.00    0.98797   0.94260    0.041
 6176.00    0.98577   0.93952    0.041
 6177.00    0.97789   0.94227    0.041
 6178.00    0.96126   0.94387    0.040
 6179.00    0.94921   0.94101    0.041
 6180.00    0.94335   0.94017    0.041
 6181.00    0.95286   0.94192    0.041
 6182.00    0.98071   0.94118    0.040
 6183.00    0.99675   0.93928    0.039
 6184.00    1.00038   0.94003    0.039
 6185.00    1.00004   0.94022    0.040
 6186.00    0.99601   0.93793    0.040
 6187.00    0.99619   0.93718    0.040
 6188.00    0.99982   0.93833    0.040
 6189.00    1.00323   0.93690    0.040
 6190.00    1.00647   0.93452    0.041
 6191.00    1.00281   0.93511    0.041
 6192.00    0.99478   0.93598    0.040
 6193.00    0.99174   0.93359    0.040
 6194.00    0.99144   0.93202    0.041
 6195.00    0.97836   0.93388    0.043
 6196.00    0.95913   0.93471   -2.000
 6197.00    0.91857   0.93217   -2.000
 6198.00    0.86916   0.93114   -2.000
 6199.00    0.84869   0.93361   -2.000
 6200.00    0.83847   0.93448   -2.000
 6201.00    0.86099   0.93245   -2.000
 6202.00    0.89331   0.93164   -2.000
 6203.00    0.91539   0.93345   -2.000
 6204.00    0.93494   0.93405   -2.000
 6205.00    0.95662   0.93232   -2.000
 6206.00    0.97872   0.93110   -2.000
 6207.00    0.99990   0.93172   -2.000
 6208.00    1.02094   0.93174    0.043
 6209.00    1.03167   0.93018    0.041
 6210.00    1.04120   0.92851    0.040
 6211.00    1.04191   0.92776    0.040
 6212.00    1.04191   0.92689    0.040
 6213.00    1.04332   0.92498    0.040
 6214.00    1.04480   0.92295    0.040
 6215.00    1.03213   0.92171    0.040
 6216.00    1.01918   0.92035    0.039
 6217.00    1.00054   0.91779    0.039
 6218.00    0.98267   0.91543    0.039
 6219.00    0.97893   0.91443    0.040
 6220.00    0.97564   0.91326    0.041
 6221.00    0.97737   0.91053    0.041
 6222.00    0.98050   0.90799    0.042
 6223.00    0.99452   0.90774    0.042
 6224.00    1.01004   0.90739    0.042
 6225.00    1.03439   0.90481    0.042
 6226.00    1.05010   0.90248    0.043
 6227.00    1.02572   0.90280    0.042
 6228.00    1.00549   0.90305    0.041
 6229.00    1.00094   0.90104    0.042
 6230.00    0.99809   0.89927    0.043
 6231.00    1.00061   0.90006    0.042
 6232.00    1.00263   0.90065    0.042
 6233.00    1.00329   0.89911    0.041
 6234.00    1.00688   0.89821    0.040
 6235.00    1.01721   0.89950    0.040
 6236.00    1.01814   0.90010    0.040
 6237.00    1.00035   0.89873    0.039
 6238.00    0.98276   0.89839    0.039
 6239.00    0.96553   0.90020    0.039
 6240.00    0.95699   0.90118    0.039
 6241.00    0.96166   0.89981    0.039
 6242.00    0.97002   0.89971    0.040
 6243.00    0.98332   0.90220    0.040
 6244.00    0.99613   0.90315    0.040
 6245.00    1.00837   0.90138    0.040
 6246.00    1.01590   0.90178    0.040
 6247.00    1.01856   0.90495    0.041
 6248.00    1.00872   0.90547    0.041
 6249.00    0.98745   0.90380    0.041
 6250.00    0.98130   0.90529    0.041
 6251.00    0.98735   0.90824    0.041
 6252.00    0.99886   0.90779    0.041
 6253.00    1.01424   0.90725    0.041
 6254.00    1.02837   0.91000    0.042
 6255.00    1.04173   0.91190    0.042
 6256.00    1.04823   0.91075    0.042
 6257.00    1.05100   0.91175    0.042
 6258.00    1.03715   0.91540    0.043
 6259.00    1.01545   0.91604    0.044
 6260.00    0.99085   0.91458    0.046
 6261.00    0.96507   0.91719    0.047
 6262.00    0.96734   0.92162    0.048
 6263.00    0.97936   0.92106    0.048
 6264.00    1.01261   0.91941    0.048
 6265.00    1.05208   0.92340    0.048
 6266.00    1.07534   0.92815    0.046
 6267.00    1.09466   0.92668    0.043
 6268.00    1.08950   0.92550    0.042
 6269.00    1.07953   0.93041    0.041
 6270.00    1.07878   0.93447    0.040
 6271.00    1.07945   0.93248    0.040
 6272.00    1.06884   0.93219    0.040
 6273.00    1.05696   0.93728    0.040
 6274.00    1.04498   0.94027    0.040
 6275.00    1.03299   0.93835    0.041
 6276.00    1.02116   0.93884    0.041
 6277.00    1.00934   0.94353    0.040
 6278.00    1.01661   0.94576    0.041
 6279.00    1.02403   0.94426    0.041
 6280.00    1.03185   0.94512    0.000
 6281.00    1.03966   0.94927    0.000
 6282.00    1.04739   0.95106    0.000
 6283.00    1.05389   0.94983    0.000
 6284.00    1.04741   0.95082    0.000
 6285.00    1.04338   0.95462    0.000
 6286.00    1.05755   0.95608    0.000
 6287.00    1.07085   0.95475    0.000
 6288.00    1.07920   0.95565    0.000
 6289.00    1.08603   0.95924    0.000
 6290.00    1.08596   0.96053    0.000
 6291.00    1.08483   0.95900    0.000
 6292.00    1.07973   0.95969    0.000
 6293.00    1.07500   0.96305    0.000
 6294.00    1.07140   0.96412    0.000
 6295.00    1.06960   0.96262    0.000
 6296.00    1.07253   0.96332    0.000
 6297.00    1.07280   0.96643    0.000
 6298.00    1.06703   0.96726    0.000
 6299.00    1.06397   0.96603    0.000
 6300.00    1.06623   0.96702    0.000
 6301.00    1.07283   0.96992    0.000
 6302.00    1.08681   0.97080    0.000
 6303.00    1.09284   0.97006    0.000
 6304.00    1.08697   0.97114    0.000
 6305.00    1.07911   0.97381    0.000
 6306.00    1.06864   0.97524    0.000
 6307.00    1.06684   0.97528    0.000
 6308.00    1.07507   0.97596    0.000
 6309.00    1.08576   0.97803    0.000
 6310.00    1.09895   0.98025    0.000
 6311.00    1.10192   0.98126    0.000
 6312.00    1.09568   0.98133    0.000
 6313.00    1.08191   0.98246    0.000
 6314.00    1.06215   0.98524    0.000
 6315.00    1.05367   0.98724    0.000
 6316.00    1.05309   0.98687    0.000
 6317.00    1.06261   0.98704    0.000
 6318.00    1.07832   0.99009    0.000
 6319.00    1.08989   0.99285    0.000
 6320.00    1.09926   0.99227    0.000
 6321.00    1.10161   0.99178    0.039
 6322.00    1.10071   0.99485    0.039
 6323.00    1.08824   0.99789    0.038
 6324.00    1.07115   0.99726    0.038
 6325.00    1.06723   0.99663    0.038
 6326.00    1.06781   0.99955    0.038
 6327.00    1.08260   1.00234    0.039
 6328.00    1.10147   1.00190    0.039
 6329.00    1.08337   1.00122    0.040
 6330.00    1.05648   1.00340    0.040
 6331.00    1.04956   1.00588    0.040
 6332.00    1.04647   1.00607    0.040
 6333.00    1.06170   1.00490    0.040
 6334.00    1.07965   1.00579    0.041
 6335.00    1.07362   1.00826    0.041
 6336.00    1.06498   1.00906    0.040
 6337.00    1.07959   1.00696    0.040
 6338.00    1.09585   1.00655    0.041
 6339.00    1.09456   1.00935    0.041
 6340.00    1.09264   1.01038    0.040
 6341.00    1.08763   1.00726    0.040
 6342.00    1.08241   1.00591    0.039
 6343.00    1.07055   1.00896    0.039
 6344.00    1.05942   1.00996    0.038
 6345.00    1.05989   1.00607    0.038
 6346.00    1.05997   1.00412    0.038
 6347.00    1.05606   1.00733    0.038
 6348.00    1.05446   1.00779    0.038
 6349.00    1.06958   1.00366    0.038
 6350.00    1.08424   1.00199    0.039
 6351.00    1.09630   1.00524    0.039
 6352.00    1.10456   1.00476    0.040
 6353.00    1.09597   1.00057    0.040
 6354.00    1.08538   0.99967    0.039
 6355.00    1.06752   1.00312    0.039
 6356.00    1.05658   1.00198    0.040
 6357.00    1.06675   0.99798    0.041
 6358.00    1.07908   0.99832    0.041
 6359.00    1.09703   1.00231    0.042
 6360.00    1.11082   1.00103    0.042
 6361.00    1.11535   0.99740    0.042
 6362.00    1.11678   0.99909    0.042
 6363.00    1.11222   1.00370    0.042
 6364.00    1.10757   1.00266    0.042
 6365.00    1.10275   0.99971    0.042
 6366.00    1.09644   1.00255    0.042
 6367.00    1.08794   1.00775    0.041
 6368.00    1.07949   1.00711    0.040
 6369.00    1.07110   1.00487    0.040
 6370.00    1.07832   1.00825    0.040
 6371.00    1.10337   1.01358    0.039
 6372.00    1.12454   1.01326    0.039
 6373.00    1.14181   1.01152    0.040
 6374.00    1.14795   1.01482    0.040
 6375.00    1.14419   1.01961    0.039
 6376.00    1.12661   1.01929    0.039
 6377.00    1.09818   1.01790    0.039
 6378.00    1.08483   1.02068    0.039
 6379.00    1.08185   1.02428    0.039
 6380.00    1.09560   1.02381    0.039
 6381.00    1.11946   1.02288    0.040
 6382.00    1.13399   1.02494    0.040
 6383.00    1.14360   1.02694    0.040
 6384.00    1.13405   1.02660    0.041
 6385.00    1.11574   1.02660    0.040
 6386.00    1.09975   1.02786    0.040
 6387.00    1.08468   1.02817    0.041
 6388.00    1.09850   1.02842    0.041
 6389.00    1.12200   1.02983    0.041
 6390.00    1.12313   1.03027    0.040
 6391.00    1.11795   1.02921    0.039
 6392.00    1.10171   1.03050    0.040
 6393.00    1.08291   1.03333    0.042
 6394.00    1.07500   1.03288    0.041
 6395.00    1.06912   1.03110    0.041
 6396.00    1.06613   1.03372    0.041
 6397.00    1.06354   1.03742    0.041
 6398.00    1.07490   1.03603    0.040
 6399.00    1.08770   1.03420    0.040
 6400.00    1.09949   1.03800    0.040
 6401.00    1.11122   1.04166    0.040
 6402.00    1.13130   1.03937    0.040
 6403.00    1.15165   1.03800    0.040
 6404.00    1.13976   1.04249    0.040
 6405.00    1.12770   1.04534    0.040
 6406.00    1.11082   1.04240    0.039
 6407.00    1.09534   1.04151    0.039
 6408.00    1.10070   1.04597    0.040
 6409.00    1.10587   1.04773    0.041
 6410.00    1.10916   1.04453    0.041
 6411.00    1.11347   1.04406    0.041
 6412.00    1.12498   1.04789    0.041
 6413.00    1.13333   1.04870    0.041
 6414.00    1.12476   1.04575    0.041
 6415.00    1.11439   1.04535    0.040
 6416.00    1.09625   1.04815    0.041
 6417.00    1.07782   1.04864    0.041
 6418.00    1.05832   1.04656    0.041
 6419.00    1.04453   1.04616    0.040
 6420.00    1.04778   1.04784    0.040
 6421.00    1.05398   1.04830    0.039
 6422.00    1.06770   1.04728    0.039
 6423.00    1.08157   1.04721    0.038
 6424.00    1.09575   1.04814    0.039
 6425.00    1.10379   1.04848    0.039
 6426.00    1.10016   1.04848    0.039
 6427.00    1.09880   1.04923    0.039
 6428.00    1.10121   1.04971    0.039
 6429.00    1.10412   1.04954    0.040
 6430.00    1.10774   1.05044    0.040
 6431.00    1.10784   1.05245    0.041
 6432.00    1.10344   1.05259    0.041
 6433.00    1.10133   1.05153    0.041
 6434.00    1.10178   1.05313    0.041
 6435.00    1.09310   1.05643    0.041
 6436.00    1.07535   1.05623    0.041
 6437.00    1.06414   1.05420    0.040
 6438.00    1.05865   1.05624    0.041
 6439.00    1.07170   1.06032    0.041
 6440.00    1.09907   1.05968    0.041
 6441.00    1.11019   1.05703    0.041
 6442.00    1.11027   1.05929    0.040
 6443.00    1.09648   1.06342    0.040
 6444.00    1.07444   1.06230    0.040
 6445.00    1.07883   1.05950    0.039
 6446.00    1.09695   1.06175    0.039
 6447.00    1.10798   1.06539    0.039
 6448.00    1.11583   1.06398    0.039
 6449.00    1.10156   1.06148    0.039
 6450.00    1.07875   1.06361    0.039
 6451.00    1.07256   1.06673    0.039
 6452.00    1.07185   1.06535    0.040
 6453.00    1.04294   1.06324    0.039
 6454.00    1.00625   1.06531    0.039
 6455.00    0.95128   1.06831    0.038
 6456.00    0.89216   1.06710    0.038
 6457.00    0.87627   1.06503    0.039
 6458.00    0.86821   1.06715    0.039
 6459.00    0.88809   1.07052    0.040
 6460.00    0.91185   1.06935    0.040
 6461.00    0.95138   1.06682    0.040
 6462.00    0.99249   1.06898    0.040
 6463.00    1.00408   1.07286    0.041
 6464.00    1.01381   1.07138    0.041
 6465.00    1.02040   1.06793    0.041
 6466.00    1.02689   1.06999    0.040
 6467.00    1.03462   1.07414    0.040
 6468.00    1.04271   1.07198    0.040
 6469.00    1.06109   1.06739    0.040
 6470.00    1.07851   1.06913    0.039
 6471.00    1.08231   1.07311    0.039
 6472.00    1.08569   1.07002    0.040
 6473.00    1.08519   1.06441    0.039
 6474.00    1.08517   1.06567    0.039
 6475.00    1.08840   1.06908    0.039
 6476.00    1.09195   1.06507    0.039
 6477.00    1.09709   1.05875    0.039
 6478.00    1.10231   1.05955    0.039
 6479.00    1.10781   1.06215    0.039
 6480.00    1.11227   1.05736    0.039
 6481.00    1.11308   1.05079    0.039
 6482.00    1.10903   1.05129    0.039
 6483.00    1.09072   1.05308    0.040
 6484.00    1.07813   1.04789    0.041
 6485.00    1.07983   1.04151    0.040
 6486.00    1.09109   1.04191    0.040
 6487.00    1.12293   1.04317    0.041
 6488.00    1.14368   1.03814    0.041
 6489.00    1.14366   1.03241    0.042
 6490.00    1.13421   1.03283    0.042
 6491.00    1.10932   1.03398    0.040
 6492.00    1.09396   1.02991    0.040
 6493.00    1.09225   1.02533    0.040
 6494.00    1.09622   1.02587    0.040
 6495.00    1.10737   1.02727    0.040
 6496.00    1.11130   1.02492    0.040
 6497.00    1.10722   1.02197    0.039
 6498.00    1.10785   1.02265    0.038
 6499.00    1.11311   1.02447    0.038
 6500.00    1.11924   1.02425    0.038
 6501.00    1.12613   1.02317    0.038
 6502.00    1.12927   1.02392    0.038
 6503.00    1.12957   1.02600    0.038
 6504.00    1.13136   1.02771    0.039
 6505.00    1.13416   1.02831    0.039
 6506.00    1.13157   1.02898    0.039
 6507.00    1.12582   1.03103    0.040
 6508.00    1.11785   1.03396    0.040
 6509.00    1.10874   1.03559    0.041
 6510.00    1.12176   1.03610    0.041
 6511.00    1.14457   1.03795    0.041
 6512.00    1.15305   1.04125    0.041
 6513.00    1.15609   1.04310    0.041
 6514.00    1.14531   1.04348    0.041
 6515.00    1.13007   1.04523    0.040
 6516.00    1.13683   1.04827    0.040
 6517.00    1.14953   1.04973    0.040
 6518.00    1.15511   1.05009    0.040
 6519.00    1.15912   1.05194    0.040
 6520.00    1.14691   1.05446    0.040
 6521.00    1.13185   1.05529    0.039
 6522.00    1.13181   1.05574    0.039
 6523.00    1.13379   1.05772    0.039
 6524.00    1.11972   1.05962    0.038
 6525.00    1.10411   1.05986    0.038
 6526.00    1.09729   1.06041    0.038
 6527.00    1.09099   1.06227    0.038
 6528.00    1.12010   1.06334    0.000
 6529.00    1.15001   1.06305    0.000
 6530.00    1.16607   1.06363    0.000
 6531.00    1.18113   1.06493    0.000
 6532.00    1.17102   1.06477    0.000
 6533.00    1.16065   1.06377    0.000
 6534.00    1.14674   1.06422    0.000
 6535.00    1.13394   1.06460    0.000
 6536.00    1.13095   1.06264    0.000
 6537.00    1.13280   1.06042    0.000
 6538.00    1.16642   1.06051    0.000
 6539.00    1.19387   1.05987    0.000
 6540.00    1.18987   1.05564    0.000
 6541.00    1.18276   1.05147    0.000
 6542.00    1.16282   1.05097    0.000
 6543.00    1.14769   1.04954    0.000
 6544.00    1.14900   1.04287    0.000
 6545.00    1.15219   1.03609    0.000
 6546.00    1.16077   1.03489    0.000
 6547.00    1.17096   1.03327    0.000
 6548.00    1.18516   1.02437    0.000
 6549.00    1.19152   1.01471    0.000
 6550.00    1.18127   1.01306    0.000
 6551.00    1.16608   1.01217    0.000
 6552.00    1.14180   1.00175    0.000
 6553.00    1.12727   0.98959    0.000
 6554.00    1.12845   0.98817    0.000
 6555.00    1.12812   0.98916    0.000
 6556.00    1.12567   0.97850    0.000
 6557.00    1.12581   0.96500    0.000
 6558.00    1.12915   0.96473    0.000
 6559.00    1.13859   0.96865    0.000
 6560.00    1.15469   0.95944    0.000
 6561.00    1.16597   0.94648    0.000
 6562.00    1.17259   0.94814    0.000
 6563.00    1.16490   0.95530    0.000
 6564.00    1.14503   0.94910    0.000
 6565.00    1.13708   0.93876    0.000
 6566.00    1.13806   0.94269    0.000
 6567.00    1.13671   0.95232    0.000
 6568.00    1.13384   0.94985    0.000
 6569.00    1.12998   0.94360    0.000
 6570.00    1.12554   0.94944    0.000
 6571.00    1.12579   0.95987    0.000
 6572.00    1.12840   0.96056    0.000
 6573.00    1.11946   0.95871    0.000
 6574.00    1.10550   0.96571    0.000
 6575.00    1.10079   0.97520    0.000
 6576.00    1.09953   0.97757    0.000
 6577.00    1.12651   0.97921    0.000
 6578.00    1.16243   0.98650    0.000
 6579.00    1.19284   0.99386    0.000
 6580.00    1.22180   0.99637    0.000
 6581.00    1.23452   0.99998    0.000
 6582.00    1.24374   1.00682    0.000
 6583.00    1.22224   1.01173    0.000
 6584.00    1.19547   1.01336    0.000
 6585.00    1.17862   1.01750    0.000
 6586.00    1.16305   1.02349    0.000
 6587.00    1.14915   1.02624    0.000
 6588.00    1.13540   1.02661    0.000
 6589.00    1.11103   1.03037    0.000
 6590.00    1.08607   1.03540    0.000
 6591.00    1.09609   1.03654    0.000
 6592.00    1.10679   1.03577    0.000
 6593.00    1.11110   1.03881    0.000
 6594.00    1.11520   1.04300    0.000
 6595.00    1.11434   1.04305    0.000
 6596.00    1.11291   1.04149    0.000
 6597.00    1.10404   1.04392    0.000
 6598.00    1.09541   1.04750    0.000
 6599.00    1.08874   1.04685    0.000
 6600.00    1.08291   1.04483    0.000
 6601.00    1.08250   1.04698    0.000
 6602.00    1.08653   1.05022    0.000
 6603.00    1.11275   1.04907    0.000
 6604.00    1.13591   1.04675    0.000
 6605.00    1.14679   1.04894    0.000
 6606.00    1.15570   1.05209    0.000
 6607.00    1.15800   1.05050    0.000
 6608.00    1.15862   1.04791    0.000
 6609.00    1.15449   1.05022    0.042
 6610.00    1.14628   1.05340    0.042
 6611.00    1.12821   1.05150    0.042
 6612.00    1.12162   1.04858    0.042
 6613.00    1.13900   1.05080    0.042
 6614.00    1.15105   1.05393    0.042
 6615.00    1.15346   1.05188    0.041
 6616.00    1.15510   1.04871    0.041
 6617.00    1.15553   1.05049    0.040
 6618.00    1.15239   1.05329    0.039
 6619.00    1.14426   1.05128    0.040
 6620.00    1.13116   1.04807    0.040
 6621.00    1.11197   1.04916    0.039
 6622.00    1.11787   1.05134    0.040
 6623.00    1.15086   1.04954    0.040
 6624.00    1.17358   1.04659    0.041
 6625.00    1.18650   1.04694    0.041
 6626.00    1.17649   1.04836    0.041
 6627.00    1.14721   1.04698    0.041
 6628.00    1.12743   1.04457    0.041
 6629.00    1.11468   1.04421    0.041
 6630.00    1.10423   1.04486    0.042
 6631.00    1.09528   1.04416    0.043
 6632.00    1.09513   1.04255    0.043
 6633.00    1.09998   1.04147    0.042
 6634.00    1.11658   1.04127    0.042
 6635.00    1.13899   1.04138    0.042
 6636.00    1.14803   1.04078    0.042
 6637.00    1.15136   1.03897    0.043
 6638.00    1.14217   1.03769    0.042
 6639.00    1.12840   1.03848    0.042
 6640.00    1.11878   1.03895    0.041
 6641.00    1.11045   1.03650    0.041
 6642.00    1.13275   1.03396    0.040
 6643.00    1.16298   1.03500    0.040
 6644.00    1.17514   1.03640    0.040
 6645.00    1.18348   1.03358    0.040
 6646.00    1.17974   1.02987    0.040
 6647.00    1.17399   1.03069    0.040
 6648.00    1.16298   1.03267    0.041
 6649.00    1.15131   1.02986    0.041
 6650.00    1.16038   1.02547    0.042
 6651.00    1.17126   1.02583    0.042
 6652.00    1.15969   1.02797    0.042
 6653.00    1.14697   1.02552    0.042
 6654.00    1.15040   1.02116    0.042
 6655.00    1.15429   1.02111    0.043
 6656.00    1.17070   1.02305    0.043
 6657.00    1.18500   1.02121    0.043
 6658.00    1.15473   1.01756    0.043
 6659.00    1.12552   1.01723    0.042
 6660.00    1.10887   1.01868    0.043
 6661.00    1.09296   1.01753    0.043
 6662.00    1.08320   1.01504    0.042
 6663.00    1.07438   1.01444    0.041
 6664.00    1.07140   1.01508    0.041
 6665.00    1.07064   1.01462    0.040
 6666.00    1.08071   1.01345    0.040
 6667.00    1.09539   1.01242    0.040
 6668.00    1.12829   1.01184    0.040
 6669.00    1.15290   1.01188    0.040
 6670.00    1.15027   1.01205    0.040
 6671.00    1.14841   1.01051    0.041
 6672.00    1.14872   1.00837    0.041
 6673.00    1.14758   1.00851    0.041
 6674.00    1.14304   1.00993    0.042
 6675.00    1.13944   1.00819    0.042
 6676.00    1.13779   1.00454    0.042
 6677.00    1.13249   1.00431    0.042
 6678.00    1.12068   1.00670    0.042
 6679.00    1.11547   1.00544    0.043
 6680.00    1.12057   1.00096    0.043
 6681.00    1.12917   1.00005    0.043
 6682.00    1.14257   1.00287    0.044
 6683.00    1.14420   1.00269    0.044
 6684.00    1.13162   0.99849    0.044
 6685.00    1.13982   0.99697    0.043
 6686.00    1.17016   0.99962    0.043
 6687.00    1.18214   1.00059    0.043
 6688.00    1.17688   0.99761    0.042
 6689.00    1.15547   0.99593    0.042
 6690.00    1.12071   0.99791    0.041
 6691.00    1.11526   0.99956    0.041
 6692.00    1.13117   0.99813    0.041
 6693.00    1.13104   0.99678    0.041
 6694.00    1.12066   0.99798    0.041
 6695.00    1.11056   0.99958    0.041
 6696.00    1.10062   0.99925    0.000
 6697.00    1.09397   0.99845    0.000
 6698.00    1.08891   0.99901    0.000
 6699.00    1.10112   1.00000    0.000
 6700.00    1.12059   0.99996    0.000
 6701.00    1.11997   0.99953    0.000
 6702.00    1.11211   0.99963    0.000
 6703.00    1.09983   0.99973    0.000
 6704.00    1.08620   0.99922    0.000
 6705.00    1.09348   0.99884    0.000
 6706.00    1.10606   0.99866    0.000
 6707.00    1.14384   0.99786    0.000
 6708.00    1.18681   0.99645    0.000
 6709.00    1.16604   0.99582    0.000
 6710.00    1.13496   0.99554    0.000
 6711.00    1.12488   0.99409    0.000
 6712.00    1.11735   0.99179    0.000
 6713.00    1.13507   0.99086    0.000
 6714.00    1.15488   0.99073    0.000
 6715.00    1.17510   0.98907    0.000
 6716.00    1.19533   0.98625    0.000
 6717.00    1.20252   0.98517    0.000
 6718.00    1.20889   0.98550    0.000
 6719.00    1.17956   0.98421    0.000
 6720.00    1.15127   0.98136    0.000
 6721.00    1.14331   0.98031    0.000
 6722.00    1.13752   0.98134    0.000
 6723.00    1.15670   0.98093    0.000
 6724.00    1.17295   0.97842    0.000
 6725.00    1.16589   0.97736    0.000
 6726.00    1.15773   0.97906    0.000
 6727.00    1.14298   0.97984    0.000
 6728.00    1.13315   0.97788    0.000
 6729.00    1.14661   0.97656    0.000
 6730.00    1.15336   0.97853    0.000
 6731.00    1.13420   0.98044    0.000
 6732.00    1.12765   0.97912    0.000
 6733.00    1.16171   0.97733    0.000
 6734.00    1.17844   0.97893    0.000
 6735.00    1.14788   0.98154    0.000
 6736.00    1.11911   0.98097    0.000
 6737.00    1.09454   0.97882    0.000
 6738.00    1.07996   0.97945    0.000
 6739.00    1.08556   0.98204    0.000
 6740.00    1.09433   0.98234    0.000
 6741.00    1.10866   0.98033    0.000
 6742.00    1.11291   0.97985    0.000
 6743.00    1.10166   0.98181    0.000
 6744.00    1.08964   0.98295    0.000
 6745.00    1.07662   0.98164    0.000
 6746.00    1.07197   0.98048    0.000
 6747.00    1.07729   0.98165    0.000
 6748.00    1.07914   0.98329    0.000
 6749.00    1.07734   0.98303    0.000
 6750.00    1.08258   0.98206    0.000
 6751.00    1.09433   0.98265    0.000
 6752.00    1.09917   0.98422    0.000
 6753.00    1.09837   0.98495    0.049
 6754.00    1.09663   0.98503    0.050
 6755.00    1.09421   0.98562    0.050
 6756.00    1.07478   0.98664    0.050
 6757.00    1.04462   0.98775    0.051
 6758.00    1.03113   0.98917    0.051
 6759.00    1.02682   0.99041    0.051
 6760.00    1.12799   0.99079    0.052
 6761.00    1.27972   0.99157    0.054
 6762.00    1.33016   0.99392    0.055
 6763.00    1.33871   0.99600    0.056
 6764.00    1.32871   0.99598    0.056
 6765.00    1.31214   0.99603    0.055
 6766.00    1.32918   0.99850    0.055
 6767.00    1.35626   1.00111    0.055
 6768.00    1.34531   1.00092    0.054
 6769.00    1.32494   1.00014    0.054
 6770.00    1.31695   1.00200    0.053
 6771.00    1.31144   1.00456    0.053
 6772.00    1.27041   1.00430    0.052
 6773.00    1.22380   1.00280    0.051
 6774.00    1.20617   1.00360    0.051
 6775.00    1.19193   1.00556    0.050
 6776.00    1.19161   1.00522    0.050
 6777.00    1.19238   1.00343    0.050
 6778.00    1.19899   1.00338    0.051
 6779.00    1.20586   1.00443    0.051
 6780.00    1.20963   1.00369    0.052
 6781.00    1.21307   1.00189    0.052
 6782.00    1.20242   1.00159    0.051
 6783.00    1.19296   1.00197    0.049
 6784.00    1.20491   1.00079    0.049
 6785.00    1.21302   0.99920    0.049
 6786.00    1.17916   0.99924    0.049
 6787.00    1.15387   0.99958    0.050
 6788.00    1.19440   0.99826    0.050
 6789.00    1.22840   0.99695    0.050
 6790.00    1.22424   0.99770    0.051
 6791.00    1.22451   0.99863    0.052
 6792.00    1.24529   0.99753    0.052
 6793.00    1.25786   0.99650    0.052
 6794.00    1.23939   0.99792    0.052
 6795.00    1.22653   0.99981    0.053
 6796.00    1.23140   0.99925    0.052
 6797.00    1.22616   0.99833    0.052
 6798.00    1.19384   1.00012    0.051
 6799.00    1.17399   1.00292    0.051
 6800.00    1.18277   1.00301    0.050
 6801.00    1.18410   1.00200    0.049
 6802.00    1.17058   1.00370    0.050
 6803.00    1.16258   1.00711    0.050
 6804.00    1.16410   1.00786    0.050
 6805.00    1.17675   1.00657    0.050
 6806.00    1.20626   1.00767    0.051
 6807.00    1.21205   1.01136    0.051
 6808.00    1.18623   1.01289    0.050
 6809.00    1.17060   1.01131    0.050
 6810.00    1.16691   1.01132    0.049
 6811.00    1.16266   1.01481    0.050
 6812.00    1.15781   1.01728    0.052
 6813.00    1.19128   1.01589    0.053
 6814.00    1.25974   1.01467    0.054
 6815.00    1.28641   1.01742    0.055
 6816.00    1.27948   1.02090    0.055
 6817.00    1.24139   1.02025    0.055
 6818.00    1.18124   1.01793    0.054
 6819.00    1.16651   1.01951    0.053
 6820.00    1.18000   1.02376    0.052
 6821.00    1.19952   1.02443    0.052
 6822.00    1.22231   1.02154    0.052
 6823.00    1.19999   1.02157    0.052
 6824.00    1.15640   1.02601    0.050
 6825.00    1.15261   1.02830    0.050
 6826.00    1.16500   1.02570    0.050
 6827.00    1.18793   1.02415    0.050
 6828.00    1.21453   1.02785    0.051
 6829.00    1.24574   1.03148    0.052
 6830.00    1.27829   1.03000    0.053
 6831.00    1.25308   1.02731    0.052
 6832.00    1.21388   1.02938    0.051
 6833.00    1.19406   1.03355    0.051
 6834.00    1.17802   1.03384    0.051
 6835.00    1.18534   1.03082    0.053
 6836.00    1.19622   1.03073    0.054
 6837.00    1.20073   1.03443    0.055
 6838.00    1.20452   1.03646    0.056
 6839.00    1.20980   1.03402    0.057
 6840.00    1.21518   1.03207    0.057
 6841.00    1.17507   1.03433    0.057
 6842.00    1.13315   1.03728    0.057
 6843.00    1.11500   1.03598    0.054
 6844.00    1.09951   1.03305    0.052
 6845.00    1.18302   1.03354    0.052
 6846.00    1.26036   1.03639    0.053
 6847.00    1.23360   1.03638    0.052
 6848.00    1.21036   1.03352    0.051
 6849.00    1.22394   1.03253    0.051
 6850.00    1.23201   1.03449    0.050
 6851.00    1.19915   1.03528    0.050
 6852.00    1.17222   1.03323    0.050
 6853.00    1.17885   1.03169    0.050
 6854.00    1.18681   1.03264    0.050
 6855.00    1.20075   1.03360    0.051
 6856.00    1.20346   1.03248    0.051
 6857.00    1.16459   1.03114    0.052
 6858.00    1.13342   1.03144    0.052
 6859.00    1.12610   1.03253    0.053
 6860.00    1.12518   1.03256    0.054
 6861.00    1.14112   1.03165    0.054
 6862.00    1.15270   1.03129    0.054
 6863.00    1.15444   1.03250    0.053
 6864.00    1.15589   1.03365    0.053
 6865.00    1.15677   1.03332    0.053
 6866.00    1.14311   1.03291    0.053
 6867.00    1.10463   1.03426    0.052
 6868.00    1.09806   1.03604    0.052
 6869.00    1.13917   1.03638    0.052
 6870.00    1.15168   1.03638    0.051
 6871.00    1.12663   1.03778    0.051
 6872.00    1.13470   1.03974    0.051
 6873.00    1.18110   1.04067    0.051
 6874.00    1.19385   1.04125    0.051
 6875.00    1.17226   1.04266    0.051
 6876.00    1.14594   1.04452    0.050
 6877.00    1.11537   1.04592    0.050
 6878.00    1.14481   1.04679    0.051
 6879.00    1.22185   1.04821    0.053
 6880.00    1.24778   1.05030    0.053
 6881.00    1.23804   1.05222    0.053
 6882.00    1.20034   1.05293    0.053
 6883.00    1.14551   1.05407    0.053
 6884.00    1.12689   1.05677    0.053
 6885.00    1.12760   1.05897    0.054
 6886.00    1.13573   1.05902    0.052
 6887.00    1.14731   1.06019    0.051
 6888.00    1.14456   1.06385    0.051
 6889.00    1.13609   1.06607    0.052
 6890.00    1.15389   1.06519    0.052
 6891.00    1.18065   1.06604    0.051
 6892.00    1.18158   1.07074    0.051
 6893.00    1.17510   1.07350    0.050
 6894.00    1.16123   1.07172    0.050
 6895.00    1.14561   1.07149    0.051
 6896.00    1.16972   1.07670    0.052
 6897.00    1.20141   1.08060    0.053
 6898.00    1.21703   1.07879    0.055
 6899.00    1.23029   1.07711    0.056
 6900.00    1.20433   1.08151    0.057
 6901.00    1.17413   1.08662    0.057
 6902.00    1.14723   1.08578    0.055
 6903.00    1.12055   1.08288    0.053
 6904.00    1.14025   1.08545    0.053
 6905.00    1.16162   1.09105    0.054
 6906.00    1.16722   1.09163    0.053
 6907.00    1.17191   1.08818    0.052
 6908.00    1.14650   1.08867    0.052
 6909.00    1.12331   1.09388    0.053
 6910.00    1.13524   1.09567    0.052
 6911.00    1.14661   1.09256    0.052
 6912.00    1.15233   1.09174    0.052
 6913.00    1.15829   1.09551    0.052
 6914.00    1.16600   1.09753    0.052
 6915.00    1.17177   1.09546    0.051
 6916.00    1.16686   1.09435    0.051
 6917.00    1.15855   1.09676    0.051
 6918.00    1.13529   1.09821    0.050
 6919.00    1.12593   1.09681    0.050
 6920.00    1.16695   1.09608    0.050
 6921.00    1.20673   1.09786    0.051
 6922.00    1.24270   1.09888    0.052
 6923.00    1.25857   1.09774    0.053
 6924.00    1.22248   1.09749    0.053
 6925.00    1.20246   1.09925    0.053
 6926.00    1.21817   1.10025    0.054
 6927.00    1.22046   1.09895    0.054
 6928.00    1.19688   1.09891    0.054
 6929.00    1.17827   1.10129    0.053
 6930.00    1.16801   1.10274    0.053
 6931.00    1.16200   1.10154    0.053
 6932.00    1.16225   1.10129    0.053
 6933.00    1.16445   1.10377    0.054
 6934.00    1.16916   1.10613    0.053
 6935.00    1.16500   1.10563    0.053
 6936.00    1.15074   1.10490    0.053
 6937.00    1.15519   1.10713    0.053
 6938.00    1.17849   1.11005    0.053
 6939.00    1.17686   1.11014    0.052
 6940.00    1.15313   1.10944    0.051
 6941.00    1.14579   1.11162    0.051
 6942.00    1.15126   1.11459    0.051
 6943.00    1.13120   1.11514    0.052
 6944.00    1.09358   1.11457    0.052
 6945.00    1.10982   1.11639    0.052
 6946.00    1.15852   1.11940    0.053
 6947.00    1.18649   1.12019    0.054
 6948.00    1.20355   1.11964    0.054
 6949.00    1.22966   1.12140    0.055
 6950.00    1.25990   1.12467    0.055
 6951.00    1.25707   1.12569    0.055
 6952.00    1.24124   1.12502    0.055
 6953.00    1.23306   1.12660    0.055
 6954.00    1.22743   1.13028    0.055
 6955.00    1.22317   1.13159    0.054
 6956.00    1.21929   1.13033    0.054
 6957.00    1.18822   1.13174    0.053
 6958.00    1.15086   1.13605    0.052
 6959.00    1.15951   1.13775    0.051
 6960.00    1.17671   1.13618    0.051
 6961.00    1.18283   1.13686    0.052
 6962.00    1.18737   1.14116    0.052
 6963.00    1.16352   1.14368    0.052
 6964.00    1.13672   1.14198    0.051
 6965.00    1.14404   1.14123    0.051
 6966.00    1.15363   1.14511    0.052
 6967.00    1.19031   1.14881    0.052
 6968.00    1.22783   1.14728    0.053
 6969.00    1.16064   1.14514    0.053
 6970.00    1.09687   1.14817    0.053
 6971.00    1.13773   1.15249    0.055
 6972.00    1.17644   1.15114    0.056
 6973.00    1.18307   1.14772    0.055
 6974.00    1.18559   1.14989    0.054
 6975.00    1.14868   1.15471    0.054
 6976.00    1.11910   1.15435    0.054
 6977.00    1.14054   1.15069    0.054
 6978.00    1.15816   1.15111    0.054
 6979.00    1.15525   1.15549    0.053
 6980.00    1.16349   1.15667    0.053
 6981.00    1.21983   1.15367    0.053
 6982.00    1.24958   1.15272    0.053
 6983.00    1.18491   1.15589    0.052
 6984.00    1.13612   1.15794    0.051
 6985.00    1.13469   1.15585    0.051
 6986.00    1.14270   1.15469    0.051
 6987.00    1.17471   1.15733    0.052
 6988.00    1.19978   1.15942    0.053
 6989.00    1.20970   1.15762    0.053
 6990.00    1.21026   1.15648    0.053
 6991.00    1.19305   1.15886    0.054
 6992.00    1.18211   1.16108    0.054
 6993.00    1.18155   1.15977    0.054
 6994.00    1.17207   1.15862    0.055
 6995.00    1.14964   1.16045    0.056
 6996.00    1.14777   1.16276    0.056
 6997.00    1.17217   1.16184    0.056
 6998.00    1.18624   1.16019    0.056
 6999.00    1.18869   1.16189    0.055
 7000.00    1.17331   1.16451    0.054
 7001.00    1.14022   1.16383    0.052
 7002.00    1.12750   1.16181    0.052
 7003.00    1.13258   1.16365    0.052
 7004.00    1.12472   1.16678    0.051
 7005.00    1.10689   1.16619    0.050
 7006.00    1.11035   1.16392    0.051
 7007.00    1.12823   1.16570    0.052
 7008.00    1.15060   1.16935    0.052
 7009.00    1.17564   1.16914    0.052
 7010.00    1.16026   1.16628    0.053
 7011.00    1.12395   1.16750    0.053
 7012.00    1.12971   1.17225    0.054
 7013.00    1.15437   1.17296    0.055
 7014.00    1.14346   1.16957    0.055
 7015.00    1.11883   1.17006    0.055
 7016.00    1.12703   1.17561    0.055
 7017.00    1.14600   1.17734    0.056
 7018.00    1.16250   1.17335    0.056
 7019.00    1.17831   1.17266    0.056
 7020.00    1.14806   1.17877    0.055
 7021.00    1.10739   1.18232    0.054
 7022.00    1.13319   1.17858    0.054
 7023.00    1.17100   1.17615    0.054
 7024.00    1.17207   1.18128    0.053
 7025.00    1.16805   1.18688    0.053
 7026.00    1.13875   1.18520    0.053
 7027.00    1.10694   1.18135    0.053
 7028.00    1.10796   1.18387    0.052
 7029.00    1.11104   1.19026    0.052
 7030.00    1.11232   1.19164    0.053
 7031.00    1.11352   1.18810    0.054
 7032.00    1.10960   1.18741    0.055
 7033.00    1.10622   1.19239    0.056
 7034.00    1.11750   1.19613    0.056
 7035.00    1.12804   1.19394    0.056
 7036.00    1.12823   1.19094    0.056
 7037.00    1.12501   1.19349    0.055
 7038.00    1.09039   1.19792    0.056
 7039.00    1.06742   1.19710    0.058
 7040.00    1.12303   1.19272    0.057
 7041.00    1.17550   1.19177    0.057
 7042.00    1.21160   1.19495    0.057
 7043.00    1.24744   1.19545    0.057
 7044.00    1.28221   1.19019    0.057
 7045.00    1.29868   1.18512    0.056
 7046.00    1.25151   1.18565    0.055
 7047.00    1.21552   1.18663    0.055
 7048.00    1.21225   1.18070    0.055
 7049.00    1.20244   1.17184    0.055
 7050.00    1.17628   1.16934   -2.000
 7051.00    1.16239   1.17014   -2.000
 7052.00    1.17486   1.16450   -2.000
 7053.00    1.19054   1.15384   -2.000
 7054.00    1.21220   1.14797   -2.000
 7055.00    1.22158   1.14754   -2.000
 7056.00    1.21094   1.14358   -2.000
 7057.00    1.22695   1.13336   -2.000
 7058.00    1.28106   1.12492   -2.000
 7059.00    1.31824   1.12302   -2.000
 7060.00    1.33411   1.12119   -2.000
 7061.00    1.34787   1.11348   -2.000
 7062.00    1.35928   1.10429   -2.000
 7063.00    1.36491   1.10102   -2.000
 7064.00    1.36490   1.10101   -2.000
 7065.00    1.35093   1.09719   -2.000
 7066.00    1.32491   1.09003   -2.000
 7067.00    1.28579   1.08617   -2.000
 7068.00    1.23671   1.08627   -2.000
 7069.00    1.21742   1.08496   -2.000
 7070.00    1.21801   1.08108   -2.000
 7071.00    1.29219   1.07839   -2.000
 7072.00    1.40940   1.07781   -2.000
 7073.00    1.41402   1.07653   -2.000
 7074.00    1.36124   1.07440   -2.000
 7075.00    1.33756   1.07334   -2.000
 7076.00    1.32672   1.07286   -2.000
 7077.00    1.36752   1.07084   -2.000
 7078.00    1.42789   1.06781   -2.000
 7079.00    1.43685   1.06679   -2.000
 7080.00    1.42925   1.06749   -2.000
 7081.00    1.39684   1.06524   -2.000
 7082.00    1.35776   1.05948   -2.000
 7083.00    1.37754   1.05648   -2.000
 7084.00    1.41033   1.05799   -2.000
 7085.00    1.34625   1.05686   -2.000
 7086.00    1.26514   1.05018   -2.000
 7087.00    1.24628   1.04428   -2.000
 7088.00    1.23576   1.04437   -2.000
 7089.00    1.23765   1.04514   -2.000
 7090.00    1.24072   1.04052   -2.000
 7091.00    1.27187   1.03276   -2.000
 7092.00    1.30467   1.02993   -2.000
 7093.00    1.26890   1.03217   -2.000
 7094.00    1.23218   1.03107   -2.000
 7095.00    1.29542   1.02412   -2.000
 7096.00    1.35381   1.01903   -2.000
 7097.00    1.29150   1.02047   -2.000
 7098.00    1.22807   1.02255   -2.000
 7099.00    1.14993   1.02002   -2.000
 7100.00    1.08718   1.01498   -2.000
 7101.00    1.16095   1.01392   -2.000
 7102.00    1.22691   1.01699   -2.000
 7103.00    1.24188   1.01880   -2.000
 7104.00    1.24539   1.01600   -2.000
 7105.00    1.19049   1.01327   -2.000
 7106.00    1.05164   1.01528   -2.000
 7107.00    0.56725   1.01903   -2.000
 7108.00    0.52789   1.01922   -2.000
 7109.00    2.00549   1.01665   -2.000
 7110.00    3.09952   1.01625   -2.000
 7111.00    3.09152   1.01910   -2.000
 7112.00    3.09012   1.02141   -2.000
 7113.00    3.10493   1.02048   -2.000
 7114.00    3.11267   1.01860   -2.000
 7115.00    3.10545   1.01883   -2.000
 7116.00    3.11931   1.02022   -2.000
 7117.00    3.17193   1.02061   -2.000
 7118.00    3.21700   1.01920   -2.000
 7119.00    3.24998   1.01676   -2.000
 7120.00    3.30789   1.01486   -2.000
 7121.00    3.40095   1.01497   -2.000
 7122.00    3.45046   1.01541   -2.000
 7123.00    3.44595   1.01248   -2.000
 7124.00    3.40917   1.00742   -2.000
 7125.00    3.33711   1.00503   -2.000
 7126.00    3.30613   1.00639   -2.000
 7127.00    3.31477   1.00564   -2.000
 7128.00    3.35429   1.00015   -2.000
 7129.00    3.42009   0.99473   -2.000
 7130.00    3.42696   0.99511   -2.000
 7131.00    3.38970   0.99733   -2.000
 7132.00    3.35285   0.99359   -2.000
 7133.00    3.31625   0.98646   -2.000
 7134.00    3.24902   0.98510   -2.000
 7135.00    3.16415   0.98909   -2.000
 7136.00    3.18438   0.98885   -2.000
 7137.00    3.25735   0.98355   -2.000
 7138.00    3.32554   0.98105   -2.000
 7139.00    3.39165   0.98425   -2.000
 7140.00    3.38010   0.98674   -2.000
 7141.00    3.33961   0.98483   -2.000
 7142.00    3.28912   0.98265   -2.000
 7143.00    3.23548   0.98483   -2.000
 7144.00    3.21741   0.98857   -2.000
 7145.00    3.20871   0.98867   -2.000
 7146.00    3.19739   0.98736   -2.000
 7147.00    3.18551   0.98987   -2.000
 7148.00    3.20034   0.99392   -2.000
 7149.00    3.21975   0.99460   -2.000
 7150.00    3.18450   0.99447   -2.000
 7151.00    3.14218   0.99770   -2.000
 7152.00    3.16514   1.00168   -2.000
 7153.00    3.19402   1.00227   -2.000
 7154.00    3.19685   1.00175   -2.000
 7155.00    3.19826   1.00470   -2.000
 7156.00    3.22801   1.00978   -2.000
 7157.00    3.25735   1.01129   -2.000
 7158.00    3.19391   1.00925   -2.000
 7159.00    3.13814   1.01041   -2.000
 7160.00    3.25632   1.01653   -2.000
 7161.00    3.36900   1.02019   -2.000
 7162.00    3.41242   1.01779   -2.000
 7163.00    3.45563   1.01647   -2.000
 7164.00    3.49709   1.02151   -2.000
 7165.00    3.51967   1.02700   -2.000
 7166.00    3.42261   1.02642   -2.000
 7167.00    3.34475   1.02351   -2.000
 7168.00    3.36214   1.02558   -2.000
 7169.00    3.37652   1.03167   -2.000
 7170.00    3.37874   1.03429   -2.000
 7171.00    3.35146   1.03195   -2.000
 7172.00    3.22564   1.03126   -2.000
 7173.00    3.13438   1.03533   -2.000
 7174.00    3.14059   1.03940   -2.000
 7175.00    3.17822   1.03948   -2.000
 7176.00    3.29162   1.03853   -2.000
 7177.00    3.35532   1.04023   -2.000
 7178.00    3.31549   1.04337   -2.000
 7179.00    3.28945   1.04508   -2.000
 7180.00    3.28838   1.04545   -2.000
 7181.00    3.25003   1.04604   -2.000
 7182.00    3.15269   1.04699   -2.000
 7183.00    3.07510   1.04833   -2.000
 7184.00    3.02496   1.05028   -2.000
 7185.00    3.00286   1.05195   -2.000
 7186.00    3.01504   1.05132   -2.000
 7187.00    3.05555   1.05022   -2.000
 7188.00    3.12660   1.05233   -2.000
 7189.00    3.14886   1.05610   -2.000
 7190.00    3.12473   1.05635   -2.000
 7191.00    3.11528   1.05313   -2.000
 7192.00    3.11814   1.05302   -2.000
 7193.00    3.08577   1.05768   -2.000
 7194.00    3.02738   1.06036   -2.000
 7195.00    3.02962   1.05646   -2.000
 7196.00    3.07114   1.05283   -2.000
 7197.00    3.06734   1.05669   -2.000
 7198.00    3.03782   1.06275   -2.000
 7199.00    3.06868   1.06167   -2.000
 7200.00    3.12937   1.05594   -2.000
 7201.00    3.19186   1.05611   -2.000
 7202.00    3.25513   1.06262   -2.000
 7203.00    3.20393   1.06586   -2.000
 7204.00    3.11086   1.06155   -2.000
 7205.00    3.03680   1.05813   -2.000
 7206.00    2.96864   1.06267   -2.000
 7207.00    2.92303   1.06873   -2.000
 7208.00    2.88325   1.06815   -2.000
 7209.00    2.87782   1.06445   -2.000
 7210.00    2.87963   1.06616   -2.000
 7211.00    2.89860   1.07224   -2.000
 7212.00    2.92041   1.07549   -2.000
 7213.00    2.95649   1.07377   -2.000
 7214.00    2.99434   1.07293   -2.000
 7215.00    3.00654   1.07740   -2.000
 7216.00    3.01653   1.08274   -2.000
 7217.00    2.98180   1.08357   -2.000
 7218.00    2.94480   1.08306   -2.000
