###################################################################
## OUTPUT of StarlightChains_v04.for    [Cid@UFSC - 01/Apr/2007] ##
###################################################################

## Some input info
KUG0210-078._28_31.txt                   [arq_obs]
Base.CB07.vall.4m                        [arq_base]
Masks.EmLines.NEW.gm                     [arq_masks]
StCv04.C11.config                        [arq_config]
   66                                    [N_base]
    0                                    [N_YAV_components = # of components with extra extinction!]
    0                                    [i_FitPowerLaw (1/0 = Yes/No)]
-9.99                                    [alpha_PowerLaw]
CCM                                      [red_law_option]
 1.458241                                [q_norm = A(l_norm)/A(V)]

## (Re)Sampling Parameters
 3741.00                                 [l_ini (A)]
 7218.00                                 [l_fin (A)]
    1.00                                 [dl    (A)]     (OBS: dl_cushion =    50.00 A)

## Normalization info
 4020.00                                 [l_norm (A) - for base]
 4010.00                                 [llow_norm (A) - window for f_obs]
 4060.00                                 [lupp_norm (A) - window for f_obs]
5.003548E-17                             [fobs_norm (in input units)]

## S/N
 3691.00                                 [llow_SN (A) - window for S/N]
 7268.00                                 [lupp_SN (A) - window for S/N]
   8.767                                 [S/N in S/N window]
  10.414                                 [S/N in norm. window]
   0.064                                 [S/N_err in S/N window]
   0.077                                 [S/N_err in norm. window]
  1.0000                                 [fscale_chi2]

## etc...
    -2007379                             [idum_orig]
  2432                                   [NOl_eff]
  2276                                   [Nl_eff]
   156    NSIGMA                         [Ntot_cliped & clip_method]
 15544480                                [Nglobal_steps]
   7                                     [N_chains]
  38                                     [NEX0s_base = N_base in EX0s-fits]
 0   0   1      156   2.0   2.730E+04    [Clip-Bug, RC-Crash & Burn-In warning-flags, n_censored_weights, wei_nsig_threshold & wei_limit]
    96     95.460     94.983      0.477  [idt_all, wdt_TotTime, wdt_UsrTime & wdt_SysTime (sec)]

## Synthesis Results - Best model ##

 1.74694E-04                             [chi2/Nl_eff]
     7.56503                             [adev (%)]

    93.35103                             [sum-of-x (%)]
 3.99599E-17                             [Flux_tot (units of input spectrum!)]
 1.65939E-12                             [Mini_tot (???)]
 8.38591E-13                             [Mcor_tot (???)]

 -64.31                                  [v0_min  (km/s)]
 134.89                                  [vd_min  (km/s)]
-0.1162                                  [AV_min  (mag)]
 0.0000                                  [YAV_min (mag)]

# j     x_j(%)      Mini_j(%)     Mcor_j(%)     age_j(yr)     Z_j      (L/M)_j    YAV?  Mstars   component_j        a/Fe...       SSP_chi2r SSP_adev(%)   SSP_AV   SSP_x(%)
  1      0.0000     0.0000E+00    0.0000E+00    1.000000E+06  0.00400  1.094E-02    0   1.0000   age020_m42            0.0000     2.4172E-04    10.4908   3.0133    80.4664
  2      0.0000     0.0000E+00    0.0000E+00    3.160000E+06  0.00400  4.007E-02    0   0.9999   age045_m42            0.0000     2.2642E-04     9.8288   2.2203    87.8899
  3      0.2726     2.7696E-04    5.1998E-04    5.010000E+06  0.00400  2.539E-02    0   0.9488   age055_m42            0.0000     2.3036E-04     9.9373   2.5743    84.7665
  4      0.0000     0.0000E+00    0.0000E+00    6.610000E+06  0.00400  2.620E-02    0   0.9220   age061_m42            0.0000     2.2981E-04     9.5953   2.1523    87.8924
  5      0.6414     1.2515E-03    2.1947E-03    1.000000E+07  0.00400  1.322E-02    0   0.8862   age070_m42            0.0000     2.1685E-04     8.6019   1.9262    87.9713
  6      0.0000     0.0000E+00    0.0000E+00    1.445000E+07  0.00400  7.883E-03    0   0.8571   age078_m42            0.0000     2.2048E-04     8.9017   2.2632    85.4582
  7      0.0000     0.0000E+00    0.0000E+00    2.512000E+07  0.00400  5.251E-03    0   0.8174   age090_m42            0.0000     2.1589E-04     8.4481   1.8019    88.2826
  8      0.0000     0.0000E+00    0.0000E+00    4.000000E+07  0.00400  3.649E-03    0   0.7851   age104_m42            0.0000     2.1427E-04     8.3736   1.5571    89.5758
  9      0.0000     0.0000E+00    0.0000E+00    5.500000E+07  0.00400  3.098E-03    0   0.7629   age110_m42            0.0000     2.2872E-04     8.7813   1.6740    90.6954
 10      0.0000     0.0000E+00    0.0000E+00    1.015200E+08  0.00400  2.228E-03    0   0.7207   age116_m42            0.0000     2.4580E-04     9.1266   1.6718    91.5845
 11      0.0000     0.0000E+00    0.0000E+00    2.861200E+08  0.00400  1.093E-03    0   0.6648   age125_m42            0.0000     2.4573E-04     8.3559   1.1035    94.1478
 12      0.0000     0.0000E+00    0.0000E+00    5.088000E+08  0.00400  6.597E-04    0   0.6365   age130_m42            0.0000     2.6983E-04     8.9209   1.0569    96.2250
 13      0.1268     1.5342E-02    1.7602E-02    1.434000E+09  0.00400  2.132E-04    0   0.5798   age139_m42            0.0000     2.4389E-04     8.5947   0.0487    99.5121
 14      0.0000     0.0000E+00    0.0000E+00    4.250000E+09  0.00400  5.895E-05    0   0.5377   age158_m42            0.0000     2.1522E-04     9.2517  -0.4135    96.4561
 15      0.0000     0.0000E+00    0.0000E+00    7.500000E+09  0.00400  3.510E-05    0   0.5212   age171_m42            0.0000     2.2227E-04     9.6452  -0.6231    96.4468
 16      1.4703     1.8917E+00    1.8844E+00    1.300000E+10  0.00400  2.005E-05    0   0.5034   age193_m42            0.0000     2.3236E-04    10.0301  -0.8041    96.3662
 17      1.4787     2.5012E+00    2.4584E+00    1.800000E+10  0.00400  1.525E-05    0   0.4967   age213_m42            0.0000     2.2820E-04     9.9146  -0.8185    95.7269
 18     26.6280     5.5485E-02    1.0979E-01    1.000000E+06  0.00800  1.238E-02    0   1.0000   age020_m52            0.0000     2.4178E-04    10.4994   3.0088    80.6498
 19      0.0000     0.0000E+00    0.0000E+00    3.160000E+06  0.00800  3.074E-02    0   0.9966   age045_m52            0.0000     2.3956E-04    10.4348   2.9238    81.5696
 20      0.0000     0.0000E+00    0.0000E+00    5.010000E+06  0.00800  2.668E-02    0   0.9443   age055_m52            0.0000     2.3077E-04     9.9820   2.6680    83.7276
 21      0.0000     0.0000E+00    0.0000E+00    6.610000E+06  0.00800  2.136E-02    0   0.9177   age061_m52            0.0000     1.9493E-04     8.4250   1.4265    89.0643
 22      0.0000     0.0000E+00    0.0000E+00    1.000000E+07  0.00800  1.215E-02    0   0.8827   age070_m52            0.0000     2.1476E-04     8.4538   2.1272    87.0693
 23      0.0000     0.0000E+00    0.0000E+00    1.445000E+07  0.00800  8.717E-03    0   0.8552   age078_m52            0.0000     2.1829E-04     8.7570   2.2240    86.7736
 24      0.0000     0.0000E+00    0.0000E+00    2.512000E+07  0.00800  5.592E-03    0   0.8162   age090_m52            0.0000     2.1542E-04     8.2914   1.8640    89.3751
 25      0.0000     0.0000E+00    0.0000E+00    4.000000E+07  0.00800  3.896E-03    0   0.7841   age104_m52            0.0000     2.1847E-04     8.2613   1.7508    90.8299
 26      0.0000     0.0000E+00    0.0000E+00    1.015200E+08  0.00800  2.148E-03    0   0.7226   age116_m52            0.0000     2.3194E-04     8.6887   1.6540    91.8362
 27      0.5432     1.4117E-02    1.8669E-02    2.861200E+08  0.00800  9.925E-04    0   0.6683   age125_m52            0.0000     2.6967E-04     8.9011   1.1182    97.1928
 28      0.0000     0.0000E+00    0.0000E+00    9.047900E+08  0.00800  3.141E-04    0   0.6138   age135_m52            0.0000     2.7121E-04     9.2924   0.2436   103.8393
 29      8.7306     1.3102E+00    1.5174E+00    1.434000E+09  0.00800  1.719E-04    0   0.5853   age139_m52            0.0000     2.3309E-04     8.9326  -0.3236   101.4333
 30      0.0000     0.0000E+00    0.0000E+00    2.500000E+09  0.00800  7.872E-05    0   0.5600   age150_m52            0.0000     2.3837E-04     9.9580  -0.6386   100.1918
 31      0.8659     5.1517E-01    5.5313E-01    4.250000E+09  0.00800  4.336E-05    0   0.5426   age158_m52            0.0000     2.3736E-04    10.0289  -0.6513    99.1982
 32      0.0000     0.0000E+00    0.0000E+00    6.250000E+09  0.00800  3.159E-05    0   0.5319   age166_m52            0.0000     2.6083E-04    10.7345  -0.8928   100.4245
 33      0.0000     0.0000E+00    0.0000E+00    1.300000E+10  0.00800  1.361E-05    0   0.5073   age193_m52            0.0000     3.4788E-04    13.6686  -1.0000    93.1863
 34     29.1850     7.6155E+01    7.5196E+01    1.800000E+10  0.00800  9.886E-06    0   0.4990   age213_m52            0.0000     4.2495E-04    15.6385  -1.0000    90.6014
 35      0.2561     4.2791E-04    8.4675E-04    1.000000E+06  0.02000  1.544E-02    0   1.0000   age020_m62            0.0000     2.4219E-04    10.5114   3.0051    80.8147
 36      7.1843     4.9263E-03    9.6097E-03    3.160000E+06  0.02000  3.762E-02    0   0.9858   age045_m62            0.0000     2.4176E-04    10.4858   2.9416    81.5808
 37      0.0000     0.0000E+00    0.0000E+00    5.010000E+06  0.02000  3.296E-02    0   0.9342   age055_m62            0.0000     2.3096E-04     9.9224   2.5136    86.4084
 38      1.1404     2.5493E-03    4.4700E-03    8.710000E+06  0.02000  1.154E-02    0   0.8861   age067_m62            0.0000     2.2252E-04     8.7272   1.6904    85.7962
 39      0.0000     0.0000E+00    0.0000E+00    1.445000E+07  0.02000  7.663E-03    0   0.8472   age078_m62            0.0000     2.0584E-04     7.9824   1.8033    88.0560
 40      0.0000     0.0000E+00    0.0000E+00    2.512000E+07  0.02000  4.532E-03    0   0.8099   age090_m62            0.0000     2.1007E-04     7.8900   1.7974    87.7343
 41      0.0000     0.0000E+00    0.0000E+00    5.500000E+07  0.02000  2.733E-03    0   0.7595   age110_m62            0.0000     2.1830E-04     8.2124   1.7421    89.9371
 42      0.0000     0.0000E+00    0.0000E+00    1.609000E+08  0.02000  1.369E-03    0   0.6985   age120_m62            0.0000     2.5768E-04     8.7803   1.5151    94.4720
 43      0.0000     0.0000E+00    0.0000E+00    2.861200E+08  0.02000  9.013E-04    0   0.6714   age125_m62            0.0000     2.9538E-04     9.1597   1.2223    98.5664
 44      0.0000     0.0000E+00    0.0000E+00    5.088000E+08  0.02000  5.028E-04    0   0.6449   age130_m62            0.0000     3.1633E-04     9.8991   0.7727   103.6078
 45      0.0000     0.0000E+00    0.0000E+00    9.047900E+08  0.02000  2.428E-04    0   0.6179   age135_m62            0.0000     2.6879E-04     9.8785   0.1601   103.9985
 46      0.0000     0.0000E+00    0.0000E+00    1.434000E+09  0.02000  1.263E-04    0   0.5908   age139_m62            0.0000     2.4840E-04     9.9698  -0.2887   102.6819
 47      0.0000     0.0000E+00    0.0000E+00    2.500000E+09  0.02000  5.985E-05    0   0.5673   age150_m62            0.0000     2.6161E-04    10.8154  -0.6943   102.5721
 48      0.0000     0.0000E+00    0.0000E+00    4.250000E+09  0.02000  3.271E-05    0   0.5468   age158_m62            0.0000     3.0249E-04    11.7604  -1.0000   102.4897
 49      0.0000     0.0000E+00    0.0000E+00    1.000000E+10  0.02000  1.360E-05    0   0.5167   age181_m62            0.0000     4.3432E-04    14.8625  -1.0000    95.4631
 50      0.0000     0.0000E+00    0.0000E+00    1.800000E+10  0.02000  7.124E-06    0   0.5013   age213_m62            0.0000     5.8119E-04    18.1438  -1.0000    89.9543
 51      0.0000     0.0000E+00    0.0000E+00    1.000000E+06  0.05000  2.592E-02    0   0.9998   age020_m72            0.0000     2.4496E-04    10.5764   3.0037    80.6581
 52      0.0000     0.0000E+00    0.0000E+00    3.160000E+06  0.05000  4.845E-02    0   0.9577   age045_m72            0.0000     2.3708E-04    10.3162   2.8019    83.2996
 53      0.0000     0.0000E+00    0.0000E+00    5.010000E+06  0.05000  3.072E-02    0   0.9147   age055_m72            0.0000     2.1734E-04     8.5336   2.3725    85.2371
 54      0.0000     0.0000E+00    0.0000E+00    6.610000E+06  0.05000  1.455E-02    0   0.8877   age061_m72            0.0000     2.3961E-04     9.0522   1.7686    85.1429
 55      0.0000     0.0000E+00    0.0000E+00    1.000000E+07  0.05000  9.074E-03    0   0.8524   age070_m72            0.0000     2.2056E-04     8.6136   2.5565    84.9284
 56      5.0917     3.0905E-02    4.8325E-02    2.512000E+07  0.05000  4.250E-03    0   0.7902   age090_m72            0.0000     2.1922E-04     8.1678   2.2291    87.2926
 57      0.0000     0.0000E+00    0.0000E+00    4.000000E+07  0.05000  3.087E-03    0   0.7618   age104_m72            0.0000     2.2146E-04     7.9635   1.9984    88.8547
 58      0.0000     0.0000E+00    0.0000E+00    1.015200E+08  0.05000  1.700E-03    0   0.7096   age116_m72            0.0000     2.5011E-04     8.4712   1.6777    93.3920
 59      0.0000     0.0000E+00    0.0000E+00    2.861200E+08  0.05000  7.384E-04    0   0.6633   age125_m72            0.0000     3.1234E-04     9.5001   1.0496   101.2658
 60      0.0000     0.0000E+00    0.0000E+00    5.088000E+08  0.05000  3.819E-04    0   0.6372   age130_m72            0.0000     2.9473E-04    10.0211   0.5042   104.8710
 61      0.0000     0.0000E+00    0.0000E+00    9.047900E+08  0.05000  1.676E-04    0   0.6110   age135_m72            0.0000     2.7586E-04    10.9739  -0.2480   104.9392
 62      0.0000     0.0000E+00    0.0000E+00    1.434000E+09  0.05000  8.837E-05    0   0.5874   age139_m72            0.0000     2.7765E-04    11.1107  -0.7132   104.7074
 63      0.0000     0.0000E+00    0.0000E+00    2.500000E+09  0.05000  4.233E-05    0   0.5598   age150_m72            0.0000     3.1961E-04    12.1717  -1.0000   103.6853
 64      9.7360     1.7502E+01    1.8179E+01    6.250000E+09  0.05000  1.435E-05    0   0.5249   age166_m72            0.0000     4.8082E-04    16.2729  -1.0000    92.9938
 65      0.0000     0.0000E+00    0.0000E+00    1.300000E+10  0.05000  6.513E-06    0   0.5036   age193_m72            0.0000     6.9542E-04    20.8736  -1.0000    86.9360
 66      0.0000     0.0000E+00    0.0000E+00    1.800000E+10  0.05000  4.527E-06    0   0.4945   age213_m72            0.0000     8.4230E-04    23.5054  -1.0000    82.4483


## Synthesis Results - Average & Chains ##

# j      x_j: min, <> & last-chain-values for 1 ...  7 chains
  1      0.0000      0.2549      0.0000      0.3261      0.3101      0.3692      0.4768      0.0046      1.9005
  2      0.0000      0.1521      0.1164      0.0000      0.2260      0.0724      0.4178      0.0000      0.5410
  3      0.2726      0.1636      0.0651      0.1875      1.1949      0.3332      0.4433      0.5252      0.1671
  4      0.0000      0.2760      0.1095      0.1269      0.2383      0.0055      0.9116      0.0000      1.9192
  5      0.6414      0.1453      0.0000      0.0000      0.3419      0.0179      0.5384      1.1835      0.3146
  6      0.0000      0.2226      0.0803      0.8864      0.4467      0.2306      0.1969      0.0283      0.0000
  7      0.0000      0.1652      0.0000      0.5237      0.4490      0.0756      0.2378      0.0313      0.0000
  8      0.0000      0.2231      0.2891      0.2017      0.5272      0.4315      0.1034      0.0244      0.6086
  9      0.0000      0.1864      0.0000      0.0548      0.0188      0.1798      0.2501      0.1244      0.1283
 10      0.0000      0.2337      0.4110      2.2615      0.0000      0.0000      1.1011      0.0000      0.2556
 11      0.0000      0.2149      0.6687      0.9366      0.0000      0.0000      0.2027      0.1679      1.5922
 12      0.0000      0.1815      0.0570      0.3598      0.0000      0.0653      0.7297      0.0000      0.0000
 13      0.1268      0.2196      0.1674      0.0330      0.0893      0.1414      0.1974      0.4651      0.4553
 14      0.0000      0.1775      0.2081      0.2002      0.3981      0.1800      0.2531      0.1319      0.7689
 15      0.0000      0.1434      0.4827      0.0000      0.0000      0.0699      0.0000      0.9782      1.0564
 16      1.4703      0.1497      0.3104      0.3670      0.4257      0.1426      0.4989      0.5601      0.5077
 17      1.4787      0.1492      0.0000      0.4770      1.1514      0.2143      0.0000      0.6302      0.0000
 18     26.6280      3.9448      3.5073      4.3717      3.8254      4.2922      3.7808      2.9528      2.7506
 19      0.0000      0.2065      0.0000      0.0936      0.2699      0.2464      0.2587      0.1647      0.2979
 20      0.0000      0.1935      0.7649      0.4192      0.0000      0.2717      0.6836      0.8107      0.3816
 21      0.0000      0.1260      0.0116      0.2595      0.1397      0.2540      0.4664      0.0049      0.7758
 22      0.0000      0.4949      0.2619      1.3025      0.7408      0.0000      0.5312      0.9355      0.3868
 23      0.0000      1.0672      1.2899      0.0154      0.1700      0.8004      1.3726      0.0000      0.6798
 24      0.0000      0.1531      0.0674      0.1348      0.5208      0.3860      0.0551      0.3560      1.0732
 25      0.0000      0.1652      0.2657      0.0000      0.3425      0.7579      0.3755      0.0000      0.4022
 26      0.0000      0.2771      0.8373      0.0834      0.0186      0.1231      0.3714      0.1379      0.6896
 27      0.5432      0.2153      0.0397      0.0000      0.3828      0.0000      0.1778      0.3756      0.7768
 28      0.0000      0.1828      0.0095      0.0000      1.9359      0.4187      1.0348      0.0162      0.0259
 29      8.7306      0.1563      0.0504      1.5019      0.1690      0.2015      0.0183      0.3341      0.0000
 30      0.0000      0.1558      0.2497      0.9182      0.0000      0.0000      0.0977      0.9919      0.3328
 31      0.8659      0.1779      0.1079      0.0000      0.9124      0.5769      0.0389      1.3090      1.2490
 32      0.0000      0.1465      0.0000      0.1069      0.0593      0.4248      1.1325      0.8021      0.0000
 33      0.0000      6.2059      6.3871      5.2441      4.9856      6.2043      6.1750      5.1122      5.8178
 34     29.1850      5.5525      5.5922      3.8451      5.6734      6.0044      4.8281      3.8480      4.6231
 35      0.2561      0.9527      0.7543      0.9825      0.6331      0.5895      0.1819      1.4689      1.4216
 36      7.1843      0.3074      0.4822      0.8854      0.2893      0.0020      0.1913      0.4658      0.8509
 37      0.0000      0.2067      0.0000      0.9890      0.7554      0.2912      0.3882      0.9105      0.0693
 38      1.1404     27.6527     26.0758     25.6420     25.1401     24.3968     27.7116     28.1096     24.7076
 39      0.0000      2.5077      2.1813      3.1557      3.0845      2.8168      2.2579      2.4042      2.7361
 40      0.0000      0.5503      0.4079      0.0000      0.6737      0.8929      0.1896      1.2515      0.4288
 41      0.0000      0.1546      0.2279      0.4548      0.0000      0.2594      0.0945      0.0000      0.3353
 42      0.0000      0.2108      0.1660      0.1236      0.0000      0.0000      0.0571      1.7510      0.8487
 43      0.0000      0.2486      1.0944      0.0435      0.0000      0.0000      0.1155      0.1551      0.9948
 44      0.0000      0.1728      0.0808      0.7798      0.6670      0.2096      0.5389      0.7374      0.8350
 45      0.0000      0.2072      0.7224      1.7647      0.0074      0.0000      0.7593      0.0000      0.9206
 46      0.0000      0.1497      0.2457      0.0000      0.4552      0.0358      0.0844      0.0764      0.2150
 47      0.0000      0.1596      0.6458      0.0000      0.0000      0.1240      0.1307      0.0000      1.3126
 48      0.0000      0.1602      0.1377      0.6778      0.0916      0.3172      0.2253      0.2570      0.0000
 49      0.0000      0.2175      0.0933      0.1772      1.8857      0.0000      0.2331      0.8002      0.0960
 50      0.0000      3.1859      3.0008      3.2440      3.5461      2.8744      2.8801      2.1855      1.8754
 51      0.0000     14.9159     15.9536      8.4348     11.9118     14.6831     13.1848     11.2929      8.5717
 52      0.0000      0.2230      0.4381      0.7678      0.3624      0.1466      0.2207      0.0783      0.0000
 53      0.0000      0.1339      0.1118      0.0000      0.0000      0.2003      0.0000      0.6628      0.0000
 54      0.0000      4.0316      4.4384      3.8440      3.8498      4.1569      3.9789      2.6363      4.0169
 55      0.0000      0.2177      0.1462      0.1703      0.1104      0.0000      0.1339      0.0470      0.0000
 56      5.0917      2.9652      2.9988      2.4043      2.9068      2.6661      2.0593      2.5008      2.2011
 57      0.0000      0.1934      0.2076      0.0000      0.0000      0.0816      0.1787      0.6133      0.1207
 58      0.0000      0.1457      0.0000      0.7021      1.0804      0.4614      0.0752      0.0000      0.0000
 59      0.0000      0.2136      0.0687      0.5608      0.1565      0.2287      0.1815      0.2760      0.0000
 60      0.0000      0.1995      0.4746      0.0788      0.4112      0.0779      0.0477      0.0000      0.0000
 61      0.0000      0.1924      0.0538      2.2483      0.0000      0.0000      0.3100      0.7266      0.3224
 62      0.0000      0.1909      0.7252      0.0000      0.0000      0.0642      0.7832      1.7719      0.4082
 63      0.0000      0.2045      0.2464      0.0000      0.2072      0.4463      0.0426      0.3965      0.3642
 64      9.7360      0.1591      0.2674      0.5916      0.6911      0.0543      0.6035      0.4394      0.1750
 65      0.0000      1.4308      1.4801      1.5628      0.4377      1.7453      1.2967      2.0593      1.7689
 66      0.0000      1.8427      1.6341      2.4470      1.3933      1.9907      1.7770      1.8068      1.1383

# j      m_j: min, <> & last-chain-values for 1 ...  7 chains
  1  0.0000E+00  2.1216E-03  0.0000E+00  2.6937E-03  2.6079E-03  2.9625E-03  4.1085E-03  3.9326E-05  1.8458E-02
  2  0.0000E+00  3.4570E-04  2.6755E-04  0.0000E+00  5.1892E-04  1.5854E-04  9.8282E-04  0.0000E+00  1.4345E-03
  3  5.1998E-04  5.5693E-04  2.2429E-04  6.3335E-04  4.1080E-03  1.0932E-03  1.5614E-03  1.8467E-03  6.6336E-04
  4  0.0000E+00  8.8446E-04  3.5515E-04  4.0359E-04  7.7164E-04  1.6864E-05  3.0240E-03  0.0000E+00  7.1758E-03
  5  2.1947E-03  8.8716E-04  0.0000E+00  0.0000E+00  2.1088E-03  1.0510E-04  3.4019E-03  7.4650E-03  2.2404E-03
  6  0.0000E+00  2.2039E-03  8.0424E-04  8.7100E-03  4.4683E-03  2.2010E-03  2.0181E-03  2.8934E-04  0.0000E+00
  7  0.0000E+00  2.3415E-03  0.0000E+00  7.3680E-03  6.4308E-03  1.0337E-03  3.4890E-03  4.5882E-04  0.0000E+00
  8  0.0000E+00  4.3714E-03  5.7312E-03  3.9216E-03  1.0436E-02  8.1497E-03  2.0979E-03  4.9469E-04  1.3913E-02
  9  0.0000E+00  4.1797E-03  0.0000E+00  1.2195E-03  4.2523E-04  3.8881E-03  5.8050E-03  2.8833E-03  3.3570E-03
 10  0.0000E+00  6.8845E-03  1.2248E-02  6.6110E-02  0.0000E+00  0.0000E+00  3.3574E-02  0.0000E+00  8.7861E-03
 11  0.0000E+00  1.1906E-02  3.7474E-02  5.1484E-02  0.0000E+00  0.0000E+00  1.1621E-02  9.6065E-03  1.0290E-01
 12  0.0000E+00  1.5948E-02  5.0675E-03  3.1373E-02  0.0000E+00  5.5329E-03  6.6368E-02  0.0000E+00  0.0000E+00
 13  1.7602E-02  5.4399E-02  4.1954E-02  8.1148E-03  2.2352E-02  3.3759E-02  5.0599E-02  1.1902E-01  1.3157E-01
 14  0.0000E+00  1.4746E-01  1.7491E-01  1.6505E-01  3.3408E-01  1.4416E-01  2.1760E-01  1.1317E-01  7.4521E-01
 15  0.0000E+00  1.9399E-01  6.6034E-01  0.0000E+00  0.0000E+00  9.1166E-02  0.0000E+00  1.3666E+00  1.6667E+00
 16  1.8844E+00  3.4236E-01  7.1795E-01  8.3265E-01  9.8341E-01  3.1426E-01  1.1808E+00  1.3231E+00  1.3544E+00
 17  2.4584E+00  4.4260E-01  0.0000E+00  1.4039E+00  3.4502E+00  6.1273E-01  0.0000E+00  1.9313E+00  0.0000E+00
 18  1.0979E-01  2.9019E-02  2.6101E-02  3.1913E-02  2.8428E-02  3.0438E-02  2.8788E-02  2.2441E-02  2.3607E-02
 19  0.0000E+00  6.0975E-04  0.0000E+00  2.7423E-04  8.0499E-04  7.0118E-04  7.9066E-04  5.0228E-04  1.0263E-03
 20  0.0000E+00  6.2382E-04  2.4942E-03  1.3408E-03  0.0000E+00  8.4439E-04  2.2807E-03  2.6998E-03  1.4349E-03
 21  0.0000E+00  4.9308E-04  4.6088E-05  1.0076E-03  5.5211E-04  9.5806E-04  1.8891E-03  1.9677E-05  3.5414E-03
 22  0.0000E+00  3.2743E-03  1.7529E-03  8.5517E-03  4.9515E-03  0.0000E+00  3.6376E-03  6.3948E-03  2.9861E-03
 23  0.0000E+00  9.5352E-03  1.1659E-02  1.3678E-04  1.5342E-03  6.8942E-03  1.2694E-02  0.0000E+00  7.0864E-03
 24  0.0000E+00  2.0356E-03  9.0669E-04  1.7784E-03  6.9940E-03  4.9462E-03  7.5865E-04  4.8893E-03  1.6643E-02
 25  0.0000E+00  3.0276E-03  4.9270E-03  0.0000E+00  6.3426E-03  1.3391E-02  7.1232E-03  0.0000E+00  8.5996E-03
 26  0.0000E+00  8.4892E-03  2.5950E-02  2.5363E-03  5.7424E-04  3.6370E-03  1.1779E-02  4.3648E-03  2.4650E-02
 27  1.8669E-02  1.3205E-02  2.4639E-03  0.0000E+00  2.3713E-02  0.0000E+00  1.1285E-02  2.3799E-02  5.5576E-02
 28  0.0000E+00  3.2537E-02  1.7031E-03  0.0000E+00  3.4805E-01  7.1827E-02  1.9062E-01  2.9736E-03  5.3717E-03
 29  1.5174E+00  4.8457E-02  1.5803E-02  4.6214E-01  5.2948E-02  6.0245E-02  5.8641E-03  1.0704E-01  0.0000E+00
 30  0.0000E+00  1.0094E-01  1.6363E-01  5.9032E-01  0.0000E+00  0.0000E+00  6.5485E-02  6.6390E-01  2.5154E-01
 31  5.5313E-01  2.0272E-01  1.2438E-01  0.0000E+00  1.0504E+00  6.3384E-01  4.5940E-02  1.5412E+00  1.6607E+00
 32  0.0000E+00  2.2464E-01  0.0000E+00  1.6261E-01  9.1869E-02  6.2799E-01  1.7974E+00  1.2707E+00  0.0000E+00
 33  0.0000E+00  2.1067E+01  2.1934E+01  1.7665E+01  1.7097E+01  2.0303E+01  2.1697E+01  1.7929E+01  2.3041E+01
 34  7.5196E+01  2.5524E+01  2.6006E+01  1.7540E+01  2.6346E+01  2.6607E+01  2.2972E+01  1.8275E+01  2.4794E+01
 35  8.4675E-04  5.6192E-03  4.5011E-03  5.7508E-03  3.7723E-03  3.3519E-03  1.1108E-03  8.9515E-03  9.7825E-03
 36  9.6097E-03  7.3370E-04  1.1641E-03  2.0968E-03  6.9736E-04  4.5029E-06  4.7259E-04  1.1483E-03  2.3691E-03
 37  0.0000E+00  5.3351E-04  0.0000E+00  2.5332E-03  1.9697E-03  7.2456E-04  1.0372E-03  2.4282E-03  2.0867E-04
 38  4.4700E-03  1.9337E-01  1.8447E-01  1.7794E-01  1.7760E-01  1.6446E-01  2.0058E-01  2.0308E-01  2.0158E-01
 39  0.0000E+00  2.5249E-02  2.2218E-02  3.1530E-02  3.1374E-02  2.7340E-02  2.3532E-02  2.5009E-02  3.2140E-02
 40  0.0000E+00  8.9559E-03  6.7156E-03  0.0000E+00  1.1077E-02  1.4008E-02  3.1939E-03  2.1044E-02  8.1417E-03
 41  0.0000E+00  3.9140E-03  5.8346E-03  1.1423E-02  0.0000E+00  6.3290E-03  2.4767E-03  0.0000E+00  9.9000E-03
 42  0.0000E+00  9.7966E-03  7.8020E-03  5.6971E-03  0.0000E+00  0.0000E+00  2.7478E-03  8.4059E-02  4.6011E-02
 43  0.0000E+00  1.6862E-02  7.5112E-02  2.9291E-03  0.0000E+00  0.0000E+00  8.1091E-03  1.0871E-02  7.8737E-02
 44  0.0000E+00  2.0183E-02  9.5494E-03  9.0386E-02  7.8708E-02  2.3601E-02  6.5155E-02  8.8985E-02  1.1380E-01
 45  0.0000E+00  4.8023E-02  1.6937E-01  4.0586E-01  1.7278E-03  0.0000E+00  1.8215E-01  0.0000E+00  2.4894E-01
 46  0.0000E+00  6.3786E-02  1.0588E-01  0.0000E+00  1.9588E-01  1.4694E-02  3.7212E-02  3.3639E-02  1.0688E-01
 47  0.0000E+00  1.3778E-01  5.6393E-01  0.0000E+00  0.0000E+00  1.0317E-01  1.1682E-01  0.0000E+00  1.3220E+00
 48  0.0000E+00  2.4386E-01  2.1203E-01  1.0239E+00  1.4090E-01  4.6547E-01  3.5496E-01  4.0423E-01  0.0000E+00
 49  0.0000E+00  7.5244E-01  3.2665E-01  6.0858E-01  6.5913E+00  0.0000E+00  8.3465E-01  2.8606E+00  3.8739E-01
 50  0.0000E+00  2.0417E+01  1.9455E+01  2.0630E+01  2.2957E+01  1.7758E+01  1.9104E+01  1.4470E+01  1.4022E+01
 51  0.0000E+00  5.2398E-02  5.6695E-02  2.9403E-02  4.2271E-02  4.9722E-02  4.7941E-02  4.0985E-02  3.5130E-02
 52  0.0000E+00  4.0151E-04  7.9783E-04  1.3716E-03  6.5913E-04  2.5447E-04  4.1117E-04  1.4566E-04  0.0000E+00
 53  0.0000E+00  3.6304E-04  3.0664E-04  0.0000E+00  0.0000E+00  5.2362E-04  0.0000E+00  1.8567E-03  0.0000E+00
 54  0.0000E+00  2.2401E-02  2.4948E-02  2.1195E-02  2.1609E-02  2.2265E-02  2.2883E-02  1.5133E-02  2.6039E-02
 55  0.0000E+00  1.8629E-03  1.2653E-03  1.4459E-03  9.5391E-04  0.0000E+00  1.1861E-03  4.1540E-04  0.0000E+00
 56  4.8325E-02  5.0209E-02  5.1370E-02  4.0399E-02  4.9722E-02  4.3519E-02  3.6092E-02  4.3750E-02  4.3484E-02
 57  0.0000E+00  4.3471E-03  4.7210E-03  0.0000E+00  0.0000E+00  1.7689E-03  4.1575E-03  1.4241E-02  3.1659E-03
 58  0.0000E+00  5.5395E-03  0.0000E+00  2.6486E-02  4.1490E-02  1.6907E-02  2.9575E-03  0.0000E+00  0.0000E+00
 59  0.0000E+00  1.7478E-02  5.6848E-03  4.5525E-02  1.2930E-02  1.8038E-02  1.5369E-02  2.3326E-02  0.0000E+00
 60  0.0000E+00  3.0320E-02  7.2952E-02  1.1877E-02  6.3126E-02  1.1408E-02  7.5005E-03  0.0000E+00  0.0000E+00
 61  0.0000E+00  6.3871E-02  1.8075E-02  7.4074E-01  0.0000E+00  0.0000E+00  1.0654E-01  2.4923E-01  1.2488E-01
 62  0.0000E+00  1.1557E-01  4.4411E-01  0.0000E+00  0.0000E+00  3.7437E-02  4.9073E-01  1.1082E+00  2.8829E-01
 63  0.0000E+00  2.4626E-01  3.0018E-01  0.0000E+00  2.5207E-01  5.1821E-01  5.3065E-02  4.9340E-01  5.1173E-01
 64  1.8179E+01  5.3004E-01  9.0109E-01  1.9557E+00  2.3258E+00  1.7444E-01  2.0808E+00  1.5124E+00  6.8013E-01
 65  0.0000E+00  1.0075E+01  1.0544E+01  1.0921E+01  3.1140E+00  1.1847E+01  9.4517E+00  1.4982E+01  1.4532E+01
 66  0.0000E+00  1.8332E+01  1.6445E+01  2.4156E+01  1.4002E+01  1.9091E+01  1.8298E+01  1.8570E+01  1.3211E+01

# AV, chi2 & Mass for <> & i_chain = 1 ...  7 solutions
AV      -0.1162      0.7622      0.7263      0.6778      0.7099      0.7830      0.7107      0.6511      0.7534
chi2 1.7469E-04  1.9393E-04  1.9048E-04  1.8929E-04  1.9274E-04  2.1121E-04  1.8836E-04  1.8668E-04  1.9138E-04
Mass 8.3859E-13  1.5292E-12  1.4406E-12  1.3760E-12  1.4111E-12  1.6313E-12  1.3787E-12  1.2750E-12  1.2954E-12
 -64.31                                  [v0_min (km/s) before EX0s...]
 134.89                                  [vd_min (km/s) before EX0s...]


## Synthetic spectrum (Best Model) ##l_obs f_obs f_syn wei
 3478    [Nl_obs]
 3741.00    0.63582   0.74425    0.000
 3742.00    0.53537   0.72741    0.000
 3743.00    0.44088   0.70286    0.000
 3744.00    0.43954   0.67584    0.000
 3745.00    0.49249   0.64849    0.243
 3746.00    0.57173   0.62189    0.241
 3747.00    0.66433   0.59953    0.231
 3748.00    0.59623   0.58854    0.239
 3749.00    0.45747   0.59643    0.256
 3750.00    0.67010   0.62430    0.259
 3751.00    1.01540   0.66482    0.255
 3752.00    1.06266   0.70676    0.243
 3753.00    1.01441   0.74007    0.230
 3754.00    0.84676   0.75770    0.222
 3755.00    0.64712   0.75679    0.217
 3756.00    0.85981   0.74181    0.219
 3757.00    1.16301   0.72387    0.222
 3758.00    0.92039   0.71432    0.226
 3759.00    0.58250   0.71670    0.229
 3760.00    0.50714   0.72568    0.314
 3761.00    0.46665   0.73359    0.537
 3762.00    0.61927   0.73613    0.340
 3763.00    0.79003   0.73285    0.236
 3764.00    0.87974   0.72458    0.225
 3765.00    0.96477   0.71220    0.218
 3766.00    0.75570   0.69750    0.217
 3767.00    0.54124   0.68385    0.215
 3768.00    0.51761   0.67461    0.208
 3769.00    0.49223   0.67269    0.201
 3770.00    0.42412   0.68065    0.191
 3771.00    0.35629   0.69845    0.183
 3772.00    0.29206   0.72155    0.181
 3773.00    0.26199   0.74407    0.179
 3774.00    0.53181   0.76311    0.186
 3775.00    0.75644   0.77912    0.193
 3776.00    0.68816   0.79385    0.202
 3777.00    0.60235   0.80857    0.207
 3778.00    0.42779   0.82328    0.186
 3779.00    0.34535   0.83679    0.175
 3780.00    0.63991   0.84706    0.192
 3781.00    0.88492   0.85258    0.209
 3782.00    0.96188   0.85217    0.211
 3783.00    0.99853   0.84405    0.213
 3784.00    0.91991   0.82731    0.210
 3785.00    0.88975   0.80410    0.211
 3786.00    0.97797   0.78004    0.223
 3787.00    1.06128   0.76077    0.244
 3788.00    1.13427   0.74849    0.292
 3789.00    1.10495   0.74170    0.302
 3790.00    0.88821   0.73595    0.236
 3791.00    0.82397   0.72570    0.211
 3792.00    1.00385   0.70729    0.218
 3793.00    0.99343   0.68115    0.218
 3794.00    0.71572   0.65071    0.206
 3795.00    0.54776   0.62095    0.198
 3796.00    0.51545   0.59841    0.194
 3797.00    0.42193   0.59068    0.188
 3798.00    0.26170   0.60338    0.182
 3799.00    0.26981   0.63541    0.183
 3800.00    0.43970   0.67829    0.194
 3801.00    0.61640   0.72099    0.207
 3802.00    0.79889   0.75494    0.224
 3803.00    0.81542   0.77578    0.222
 3804.00    0.70812   0.78388    0.207
 3805.00    0.67442   0.78458    0.196
 3806.00    0.68896   0.78548    0.188
 3807.00    0.72613   0.79176    0.190
 3808.00    0.77629   0.80235    0.199
 3809.00    0.82424   0.81082    0.214
 3810.00    0.87110   0.81052    0.234
 3811.00    0.77230   0.79920    0.243
 3812.00    0.61052   0.77974    0.246
 3813.00    0.62334   0.75847    0.219
 3814.00    0.70091   0.74133    0.190
 3815.00    0.87469   0.72967    0.190
 3816.00    1.07872   0.72005    0.198
 3817.00    0.84526   0.70800    0.215
 3818.00    0.49703   0.69348    0.238
 3819.00    0.47030   0.68252    0.213
 3820.00    0.51244   0.68084    0.185
 3821.00    0.65113   0.68619    0.193
 3822.00    0.80620   0.68995    0.208
 3823.00    0.52125   0.68595    0.193
 3824.00    0.17984   0.67544    0.177
 3825.00    0.35564   0.66422    0.182
 3826.00    0.57788   0.65618    0.189
 3827.00    0.41932   0.65072    0.187
 3828.00    0.24029   0.64396    0.185
 3829.00    0.46458   0.63138    0.204
 3830.00    0.69338   0.61055    0.227
 3831.00    0.62073   0.58280    0.206
 3832.00    0.55427   0.55402    0.189
 3833.00    0.62553   0.53201    0.191
 3834.00    0.68686   0.52189    0.192
 3835.00    0.62467   0.52439    0.189
 3836.00    0.56558   0.53663    0.190
 3837.00    0.53269   0.55487    0.218
 3838.00    0.53095   0.57785    0.246
 3839.00    0.72518   0.60614    0.229
 3840.00    0.91879   0.63899    0.215
 3841.00    1.10935   0.67344    0.206
 3842.00    1.20138   0.70435    0.199
 3843.00    0.89898   0.72736    0.194
 3844.00    0.64840   0.74187    0.192
 3845.00    0.57009   0.74953    0.197
 3846.00    0.56325   0.75209    0.204
 3847.00    0.75711   0.75084    0.000
 3848.00    0.85988   0.74754    0.000
 3849.00    0.74388   0.74525    0.000
 3850.00    0.64884   0.74610    0.000
 3851.00    0.59729   0.74872    0.000
 3852.00    0.60246   0.74912    0.000
 3853.00    0.70995   0.74482    0.000
 3854.00    0.77444   0.73665    0.000
 3855.00    0.77114   0.72639    0.000
 3856.00    0.78356   0.71570    0.000
 3857.00    0.81773   0.70635    0.000
 3858.00    0.83324   0.70106    0.000
 3859.00    0.82599   0.70379    0.000
 3860.00    0.76563   0.71581    0.000
 3861.00    0.64821   0.73299    0.000
 3862.00    0.61473   0.74812    0.000
 3863.00    0.66078   0.75597    0.000
 3864.00    0.69194   0.75623    0.000
 3865.00    0.71065   0.75188    0.000
 3866.00    0.65285   0.74568    0.000
 3867.00    0.53879   0.73809    0.000
 3868.00    0.50421   0.72841    0.000
 3869.00    0.52096   0.71702    0.000
 3870.00    0.49080   0.70740    0.000
 3871.00    0.43413   0.70469    0.000
 3872.00    0.44497   0.71120    0.000
 3873.00    0.48902   0.72326    0.000
 3874.00    0.58189   0.73268    0.000
 3875.00    0.69551   0.73282    0.000
 3876.00    0.69878   0.72397    0.000
 3877.00    0.66185   0.71160    0.000
 3878.00    0.71010   0.70109    0.000
 3879.00    0.78461   0.69415    0.000
 3880.00    0.79358   0.68896    0.000
 3881.00    0.78571   0.68356    0.222
 3882.00    0.71939   0.67593    0.199
 3883.00    0.64086   0.66279    0.174
 3884.00    0.58838   0.64099    0.179
 3885.00    0.54021   0.61194    0.189
 3886.00    0.60218   0.58386    0.184
 3887.00    0.67779   0.56719    0.178
 3888.00    0.79832   0.56899    0.175
 3889.00    0.92269   0.59063    0.172
 3890.00    0.86314   0.62603    0.185
 3891.00    0.79442   0.66413    0.201
 3892.00    0.75152   0.69575    0.189
 3893.00    0.71020   0.71784    0.178
 3894.00    0.74303   0.73267    0.175
 3895.00    0.77447   0.74367    0.174
 3896.00    0.77733   0.75271    0.177
 3897.00    0.78076   0.75953    0.180
 3898.00    0.79099   0.76465    0.172
 3899.00    0.78238   0.76940    0.165
 3900.00    0.62028   0.77383    0.161
 3901.00    0.46728   0.77624    0.158
 3902.00    0.36982   0.77453    0.150
 3903.00    0.31391   0.77029    0.145
 3904.00    0.45796   0.76741    0.143
 3905.00    0.56252   0.76977    0.143
 3906.00    0.51247   0.78002    0.144
 3907.00    0.48488   0.79600    0.146
 3908.00    0.53050   0.81278    0.150
 3909.00    0.57204   0.82633    0.155
 3910.00    0.60230   0.83478    0.161
 3911.00    0.62640   0.83837    0.166
 3912.00    0.63595   0.83764    0.167
 3913.00    0.66580   0.83309    0.169
 3914.00    0.73709   0.82568    0.171
 3915.00    0.79334   0.81551    0.175
 3916.00    0.82287   0.80215    0.185
 3917.00    0.84033   0.78577    0.188
 3918.00    0.83902   0.76758    0.180
 3919.00    0.81774   0.75081    0.175
 3920.00    0.76922   0.73916    0.172
 3921.00    0.75349   0.73406    0.173
 3922.00    0.77715   0.73270    0.178
 3923.00    0.75079   0.72998    0.175
 3924.00    0.67143   0.72154    0.164
 3925.00    0.60854   0.70553    0.162
 3926.00    0.56102   0.68368    0.168
 3927.00    0.55388   0.65880    0.168
 3928.00    0.58000   0.63311    0.162
 3929.00    0.59803   0.60809    0.162
 3930.00    0.61020   0.58463    0.165
 3931.00    0.57238   0.56482    0.166
 3932.00    0.50274   0.55199    0.166
 3933.00    0.47246   0.54960    0.165
 3934.00    0.46408   0.55950    0.164
 3935.00    0.52639   0.58040    0.165
 3936.00    0.62291   0.60847    0.167
 3937.00    0.63700   0.63859    0.166
 3938.00    0.61663   0.66594    0.162
 3939.00    0.68452   0.68717    0.167
 3940.00    0.78399   0.70077    0.176
 3941.00    0.85542   0.70834    0.178
 3942.00    0.91838   0.71447    0.178
 3943.00    0.82389   0.72348    0.173
 3944.00    0.68985   0.73700    0.168
 3945.00    0.74690   0.75321    0.169
 3946.00    0.84292   0.76816    0.170
 3947.00    0.88753   0.77996    0.173
 3948.00    0.92391   0.78951    0.175
 3949.00    0.90371   0.79712    0.176
 3950.00    0.87676   0.80239    0.177
 3951.00    0.88387   0.80524    0.180
 3952.00    0.89375   0.80605    0.184
 3953.00    0.89004   0.80540    0.180
 3954.00    0.88570   0.80241    0.176
 3955.00    0.84339   0.79621    0.172
 3956.00    0.80087   0.78777    0.169
 3957.00    0.77280   0.77668    0.171
 3958.00    0.74965   0.75965    0.173
 3959.00    0.81959   0.73418    0.175
 3960.00    0.88026   0.70109    0.000
 3961.00    0.83660   0.66471    0.000
 3962.00    0.79343   0.62927    0.000
 3963.00    0.75414   0.59432    0.000
 3964.00    0.72860   0.55694    0.000
 3965.00    0.78464   0.51633    0.000
 3966.00    0.81852   0.47536    0.000
 3967.00    0.74834   0.44108    0.000
 3968.00    0.67005   0.42209    0.000
 3969.00    0.56063   0.42426    0.000
 3970.00    0.52458   0.44832    0.000
 3971.00    0.72300   0.48949    0.000
 3972.00    0.85381   0.53978    0.000
 3973.00    0.80151   0.59172    0.000
 3974.00    0.72635   0.64083    0.000
 3975.00    0.59812   0.68497    0.000
 3976.00    0.55949   0.72366    0.000
 3977.00    0.70081   0.75707    0.000
 3978.00    0.82715   0.78378    0.000
 3979.00    0.92728   0.80224    0.000
 3980.00    0.97056   0.81253    0.000
 3981.00    0.92681   0.81723    0.168
 3982.00    0.88710   0.82116    0.169
 3983.00    0.85282   0.82761    0.165
 3984.00    0.86260   0.83720    0.164
 3985.00    0.92453   0.84845    0.165
 3986.00    1.01111   0.85847    0.167
 3987.00    1.12343   0.86619    0.169
 3988.00    1.14673   0.87151    0.170
 3989.00    1.08803   0.87505    0.171
 3990.00    1.02756   0.87859    0.169
 3991.00    0.96564   0.88158    0.164
 3992.00    0.92889   0.88187    0.164
 3993.00    0.91012   0.87801    0.166
 3994.00    0.92163   0.87060    0.165
 3995.00    0.95212   0.86339    0.162
 3996.00    0.95747   0.86086    0.162
 3997.00    0.94903   0.86543    0.162
 3998.00    0.85130   0.87664    0.159
 3999.00    0.71104   0.89054    0.155
 4000.00    0.70887   0.90106    0.157
 4001.00    0.76347   0.90343    0.161
 4002.00    0.89963   0.89594    0.164
 4003.00    1.06445   0.88095    0.166
 4004.00    0.97806   0.86487    0.165
 4005.00    0.81724   0.85581    0.163
 4006.00    0.77601   0.85788    0.162
 4007.00    0.76415   0.86815    0.161
 4008.00    0.74180   0.88075    0.158
 4009.00    0.71736   0.89182    0.155
 4010.00    0.85728   0.90034    0.157
 4011.00    1.02274   0.90669    0.159
 4012.00    1.16476   0.91196    0.163
 4013.00    1.30409   0.91620    0.166
 4014.00    1.13961   0.91873    0.163
 4015.00    0.95163   0.91980    0.160
 4016.00    0.97298   0.91974    0.163
 4017.00    1.00315   0.91945    0.166
 4018.00    1.01763   0.91954    0.165
 4019.00    1.03028   0.91805    0.163
 4020.00    0.96898   0.91261    0.156
 4021.00    0.90872   0.90283    0.150
 4022.00    0.86655   0.89038    0.149
 4023.00    0.84348   0.87872    0.149
 4024.00    1.02590   0.87255    0.156
 4025.00    1.18500   0.87482    0.162
 4026.00    1.16704   0.88251    0.161
 4027.00    1.11880   0.88778    0.159
 4028.00    0.89587   0.88378    0.157
 4029.00    0.72030   0.86921    0.155
 4030.00    0.76177   0.85017    0.153
 4031.00    0.80129   0.83628    0.151
 4032.00    0.83346   0.83368    0.148
 4033.00    0.86261   0.84438    0.147
 4034.00    0.88229   0.86646    0.148
 4035.00    0.90767   0.89393    0.150
 4036.00    0.94822   0.91908    0.153
 4037.00    0.97459   0.93498    0.155
 4038.00    0.96857   0.93929    0.156
 4039.00    0.98107   0.93422    0.157
 4040.00    1.03017   0.92260    0.159
 4041.00    1.04478   0.90525    0.161
 4042.00    1.00000   0.88120    0.160
 4043.00    0.98153   0.85319    0.159
 4044.00    1.00276   0.83077    0.157
 4045.00    1.02125   0.82451    0.158
 4046.00    1.03609   0.83844    0.162
 4047.00    0.99985   0.86545    0.163
 4048.00    0.90397   0.89284    0.160
 4049.00    0.88846   0.91192    0.161
 4050.00    0.95572   0.91961    0.165
 4051.00    1.00241   0.91666    0.165
 4052.00    1.03045   0.90712    0.161
 4053.00    1.04924   0.89538    0.159
 4054.00    1.06063   0.88417    0.158
 4055.00    1.09094   0.87586    0.160
 4056.00    1.13458   0.87165    0.164
 4057.00    1.14956   0.87154    0.164
 4058.00    1.14684   0.87432    0.163
 4059.00    1.03131   0.87516    0.161
 4060.00    0.85493   0.86847    0.160
 4061.00    0.78568   0.85406    0.157
 4062.00    0.76664   0.83808    0.153
 4063.00    0.77494   0.82917    0.152
 4064.00    0.79427   0.83215    0.153
 4065.00    0.74790   0.84352    0.152
 4066.00    0.67887   0.85640    0.151
 4067.00    0.76639   0.86615    0.154
 4068.00    0.89937   0.86975    0.158
 4069.00    0.98800   0.86675    0.159
 4070.00    1.06597   0.86053    0.160
 4071.00    1.04405   0.85631    0.156
 4072.00    1.00277   0.85620    0.152
 4073.00    0.91797   0.85511    0.148
 4074.00    0.82660   0.84726    0.144
 4075.00    0.83527   0.83464    0.145
 4076.00    0.85501   0.82548    0.147
 4077.00    0.96312   0.82842    0.153
 4078.00    1.07770   0.84538    0.159
 4079.00    0.95116   0.86920    0.155
 4080.00    0.81539   0.88959    0.151
 4081.00    0.76326   0.89957    0.147
 4082.00    0.71703   0.89919    0.143
 4083.00    0.87584   0.89523    0.144
 4084.00    1.02514   0.89526    0.144
 4085.00    1.01790   0.90236    0.146
 4086.00    1.00136   0.91457    0.146
 4087.00    0.88908   0.92641    0.144
 4088.00    0.80417   0.93241    0.142
 4089.00    0.92013   0.93091    0.144
 4090.00    1.04060   0.92380    0.146
 4091.00    1.18640   0.91278    0.148
 4092.00    1.27822   0.89831    0.000
 4093.00    1.12844   0.87980    0.000
 4094.00    0.98795   0.85574    0.000
 4095.00    0.88155   0.82718    0.000
 4096.00    0.80932   0.79673    0.000
 4097.00    0.84223   0.76434    0.000
 4098.00    0.87660   0.72950    0.000
 4099.00    0.91481   0.69560    0.000
 4100.00    0.91899   0.67083    0.000
 4101.00    0.84674   0.66534    0.000
 4102.00    0.77463   0.68375    0.000
 4103.00    0.70280   0.71968    0.000
 4104.00    0.69531   0.76141    0.000
 4105.00    0.79699   0.79873    0.000
 4106.00    0.86843   0.82514    0.000
 4107.00    0.89493   0.83970    0.000
 4108.00    0.95007   0.84608    0.000
 4109.00    1.04265   0.84945    0.000
 4110.00    1.03620   0.85455    0.000
 4111.00    0.91577   0.86341    0.000
 4112.00    0.91891   0.87503    0.000
 4113.00    1.04749   0.88631    0.149
 4114.00    1.05984   0.89335    0.147
 4115.00    0.96813   0.89394    0.143
 4116.00    0.91672   0.88852    0.144
 4117.00    0.89711   0.87920    0.147
 4118.00    0.91735   0.87004    0.150
 4119.00    0.96524   0.86547    0.152
 4120.00    1.04028   0.86649    0.153
 4121.00    1.13183   0.87166    0.152
 4122.00    1.12509   0.87912    0.151
 4123.00    1.06614   0.88634    0.149
 4124.00    0.97130   0.89041    0.145
 4125.00    0.85990   0.88904    0.141
 4126.00    0.81496   0.88237    0.141
 4127.00    0.79641   0.87252    0.143
 4128.00    0.84100   0.86141    0.144
 4129.00    0.90696   0.84982    0.143
 4130.00    0.91995   0.83865    0.142
 4131.00    0.91788   0.83058    0.141
 4132.00    0.96285   0.83010    0.141
 4133.00    1.01885   0.83927    0.141
 4134.00    0.97438   0.85600    0.141
 4135.00    0.91093   0.87564    0.141
 4136.00    0.93113   0.89207    0.143
 4137.00    0.96355   0.90158    0.146
 4138.00    0.94569   0.90200    0.143
 4139.00    0.92249   0.89058    0.139
 4140.00    0.86683   0.86796    0.135
 4141.00    0.80893   0.84001    0.131
 4142.00    0.75593   0.81664    0.134
 4143.00    0.70311   0.80821    0.137
 4144.00    0.83014   0.81748    0.141
 4145.00    0.95491   0.83621    0.146
 4146.00    0.99354   0.85328    0.147
 4147.00    1.02435   0.86267    0.147
 4148.00    0.93447   0.86378    0.142
 4149.00    0.85795   0.85994    0.138
 4150.00    0.91327   0.85527    0.141
 4151.00    0.94453   0.85107    0.143
 4152.00    0.80503   0.84730    0.142
 4153.00    0.67367   0.84457    0.140
 4154.00    0.58670   0.84457    0.135
 4155.00    0.54955   0.84865    0.131
 4156.00    0.73015   0.85690    0.135
 4157.00    0.86109   0.86843    0.138
 4158.00    0.81339   0.88078    0.138
 4159.00    0.78727   0.89136    0.137
 4160.00    0.82624   0.89880    0.134
 4161.00    0.84087   0.90315    0.132
 4162.00    0.79299   0.90394    0.133
 4163.00    0.78435   0.89992    0.134
 4164.00    0.86240   0.89223    0.134
 4165.00    0.89706   0.88367    0.134
 4166.00    0.84857   0.87604    0.134
 4167.00    0.84858   0.87044    0.134
 4168.00    0.92966   0.86558    0.136
 4169.00    0.97304   0.85758    0.137
 4170.00    0.96122   0.84458    0.138
 4171.00    0.96613   0.82932    0.140
 4172.00    0.99260   0.81778    0.143
 4173.00    0.97071   0.81417    0.144
 4174.00    0.89395   0.81727    0.145
 4175.00    0.83568   0.82331    0.143
 4176.00    0.79593   0.82953    0.138
 4177.00    0.80489   0.83521    0.136
 4178.00    0.85686   0.84082    0.137
 4179.00    0.85118   0.84589    0.136
 4180.00    0.80064   0.84935    0.133
 4181.00    0.84586   0.85207    0.133
 4182.00    0.95657   0.85544    0.137
 4183.00    0.93171   0.85829    0.138
 4184.00    0.82560   0.85847    0.138
 4185.00    0.78348   0.85497    0.137
 4186.00    0.77484   0.84943    0.137
 4187.00    0.79559   0.84684    0.135
 4188.00    0.82969   0.85014    0.134
 4189.00    0.87481   0.85734    0.133
 4190.00    0.92424   0.86518    0.133
 4191.00    0.86839   0.87152    0.132
 4192.00    0.77757   0.87370    0.131
 4193.00    0.76130   0.86787    0.130
 4194.00    0.76581   0.85286    0.129
 4195.00    0.76728   0.83287    0.130
 4196.00    0.76805   0.81383    0.130
 4197.00    0.82551   0.79936    0.132
 4198.00    0.89338   0.79149    0.134
 4199.00    0.87338   0.79081    0.131
 4200.00    0.84094   0.79532    0.127
 4201.00    0.83407   0.80369    0.126
 4202.00    0.82981   0.81651    0.124
 4203.00    0.89981   0.83261    0.126
 4204.00    0.97466   0.84952    0.127
 4205.00    0.95993   0.86549    0.126
 4206.00    0.94239   0.87834    0.124
 4207.00    0.88307   0.88639    0.125
 4208.00    0.82808   0.88943    0.126
 4209.00    0.90026   0.88868    0.126
 4210.00    0.96261   0.88592    0.127
 4211.00    0.88184   0.88072    0.126
 4212.00    0.80933   0.87174    0.124
 4213.00    0.81502   0.86067    0.124
 4214.00    0.82632   0.85227    0.123
 4215.00    0.87611   0.85269    0.124
 4216.00    0.91243   0.86474    0.124
 4217.00    0.87717   0.88311    0.122
 4218.00    0.84901   0.89882    0.121
 4219.00    0.85118   0.90551    0.121
 4220.00    0.85660   0.89936    0.121
 4221.00    0.87350   0.87836    0.121
 4222.00    0.86546   0.84430    0.121
 4223.00    0.78352   0.80361    0.119
 4224.00    0.70444   0.76594    0.118
 4225.00    0.63253   0.74184    0.117
 4226.00    0.60872   0.74051    0.117
 4227.00    0.68943   0.76385    0.118
 4228.00    0.75607   0.80088    0.118
 4229.00    0.79619   0.83551    0.115
 4230.00    0.80571   0.85809    0.114
 4231.00    0.76488   0.86547    0.114
 4232.00    0.75025   0.86045    0.115
 4233.00    0.77346   0.85094    0.116
 4234.00    0.79704   0.84219    0.116
 4235.00    0.82108   0.83605    0.115
 4236.00    0.80138   0.83529    0.114
 4237.00    0.73274   0.84063    0.112
 4238.00    0.69892   0.84973    0.110
 4239.00    0.69948   0.86136    0.109
 4240.00    0.74767   0.87505    0.110
 4241.00    0.83733   0.88823    0.114
 4242.00    0.85571   0.89845    0.115
 4243.00    0.81944   0.90445    0.114
 4244.00    0.80448   0.90325    0.115
 4245.00    0.80387   0.89245    0.118
 4246.00    0.75391   0.87439    0.119
 4247.00    0.67482   0.85517    0.120
 4248.00    0.66643   0.84011    0.121
 4249.00    0.69444   0.83108    0.122
 4250.00    0.70408   0.82835    0.123
 4251.00    0.70553   0.83031    0.125
 4252.00    0.73313   0.83306    0.124
 4253.00    0.77076   0.83525    0.123
 4254.00    0.81493   0.83922    0.121
 4255.00    0.86123   0.84532    0.120
 4256.00    0.87153   0.84883    0.122
 4257.00    0.87200   0.84491    0.125
 4258.00    0.85954   0.83582    0.124
 4259.00    0.84418   0.82956    0.124
 4260.00    0.84554   0.83372    0.125
 4261.00    0.84989   0.85058    0.126
 4262.00    0.87902   0.87407    0.127
 4263.00    0.91154   0.89409    0.127
 4264.00    0.94799   0.90437    0.126
 4265.00    0.98483   0.90279    0.124
 4266.00    0.91372   0.88898    0.124
 4267.00    0.83602   0.86572    0.124
 4268.00    0.87993   0.83764    0.125
 4269.00    0.92666   0.80836    0.127
 4270.00    0.88151   0.78195    0.124
 4271.00    0.83556   0.76545    0.121
 4272.00    0.76839   0.76366    0.121
 4273.00    0.70476   0.77450    0.121
 4274.00    0.68972   0.79457    0.121
 4275.00    0.68255   0.82041    0.121
 4276.00    0.74692   0.84483    0.122
 4277.00    0.79437   0.86077    0.123
 4278.00    0.72910   0.86542    0.123
 4279.00    0.67900   0.86132    0.122
 4280.00    0.70742   0.85515    0.119
 4281.00    0.74761   0.85078    0.118
 4282.00    0.83692   0.84775   -2.000
 4283.00    0.90415   0.84405   -2.000
 4284.00    0.89516   0.83705   -2.000
 4285.00    0.86645   0.82625   -2.000
 4286.00    0.78039   0.81341   -2.000
 4287.00    0.69746   0.79977   -2.000
 4288.00    0.62232   0.78757   -2.000
 4289.00    0.60230   0.78217   -2.000
 4290.00    0.70011   0.78710   -2.000
 4291.00    0.77109   0.79963   -2.000
 4292.00    0.79224   0.81203   -2.000
 4293.00    0.82267   0.81699   -2.000
 4294.00    0.86815   0.81251   -2.000
 4295.00    0.83632   0.79911   -2.000
 4296.00    0.69448   0.77786   -2.000
 4297.00    0.66287   0.75224   -2.000
 4298.00    0.76922   0.72719    0.117
 4299.00    0.79079   0.70867    0.118
 4300.00    0.71885   0.70046    0.117
 4301.00    0.66341   0.69992    0.115
 4302.00    0.62402   0.70230    0.113
 4303.00    0.60516   0.70410    0.113
 4304.00    0.60392   0.70189    0.113
 4305.00    0.57784   0.69488    0.112
 4306.00    0.53298   0.68592    0.112
 4307.00    0.54190   0.68005    0.111
 4308.00    0.58652   0.68297    0.110
 4309.00    0.59550   0.69704    0.110
 4310.00    0.58376   0.72011    0.109
 4311.00    0.63644   0.74956    0.109
 4312.00    0.72176   0.78409    0.109
 4313.00    0.79046   0.82241    0.109
 4314.00    0.85187   0.86323    0.108
 4315.00    0.85464   0.90294    0.109
 4316.00    0.83534   0.93357    0.110
 4317.00    0.84135   0.94900    0.109
 4318.00    0.85545   0.94915    0.107
 4319.00    0.82307   0.93584    0.108
 4320.00    0.77826   0.91105    0.109
 4321.00    0.77123   0.87771    0.109
 4322.00    0.77247   0.83993    0.109
 4323.00    0.79942   0.80592    0.110
 4324.00    0.83084   0.78659    0.113
 4325.00    0.86516   0.78954    0.112
 4326.00    0.89985   0.81377    0.111
 4327.00    0.88337   0.84813    0.109
 4328.00    0.86210   0.87853    0.107
 4329.00    0.87323   0.89744    0.109
 4330.00    0.88620   0.90634    0.000
 4331.00    0.90274   0.90936    0.000
 4332.00    0.91906   0.90697    0.000
 4333.00    0.90140   0.89655    0.000
 4334.00    0.88461   0.87471    0.000
 4335.00    0.88869   0.83779    0.000
 4336.00    0.89097   0.78713    0.000
 4337.00    0.86968   0.73416    0.000
 4338.00    0.84546   0.69297    0.000
 4339.00    0.79565   0.67276    0.000
 4340.00    0.75450   0.67886    0.000
 4341.00    0.76925   0.70868    0.000
 4342.00    0.78893   0.74950    0.000
 4343.00    0.83353   0.78987    0.000
 4344.00    0.86876   0.82571    0.000
 4345.00    0.86573   0.85442    0.000
 4346.00    0.86776   0.87366    0.000
 4347.00    0.88688   0.88334    0.000
 4348.00    0.89359   0.88304    0.000
 4349.00    0.86489   0.87184    0.000
 4350.00    0.84695   0.85401    0.000
 4351.00    0.85524   0.84087    0.114
 4352.00    0.86831   0.84156    0.115
 4353.00    0.89146   0.85442    0.114
 4354.00    0.92348   0.87164    0.114
 4355.00    0.97171   0.88742    0.115
 4356.00    0.98777   0.89838    0.115
 4357.00    0.95243   0.90310    0.113
 4358.00    0.92391   0.90501    0.111
 4359.00    0.90496   0.91033    0.111
 4360.00    0.89040   0.92106    0.111
 4361.00    0.88124   0.93353    0.112
 4362.00    0.88136   0.94349    0.113
 4363.00    0.89157   0.94907    0.113
 4364.00    0.92132   0.94856    0.113
 4365.00    0.96982   0.94035    0.114
 4366.00    0.95602   0.92679    0.114
 4367.00    0.88954   0.91406    0.113
 4368.00    0.86287   0.90574    0.113
 4369.00    0.86586   0.89996    0.115
 4370.00    0.84747   0.89343    0.115
 4371.00    0.81508   0.88425    0.114
 4372.00    0.83150   0.87241    0.115
 4373.00    0.87587   0.86157    0.116
 4374.00    0.91388   0.85811    0.117
 4375.00    0.94872   0.86556    0.118
 4376.00    0.91381   0.88014    0.117
 4377.00    0.84881   0.89244    0.116
 4378.00    0.81860   0.89319    0.115
 4379.00    0.80127   0.87820    0.115
 4380.00    0.78719   0.84916    0.115
 4381.00    0.77414   0.81183    0.114
 4382.00    0.79179   0.77657    0.113
 4383.00    0.81746   0.75698    0.111
 4384.00    0.83479   0.76005    0.111
 4385.00    0.85033   0.77964    0.112
 4386.00    0.82842   0.80282    0.111
 4387.00    0.80018   0.82163    0.111
 4388.00    0.77609   0.83525    0.110
 4389.00    0.75252   0.84534    0.109
 4390.00    0.81792   0.85410    0.111
 4391.00    0.89125   0.86307    0.114
 4392.00    0.88224   0.87151    0.114
 4393.00    0.86884   0.87877    0.115
 4394.00    0.87316   0.88673    0.112
 4395.00    0.87758   0.89685    0.110
 4396.00    0.86241   0.90573    0.111
 4397.00    0.84674   0.90799    0.113
 4398.00    0.82022   0.90246    0.112
 4399.00    0.79824   0.89181    0.111
 4400.00    0.83215   0.87994    0.113
 4401.00    0.85804   0.86838    0.114
 4402.00    0.81651   0.85424    0.115
 4403.00    0.78254   0.83732    0.115
 4404.00    0.79592   0.82555    0.113
 4405.00    0.79798   0.82575    0.111
 4406.00    0.74432   0.83605    0.110
 4407.00    0.70459   0.85280    0.109
 4408.00    0.72051   0.87523    0.111
 4409.00    0.76302   0.89956    0.111
 4410.00    0.89367   0.91776    0.111
 4411.00    0.97427   0.92418    0.110
 4412.00    0.91461   0.91784    0.111
 4413.00    0.87554   0.90188    0.112
 4414.00    0.88582   0.88589    0.111
 4415.00    0.88469   0.88103    0.110
 4416.00    0.85993   0.88952    0.110
 4417.00    0.84602   0.90538    0.109
 4418.00    0.85162   0.92078    0.111
 4419.00    0.88734   0.92899    0.111
 4420.00    0.97049   0.92754    0.111
 4421.00    1.01342   0.92007    0.111
 4422.00    1.00079   0.91315    0.110
 4423.00    0.95097   0.91033    0.109
 4424.00    0.85591   0.91035    0.110
 4425.00    0.82695   0.91099    0.110
 4426.00    0.86885   0.91152    0.109
 4427.00    0.89861   0.91191    0.109
 4428.00    0.91688   0.91088    0.110
 4429.00    0.90503   0.90748    0.109
 4430.00    0.86807   0.90311    0.107
 4431.00    0.89520   0.89772    0.108
 4432.00    0.96939   0.88964    0.111
 4433.00    0.94949   0.88117    0.111
 4434.00    0.86893   0.87891    0.110
 4435.00    0.82612   0.88775    0.109
 4436.00    0.80461   0.90548    0.109
 4437.00    0.82996   0.92360    0.109
 4438.00    0.87831   0.93338    0.109
 4439.00    0.93951   0.93078    0.110
 4440.00    1.00616   0.91902    0.111
 4441.00    0.99057   0.90667    0.110
 4442.00    0.94510   0.90207    0.109
 4443.00    0.88893   0.90875    0.108
 4444.00    0.82949   0.92347    0.107
 4445.00    0.82792   0.93838    0.107
 4446.00    0.84118   0.94778    0.107
 4447.00    0.87061   0.95169    0.108
 4448.00    0.90342   0.95082    0.109
 4449.00    0.88677   0.94503    0.108
 4450.00    0.86199   0.93567    0.106
 4451.00    0.91702   0.92315    0.105
 4452.00    0.98189   0.90656    0.104
 4453.00    0.91156   0.88739    0.104
 4454.00    0.82973   0.87055    0.104
 4455.00    0.79618   0.86044    0.103
 4456.00    0.76501   0.85624    0.102
 4457.00    0.83715   0.85417    0.102
 4458.00    0.90935   0.85282    0.101
 4459.00    0.88226   0.85323    0.101
 4460.00    0.85635   0.85656    0.101
 4461.00    0.85466   0.86477    0.000
 4462.00    0.85526   0.87839    0.000
 4463.00    0.88277   0.89251    0.000
 4464.00    0.90091   0.90155    0.000
 4465.00    0.84297   0.90439    0.000
 4466.00    0.79741   0.90231    0.000
 4467.00    0.82721   0.89733    0.000
 4468.00    0.85862   0.89300    0.000
 4469.00    0.89782   0.89396    0.000
 4470.00    0.92934   0.90273    0.000
 4471.00    0.93092   0.91885    0.000
 4472.00    0.92828   0.93936    0.000
 4473.00    0.91195   0.95909    0.000
 4474.00    0.89184   0.97370    0.000
 4475.00    0.86137   0.98189    0.000
 4476.00    0.83609   0.98274    0.000
 4477.00    0.82308   0.97409    0.000
 4478.00    0.83424   0.95657    0.000
 4479.00    0.89464   0.93647    0.000
 4480.00    0.92906   0.92283    0.000
 4481.00    0.91739   0.92215    0.000
 4482.00    0.90896   0.93454    0.101
 4483.00    0.90552   0.95316    0.101
 4484.00    0.91312   0.96879    0.101
 4485.00    0.93575   0.97523    0.102
 4486.00    0.94338   0.97087    0.102
 4487.00    0.93302   0.95894    0.101
 4488.00    0.91397   0.94614    0.100
 4489.00    0.88572   0.93848    0.099
 4490.00    0.88622   0.93706    0.099
 4491.00    0.91352   0.93767    0.100
 4492.00    0.94887   0.93543    0.100
 4493.00    0.99082   0.93001    0.101
 4494.00    0.99417   0.92633    0.100
 4495.00    0.96957   0.92898    0.100
 4496.00    0.94461   0.93834    0.099
 4497.00    0.91941   0.95138    0.099
 4498.00    0.91656   0.96394    0.099
 4499.00    0.92613   0.97385    0.100
 4500.00    0.96406   0.98256    0.101
 4501.00    1.01570   0.99381    0.101
 4502.00    1.01877   1.00796    0.101
 4503.00    1.00157   1.01997    0.100
 4504.00    1.01639   1.02562    0.100
 4505.00    1.04265   1.02492    0.101
 4506.00    1.06282   1.02061    0.101
 4507.00    1.08117   1.01585    0.102
 4508.00    1.04153   1.01216    0.101
 4509.00    0.98737   1.00848    0.099
 4510.00    1.03329   1.00246    0.099
 4511.00    1.09956   0.99334    0.100
 4512.00    1.03792   0.98295    0.099
 4513.00    0.95588   0.97396    0.098
 4514.00    0.92498   0.96832    0.099
 4515.00    0.90016   0.96640    0.099
 4516.00    0.91619   0.96683    0.099
 4517.00    0.93553   0.96905    0.099
 4518.00    0.92046   0.97316    0.099
 4519.00    0.90382   0.97686    0.098
 4520.00    0.93445   0.97633    0.099
 4521.00    0.96497   0.96886    0.099
 4522.00    0.96065   0.95562    0.098
 4523.00    0.95625   0.93945    0.098
 4524.00    0.95030   0.92103    0.098
 4525.00    0.94553   0.90164    0.099
 4526.00    0.95404   0.88451    0.098
 4527.00    0.96435   0.87311    0.098
 4528.00    0.98887   0.86929    0.099
 4529.00    1.00781   0.87213    0.099
 4530.00    0.99379   0.87807    0.099
 4531.00    0.97222   0.88363    0.099
 4532.00    0.91530   0.88670    0.098
 4533.00    0.86715   0.88940    0.097
 4534.00    0.85247   0.89686    0.096
 4535.00    0.86133   0.91178    0.095
 4536.00    0.94526   0.93047    0.097
 4537.00    1.00185   0.94451    0.098
 4538.00    0.98457   0.94927    0.097
 4539.00    0.98029   0.94681    0.097
 4540.00    1.00615   0.94234    0.100
 4541.00    1.01402   0.94011    0.101
 4542.00    0.98588   0.93998    0.101
 4543.00    0.94359   0.93916    0.100
 4544.00    0.87664   0.93709    0.098
 4545.00    0.85344   0.93494    0.097
 4546.00    0.89709   0.93229    0.097
 4547.00    0.94272   0.92837    0.098
 4548.00    0.99102   0.92412    0.099
 4549.00    0.97984   0.92202    0.099
 4550.00    0.89837   0.92175    0.000
 4551.00    0.86952   0.92050    0.000
 4552.00    0.89552   0.91877    0.000
 4553.00    0.93110   0.91979    0.000
 4554.00    0.97550   0.92661    0.000
 4555.00    0.97956   0.94026    0.000
 4556.00    0.95092   0.95789    0.000
 4557.00    0.95173   0.97403    0.000
 4558.00    0.97353   0.98459    0.000
 4559.00    0.97105   0.98819    0.000
 4560.00    0.95337   0.98534    0.000
 4561.00    0.92770   0.97729    0.000
 4562.00    0.89765   0.96622    0.000
 4563.00    0.94462   0.95693    0.000
 4564.00    1.02819   0.95437    0.000
 4565.00    1.06925   0.95977    0.000
 4566.00    1.09287   0.96955    0.000
 4567.00    0.99719   0.97748    0.000
 4568.00    0.85971   0.97988    0.000
 4569.00    0.89110   0.97708    0.000
 4570.00    0.97240   0.97231    0.000
 4571.00    1.00417   0.97130    0.000
 4572.00    1.02381   0.97610    0.000
 4573.00    0.97466   0.98192    0.000
 4574.00    0.91188   0.98445    0.000
 4575.00    0.93592   0.98262    0.000
 4576.00    0.97341   0.97574    0.000
 4577.00    0.92604   0.96399    0.000
 4578.00    0.86897   0.94976    0.000
 4579.00    0.88960   0.93727    0.000
 4580.00    0.91620   0.93016    0.000
 4581.00    0.96129   0.92869    0.000
 4582.00    1.00714   0.93035    0.000
 4583.00    0.97238   0.93353    0.000
 4584.00    0.93762   0.93857    0.000
 4585.00    0.93299   0.94599    0.000
 4586.00    0.92986   0.95573    0.000
 4587.00    0.95285   0.96503    0.000
 4588.00    0.97204   0.96973    0.000
 4589.00    0.95060   0.96767    0.000
 4590.00    0.93179   0.95997    0.000
 4591.00    0.93275   0.95043    0.000
 4592.00    0.92935   0.94269    0.000
 4593.00    0.90082   0.93802    0.000
 4594.00    0.88067   0.93628    0.000
 4595.00    0.89874   0.93724    0.000
 4596.00    0.91372   0.93969    0.000
 4597.00    0.91712   0.94217    0.000
 4598.00    0.92038   0.94360    0.000
 4599.00    0.92323   0.94326    0.000
 4600.00    0.92280   0.94288    0.000
 4601.00    0.91366   0.94417    0.000
 4602.00    0.89601   0.94676    0.000
 4603.00    0.85899   0.95076    0.000
 4604.00    0.85951   0.95696    0.000
 4605.00    0.93413   0.96661    0.000
 4606.00    0.99623   0.97951    0.000
 4607.00    1.03679   0.99285    0.000
 4608.00    1.05920   1.00225    0.000
 4609.00    1.05426   1.00473    0.000
 4610.00    1.05081   1.00153    0.000
 4611.00    1.04931   0.99641    0.000
 4612.00    1.05267   0.99245    0.000
 4613.00    1.06168   0.99152    0.000
 4614.00    1.03086   0.99288    0.000
 4615.00    0.95908   0.99408    0.000
 4616.00    0.93230   0.99467    0.000
 4617.00    0.94631   0.99444    0.000
 4618.00    0.95064   0.99384    0.000
 4619.00    0.94722   0.99515    0.000
 4620.00    0.95687   0.99822    0.000
 4621.00    0.97570   1.00046    0.000
 4622.00    0.98319   1.00095    0.000
 4623.00    0.98369   0.99976    0.000
 4624.00    0.95894   0.99674    0.000
 4625.00    0.92059   0.99314    0.000
 4626.00    0.91346   0.99025    0.000
 4627.00    0.92094   0.98792    0.000
 4628.00    0.93479   0.98599    0.000
 4629.00    0.95121   0.98538    0.000
 4630.00    0.97805   0.98522    0.000
 4631.00    1.00847   0.98256    0.000
 4632.00    1.01888   0.97674    0.000
 4633.00    1.02350   0.96986    0.000
 4634.00    1.02660   0.96294    0.000
 4635.00    1.02935   0.95584    0.000
 4636.00    0.98228   0.94890    0.000
 4637.00    0.92559   0.94385    0.000
 4638.00    0.91273   0.94236    0.000
 4639.00    0.90644   0.94459    0.000
 4640.00    0.92956   0.94918    0.000
 4641.00    0.95592   0.95193    0.000
 4642.00    0.98203   0.94886    0.000
 4643.00    1.00813   0.93955    0.000
 4644.00    0.97127   0.92606    0.000
 4645.00    0.93202   0.91245    0.000
 4646.00    0.93937   0.90453    0.000
 4647.00    0.94685   0.90571    0.000
 4648.00    0.95032   0.91463    0.000
 4649.00    0.95245   0.92708    0.000
 4650.00    0.93264   0.93832    0.000
 4651.00    0.91889   0.94531    0.000
 4652.00    0.96709   0.94708    0.000
 4653.00    1.00721   0.94492    0.000
 4654.00    0.98819   0.94388    0.000
 4655.00    0.96268   0.94874    0.000
 4656.00    0.90087   0.96057    0.000
 4657.00    0.86078   0.97641    0.000
 4658.00    0.91759   0.98980    0.000
 4659.00    0.96156   0.99490    0.000
 4660.00    0.95850   0.98970    0.000
 4661.00    0.96062   0.97620    0.000
 4662.00    0.97866   0.95817    0.000
 4663.00    0.98987   0.93855    0.000
 4664.00    0.98325   0.91836    0.000
 4665.00    0.96356   0.89883    0.000
 4666.00    0.91457   0.88470    0.000
 4667.00    0.88825   0.88184    0.000
 4668.00    0.90598   0.89106    0.000
 4669.00    0.91217   0.90747    0.000
 4670.00    0.89884   0.92473    0.000
 4671.00    0.89509   0.93816    0.000
 4672.00    0.90556   0.94684    0.000
 4673.00    0.91600   0.95263    0.000
 4674.00    0.92640   0.95694    0.000
 4675.00    0.94647   0.95913    0.000
 4676.00    0.97764   0.95686    0.000
 4677.00    0.97755   0.94949    0.000
 4678.00    0.94578   0.93969    0.000
 4679.00    0.94421   0.93099    0.000
 4680.00    0.96962   0.92594    0.000
 4681.00    0.97722   0.92554    0.000
 4682.00    0.97077   0.92867    0.000
 4683.00    0.96583   0.93222    0.000
 4684.00    0.96192   0.93431    0.000
 4685.00    0.93747   0.93560    0.000
 4686.00    0.90055   0.93676    0.000
 4687.00    0.91131   0.93819    0.000
 4688.00    0.94737   0.94015    0.000
 4689.00    0.96133   0.94239    0.000
 4690.00    0.96513   0.94546    0.000
 4691.00    0.95954   0.95063    0.000
 4692.00    0.95023   0.95741    0.000
 4693.00    0.96713   0.96381    0.000
 4694.00    0.99288   0.96744    0.000
 4695.00    0.96708   0.96577    0.000
 4696.00    0.92665   0.95773    0.000
 4697.00    0.91228   0.94545    0.000
 4698.00    0.90403   0.93346    0.000
 4699.00    0.89004   0.92468    0.000
 4700.00    0.87497   0.91881    0.000
 4701.00    0.87321   0.91537    0.000
 4702.00    0.87339   0.91478    0.000
 4703.00    0.87994   0.91688    0.000
 4704.00    0.88718   0.91923    0.000
 4705.00    0.93820   0.91934    0.000
 4706.00    0.99223   0.91773    0.000
 4707.00    0.97892   0.91716    0.000
 4708.00    0.96332   0.91971    0.000
 4709.00    0.95450   0.92549    0.000
 4710.00    0.94582   0.93215    0.000
 4711.00    0.94162   0.93618    0.000
 4712.00    0.93748   0.93730    0.000
 4713.00    0.93409   0.93874    0.000
 4714.00    0.93274   0.94433    0.000
 4715.00    0.95121   0.95506    0.000
 4716.00    0.96780   0.96819    0.000
 4717.00    0.97105   0.98046    0.000
 4718.00    0.97172   0.99004    0.000
 4719.00    0.95838   0.99577    0.000
 4720.00    0.94044   0.99763    0.000
 4721.00    0.90243   0.99680    0.000
 4722.00    0.88310   0.99462    0.000
 4723.00    0.93081   0.99057    0.000
 4724.00    0.97050   0.98216    0.000
 4725.00    0.98608   0.96781    0.000
 4726.00    0.98805   0.94958    0.000
 4727.00    0.95517   0.93305    0.000
 4728.00    0.93233   0.92308    0.000
 4729.00    0.93159   0.92077    0.000
 4730.00    0.93470   0.92473    0.000
 4731.00    0.94518   0.93256    0.000
 4732.00    0.95731   0.94094    0.000
 4733.00    0.97218   0.94757    0.000
 4734.00    0.96028   0.95181    0.000
 4735.00    0.90924   0.95377    0.000
 4736.00    0.88503   0.95571    0.000
 4737.00    0.89534   0.95919    0.000
 4738.00    0.92348   0.96248    0.000
 4739.00    0.97184   0.96434    0.000
 4740.00    0.98588   0.96604    0.000
 4741.00    0.96563   0.96889    0.000
 4742.00    0.95385   0.97278    0.000
 4743.00    0.94955   0.97676    0.000
 4744.00    0.95264   0.98068    0.000
 4745.00    0.96149   0.98489    0.000
 4746.00    0.95842   0.98845    0.000
 4747.00    0.94722   0.99007    0.000
 4748.00    0.95696   0.98960    0.000
 4749.00    0.97922   0.98696    0.000
 4750.00    1.00228   0.98175    0.000
 4751.00    1.02577   0.97452    0.000
 4752.00    1.02014   0.96692    0.000
 4753.00    1.00133   0.96055    0.000
 4754.00    0.99726   0.95656    0.000
 4755.00    0.99894   0.95512    0.000
 4756.00    1.00303   0.95563    0.000
 4757.00    1.00793   0.95657    0.000
 4758.00    0.98134   0.95586    0.000
 4759.00    0.94600   0.95139    0.000
 4760.00    0.88923   0.94212    0.000
 4761.00    0.82755   0.92989    0.094
 4762.00    0.86818   0.91834    0.088
 4763.00    0.92756   0.91004    0.089
 4764.00    0.94919   0.90647    0.089
 4765.00    0.96550   0.90884    0.088
 4766.00    0.97785   0.91690    0.089
 4767.00    0.98980   0.92805    0.089
 4768.00    0.98822   0.93897    0.087
 4769.00    0.98577   0.94708    0.086
 4770.00    0.91623   0.95190    0.087
 4771.00    0.84494   0.95593    0.088
 4772.00    0.91299   0.96162    0.089
 4773.00    0.98016   0.96870    0.090
 4774.00    1.02224   0.97494    0.088
 4775.00    1.05809   0.97878    0.087
 4776.00    1.00383   0.98001    0.087
 4777.00    0.95798   0.97828    0.088
 4778.00    0.99135   0.97365    0.087
 4779.00    1.01550   0.96731    0.086
 4780.00    0.97656   0.96012    0.086
 4781.00    0.94545   0.95239    0.086
 4782.00    0.95579   0.94519    0.085
 4783.00    0.96150   0.93982    0.085
 4784.00    0.94745   0.93582    0.084
 4785.00    0.93058   0.93243    0.084
 4786.00    0.90383   0.93089    0.085
 4787.00    0.89355   0.93179    0.086
 4788.00    0.93195   0.93496    0.086
 4789.00    0.95755   0.94140    0.087
 4790.00    0.95092   0.95125    0.087
 4791.00    0.93968   0.96340    0.087
 4792.00    0.91843   0.97609    0.086
 4793.00    0.91945   0.98617    0.085
 4794.00    0.96239   0.99036    0.087
 4795.00    0.98880   0.98757    0.088
 4796.00    0.98804   0.97966    0.088
 4797.00    0.97553   0.97036    0.088
 4798.00    0.94608   0.96384    0.087
 4799.00    0.94459   0.96268    0.087
 4800.00    0.97852   0.96608    0.089
 4801.00    0.98556   0.97033    0.090
 4802.00    0.96257   0.97145    0.089
 4803.00    0.95718   0.96793    0.089
 4804.00    0.96914   0.96139    0.089
 4805.00    0.96439   0.95471    0.089
 4806.00    0.94512   0.94981    0.088
 4807.00    0.94589   0.94792    0.088
 4808.00    0.96200   0.94940    0.089
 4809.00    0.94770   0.95294    0.089
 4810.00    0.91294   0.95706    0.089
 4811.00    0.94026   0.96121    0.090
 4812.00    1.00415   0.96551    0.091
 4813.00    1.00647   0.97026    0.092
 4814.00    0.97716   0.97563    0.091
 4815.00    0.98338   0.98134    0.090
 4816.00    1.00541   0.98639    0.090
 4817.00    0.99473   0.98936    0.089
 4818.00    0.97152   0.98890    0.089
 4819.00    0.98520   0.98408    0.089
 4820.00    1.01087   0.97528    0.090
 4821.00    0.99945   0.96425    0.090
 4822.00    0.97793   0.95420    0.090
 4823.00    0.98300   0.94898    0.089
 4824.00    0.99402   0.94920    0.088
 4825.00    0.99664   0.95173    0.089
 4826.00    0.99777   0.95322    0.091
 4827.00    0.95227   0.95242    0.091
 4828.00    0.90041   0.94995    0.091
 4829.00    0.91070   0.94688    0.091
 4830.00    0.92703   0.94420    0.091
 4831.00    0.92755   0.94362    0.089
 4832.00    0.92711   0.94621    0.088
 4833.00    0.92625   0.95029    0.088
 4834.00    0.92549   0.95321    0.088
 4835.00    0.94244   0.95349    0.088
 4836.00    0.95815   0.95073    0.088
 4837.00    0.94177   0.94517    0.089
 4838.00    0.92753   0.93849    0.090
 4839.00    0.94256   0.93338    0.090
 4840.00    0.95518   0.93133    0.091
 4841.00    0.94600   0.93205    0.089
 4842.00    0.93862   0.93489    0.088
 4843.00    0.94327   0.93930    0.088
 4844.00    0.94268   0.94322    0.088
 4845.00    0.91501   0.94411    0.087
 4846.00    0.89382   0.94142    0.087
 4847.00    0.89957   0.93694    0.087
 4848.00    0.90439   0.93320    0.000
 4849.00    0.90603   0.93039    0.000
 4850.00    0.90038   0.92619    0.000
 4851.00    0.87360   0.91851    0.000
 4852.00    0.86511   0.90630    0.000
 4853.00    0.90184   0.88977    0.000
 4854.00    0.91398   0.87098    0.000
 4855.00    0.87364   0.85149    0.000
 4856.00    0.83458   0.82933    0.000
 4857.00    0.79791   0.80161    0.000
 4858.00    0.79250   0.76978    0.000
 4859.00    0.83769   0.74101    0.000
 4860.00    0.84142   0.72553    0.000
 4861.00    0.78631   0.73003    0.000
 4862.00    0.77377   0.75185    0.000
 4863.00    0.81443   0.78261    0.000
 4864.00    0.83422   0.81438    0.000
 4865.00    0.83102   0.84101    0.000
 4866.00    0.83192   0.85883    0.000
 4867.00    0.83679   0.86715    0.000
 4868.00    0.84220   0.86727    0.000
 4869.00    0.84808   0.86206    0.000
 4870.00    0.87130   0.85697    0.000
 4871.00    0.90762   0.85763    0.000
 4872.00    0.94993   0.86522    0.000
 4873.00    0.99621   0.87703    0.000
 4874.00    0.97117   0.89039    0.000
 4875.00    0.90474   0.90382    0.084
 4876.00    0.88609   0.91604    0.083
 4877.00    0.89161   0.92597    0.083
 4878.00    0.90866   0.93239    0.083
 4879.00    0.93076   0.93355    0.084
 4880.00    0.94329   0.92984    0.084
 4881.00    0.95223   0.92374    0.084
 4882.00    0.93991   0.91655    0.084
 4883.00    0.92082   0.90834    0.084
 4884.00    0.90927   0.90003    0.084
 4885.00    0.89973   0.89305    0.085
 4886.00    0.87913   0.88766    0.084
 4887.00    0.85611   0.88318    0.083
 4888.00    0.83857   0.87977    0.082
 4889.00    0.82198   0.87993    0.082
 4890.00    0.85082   0.88808    0.082
 4891.00    0.88563   0.90647    0.082
 4892.00    0.92720   0.93179    0.083
 4893.00    0.96939   0.95774    0.083
 4894.00    0.98268   0.97853    0.082
 4895.00    0.99433   0.99057    0.081
 4896.00    0.96673   0.99330    0.082
 4897.00    0.93837   0.98839    0.083
 4898.00    0.92486   0.97904    0.083
 4899.00    0.91106   0.96939    0.083
 4900.00    0.89080   0.96220    0.082
 4901.00    0.87311   0.95811    0.080
 4902.00    0.88874   0.95754    0.081
 4903.00    0.90421   0.96046    0.082
 4904.00    0.91828   0.96454    0.082
 4905.00    0.92970   0.96573    0.083
 4906.00    0.92411   0.96132    0.083
 4907.00    0.92052   0.95190    0.083
 4908.00    0.92695   0.94092    0.083
 4909.00    0.93033   0.93313    0.083
 4910.00    0.92130   0.93188    0.082
 4911.00    0.91710   0.93685    0.081
 4912.00    0.92922   0.94470    0.082
 4913.00    0.94229   0.95088    0.083
 4914.00    0.95809   0.95049    0.083
 4915.00    0.96726   0.93966    0.083
 4916.00    0.96033   0.91819    0.083
 4917.00    0.94499   0.89082    0.083
 4918.00    0.91202   0.86570    0.082
 4919.00    0.87754   0.85054    0.082
 4920.00    0.84033   0.84891    0.082
 4921.00    0.83858   0.85871    0.082
 4922.00    0.89338   0.87494    0.083
 4923.00    0.92584   0.89404    0.083
 4924.00    0.92704   0.91463    0.083
 4925.00    0.93134   0.93523    0.083
 4926.00    0.93946   0.95370    0.082
 4927.00    0.93286   0.96821    0.082
 4928.00    0.91029   0.97680    0.083
 4929.00    0.93159   0.97796    0.083
 4930.00    0.99492   0.97175    0.083
 4931.00    1.00633   0.95982    0.083
 4932.00    0.97390   0.94585    0.082
 4933.00    0.91858   0.93387    0.082
 4934.00    0.84624   0.92458    0.082
 4935.00    0.83321   0.91622    0.081
 4936.00    0.85892   0.90876    0.080
 4937.00    0.88053   0.90521    0.081
 4938.00    0.89981   0.90919    0.083
 4939.00    0.88905   0.92113    0.084
 4940.00    0.86333   0.93737    0.000
 4941.00    0.87352   0.95338    0.000
 4942.00    0.89915   0.96602    0.000
 4943.00    0.90652   0.97386    0.000
 4944.00    0.90715   0.97794    0.000
 4945.00    0.93522   0.98102    0.000
 4946.00    0.97188   0.98487    0.000
 4947.00    0.93855   0.98916    0.000
 4948.00    0.88696   0.99266    0.000
 4949.00    0.92201   0.99391    0.000
 4950.00    0.97550   0.99122    0.000
 4951.00    0.99035   0.98337    0.000
 4952.00    0.99869   0.97009    0.000
 4953.00    0.97394   0.95182    0.000
 4954.00    0.94498   0.93000    0.000
 4955.00    0.93972   0.90850    0.000
 4956.00    0.93655   0.89439    0.000
 4957.00    0.96066   0.89345    0.000
 4958.00    0.98621   0.90430    0.000
 4959.00    0.92466   0.92008    0.000
 4960.00    0.86180   0.93400    0.000
 4961.00    0.82752   0.94199    0.000
 4962.00    0.79755   0.94263    0.000
 4963.00    0.86119   0.93692    0.000
 4964.00    0.91408   0.92831    0.000
 4965.00    0.83490   0.92069    0.000
 4966.00    0.77097   0.91644    0.000
 4967.00    0.83484   0.91643    0.000
 4968.00    0.88635   0.92048    0.000
 4969.00    0.86075   0.92772    0.000
 4970.00    0.83943   0.93684    0.000
 4971.00    0.83908   0.94597    0.000
 4972.00    0.85140   0.95313    0.000
 4973.00    0.91413   0.95649    0.000
 4974.00    0.95082   0.95485    0.000
 4975.00    0.90139   0.94806    0.000
 4976.00    0.86986   0.93669    0.000
 4977.00    0.88838   0.92201    0.000
 4978.00    0.90665   0.90535    0.000
 4979.00    0.92433   0.88750    0.000
 4980.00    0.92364   0.87007    0.000
 4981.00    0.88501   0.85668    0.000
 4982.00    0.84611   0.85123    0.000
 4983.00    0.80670   0.85506    0.000
 4984.00    0.79283   0.86660    0.000
 4985.00    0.81908   0.88226    0.000
 4986.00    0.83730   0.89721    0.000
 4987.00    0.84445   0.90774    0.000
 4988.00    0.84840   0.91303    0.000
 4989.00    0.84846   0.91477    0.000
 4990.00    0.87518   0.91552    0.000
 4991.00    0.93042   0.91661    0.000
 4992.00    0.93478   0.91818    0.000
 4993.00    0.89110   0.92021    0.000
 4994.00    0.86601   0.92140    0.000
 4995.00    0.85639   0.91985    0.000
 4996.00    0.84813   0.91440    0.000
 4997.00    0.84088   0.90508    0.000
 4998.00    0.85904   0.89370    0.000
 4999.00    0.89355   0.88301    0.000
 5000.00    0.89491   0.87461    0.000
 5001.00    0.87760   0.86842    0.000
 5002.00    0.85787   0.86330    0.000
 5003.00    0.83694   0.85852    0.000
 5004.00    0.84355   0.85543    0.000
 5005.00    0.86182   0.85665    0.000
 5006.00    0.87684   0.86268    0.000
 5007.00    0.89067   0.87018    0.000
 5008.00    0.89305   0.87436    0.000
 5009.00    0.89191   0.87197    0.000
 5010.00    0.89378   0.86272    0.000
 5011.00    0.89642   0.84978    0.000
 5012.00    0.88306   0.83797    0.000
 5013.00    0.86639   0.83124    0.000
 5014.00    0.84074   0.83070    0.000
 5015.00    0.81363   0.83458    0.000
 5016.00    0.79705   0.84066    0.000
 5017.00    0.78176   0.84772    0.000
 5018.00    0.76194   0.85468    0.000
 5019.00    0.74173   0.86051    0.000
 5020.00    0.78678   0.86522    0.000
 5021.00    0.83502   0.87001    0.000
 5022.00    0.83071   0.87540    0.000
 5023.00    0.82561   0.88045    0.000
 5024.00    0.82209   0.88427    0.000
 5025.00    0.81814   0.88684    0.000
 5026.00    0.80555   0.88993    0.000
 5027.00    0.79722   0.89561    0.000
 5028.00    0.83871   0.90392    0.000
 5029.00    0.87700   0.91358    0.080
 5030.00    0.88945   0.92251    0.080
 5031.00    0.90053   0.92774    0.079
 5032.00    0.90325   0.92642    0.079
 5033.00    0.90131   0.91760    0.080
 5034.00    0.87708   0.90334    0.079
 5035.00    0.85446   0.88696    0.079
 5036.00    0.83811   0.86983    0.080
 5037.00    0.82819   0.85246    0.081
 5038.00    0.83915   0.83706    0.081
 5039.00    0.83400   0.82799    0.080
 5040.00    0.78463   0.83036    0.081
 5041.00    0.76354   0.84519    0.082
 5042.00    0.80895   0.86803    0.081
 5043.00    0.84145   0.89213    0.080
 5044.00    0.84772   0.91044    0.079
 5045.00    0.85360   0.91798    0.079
 5046.00    0.85880   0.91435    0.079
 5047.00    0.87073   0.90391    0.080
 5048.00    0.89310   0.89283    0.080
 5049.00    0.88521   0.88588    0.080
 5050.00    0.83616   0.88559    0.080
 5051.00    0.81949   0.89212    0.079
 5052.00    0.84157   0.90320    0.079
 5053.00    0.85331   0.91554    0.078
 5054.00    0.85413   0.92661    0.079
 5055.00    0.85644   0.93537    0.079
 5056.00    0.86014   0.94189    0.080
 5057.00    0.88519   0.94637    0.081
 5058.00    0.92775   0.94899    0.081
 5059.00    0.92425   0.94919    0.080
 5060.00    0.88749   0.94536    0.080
 5061.00    0.88147   0.93624    0.080
 5062.00    0.89494   0.92247    0.080
 5063.00    0.90442   0.90760    0.080
 5064.00    0.91170   0.89596    0.080
 5065.00    0.90311   0.88912    0.080
 5066.00    0.88687   0.88676    0.080
 5067.00    0.87943   0.88801    0.079
 5068.00    0.87565   0.89101    0.077
 5069.00    0.86454   0.89329    0.078
 5070.00    0.85082   0.89398    0.078
 5071.00    0.84572   0.89420    0.079
 5072.00    0.84320   0.89423    0.079
 5073.00    0.84350   0.89320    0.078
 5074.00    0.84451   0.89034    0.078
 5075.00    0.83227   0.88474    0.077
 5076.00    0.81734   0.87504    0.077
 5077.00    0.79442   0.86175    0.077
 5078.00    0.77024   0.84897    0.077
 5079.00    0.79404   0.84123    0.076
 5080.00    0.82350   0.84025    0.075
 5081.00    0.83424   0.84550    0.075
 5082.00    0.84347   0.85552    0.075
 5083.00    0.83445   0.86787    0.075
 5084.00    0.82461   0.87980    0.074
 5085.00    0.81962   0.88976    0.074
 5086.00    0.81516   0.89767    0.073
 5087.00    0.83420   0.90416    0.073
 5088.00    0.85298   0.90978    0.074
 5089.00    0.86713   0.91503    0.074
 5090.00    0.87948   0.91992    0.073
 5091.00    0.87195   0.92324    0.074
 5092.00    0.86403   0.92294    0.075
 5093.00    0.85310   0.91753    0.074
 5094.00    0.84079   0.90701    0.074
 5095.00    0.82039   0.89305    0.074
 5096.00    0.80102   0.87881    0.074
 5097.00    0.78644   0.86835    0.074
 5098.00    0.78070   0.86486    0.074
 5099.00    0.80868   0.86806    0.074
 5100.00    0.83291   0.87461    0.074
 5101.00    0.84519   0.88056    0.073
 5102.00    0.83997   0.88319    0.073
 5103.00    0.78760   0.88165    0.072
 5104.00    0.75383   0.87670    0.072
 5105.00    0.76308   0.87011    0.073
 5106.00    0.77293   0.86433    0.074
 5107.00    0.78397   0.86111    0.074
 5108.00    0.78538   0.86137    0.074
 5109.00    0.77001   0.86577    0.075
 5110.00    0.77652   0.87361    0.076
 5111.00    0.81640   0.88331    0.076
 5112.00    0.83427   0.89357    0.076
 5113.00    0.82263   0.90332    0.076
 5114.00    0.82235   0.91176    0.076
 5115.00    0.83548   0.91809    0.077
 5116.00    0.84935   0.92098    0.078
 5117.00    0.86399   0.91910    0.080
 5118.00    0.86416   0.91191    0.080
 5119.00    0.85104   0.89983    0.079
 5120.00    0.83298   0.88437    0.079
 5121.00    0.81092   0.86794    0.079
 5122.00    0.82033   0.85359    0.079
 5123.00    0.85214   0.84354    0.078
 5124.00    0.84929   0.83807    0.078
 5125.00    0.82478   0.83629    0.078
 5126.00    0.81139   0.83716    0.078
 5127.00    0.80407   0.84012    0.078
 5128.00    0.78886   0.84522    0.077
 5129.00    0.76989   0.85243    0.076
 5130.00    0.78465   0.86099    0.076
 5131.00    0.81320   0.86967    0.076
 5132.00    0.82518   0.87711    0.077
 5133.00    0.83136   0.88163    0.078
 5134.00    0.82755   0.88160    0.078
 5135.00    0.82080   0.87696    0.078
 5136.00    0.81381   0.86932    0.079
 5137.00    0.80677   0.86114    0.079
 5138.00    0.80110   0.85466    0.079
 5139.00    0.79570   0.85021    0.078
 5140.00    0.82115   0.84715    0.077
 5141.00    0.85136   0.84558    0.076
 5142.00    0.82490   0.84513    0.075
 5143.00    0.79198   0.84483    0.075
 5144.00    0.81137   0.84441    0.076
 5145.00    0.83475   0.84416    0.077
 5146.00    0.82090   0.84427    0.077
 5147.00    0.80552   0.84437    0.077
 5148.00    0.78088   0.84362    0.075
 5149.00    0.75745   0.84186    0.074
 5150.00    0.78813   0.84003    0.074
 5151.00    0.81712   0.83983    0.074
 5152.00    0.81670   0.84320    0.074
 5153.00    0.81474   0.85126    0.074
 5154.00    0.79648   0.86332    0.074
 5155.00    0.78267   0.87711    0.074
 5156.00    0.80244   0.88965    0.074
 5157.00    0.82129   0.89846    0.074
 5158.00    0.83484   0.90203    0.075
 5159.00    0.84422   0.89930    0.075
 5160.00    0.83461   0.88979    0.074
 5161.00    0.82305   0.87315    0.073
 5162.00    0.80417   0.84880    0.073
 5163.00    0.78484   0.81714    0.073
 5164.00    0.76409   0.78134    0.073
 5165.00    0.74324   0.74728    0.073
 5166.00    0.72211   0.72117    0.073
 5167.00    0.70474   0.70571    0.072
 5168.00    0.69593   0.69868    0.072
 5169.00    0.69094   0.69612    0.072
 5170.00    0.69347   0.69725    0.073
 5171.00    0.69292   0.70514    0.073
 5172.00    0.68709   0.72254    0.073
 5173.00    0.69820   0.74849    0.073
 5174.00    0.73478   0.77836    0.073
 5175.00    0.75380   0.80567    0.073
 5176.00    0.74965   0.82428    0.073
 5177.00    0.74974   0.83037    0.073
 5178.00    0.75476   0.82287    0.073
 5179.00    0.76004   0.80333    0.073
 5180.00    0.76556   0.77654    0.073
 5181.00    0.74872   0.75116    0.072
 5182.00    0.71164   0.73714    0.071
 5183.00    0.69346   0.73998    0.072
 5184.00    0.69036   0.75829    0.073
 5185.00    0.69893   0.78516    0.073
 5186.00    0.71568   0.81208    0.073
 5187.00    0.72229   0.83209    0.074
 5188.00    0.72265   0.84138    0.074
 5189.00    0.73024   0.84057    0.074
 5190.00    0.74170   0.83429    0.000
 5191.00    0.77228   0.82789    0.000
 5192.00    0.81177   0.82499    0.000
 5193.00    0.79916   0.82737    0.000
 5194.00    0.76560   0.83485    0.000
 5195.00    0.77459   0.84563    0.000
 5196.00    0.79819   0.85738    0.000
 5197.00    0.80951   0.86777    0.000
 5198.00    0.81729   0.87455    0.000
 5199.00    0.80669   0.87590    0.000
 5200.00    0.79170   0.87078    0.000
 5201.00    0.80569   0.85898    0.000
 5202.00    0.82527   0.84177    0.000
 5203.00    0.80963   0.82243    0.000
 5204.00    0.78873   0.80470    0.000
 5205.00    0.77504   0.79170    0.000
 5206.00    0.76215   0.78614    0.000
 5207.00    0.74994   0.78961    0.000
 5208.00    0.73777   0.80175    0.000
 5209.00    0.75474   0.82033    0.000
 5210.00    0.77280   0.84134    0.000
 5211.00    0.78989   0.85997    0.076
 5212.00    0.80689   0.87256    0.075
 5213.00    0.82061   0.87864    0.074
 5214.00    0.83306   0.88075    0.073
 5215.00    0.82492   0.88262    0.074
 5216.00    0.81892   0.88687    0.074
 5217.00    0.83467   0.89367    0.075
 5218.00    0.84630   0.90089    0.076
 5219.00    0.82794   0.90496    0.075
 5220.00    0.81199   0.90253    0.074
 5221.00    0.80945   0.89188    0.073
 5222.00    0.80947   0.87398    0.072
 5223.00    0.82084   0.85259    0.072
 5224.00    0.82473   0.83379    0.072
 5225.00    0.80128   0.82385    0.072
 5226.00    0.78952   0.82545    0.072
 5227.00    0.81357   0.83664    0.072
 5228.00    0.82476   0.85226    0.072
 5229.00    0.80245   0.86602    0.072
 5230.00    0.78424   0.87420    0.072
 5231.00    0.77518   0.87739    0.071
 5232.00    0.78844   0.87895    0.071
 5233.00    0.84495   0.88261    0.072
 5234.00    0.87757   0.89011    0.072
 5235.00    0.86980   0.90045    0.071
 5236.00    0.86527   0.91116    0.071
 5237.00    0.86553   0.91999    0.073
 5238.00    0.86222   0.92591    0.073
 5239.00    0.85427   0.92904    0.072
 5240.00    0.85622   0.93020    0.071
 5241.00    0.86953   0.92990    0.072
 5242.00    0.89028   0.92747    0.072
 5243.00    0.91855   0.92162    0.072
 5244.00    0.90944   0.91207    0.071
 5245.00    0.86698   0.90016    0.072
 5246.00    0.84916   0.88783    0.072
 5247.00    0.85070   0.87722    0.073
 5248.00    0.86001   0.87029    0.074
 5249.00    0.87468   0.86773    0.074
 5250.00    0.86418   0.86885    0.074
 5251.00    0.83842   0.87255    0.073
 5252.00    0.83954   0.87826    0.074
 5253.00    0.85489   0.88621    0.074
 5254.00    0.83883   0.89632    0.074
 5255.00    0.80835   0.90726    0.074
 5256.00    0.80585   0.91622    0.074
 5257.00    0.81443   0.91938    0.075
 5258.00    0.84267   0.91353    0.076
 5259.00    0.87753   0.89774    0.076
 5260.00    0.84881   0.87396    0.077
 5261.00    0.80210   0.84630    0.077
 5262.00    0.78474   0.81962    0.077
 5263.00    0.77423   0.79806    0.077
 5264.00    0.74978   0.78336    0.077
 5265.00    0.72271   0.77434    0.077
 5266.00    0.70745   0.76912    0.077
 5267.00    0.69391   0.76755    0.077
 5268.00    0.72975   0.77096    0.078
 5269.00    0.77078   0.78047    0.078
 5270.00    0.75230   0.79574    0.078
 5271.00    0.72976   0.81451    0.077
 5272.00    0.72600   0.83384    0.076
 5273.00    0.72287   0.85218    0.076
 5274.00    0.77051   0.86940    0.076
 5275.00    0.81700   0.88536    0.076
 5276.00    0.82485   0.89875    0.075
 5277.00    0.83264   0.90732    0.073
 5278.00    0.83960   0.90940    0.074
 5279.00    0.84718   0.90551    0.075
 5280.00    0.86082   0.89885    0.075
 5281.00    0.87237   0.89421    0.074
 5282.00    0.86918   0.89550    0.074
 5283.00    0.86778   0.90384    0.074
 5284.00    0.87613   0.91740    0.073
 5285.00    0.88157   0.93257    0.073
 5286.00    0.87441   0.94588    0.073
 5287.00    0.87217   0.95523    0.073
 5288.00    0.88753   0.96010    0.073
 5289.00    0.89638   0.96088    0.074
 5290.00    0.88570   0.95805    0.073
 5291.00    0.87679   0.95157    0.072
 5292.00    0.87243   0.94103    0.072
 5293.00    0.86266   0.92648    0.071
 5294.00    0.84102   0.90937    0.071
 5295.00    0.84033   0.89272    0.071
 5296.00    0.87962   0.88003    0.072
 5297.00    0.88826   0.87386    0.072
 5298.00    0.84586   0.87516    0.072
 5299.00    0.82208   0.88301    0.073
 5300.00    0.82548   0.89529    0.073
 5301.00    0.84034   0.90965    0.073
 5302.00    0.86990   0.92393    0.072
 5303.00    0.87745   0.93629    0.072
 5304.00    0.86011   0.94562    0.072
 5305.00    0.85768   0.95182    0.073
 5306.00    0.87013   0.95565    0.073
 5307.00    0.88523   0.95810    0.073
 5308.00    0.90266   0.95966    0.072
 5309.00    0.88809   0.96006    0.072
 5310.00    0.84872   0.95873    0.073
 5311.00    0.86033   0.95540    0.073
 5312.00    0.90668   0.95030    0.074
 5313.00    0.91179   0.94429    0.074
 5314.00    0.89227   0.93843    0.073
 5315.00    0.88193   0.93356    0.073
 5316.00    0.87637   0.93010    0.073
 5317.00    0.87365   0.92772    0.073
 5318.00    0.87220   0.92531    0.071
 5319.00    0.90028   0.92143    0.072
 5320.00    0.93983   0.91498    0.074
 5321.00    0.90345   0.90554    0.074
 5322.00    0.84198   0.89299    0.073
 5323.00    0.83573   0.87740    0.073
 5324.00    0.84479   0.85971    0.073
 5325.00    0.84103   0.84243    0.073
 5326.00    0.83434   0.82942    0.073
 5327.00    0.81222   0.82469    0.073
 5328.00    0.78727   0.83042    0.073
 5329.00    0.78643   0.84544    0.072
 5330.00    0.78897   0.86562    0.072
 5331.00    0.82829   0.88599    0.072
 5332.00    0.87132   0.90289    0.073
 5333.00    0.87470   0.91451    0.072
 5334.00    0.87554   0.92026    0.072
 5335.00    0.86904   0.92018    0.070
 5336.00    0.86242   0.91513    0.069
 5337.00    0.89493   0.90708    0.071
 5338.00    0.92515   0.89891    0.072
 5339.00    0.88995   0.89352    0.072
 5340.00    0.85876   0.89259    0.072
 5341.00    0.88504   0.89566    0.071
 5342.00    0.90669   0.90054    0.070
 5343.00    0.88503   0.90459    0.070
 5344.00    0.86467   0.90625    0.070
 5345.00    0.85328   0.90583    0.070
 5346.00    0.84513   0.90497    0.070
 5347.00    0.85415   0.90572    0.069
 5348.00    0.86160   0.90965    0.069
 5349.00    0.86245   0.91731    0.069
 5350.00    0.86519   0.92799    0.069
 5351.00    0.87461   0.94018    0.070
 5352.00    0.88596   0.95229    0.070
 5353.00    0.90300   0.96305    0.071
 5354.00    0.91464   0.97153    0.070
 5355.00    0.91267   0.97702    0.070
 5356.00    0.92322   0.97894    0.069
 5357.00    0.96084   0.97697    0.070
 5358.00    0.98517   0.97127    0.070
 5359.00    0.98453   0.96251    0.070
 5360.00    0.96130   0.95192    0.070
 5361.00    0.90101   0.94096    0.070
 5362.00    0.86331   0.93084    0.070
 5363.00    0.85809   0.92201    0.070
 5364.00    0.85302   0.91401    0.070
 5365.00    0.84811   0.90571    0.070
 5366.00    0.83493   0.89612    0.070
 5367.00    0.81252   0.88548    0.070
 5368.00    0.79044   0.87583   -2.000
 5369.00    0.76867   0.87060   -2.000
 5370.00    0.78676   0.87290   -2.000
 5371.00    0.83941   0.88343   -2.000
 5372.00    0.83416   0.89982   -2.000
 5373.00    0.78467   0.91760   -2.000
 5374.00    0.78524   0.93251   -2.000
 5375.00    0.81942   0.94215   -2.000
 5376.00    0.85171   0.94632   -2.000
 5377.00    0.88291   0.94610   -2.000
 5378.00    0.89556   0.94307   -2.000
 5379.00    0.89870   0.93872   -2.000
 5380.00    0.87810   0.93448   -2.000
 5381.00    0.84694   0.93150   -2.000
 5382.00    0.86965   0.93036   -2.000
 5383.00    0.91291   0.93068    0.072
 5384.00    0.89204   0.93121    0.071
 5385.00    0.85035   0.93040    0.070
 5386.00    0.85507   0.92711    0.070
 5387.00    0.87238   0.92122    0.070
 5388.00    0.85493   0.91351    0.070
 5389.00    0.82974   0.90519    0.070
 5390.00    0.83682   0.89718    0.070
 5391.00    0.84964   0.88973    0.070
 5392.00    0.83339   0.88267    0.069
 5393.00    0.81320   0.87590    0.068
 5394.00    0.83915   0.87013    0.068
 5395.00    0.86956   0.86682    0.068
 5396.00    0.86203   0.86727    0.068
 5397.00    0.85222   0.87142    0.069
 5398.00    0.83074   0.87729    0.068
 5399.00    0.80920   0.88165    0.067
 5400.00    0.82740   0.88146    0.068
 5401.00    0.84413   0.87541    0.069
 5402.00    0.82276   0.86473    0.068
 5403.00    0.80271   0.85267    0.068
 5404.00    0.80056   0.84298    0.068
 5405.00    0.79923   0.83815    0.067
 5406.00    0.80529   0.83862    0.068
 5407.00    0.81109   0.84339    0.068
 5408.00    0.81518   0.85128    0.068
 5409.00    0.81989   0.86155    0.067
 5410.00    0.82775   0.87365    0.068
 5411.00    0.83361   0.88666    0.069
 5412.00    0.83116   0.89934    0.068
 5413.00    0.83090   0.91055    0.067
 5414.00    0.83814   0.91952    0.069
 5415.00    0.84606   0.92582    0.070
 5416.00    0.85595   0.92920    0.069
 5417.00    0.86320   0.92973    0.069
 5418.00    0.86394   0.92793    0.069
 5419.00    0.86155   0.92475    0.069
 5420.00    0.85253   0.92123    0.069
 5421.00    0.84608   0.91827    0.070
 5422.00    0.84439   0.91646    0.070
 5423.00    0.83717   0.91580    0.071
 5424.00    0.82100   0.91535    0.070
 5425.00    0.82214   0.91342    0.069
 5426.00    0.84778   0.90856    0.070
 5427.00    0.85306   0.90070    0.071
 5428.00    0.83293   0.89136    0.071
 5429.00    0.82363   0.88262    0.070
 5430.00    0.82622   0.87586    0.070
 5431.00    0.82504   0.87163    0.069
 5432.00    0.82021   0.87028    0.069
 5433.00    0.81693   0.87268    0.069
 5434.00    0.81497   0.87983    0.069
 5435.00    0.82078   0.89195    0.069
 5436.00    0.83243   0.90770    0.067
 5437.00    0.83432   0.92442    0.067
 5438.00    0.82977   0.93894    0.066
 5439.00    0.85625   0.94851    0.066
 5440.00    0.90071   0.95128    0.066
 5441.00    0.92015   0.94658    0.067
 5442.00    0.92695   0.93513    0.068
 5443.00    0.91217   0.91934    0.067
 5444.00    0.88796   0.90323    0.067
 5445.00    0.87302   0.89118    0.067
 5446.00    0.86156   0.88615    0.067
 5447.00    0.84828   0.88808    0.067
 5448.00    0.83442   0.89396    0.066
 5449.00    0.85417   0.89938    0.065
 5450.00    0.88286   0.90080    0.065
 5451.00    0.88573   0.89706    0.065
 5452.00    0.88300   0.88986    0.065
 5453.00    0.86705   0.88275    0.065
 5454.00    0.84882   0.87932    0.066
 5455.00    0.83552   0.88130    0.066
 5456.00    0.82287   0.88757    0.066
 5457.00    0.81600   0.89491    0.066
 5458.00    0.80967   0.89992    0.066
 5459.00    0.82717   0.90092    0.066
 5460.00    0.84600   0.89866    0.066
 5461.00    0.86196   0.89548    0.066
 5462.00    0.87775   0.89380    0.066
 5463.00    0.88264   0.89478    0.067
 5464.00    0.88593   0.89796    0.068
 5465.00    0.85192   0.90184    0.068
 5466.00    0.82319   0.90475    0.069
 5467.00    0.86228   0.90554    0.069
 5468.00    0.89551   0.90377    0.068
 5469.00    0.87805   0.89958    0.068
 5470.00    0.86335   0.89332    0.067
 5471.00    0.86628   0.88544    0.068
 5472.00    0.86730   0.87657    0.068
 5473.00    0.85880   0.86776    0.068
 5474.00    0.85634   0.86058    0.068
 5475.00    0.87840   0.85658    0.069
 5476.00    0.88500   0.85651    0.069
 5477.00    0.83957   0.85973    0.068
 5478.00    0.80345   0.86475   -2.000
 5479.00    0.79373   0.87028   -2.000
 5480.00    0.79469   0.87600   -2.000
 5481.00    0.82157   0.88219   -2.000
 5482.00    0.85626   0.88878   -2.000
 5483.00    0.90731   0.89480   -2.000
 5484.00    0.94441   0.89900   -2.000
 5485.00    0.95613   0.90077   -2.000
 5486.00    0.88676   0.90071   -2.000
 5487.00    0.68831   0.90016   -2.000
 5488.00    0.53445   0.90024   -2.000
 5489.00    0.44289   0.90120   -2.000
 5490.00    0.48979   0.90255   -2.000
 5491.00    0.70692   0.90356   -2.000
 5492.00    0.88419   0.90378   -2.000
 5493.00    1.01828   0.90321   -2.000
 5494.00    1.05896   0.90221   -2.000
 5495.00    1.01037   0.90124   -2.000
 5496.00    0.94382   0.90049   -2.000
 5497.00    0.86215   0.89976   -2.000
 5498.00    0.83527   0.89850   -2.000
 5499.00    0.84906   0.89628   -2.000
 5500.00    0.84610   0.89316   -2.000
 5501.00    0.83221   0.88962   -2.000
 5502.00    0.82680   0.88626    0.095
 5503.00    0.82622   0.88354    0.383
 5504.00    0.81664   0.88177   -1.000
 5505.00    0.80261   0.88106   -1.000
 5506.00    0.80360   0.88113   -1.000
 5507.00    0.81106   0.88116   -1.000
 5508.00    0.81320   0.88010   -1.000
 5509.00    0.81337   0.87744   -1.000
 5510.00    0.82182   0.87383    0.166
 5511.00    0.83285   0.87094    0.072
 5512.00    0.83013   0.87069    0.065
 5513.00    0.82382   0.87428    0.065
 5514.00    0.81193   0.88167    0.066
 5515.00    0.79887   0.89163    0.066
 5516.00    0.80591   0.90228    0.066
 5517.00    0.81632   0.91172    0.066
 5518.00    0.80054   0.91857    0.066
 5519.00    0.78145   0.92220    0.066
 5520.00    0.80527   0.92256    0.066
 5521.00    0.83287   0.91989    0.067
 5522.00    0.85393   0.91449    0.067
 5523.00    0.87465   0.90681    0.066
 5524.00    0.85352   0.89788    0.065
 5525.00    0.83177   0.88941    0.064
 5526.00    0.82186   0.88349    0.065
 5527.00    0.81330   0.88161    0.066
 5528.00    0.83372   0.88377    0.066
 5529.00    0.85286   0.88843    0.067
 5530.00    0.85640   0.89332    0.066
 5531.00    0.85823   0.89673    0.065
 5532.00    0.84566   0.89828    0.064
 5533.00    0.83591   0.89886    0.063
 5534.00    0.84370   0.89980    0.064
 5535.00    0.84918   0.90209    0.064
 5536.00    0.84343   0.90588    0.063
 5537.00    0.84171   0.91052    0.063
 5538.00    0.85598   0.91486    0.063
 5539.00    0.87091   0.91774    0.063
 5540.00    0.88805   0.91853    0.063
 5541.00    0.89939   0.91745    0.063
 5542.00    0.89455   0.91555    0.063
 5543.00    0.88554   0.91427    0.063
 5544.00    0.86654   0.91478    0.063
 5545.00    0.85558   0.91744    0.063
 5546.00    0.86120   0.92170    0.063
 5547.00    0.86671   0.92626    0.063
 5548.00    0.87204   0.92965    0.062
 5549.00    0.87243   0.93077    0.062
 5550.00    0.86510   0.92933    0.063
 5551.00    0.87836   0.92589    0.064
 5552.00    0.91999   0.92161    0.064
 5553.00    0.93162   0.91770    0.064
 5554.00    0.90691   0.91493    0.063
 5555.00    0.87937   0.91338    0.063
 5556.00    0.84882   0.91259    0.064
 5557.00    0.83360   0.91178    0.064
 5558.00    0.83282   0.91030    0.064
 5559.00    0.84871   0.90775    0.064
 5560.00    0.87845   0.90418    0.064
 5561.00    0.88193   0.89995    0.064
 5562.00    0.86619   0.89564    0.066
 5563.00    0.84923   0.89179    0.066
 5564.00    0.83148   0.88874    0.065
 5565.00    0.81575   0.88667    0.064
 5566.00    0.80116   0.88558    0.063
 5567.00    0.80964   0.88531    0.063
 5568.00    0.82939   0.88565    0.063
 5569.00    0.83151   0.88642    0.063
 5570.00    0.82618   0.88758    0.063
 5571.00    0.83380   0.88928    0.062
 5572.00    0.84610   0.89171    0.062
 5573.00    0.84450   0.89491    0.062
 5574.00    0.83866   0.89860    0.062
 5575.00    0.82862   0.90229    0.062
 5576.00    0.81751   0.90546    0.061
 5577.00    0.82597   0.90764    0.061
 5578.00    0.83849   0.90846    0.062
 5579.00    0.84959   0.90758    0.062
 5580.00    0.86045   0.90460    0.062
 5581.00    0.85150   0.89910    0.061
 5582.00    0.84012   0.89078    0.060
 5583.00    0.83929   0.87976    0.060
 5584.00    0.83934   0.86702    0.060
 5585.00    0.82644   0.85453    0.061
 5586.00    0.81291   0.84468    0.061
 5587.00    0.79195   0.83941    0.061
 5588.00    0.77103   0.83934    0.060
 5589.00    0.75989   0.84357    0.060
 5590.00    0.75030   0.85035    0.059
 5591.00    0.77159   0.85796    0.061
 5592.00    0.79297   0.86518    0.062
 5593.00    0.81538   0.87117    0.062
 5594.00    0.83192   0.87518    0.062
 5595.00    0.80133   0.87645    0.062
 5596.00    0.77915   0.87463    0.063
 5597.00    0.80782   0.87036    0.064
 5598.00    0.83389   0.86521    0.065
 5599.00    0.84758   0.86137    0.065
 5600.00    0.85757   0.86088    0.065
 5601.00    0.85311   0.86504    0.066
 5602.00    0.84707   0.87384    0.067
 5603.00    0.83586   0.88595    0.065
 5604.00    0.83230   0.89909    0.064
 5605.00    0.84966   0.91088    0.064
 5606.00    0.85857   0.91969    0.064
 5607.00    0.84768   0.92484    0.064
 5608.00    0.84312   0.92637    0.063
 5609.00    0.85141   0.92434    0.063
 5610.00    0.86293   0.91865    0.062
 5611.00    0.88016   0.90939    0.062
 5612.00    0.88517   0.89753    0.062
 5613.00    0.87130   0.88527    0.062
 5614.00    0.85747   0.87542    0.061
 5615.00    0.84371   0.87019    0.060
 5616.00    0.83722   0.87001    0.060
 5617.00    0.83942   0.87348    0.060
 5618.00    0.83526   0.87818    0.060
 5619.00    0.82439   0.88180    0.059
 5620.00    0.82680   0.88294    0.059
 5621.00    0.84153   0.88147    0.059
 5622.00    0.85089   0.87855    0.059
 5623.00    0.85585   0.87614    0.060
 5624.00    0.85655   0.87617    0.060
 5625.00    0.85417   0.87961    0.060
 5626.00    0.84872   0.88603    0.059
 5627.00    0.84132   0.89394    0.058
 5628.00    0.83449   0.90143    0.058
 5629.00    0.82797   0.90689    0.059
 5630.00    0.82820   0.90939    0.059
 5631.00    0.83168   0.90870    0.059
 5632.00    0.84600   0.90527    0.059
 5633.00    0.86482   0.89996    0.060
 5634.00    0.86409   0.89389    0.060
 5635.00    0.85641   0.88810    0.059
 5636.00    0.85187   0.88337    0.059
 5637.00    0.84827   0.88005    0.060
 5638.00    0.84495   0.87815    0.061
 5639.00    0.84170   0.87757    0.061
 5640.00    0.82013   0.87827    0.061
 5641.00    0.79487   0.88020    0.061
 5642.00    0.80763   0.88318    0.061
 5643.00    0.82640   0.88681    0.061
 5644.00    0.82721   0.89055    0.061
 5645.00    0.82589   0.89389    0.060
 5646.00    0.81671   0.89657    0.060
 5647.00    0.80689   0.89860    0.061
 5648.00    0.82302   0.90010    0.061
 5649.00    0.84030   0.90104    0.062
 5650.00    0.83739   0.90105    0.061
 5651.00    0.83446   0.89943    0.060
 5652.00    0.84218   0.89554    0.060
 5653.00    0.84986   0.88912    0.060
 5654.00    0.85684   0.88061    0.059
 5655.00    0.86137   0.87117    0.058
 5656.00    0.83881   0.86250    0.059
 5657.00    0.81519   0.85628    0.059
 5658.00    0.78333   0.85359    0.058
 5659.00    0.75834   0.85449    0.057
 5660.00    0.77370   0.85818    0.057
 5661.00    0.78848   0.86347    0.057
 5662.00    0.80054   0.86921    0.057
 5663.00    0.81039   0.87439    0.057
 5664.00    0.81182   0.87834    0.056
 5665.00    0.81381   0.88092    0.056
 5666.00    0.81758   0.88264    0.057
 5667.00    0.82055   0.88453    0.058
 5668.00    0.82135   0.88763    0.058
 5669.00    0.82217   0.89239    0.058
 5670.00    0.82304   0.89848    0.058
 5671.00    0.82353   0.90495    0.058
 5672.00    0.82326   0.91070    0.058
 5673.00    0.83363   0.91488    0.058
 5674.00    0.86251   0.91710    0.059
 5675.00    0.87872   0.91730    0.060
 5676.00    0.87562   0.91562    0.061
 5677.00    0.86505   0.91223    0.061
 5678.00    0.84448   0.90741    0.061
 5679.00    0.82944   0.90165    0.061
 5680.00    0.82091   0.89566    0.061
 5681.00    0.81646   0.89021    0.061
 5682.00    0.81627   0.88586    0.060
 5683.00    0.81664   0.88280    0.059
 5684.00    0.81754   0.88101    0.059
 5685.00    0.81991   0.88050    0.059
 5686.00    0.82346   0.88158    0.060
 5687.00    0.82220   0.88461    0.060
 5688.00    0.81753   0.88962    0.060
 5689.00    0.81632   0.89593    0.060
 5690.00    0.81725   0.90233    0.059
 5691.00    0.82100   0.90748    0.059
 5692.00    0.82630   0.91042    0.059
 5693.00    0.83519   0.91074    0.059
 5694.00    0.84579   0.90855    0.058
 5695.00    0.85023   0.90424    0.059
 5696.00    0.85215   0.89842    0.060
 5697.00    0.84628   0.89185    0.060
 5698.00    0.83770   0.88539    0.059
 5699.00    0.83450   0.87987    0.058
 5700.00    0.83287   0.87576    0.058
 5701.00    0.83588   0.87291    0.058
 5702.00    0.84002   0.87050    0.058
 5703.00    0.84555   0.86739    0.058
 5704.00    0.85136   0.86276    0.057
 5705.00    0.83364   0.85662    0.057
 5706.00    0.81230   0.85004    0.056
 5707.00    0.78909   0.84472    0.056
 5708.00    0.76568   0.84239    0.057
 5709.00    0.76304   0.84417    0.057
 5710.00    0.76199   0.85021    0.057
 5711.00    0.78013   0.85965    0.057
 5712.00    0.79906   0.87094    0.057
 5713.00    0.80251   0.88232    0.057
 5714.00    0.80624   0.89242    0.057
 5715.00    0.82654   0.90062    0.058
 5716.00    0.84555   0.90708    0.058
 5717.00    0.84226   0.91235    0.059
 5718.00    0.83838   0.91694    0.060
 5719.00    0.82830   0.92097    0.059
 5720.00    0.82262   0.92410    0.059
 5721.00    0.84990   0.92573    0.059
 5722.00    0.87570   0.92541    0.060
 5723.00    0.89300   0.92312    0.060
 5724.00    0.90475   0.91942    0.059
 5725.00    0.89127   0.91528    0.060
 5726.00    0.87769   0.91171    0.060
 5727.00    0.86373   0.90935    0.060
 5728.00    0.85304   0.90836    0.059
 5729.00    0.85251   0.90862    0.060
 5730.00    0.84612   0.90988    0.060
 5731.00    0.82426   0.91195    0.058
 5732.00    0.80731   0.91444    0.057
 5733.00    0.80151   0.91679    0.057
 5734.00    0.80064   0.91841    0.057
 5735.00    0.80948   0.91896    0.057
 5736.00    0.82289   0.91850    0.057
 5737.00    0.84412   0.91741    0.057
 5738.00    0.85485   0.91618    0.056
 5739.00    0.84981   0.91524    0.056
 5740.00    0.84502   0.91488    0.000
 5741.00    0.84056   0.91518    0.000
 5742.00    0.84751   0.91592    0.000
 5743.00    0.86771   0.91663    0.000
 5744.00    0.88052   0.91676    0.000
 5745.00    0.88576   0.91599    0.000
 5746.00    0.88163   0.91431    0.000
 5747.00    0.86903   0.91195    0.000
 5748.00    0.86212   0.90909    0.000
 5749.00    0.85973   0.90572    0.000
 5750.00    0.86554   0.90205    0.000
 5751.00    0.87709   0.89874    0.000
 5752.00    0.87911   0.89694    0.000
 5753.00    0.87527   0.89756    0.000
 5754.00    0.87481   0.90050    0.000
 5755.00    0.87617   0.90442    0.000
 5756.00    0.86863   0.90731    0.000
 5757.00    0.85693   0.90758    0.000
 5758.00    0.85330   0.90496    0.000
 5759.00    0.85292   0.90071    0.000
 5760.00    0.85935   0.89699    0.000
 5761.00    0.86811   0.89582    0.000
 5762.00    0.87496   0.89811    0.000
 5763.00    0.88125   0.90334    0.000
 5764.00    0.88246   0.90989    0.000
 5765.00    0.88246   0.91587    0.000
 5766.00    0.88410   0.91991    0.000
 5767.00    0.88605   0.92151    0.000
 5768.00    0.89459   0.92096    0.000
 5769.00    0.90411   0.91899    0.000
 5770.00    0.90179   0.91641    0.000
 5771.00    0.89818   0.91387    0.000
 5772.00    0.89467   0.91173    0.000
 5773.00    0.89116   0.90995    0.000
 5774.00    0.88022   0.90803    0.000
 5775.00    0.86901   0.90508    0.000
 5776.00    0.86093   0.90016    0.000
 5777.00    0.85305   0.89279    0.000
 5778.00    0.85192   0.88334    0.000
 5779.00    0.85033   0.87309    0.000
 5780.00    0.84129   0.86383    0.000
 5781.00    0.83172   0.85729    0.000
 5782.00    0.81684   0.85449    0.000
 5783.00    0.80313   0.85565    0.000
 5784.00    0.79784   0.86019    0.000
 5785.00    0.79459   0.86700    0.000
 5786.00    0.80265   0.87472    0.000
 5787.00    0.81115   0.88209    0.000
 5788.00    0.82161   0.88833    0.000
 5789.00    0.83129   0.89339    0.000
 5790.00    0.83811   0.89766    0.000
 5791.00    0.84375   0.90156   -2.000
 5792.00    0.84579   0.90510   -2.000
 5793.00    0.84225   0.90798   -2.000
 5794.00    0.82420   0.90997   -2.000
 5795.00    0.81239   0.91132   -2.000
 5796.00    0.81452   0.91278   -2.000
 5797.00    0.82368   0.91503   -2.000
 5798.00    0.84644   0.91814   -2.000
 5799.00    0.86263   0.92131   -2.000
 5800.00    0.86775   0.92334   -2.000
 5801.00    0.86139   0.92332   -2.000
 5802.00    0.83808   0.92127   -2.000
 5803.00    0.83429   0.91812   -2.000
 5804.00    0.85587   0.91515   -2.000
 5805.00    0.86597   0.91341   -2.000
 5806.00    0.86292   0.91324   -2.000
 5807.00    0.86435   0.91430   -2.000
 5808.00    0.87030   0.91579   -2.000
 5809.00    0.86980   0.91689   -2.000
 5810.00    0.86355   0.91695   -2.000
 5811.00    0.85972   0.91576    0.000
 5812.00    0.85779   0.91365    0.000
 5813.00    0.85599   0.91140    0.000
 5814.00    0.85426   0.91005    0.000
 5815.00    0.85366   0.91041    0.000
 5816.00    0.85374   0.91273    0.000
 5817.00    0.86134   0.91647    0.000
 5818.00    0.87292   0.92064    0.000
 5819.00    0.87198   0.92422    0.000
 5820.00    0.86529   0.92665    0.000
 5821.00    0.86992   0.92795    0.000
 5822.00    0.87901   0.92854    0.000
 5823.00    0.88413   0.92889    0.000
 5824.00    0.88791   0.92935    0.000
 5825.00    0.89912   0.93000    0.000
 5826.00    0.91243   0.93072    0.000
 5827.00    0.90766   0.93126    0.000
 5828.00    0.89869   0.93140    0.000
 5829.00    0.90282   0.93093    0.000
 5830.00    0.90941   0.92980    0.000
 5831.00    0.90033   0.92812    0.000
 5832.00    0.88900   0.92619    0.000
 5833.00    0.88446   0.92441    0.000
 5834.00    0.88062   0.92312    0.000
 5835.00    0.86558   0.92259    0.000
 5836.00    0.84978   0.92295    0.000
 5837.00    0.85515   0.92415    0.000
 5838.00    0.86122   0.92595    0.000
 5839.00    0.86671   0.92792    0.000
 5840.00    0.87202   0.92940    0.000
 5841.00    0.87141   0.92971    0.000
 5842.00    0.87033   0.92839    0.000
 5843.00    0.86201   0.92542    0.000
 5844.00    0.85551   0.92115    0.000
 5845.00    0.86652   0.91620    0.000
 5846.00    0.87536   0.91110    0.000
 5847.00    0.86899   0.90610    0.000
 5848.00    0.86217   0.90110    0.000
 5849.00    0.85285   0.89585    0.000
 5850.00    0.84674   0.89019    0.000
 5851.00    0.85454   0.88428    0.000
 5852.00    0.85654   0.87849    0.000
 5853.00    0.83786   0.87327    0.000
 5854.00    0.82504   0.86903    0.000
 5855.00    0.82983   0.86619    0.000
 5856.00    0.83274   0.86517    0.000
 5857.00    0.83086   0.86621    0.000
 5858.00    0.82722   0.86915    0.000
 5859.00    0.81968   0.87332    0.000
 5860.00    0.81339   0.87774    0.000
 5861.00    0.80949   0.88161    0.000
 5862.00    0.81371   0.88454    0.000
 5863.00    0.83144   0.88661    0.000
 5864.00    0.83973   0.88831    0.000
 5865.00    0.83427   0.89019    0.000
 5866.00    0.82239   0.89262    0.000
 5867.00    0.80229   0.89551    0.000
 5868.00    0.79784   0.89834    0.000
 5869.00    0.81105   0.90039    0.000
 5870.00    0.81478   0.90111    0.000
 5871.00    0.80906   0.90034    0.000
 5872.00    0.80875   0.89829    0.000
 5873.00    0.81319   0.89540    0.000
 5874.00    0.81554   0.89210    0.000
 5875.00    0.81627   0.88870    0.000
 5876.00    0.81139   0.88539    0.000
 5877.00    0.80269   0.88230    0.000
 5878.00    0.80145   0.87955    0.000
 5879.00    0.80467   0.87713    0.000
 5880.00    0.80800   0.87477    0.000
 5881.00    0.81138   0.87167    0.000
 5882.00    0.81037   0.86643    0.000
 5883.00    0.80739   0.85732    0.000
 5884.00    0.79827   0.84275    0.000
 5885.00    0.78677   0.82220    0.000
 5886.00    0.77598   0.79701    0.000
 5887.00    0.76542   0.77071    0.000
 5888.00    0.74598   0.74789    0.000
 5889.00    0.72409   0.73237    0.000
 5890.00    0.70713   0.72542    0.000
 5891.00    0.69129   0.72544    0.000
 5892.00    0.67638   0.72939    0.000
 5893.00    0.66164   0.73515    0.000
 5894.00    0.66814   0.74254    0.000
 5895.00    0.67760   0.75288    0.000
 5896.00    0.68404   0.76751    0.000
 5897.00    0.69018   0.78628    0.000
 5898.00    0.70599   0.80711    0.000
 5899.00    0.72241   0.82708    0.000
 5900.00    0.74347   0.84384    0.000
 5901.00    0.76465   0.85610    0.055
 5902.00    0.78051   0.86405    0.055
 5903.00    0.79598   0.86886    0.055
 5904.00    0.80066   0.87180    0.055
 5905.00    0.80578   0.87381    0.055
 5906.00    0.81725   0.87542    0.054
 5907.00    0.82750   0.87668    0.053
 5908.00    0.82645   0.87722    0.053
 5909.00    0.82569   0.87658    0.054
 5910.00    0.82686   0.87455    0.053
 5911.00    0.82731   0.87134    0.052
 5912.00    0.82394   0.86768    0.052
 5913.00    0.81962   0.86465    0.052
 5914.00    0.81125   0.86322    0.052
 5915.00    0.80642   0.86378    0.052
 5916.00    0.81393   0.86608    0.052
 5917.00    0.81886   0.86941    0.052
 5918.00    0.81618   0.87288    0.052
 5919.00    0.81664   0.87583    0.052
 5920.00    0.82492   0.87799    0.052
 5921.00    0.83369   0.87946    0.053
 5922.00    0.84351   0.88037    0.053
 5923.00    0.85241   0.88074    0.053
 5924.00    0.85959   0.88042    0.054
 5925.00    0.86014   0.87929    0.055
 5926.00    0.84985   0.87753    0.054
 5927.00    0.84195   0.87555    0.054
 5928.00    0.83749   0.87391    0.054
 5929.00    0.83001   0.87308    0.055
 5930.00    0.81871   0.87314    0.055
 5931.00    0.81522   0.87384    0.055
 5932.00    0.82042   0.87489    0.055
 5933.00    0.81982   0.87615    0.054
 5934.00    0.81352   0.87756    0.054
 5935.00    0.80604   0.87903    0.053
 5936.00    0.79755   0.88028    0.053
 5937.00    0.80126   0.88100    0.053
 5938.00    0.81429   0.88104    0.054
 5939.00    0.82111   0.88057    0.054
 5940.00    0.82378   0.88001    0.054
 5941.00    0.82346   0.87991    0.053
 5942.00    0.82139   0.88042    0.052
 5943.00    0.82598   0.88111    0.052
 5944.00    0.83398   0.88135    0.052
 5945.00    0.82931   0.88061    0.052
 5946.00    0.81901   0.87876    0.051
 5947.00    0.81833   0.87617    0.052
 5948.00    0.82131   0.87352    0.052
 5949.00    0.82212   0.87132    0.051
 5950.00    0.82224   0.86979    0.051
 5951.00    0.81704   0.86886    0.051
 5952.00    0.81041   0.86841    0.052
 5953.00    0.80816   0.86835    0.052
 5954.00    0.80687   0.86875    0.052
 5955.00    0.81042   0.86988    0.053
 5956.00    0.81482   0.87211    0.053
 5957.00    0.81519   0.87547    0.053
 5958.00    0.81502   0.87955    0.053
 5959.00    0.82662   0.88376    0.053
 5960.00    0.83936   0.88739    0.054
 5961.00    0.84385   0.88988    0.054
 5962.00    0.84784   0.89106    0.054
 5963.00    0.85008   0.89133    0.054
 5964.00    0.85233   0.89139    0.055
 5965.00    0.86365   0.89189    0.054
 5966.00    0.87437   0.89312    0.054
 5967.00    0.86984   0.89491    0.054
 5968.00    0.86555   0.89671    0.054
 5969.00    0.86447   0.89779    0.053
 5970.00    0.86221   0.89750    0.052
 5971.00    0.84932   0.89546    0.052
 5972.00    0.83592   0.89181    0.052
 5973.00    0.81920   0.88714    0.051
 5974.00    0.80571   0.88234    0.051
 5975.00    0.80881   0.87835    0.051
 5976.00    0.81303   0.87580    0.051
 5977.00    0.82188   0.87471    0.052
 5978.00    0.82800   0.87448    0.052
 5979.00    0.82478   0.87420    0.052
 5980.00    0.82298   0.87313    0.052
 5981.00    0.82527   0.87115    0.052
 5982.00    0.82693   0.86883    0.052
 5983.00    0.82700   0.86716    0.051
 5984.00    0.82816   0.86696    0.051
 5985.00    0.83164   0.86850    0.051
 5986.00    0.83304   0.87143    0.052
 5987.00    0.83060   0.87505    0.052
 5988.00    0.82998   0.87868    0.052
 5989.00    0.83232   0.88187    0.052
 5990.00    0.83248   0.88449    0.053
 5991.00    0.82956   0.88655    0.053
 5992.00    0.82623   0.88783    0.053
 5993.00    0.82241   0.88805    0.053
 5994.00    0.82016   0.88711    0.053
 5995.00    0.81962   0.88523    0.053
 5996.00    0.81961   0.88281    0.053
 5997.00    0.82010   0.88038    0.054
 5998.00    0.82209   0.87832    0.053
 5999.00    0.82536   0.87671    0.053
 6000.00    0.82591   0.87531    0.052
 6001.00    0.82442   0.87376    0.052
 6002.00    0.82660   0.87180    0.052
 6003.00    0.83122   0.86943    0.052
 6004.00    0.82745   0.86691    0.052
 6005.00    0.81883   0.86472    0.051
 6006.00    0.81720   0.86342    0.051
 6007.00    0.81910   0.86325    0.051
 6008.00    0.81597   0.86410    0.051
 6009.00    0.81064   0.86554    0.051
 6010.00    0.80969   0.86692    0.051
 6011.00    0.81037   0.86768    0.051
 6012.00    0.81657   0.86759    0.051
 6013.00    0.82453   0.86673    0.051
 6014.00    0.82211   0.86547    0.051
 6015.00    0.81694   0.86418    0.052
 6016.00    0.81343   0.86300    0.052
 6017.00    0.81029   0.86192    0.052
 6018.00    0.81823   0.86107    0.053
 6019.00    0.82808   0.86085    0.054
 6020.00    0.82199   0.86166    0.053
 6021.00    0.81381   0.86361    0.053
 6022.00    0.80923   0.86664    0.054
 6023.00    0.80498   0.87057    0.054
 6024.00    0.80258   0.87501    0.054
 6025.00    0.80029   0.87952    0.054
 6026.00    0.80902   0.88380    0.053
 6027.00    0.81799   0.88774    0.053
 6028.00    0.82726   0.89123    0.053
 6029.00    0.83652   0.89418    0.053
 6030.00    0.84560   0.89667    0.053
 6031.00    0.85477   0.89867    0.053
 6032.00    0.86516   0.90010    0.053
 6033.00    0.87380   0.90096    0.052
 6034.00    0.86735   0.90129    0.052
 6035.00    0.86046   0.90107    0.052
 6036.00    0.85079   0.90036    0.051
 6037.00    0.84392   0.89943    0.051
 6038.00    0.85107   0.89864    0.050
 6039.00    0.85848   0.89835    0.050
 6040.00    0.86699   0.89881    0.050
 6041.00    0.87270   0.90012    0.050
 6042.00    0.86905   0.90212    0.050
 6043.00    0.86410   0.90445    0.051
 6044.00    0.85548   0.90664    0.050
 6045.00    0.84973   0.90830    0.050
 6046.00    0.85091   0.90919    0.051
 6047.00    0.85659   0.90919    0.051
 6048.00    0.87165   0.90830    0.052
 6049.00    0.87990   0.90660    0.052
 6050.00    0.87575   0.90414    0.053
 6051.00    0.87258   0.90112    0.053
 6052.00    0.87097   0.89791    0.053
 6053.00    0.87381   0.89497    0.054
 6054.00    0.88286   0.89277    0.054
 6055.00    0.88390   0.89164    0.054
 6056.00    0.87511   0.89156    0.054
 6057.00    0.86340   0.89202    0.053
 6058.00    0.84852   0.89224    0.053
 6059.00    0.84114   0.89155    0.052
 6060.00    0.84091   0.88958    0.052
 6061.00    0.84826   0.88664    0.052
 6062.00    0.86197   0.88366    0.052
 6063.00    0.86429   0.88195    0.051
 6064.00    0.85816   0.88259    0.051
 6065.00    0.85310   0.88597    0.051
 6066.00    0.84874   0.89160    0.051
 6067.00    0.85493   0.89830    0.050
 6068.00    0.86714   0.90479    0.050
 6069.00    0.87527   0.90991    0.050
 6070.00    0.88138   0.91288    0.051
 6071.00    0.88056   0.91371    0.051
 6072.00    0.87676   0.91265    0.051
 6073.00    0.87294   0.90994    0.051
 6074.00    0.86912   0.90579    0.051
 6075.00    0.86138   0.90058    0.051
 6076.00    0.85242   0.89482    0.051
 6077.00    0.84589   0.88913    0.051
 6078.00    0.83999   0.88408    0.050
 6079.00    0.83866   0.88009    0.051
 6080.00    0.83829   0.87731    0.052
 6081.00    0.84516   0.87581    0.053
 6082.00    0.85324   0.87538    0.053
 6083.00    0.85319   0.87560    0.053
 6084.00    0.85211   0.87614    0.052
 6085.00    0.84441   0.87673    0.053
 6086.00    0.83613   0.87696    0.054
 6087.00    0.84477   0.87662    0.053
 6088.00    0.85429   0.87604    0.052
 6089.00    0.85545   0.87573    0.052
 6090.00    0.85631   0.87614    0.052
 6091.00    0.84638   0.87756    0.051
 6092.00    0.83674   0.88001    0.050
 6093.00    0.83361   0.88306    0.051
 6094.00    0.83130   0.88580    0.051
 6095.00    0.83896   0.88727    0.051
 6096.00    0.84648   0.88684    0.050
 6097.00    0.85293   0.88415    0.050
 6098.00    0.85733   0.87927    0.049
 6099.00    0.84906   0.87312    0.049
 6100.00    0.83977   0.86717    0.050
 6101.00    0.82547   0.86286    0.050
 6102.00    0.81467   0.86129    0.050
 6103.00    0.81771   0.86282    0.050
 6104.00    0.82144   0.86690    0.050
 6105.00    0.82743   0.87249    0.051
 6106.00    0.83377   0.87814    0.051
 6107.00    0.84111   0.88244    0.051
 6108.00    0.84479   0.88526    0.051
 6109.00    0.83977   0.88723    0.051
 6110.00    0.83557   0.88880    0.051
 6111.00    0.83307   0.89009    0.052
 6112.00    0.83458   0.89075    0.052
 6113.00    0.84325   0.89043    0.053
 6114.00    0.84620   0.88893    0.053
 6115.00    0.84017   0.88590    0.051
 6116.00    0.83626   0.88112    0.051
 6117.00    0.83525   0.87491    0.051
 6118.00    0.83379   0.86820    0.051
 6119.00    0.83178   0.86226    0.050
 6120.00    0.82991   0.85814    0.050
 6121.00    0.82820   0.85643    0.050
 6122.00    0.82903   0.85734    0.050
 6123.00    0.83225   0.86037    0.050
 6124.00    0.83262   0.86442    0.050
 6125.00    0.83064   0.86867    0.049
 6126.00    0.83244   0.87228    0.049
 6127.00    0.83701   0.87489    0.049
 6128.00    0.84213   0.87665    0.049
 6129.00    0.84760   0.87723    0.049
 6130.00    0.84479   0.87566    0.050
 6131.00    0.83734   0.87106    0.050
 6132.00    0.83402   0.86327    0.050
 6133.00    0.83272   0.85317    0.051
 6134.00    0.82237   0.84284    0.051
 6135.00    0.80821   0.83476    0.051
 6136.00    0.79567   0.83080    0.052
 6137.00    0.78373   0.83172    0.053
 6138.00    0.78487   0.83698    0.052
 6139.00    0.79001   0.84522    0.052
 6140.00    0.80760   0.85463    0.052
 6141.00    0.82836   0.86321    0.053
 6142.00    0.83401   0.86969    0.053
 6143.00    0.83654   0.87403    0.052
 6144.00    0.84179   0.87651    0.052
 6145.00    0.84747   0.87708    0.052
 6146.00    0.85025   0.87565    0.052
 6147.00    0.85267   0.87296    0.053
 6148.00    0.85582   0.87028    0.052
 6149.00    0.85902   0.86837    0.051
 6150.00    0.84436   0.86736    0.051
 6151.00    0.82884   0.86690    0.050
 6152.00    0.83062   0.86627    0.049
 6153.00    0.83251   0.86456    0.049
 6154.00    0.82666   0.86095    0.049
 6155.00    0.82036   0.85480    0.049
 6156.00    0.80518   0.84586    0.049
 6157.00    0.79116   0.83446    0.049
 6158.00    0.79039   0.82152    0.049
 6159.00    0.78854   0.80847    0.049
 6160.00    0.77795   0.79738    0.049
 6161.00    0.76635   0.79017    0.050
 6162.00    0.74869   0.78758    0.050
 6163.00    0.73523   0.78923    0.049
 6164.00    0.74170   0.79380    0.050
 6165.00    0.74774   0.79923    0.051
 6166.00    0.75213   0.80370    0.051
 6167.00    0.75999   0.80673    0.051
 6168.00    0.77901   0.80911    0.052
 6169.00    0.79539   0.81195    0.052
 6170.00    0.80460   0.81574    0.052
 6171.00    0.80646   0.82045    0.052
 6172.00    0.79111   0.82584    0.051
 6173.00    0.77868   0.83110    0.051
 6174.00    0.77216   0.83535    0.051
 6175.00    0.76748   0.83872    0.051
 6176.00    0.76602   0.84188    0.050
 6177.00    0.76418   0.84502    0.049
 6178.00    0.76175   0.84793    0.050
 6179.00    0.76235   0.85039    0.049
 6180.00    0.76705   0.85202    0.048
 6181.00    0.77366   0.85223    0.048
 6182.00    0.78254   0.85072    0.048
 6183.00    0.78899   0.84748    0.048
 6184.00    0.79290   0.84243    0.049
 6185.00    0.79332   0.83589    0.050
 6186.00    0.79050   0.82864    0.050
 6187.00    0.78531   0.82166    0.050
 6188.00    0.77817   0.81599    0.050
 6189.00    0.77203   0.81275    0.050
 6190.00    0.76660   0.81258    0.050
 6191.00    0.76277   0.81539    0.050
 6192.00    0.75997   0.82042    0.050
 6193.00    0.76591   0.82656    0.050
 6194.00    0.77668   0.83256    0.051
 6195.00    0.78317   0.83693    0.053
 6196.00    0.78761   0.83891   -2.000
 6197.00    0.75976   0.83925   -2.000
 6198.00    0.71852   0.83920   -2.000
 6199.00    0.66142   0.83970   -2.000
 6200.00    0.59870   0.84126   -2.000
 6201.00    0.63100   0.84402   -2.000
 6202.00    0.69173   0.84760   -2.000
 6203.00    0.80036   0.85117   -2.000
 6204.00    0.92089   0.85371   -2.000
 6205.00    0.94444   0.85469   -2.000
 6206.00    0.94847   0.85393   -2.000
 6207.00    0.90843   0.85133   -2.000
 6208.00    0.86144   0.84675    0.052
 6209.00    0.83349   0.84024    0.050
 6210.00    0.80777   0.83235    0.049
 6211.00    0.79564   0.82394    0.049
 6212.00    0.78459   0.81602    0.049
 6213.00    0.78576   0.80957    0.049
 6214.00    0.78747   0.80514    0.049
 6215.00    0.79429   0.80283    0.049
 6216.00    0.80095   0.80250    0.049
 6217.00    0.79693   0.80354    0.049
 6218.00    0.79286   0.80528    0.049
 6219.00    0.78779   0.80734    0.049
 6220.00    0.78298   0.80948    0.050
 6221.00    0.78090   0.81167    0.050
 6222.00    0.77783   0.81377    0.051
 6223.00    0.76708   0.81503    0.052
 6224.00    0.75793   0.81461    0.053
 6225.00    0.75813   0.81218    0.054
 6226.00    0.75805   0.80807    0.054
 6227.00    0.75668   0.80321    0.054
 6228.00    0.75847   0.79874    0.054
 6229.00    0.77227   0.79595    0.053
 6230.00    0.78371   0.79585    0.052
 6231.00    0.78766   0.79861    0.051
 6232.00    0.79006   0.80355    0.051
 6233.00    0.78829   0.80924    0.049
 6234.00    0.78832   0.81369    0.049
 6235.00    0.79255   0.81537    0.049
 6236.00    0.79453   0.81398    0.049
 6237.00    0.79207   0.81008    0.048
 6238.00    0.78743   0.80476    0.048
 6239.00    0.77901   0.79932    0.048
 6240.00    0.77175   0.79477    0.048
 6241.00    0.76625   0.79172    0.048
 6242.00    0.76489   0.79051    0.048
 6243.00    0.76903   0.79123    0.049
 6244.00    0.77310   0.79356    0.049
 6245.00    0.77710   0.79708    0.050
 6246.00    0.77811   0.80107    0.050
 6247.00    0.77600   0.80416    0.049
 6248.00    0.77173   0.80528    0.049
 6249.00    0.76548   0.80397    0.050
 6250.00    0.75823   0.80016    0.051
 6251.00    0.75017   0.79447    0.051
 6252.00    0.75054   0.78818    0.050
 6253.00    0.75689   0.78256    0.050
 6254.00    0.76366   0.77858    0.050
 6255.00    0.77068   0.77696    0.050
 6256.00    0.77288   0.77783    0.051
 6257.00    0.77246   0.78102    0.051
 6258.00    0.76409   0.78629    0.051
 6259.00    0.75196   0.79323    0.052
 6260.00    0.72386   0.80101    0.054
 6261.00    0.68925   0.80842    0.057
 6262.00    0.67662   0.81431    0.058
 6263.00    0.67164   0.81822    0.058
 6264.00    0.70505   0.82051    0.058
 6265.00    0.74972   0.82166    0.057
 6266.00    0.79026   0.82219    0.055
 6267.00    0.82978   0.82288    0.053
 6268.00    0.83466   0.82407    0.051
 6269.00    0.83274   0.82552    0.049
 6270.00    0.81947   0.82700    0.049
 6271.00    0.80446   0.82853    0.050
 6272.00    0.79927   0.82986    0.049
 6273.00    0.79518   0.83046    0.049
 6274.00    0.79904   0.82995    0.050
 6275.00    0.80349   0.82829    0.051
 6276.00    0.80383   0.82586    0.051
 6277.00    0.80400   0.82326    0.051
 6278.00    0.80783   0.82105    0.051
 6279.00    0.81175   0.81984    0.051
 6280.00    0.81807   0.82013    0.000
 6281.00    0.82410   0.82213    0.000
 6282.00    0.82518   0.82576    0.000
 6283.00    0.82619   0.83049    0.000
 6284.00    0.82647   0.83538    0.000
 6285.00    0.82700   0.83960    0.000
 6286.00    0.82937   0.84264    0.000
 6287.00    0.83147   0.84431    0.000
 6288.00    0.83202   0.84457    0.000
 6289.00    0.83242   0.84333    0.000
 6290.00    0.83207   0.84073    0.000
 6291.00    0.83168   0.83720    0.000
 6292.00    0.83115   0.83327    0.000
 6293.00    0.83013   0.82934    0.000
 6294.00    0.82763   0.82551    0.000
 6295.00    0.82300   0.82180    0.000
 6296.00    0.81272   0.81839    0.000
 6297.00    0.80335   0.81553    0.000
 6298.00    0.79605   0.81371    0.000
 6299.00    0.79157   0.81336    0.000
 6300.00    0.79259   0.81456    0.000
 6301.00    0.79805   0.81707    0.000
 6302.00    0.81110   0.82076    0.000
 6303.00    0.81768   0.82552    0.000
 6304.00    0.81458   0.83084    0.000
 6305.00    0.81345   0.83566    0.000
 6306.00    0.81491   0.83901    0.000
 6307.00    0.82410   0.84054    0.000
 6308.00    0.84223   0.84026    0.000
 6309.00    0.84766   0.83824    0.000
 6310.00    0.84010   0.83473    0.000
 6311.00    0.83044   0.83027    0.000
 6312.00    0.81890   0.82554    0.000
 6313.00    0.81413   0.82115    0.000
 6314.00    0.81473   0.81751    0.000
 6315.00    0.81532   0.81488    0.000
 6316.00    0.81589   0.81367    0.000
 6317.00    0.81535   0.81444    0.000
 6318.00    0.81412   0.81711    0.000
 6319.00    0.81668   0.82111    0.000
 6320.00    0.82127   0.82614    0.000
 6321.00    0.82975   0.83175    0.049
 6322.00    0.84004   0.83703    0.049
 6323.00    0.83430   0.84138    0.049
 6324.00    0.82215   0.84477    0.049
 6325.00    0.82262   0.84733    0.049
 6326.00    0.82742   0.84901    0.049
 6327.00    0.83689   0.84981    0.049
 6328.00    0.84771   0.84981    0.050
 6329.00    0.84730   0.84890    0.050
 6330.00    0.84422   0.84694    0.050
 6331.00    0.83761   0.84386    0.050
 6332.00    0.83033   0.84003    0.049
 6333.00    0.82252   0.83613    0.049
 6334.00    0.81464   0.83282    0.048
 6335.00    0.80958   0.83067    0.049
 6336.00    0.80483   0.83013    0.049
 6337.00    0.80201   0.83135    0.049
 6338.00    0.79932   0.83376    0.048
 6339.00    0.80512   0.83611    0.049
 6340.00    0.81123   0.83738    0.049
 6341.00    0.81600   0.83759    0.048
 6342.00    0.82076   0.83736    0.047
 6343.00    0.82539   0.83724    0.048
 6344.00    0.82976   0.83788    0.048
 6345.00    0.83007   0.83975    0.049
 6346.00    0.83023   0.84268    0.049
 6347.00    0.82876   0.84575    0.048
 6348.00    0.82754   0.84782    0.047
 6349.00    0.82801   0.84835    0.048
 6350.00    0.82793   0.84717    0.049
 6351.00    0.82480   0.84425    0.049
 6352.00    0.82127   0.83979    0.049
 6353.00    0.81593   0.83433    0.049
 6354.00    0.81053   0.82836    0.049
 6355.00    0.80485   0.82230    0.049
 6356.00    0.80116   0.81660    0.049
 6357.00    0.80353   0.81177    0.049
 6358.00    0.80619   0.80793    0.050
 6359.00    0.80961   0.80526    0.050
 6360.00    0.80936   0.80443    0.051
 6361.00    0.80095   0.80593    0.049
 6362.00    0.79525   0.80943    0.049
 6363.00    0.79478   0.81437    0.049
 6364.00    0.79772   0.82035    0.050
 6365.00    0.80641   0.82686    0.049
 6366.00    0.81256   0.83326    0.049
 6367.00    0.81495   0.83907    0.049
 6368.00    0.81561   0.84410    0.049
 6369.00    0.81403   0.84838    0.049
 6370.00    0.81418   0.85185    0.049
 6371.00    0.81629   0.85450    0.049
 6372.00    0.82281   0.85630    0.049
 6373.00    0.83378   0.85709    0.049
 6374.00    0.84124   0.85658    0.049
 6375.00    0.84559   0.85477    0.049
 6376.00    0.85179   0.85225    0.049
 6377.00    0.85944   0.84969    0.049
 6378.00    0.86044   0.84745    0.049
 6379.00    0.85687   0.84584    0.050
 6380.00    0.85009   0.84522    0.051
 6381.00    0.84139   0.84561    0.050
 6382.00    0.84507   0.84665    0.050
 6383.00    0.85528   0.84794    0.050
 6384.00    0.86062   0.84906    0.050
 6385.00    0.86374   0.84958    0.049
 6386.00    0.85622   0.84920    0.049
 6387.00    0.84452   0.84765    0.049
 6388.00    0.84231   0.84493    0.049
 6389.00    0.84327   0.84146    0.049
 6390.00    0.84455   0.83801    0.048
 6391.00    0.84593   0.83532    0.048
 6392.00    0.84097   0.83377    0.048
 6393.00    0.83453   0.83307    0.048
 6394.00    0.82326   0.83294    0.049
 6395.00    0.81109   0.83360    0.049
 6396.00    0.82047   0.83472    0.050
 6397.00    0.83296   0.83548    0.050
 6398.00    0.83775   0.83605    0.050
 6399.00    0.84175   0.83719    0.050
 6400.00    0.83244   0.83931    0.050
 6401.00    0.82225   0.84243    0.049
 6402.00    0.82081   0.84618    0.050
 6403.00    0.81965   0.84928    0.050
 6404.00    0.82835   0.85023    0.050
 6405.00    0.83668   0.84887    0.051
 6406.00    0.83356   0.84623    0.051
 6407.00    0.83070   0.84331    0.050
 6408.00    0.83169   0.84078    0.050
 6409.00    0.83262   0.83920    0.050
 6410.00    0.83300   0.83887    0.050
 6411.00    0.83206   0.83919    0.050
 6412.00    0.82188   0.83957    0.049
 6413.00    0.81366   0.84004    0.048
 6414.00    0.81594   0.84030    0.048
 6415.00    0.81925   0.83967    0.048
 6416.00    0.82699   0.83828    0.048
 6417.00    0.83122   0.83687    0.049
 6418.00    0.82299   0.83595    0.048
 6419.00    0.81424   0.83612    0.048
 6420.00    0.80390   0.83788    0.048
 6421.00    0.80320   0.84128    0.048
 6422.00    0.82702   0.84591    0.048
 6423.00    0.84963   0.85071    0.047
 6424.00    0.86957   0.85388    0.048
 6425.00    0.88043   0.85421    0.049
 6426.00    0.87404   0.85212    0.050
 6427.00    0.86697   0.84876    0.051
 6428.00    0.85877   0.84513    0.051
 6429.00    0.85453   0.84204    0.051
 6430.00    0.85601   0.84017    0.051
 6431.00    0.85957   0.83985    0.052
 6432.00    0.86578   0.84089    0.052
 6433.00    0.86289   0.84262    0.051
 6434.00    0.84975   0.84416    0.050
 6435.00    0.83816   0.84503    0.050
 6436.00    0.82811   0.84550    0.049
 6437.00    0.82198   0.84637    0.049
 6438.00    0.81930   0.84829    0.049
 6439.00    0.81885   0.85148    0.048
 6440.00    0.82015   0.85599    0.048
 6441.00    0.82947   0.86118    0.048
 6442.00    0.84424   0.86498    0.049
 6443.00    0.84687   0.86533    0.049
 6444.00    0.84228   0.86192    0.049
 6445.00    0.83856   0.85587    0.048
 6446.00    0.83530   0.84859    0.048
 6447.00    0.83415   0.84141    0.048
 6448.00    0.83396   0.83550    0.050
 6449.00    0.82975   0.83151    0.050
 6450.00    0.82398   0.82993    0.050
 6451.00    0.81579   0.83137    0.050
 6452.00    0.80680   0.83553    0.050
 6453.00    0.81358   0.84054    0.049
 6454.00    0.82471   0.84479    0.049
 6455.00    0.83605   0.84767    0.050
 6456.00    0.84745   0.84888    0.050
 6457.00    0.84398   0.84876    0.051
 6458.00    0.83782   0.84794    0.051
 6459.00    0.82849   0.84637    0.050
 6460.00    0.81871   0.84418    0.050
 6461.00    0.81469   0.84230    0.049
 6462.00    0.81125   0.84165    0.049
 6463.00    0.81487   0.84270    0.049
 6464.00    0.81894   0.84569    0.048
 6465.00    0.83690   0.84973    0.048
 6466.00    0.85523   0.85282    0.048
 6467.00    0.86129   0.85413    0.048
 6468.00    0.86695   0.85391    0.048
 6469.00    0.86158   0.85262    0.048
 6470.00    0.85655   0.85090    0.048
 6471.00    0.85622   0.84954    0.049
 6472.00    0.85741   0.84887    0.049
 6473.00    0.87279   0.84887    0.050
 6474.00    0.88460   0.84919    0.050
 6475.00    0.87228   0.84889    0.050
 6476.00    0.86051   0.84747    0.050
 6477.00    0.85168   0.84521    0.050
 6478.00    0.84591   0.84239    0.050
 6479.00    0.85308   0.83911    0.050
 6480.00    0.85704   0.83602    0.050
 6481.00    0.84983   0.83386    0.050
 6482.00    0.84238   0.83300    0.049
 6483.00    0.83418   0.83357    0.049
 6484.00    0.83021   0.83517    0.050
 6485.00    0.83683   0.83653    0.049
 6486.00    0.84479   0.83608    0.049
 6487.00    0.85562   0.83273    0.049
 6488.00    0.85943   0.82581    0.049
 6489.00    0.85013   0.81543    0.049
 6490.00    0.83608   0.80254    0.049
 6491.00    0.81429   0.78871    0.048
 6492.00    0.79895   0.77586    0.048
 6493.00    0.79284   0.76569    0.047
 6494.00    0.78910   0.75930    0.047
 6495.00    0.78835   0.75784    0.048
 6496.00    0.79141   0.76202    0.048
 6497.00    0.79869   0.77095    0.049
 6498.00    0.80196   0.78262    0.049
 6499.00    0.80130   0.79511    0.049
 6500.00    0.80461   0.80696    0.049
 6501.00    0.81135   0.81755    0.050
 6502.00    0.81873   0.82625    0.050
 6503.00    0.82659   0.83257    0.050
 6504.00    0.83285   0.83679    0.050
 6505.00    0.83805   0.83949    0.051
 6506.00    0.84514   0.84111    0.051
 6507.00    0.85334   0.84191    0.050
 6508.00    0.85829   0.84200    0.051
 6509.00    0.86159   0.84146    0.051
 6510.00    0.86642   0.84041    0.050
 6511.00    0.87192   0.83881    0.049
 6512.00    0.87149   0.83646    0.049
 6513.00    0.86880   0.83348    0.049
 6514.00    0.86307   0.83064    0.049
 6515.00    0.85636   0.82866    0.049
 6516.00    0.85654   0.82789    0.048
 6517.00    0.85858   0.82855    0.048
 6518.00    0.85572   0.83058    0.048
 6519.00    0.85178   0.83341    0.048
 6520.00    0.85443   0.83643    0.048
 6521.00    0.85823   0.83892    0.048
 6522.00    0.85914   0.84027    0.048
 6523.00    0.85967   0.84054    0.049
 6524.00    0.86252   0.84020    0.049
 6525.00    0.86560   0.83960    0.050
 6526.00    0.86168   0.83879    0.049
 6527.00    0.85735   0.83781    0.049
 6528.00    0.85705   0.83712    0.000
 6529.00    0.85685   0.83718    0.000
 6530.00    0.85417   0.83774    0.000
 6531.00    0.85185   0.83839    0.000
 6532.00    0.85851   0.83908    0.000
 6533.00    0.86489   0.84020    0.000
 6534.00    0.86759   0.84198    0.000
 6535.00    0.86972   0.84410    0.000
 6536.00    0.86674   0.84579    0.000
 6537.00    0.86449   0.84637    0.000
 6538.00    0.86706   0.84559    0.000
 6539.00    0.86942   0.84361    0.000
 6540.00    0.87076   0.84037    0.000
 6541.00    0.87220   0.83576    0.000
 6542.00    0.87403   0.83048    0.000
 6543.00    0.87235   0.82546    0.000
 6544.00    0.85868   0.82127    0.000
 6545.00    0.84921   0.81809    0.000
 6546.00    0.85185   0.81575    0.000
 6547.00    0.85630   0.81407    0.000
 6548.00    0.86523   0.81288    0.000
 6549.00    0.87003   0.81121    0.000
 6550.00    0.86610   0.80810    0.000
 6551.00    0.86134   0.80365    0.000
 6552.00    0.85507   0.79833    0.000
 6553.00    0.84983   0.79220    0.000
 6554.00    0.84626   0.78480    0.000
 6555.00    0.84457   0.77527    0.000
 6556.00    0.84554   0.76231    0.000
 6557.00    0.84226   0.74504    0.000
 6558.00    0.83371   0.72531    0.000
 6559.00    0.82447   0.70698    0.000
 6560.00    0.81447   0.69290    0.000
 6561.00    0.80299   0.68509    0.000
 6562.00    0.79008   0.68495    0.000
 6563.00    0.78031   0.69272    0.000
 6564.00    0.77323   0.70864    0.000
 6565.00    0.77454   0.73050    0.000
 6566.00    0.78215   0.75173    0.000
 6567.00    0.79076   0.76744    0.000
 6568.00    0.80005   0.77747    0.000
 6569.00    0.81452   0.78324    0.000
 6570.00    0.83199   0.78646    0.000
 6571.00    0.83531   0.78910    0.000
 6572.00    0.83152   0.79203    0.000
 6573.00    0.83047   0.79530    0.000
 6574.00    0.83060   0.79916    0.000
 6575.00    0.83303   0.80359    0.000
 6576.00    0.83632   0.80818    0.000
 6577.00    0.84166   0.81255    0.000
 6578.00    0.84764   0.81601    0.000
 6579.00    0.86347   0.81819    0.000
 6580.00    0.88189   0.81943    0.000
 6581.00    0.90641   0.82025    0.000
 6582.00    0.93224   0.82131    0.000
 6583.00    0.94499   0.82290    0.000
 6584.00    0.95550   0.82437    0.000
 6585.00    0.94177   0.82505    0.000
 6586.00    0.92488   0.82443    0.000
 6587.00    0.91301   0.82202    0.000
 6588.00    0.90159   0.81803    0.000
 6589.00    0.88382   0.81338    0.000
 6590.00    0.86570   0.80878    0.000
 6591.00    0.85856   0.80479    0.000
 6592.00    0.85163   0.80191    0.000
 6593.00    0.84260   0.80061    0.000
 6594.00    0.83365   0.80175    0.000
 6595.00    0.82639   0.80568    0.000
 6596.00    0.81941   0.81093    0.000
 6597.00    0.81582   0.81556    0.000
 6598.00    0.81430   0.81889    0.000
 6599.00    0.83045   0.82102    0.000
 6600.00    0.84492   0.82215    0.000
 6601.00    0.84868   0.82227    0.000
 6602.00    0.85117   0.82097    0.000
 6603.00    0.84733   0.81817    0.000
 6604.00    0.84410   0.81463    0.000
 6605.00    0.84331   0.81168    0.000
 6606.00    0.84356   0.81027    0.000
 6607.00    0.84732   0.81034    0.000
 6608.00    0.85039   0.81140    0.000
 6609.00    0.85148   0.81336    0.049
 6610.00    0.84996   0.81646    0.049
 6611.00    0.84213   0.82046    0.049
 6612.00    0.83811   0.82433    0.049
 6613.00    0.84209   0.82716    0.049
 6614.00    0.84697   0.82918    0.048
 6615.00    0.85351   0.83101    0.049
 6616.00    0.86098   0.83265    0.049
 6617.00    0.86993   0.83340    0.049
 6618.00    0.87874   0.83284    0.049
 6619.00    0.88736   0.83111    0.050
 6620.00    0.89051   0.82865    0.050
 6621.00    0.88697   0.82592    0.051
 6622.00    0.88565   0.82309    0.051
 6623.00    0.88672   0.82033    0.051
 6624.00    0.88130   0.81790    0.051
 6625.00    0.86971   0.81598    0.052
 6626.00    0.85905   0.81472    0.052
 6627.00    0.84919   0.81374    0.051
 6628.00    0.84627   0.81211    0.050
 6629.00    0.84850   0.80980    0.050
 6630.00    0.85265   0.80763    0.050
 6631.00    0.85804   0.80613    0.050
 6632.00    0.84748   0.80554    0.050
 6633.00    0.82786   0.80583    0.049
 6634.00    0.82059   0.80687    0.049
 6635.00    0.81944   0.80880    0.049
 6636.00    0.82722   0.81143    0.049
 6637.00    0.83882   0.81353    0.049
 6638.00    0.84472   0.81404    0.049
 6639.00    0.84853   0.81329    0.050
 6640.00    0.85231   0.81223    0.050
 6641.00    0.85609   0.81136    0.050
 6642.00    0.84645   0.81074    0.050
 6643.00    0.83333   0.81027    0.050
 6644.00    0.82568   0.81017    0.050
 6645.00    0.81918   0.81097    0.050
 6646.00    0.81972   0.81238    0.051
 6647.00    0.82144   0.81334    0.051
 6648.00    0.81842   0.81362    0.051
 6649.00    0.81479   0.81361    0.051
 6650.00    0.82137   0.81350    0.050
 6651.00    0.82884   0.81311    0.050
 6652.00    0.83165   0.81252    0.050
 6653.00    0.83422   0.81203    0.051
 6654.00    0.84155   0.81160    0.050
 6655.00    0.84892   0.81086    0.050
 6656.00    0.85270   0.80958    0.050
 6657.00    0.85583   0.80751    0.049
 6658.00    0.84518   0.80458    0.049
 6659.00    0.83540   0.80139    0.049
 6660.00    0.83614   0.79850    0.049
 6661.00    0.83567   0.79607    0.050
 6662.00    0.82515   0.79440    0.049
 6663.00    0.81481   0.79384    0.049
 6664.00    0.80561   0.79467    0.049
 6665.00    0.79944   0.79722    0.049
 6666.00    0.80799   0.80080    0.050
 6667.00    0.81697   0.80421    0.051
 6668.00    0.82765   0.80716    0.051
 6669.00    0.83708   0.80960    0.052
 6670.00    0.84246   0.81116    0.052
 6671.00    0.84546   0.81113    0.052
 6672.00    0.84187   0.80882    0.052
 6673.00    0.83899   0.80448    0.052
 6674.00    0.83777   0.79956    0.052
 6675.00    0.83257   0.79518    0.052
 6676.00    0.81918   0.79160    0.051
 6677.00    0.81285   0.78905    0.050
 6678.00    0.81910   0.78799    0.050
 6679.00    0.82517   0.78914    0.050
 6680.00    0.83095   0.79252    0.050
 6681.00    0.83418   0.79648    0.050
 6682.00    0.83390   0.79962    0.050
 6683.00    0.83328   0.80201    0.050
 6684.00    0.83223   0.80393    0.050
 6685.00    0.83457   0.80530    0.050
 6686.00    0.84050   0.80603    0.051
 6687.00    0.84107   0.80627    0.051
 6688.00    0.83661   0.80616    0.052
 6689.00    0.82753   0.80576    0.052
 6690.00    0.81464   0.80496    0.052
 6691.00    0.80934   0.80347    0.052
 6692.00    0.80957   0.80151    0.052
 6693.00    0.81210   0.79958    0.052
 6694.00    0.81610   0.79805    0.052
 6695.00    0.81672   0.79713    0.052
 6696.00    0.81544   0.79680    0.000
 6697.00    0.81898   0.79702    0.000
 6698.00    0.82488   0.79775    0.000
 6699.00    0.82882   0.79851    0.000
 6700.00    0.83193   0.79903    0.000
 6701.00    0.82454   0.79936    0.000
 6702.00    0.81338   0.79935    0.000
 6703.00    0.81444   0.79905    0.000
 6704.00    0.81923   0.79871    0.000
 6705.00    0.82080   0.79846    0.000
 6706.00    0.82154   0.79837    0.000
 6707.00    0.82331   0.79806    0.000
 6708.00    0.82528   0.79692    0.000
 6709.00    0.83294   0.79475    0.000
 6710.00    0.84152   0.79165    0.000
 6711.00    0.83848   0.78765    0.000
 6712.00    0.83404   0.78314    0.000
 6713.00    0.84585   0.77867    0.000
 6714.00    0.85902   0.77506    0.000
 6715.00    0.84482   0.77299    0.000
 6716.00    0.82932   0.77238    0.000
 6717.00    0.84350   0.77307    0.000
 6718.00    0.85736   0.77513    0.000
 6719.00    0.83047   0.77853    0.000
 6720.00    0.80533   0.78238    0.000
 6721.00    0.81443   0.78529    0.000
 6722.00    0.82289   0.78713    0.000
 6723.00    0.82393   0.78857    0.000
 6724.00    0.82345   0.78996    0.000
 6725.00    0.81085   0.79110    0.000
 6726.00    0.80151   0.79194    0.000
 6727.00    0.81172   0.79267    0.000
 6728.00    0.82630   0.79349    0.000
 6729.00    0.86162   0.79419    0.000
 6730.00    0.88963   0.79457    0.000
 6731.00    0.88938   0.79461    0.000
 6732.00    0.88680   0.79418    0.000
 6733.00    0.87674   0.79315    0.000
 6734.00    0.86332   0.79168    0.000
 6735.00    0.84074   0.79020    0.000
 6736.00    0.82361   0.78888    0.000
 6737.00    0.81922   0.78751    0.000
 6738.00    0.81665   0.78587    0.000
 6739.00    0.81775   0.78438    0.000
 6740.00    0.81936   0.78360    0.000
 6741.00    0.82188   0.78338    0.000
 6742.00    0.82344   0.78312    0.000
 6743.00    0.82350   0.78235    0.000
 6744.00    0.82635   0.78129    0.000
 6745.00    0.83295   0.78026    0.000
 6746.00    0.82857   0.77919    0.000
 6747.00    0.81114   0.77807    0.000
 6748.00    0.80386   0.77713    0.000
 6749.00    0.80725   0.77676    0.000
 6750.00    0.80482   0.77733    0.000
 6751.00    0.79701   0.77891    0.000
 6752.00    0.79323   0.78150    0.000
 6753.00    0.79274   0.78461    0.055
 6754.00    0.79362   0.78789    0.056
 6755.00    0.79550   0.79141    0.057
 6756.00    0.80031   0.79462    0.058
 6757.00    0.80696   0.79710    0.058
 6758.00    0.82357   0.79884    0.059
 6759.00    0.84567   0.79972    0.060
 6760.00    0.88087   0.79963    0.062
 6761.00    0.92235   0.79853    0.064
 6762.00    0.93352   0.79642    0.064
 6763.00    0.93217   0.79368    0.064
 6764.00    0.95032   0.79111    0.064
 6765.00    0.97536   0.78891    0.064
 6766.00    0.96678   0.78693    0.063
 6767.00    0.94815   0.78545    0.062
 6768.00    0.93742   0.78517    0.060
 6769.00    0.92865   0.78657    0.059
 6770.00    0.92074   0.78918    0.058
 6771.00    0.91300   0.79211    0.057
 6772.00    0.89230   0.79511    0.056
 6773.00    0.86955   0.79826    0.055
 6774.00    0.87007   0.80121    0.055
 6775.00    0.87329   0.80329    0.056
 6776.00    0.86158   0.80402    0.056
 6777.00    0.84868   0.80316    0.056
 6778.00    0.85308   0.80068    0.057
 6779.00    0.85823   0.79707    0.059
 6780.00    0.86911   0.79293    0.060
 6781.00    0.87975   0.78871    0.061
 6782.00    0.87673   0.78493    0.060
 6783.00    0.87485   0.78217    0.060
 6784.00    0.89361   0.78078    0.059
 6785.00    0.90886   0.78067    0.059
 6786.00    0.88565   0.78160    0.058
 6787.00    0.86384   0.78306    0.057
 6788.00    0.85273   0.78441    0.057
 6789.00    0.84526   0.78520    0.057
 6790.00    0.85900   0.78531    0.057
 6791.00    0.86898   0.78522    0.057
 6792.00    0.86163   0.78533    0.057
 6793.00    0.85752   0.78559    0.057
 6794.00    0.86564   0.78600    0.057
 6795.00    0.87116   0.78693    0.057
 6796.00    0.86848   0.78848    0.056
 6797.00    0.87144   0.79019    0.056
 6798.00    0.88947   0.79173    0.057
 6799.00    0.89191   0.79277    0.057
 6800.00    0.85853   0.79332    0.057
 6801.00    0.82778   0.79358    0.057
 6802.00    0.80228   0.79338    0.057
 6803.00    0.79714   0.79282    0.057
 6804.00    0.82726   0.79220    0.057
 6805.00    0.84650   0.79154    0.057
 6806.00    0.84923   0.79104    0.057
 6807.00    0.84507   0.79071    0.057
 6808.00    0.83176   0.79052    0.056
 6809.00    0.82873   0.79048    0.055
 6810.00    0.83775   0.79012    0.056
 6811.00    0.82947   0.78962    0.056
 6812.00    0.80327   0.78972    0.057
 6813.00    0.80762   0.79019    0.057
 6814.00    0.83984   0.79050    0.057
 6815.00    0.86411   0.79059    0.057
 6816.00    0.88197   0.79091    0.057
 6817.00    0.88192   0.79201    0.057
 6818.00    0.86919   0.79344    0.055
 6819.00    0.85780   0.79457    0.055
 6820.00    0.84723   0.79542    0.055
 6821.00    0.84366   0.79624    0.055
 6822.00    0.84390   0.79698    0.056
 6823.00    0.85127   0.79707    0.056
 6824.00    0.86200   0.79634    0.056
 6825.00    0.85290   0.79543    0.056
 6826.00    0.83574   0.79480    0.057
 6827.00    0.82548   0.79434    0.057
 6828.00    0.81761   0.79388    0.057
 6829.00    0.82981   0.79383    0.057
 6830.00    0.84787   0.79463    0.058
 6831.00    0.87485   0.79566    0.058
 6832.00    0.90399   0.79588    0.058
 6833.00    0.90104   0.79497    0.057
 6834.00    0.89181   0.79312    0.057
 6835.00    0.88895   0.79052    0.057
 6836.00    0.88706   0.78710    0.056
 6837.00    0.86345   0.78305    0.057
 6838.00    0.83740   0.77930    0.059
 6839.00    0.82163   0.77676    0.058
 6840.00    0.80664   0.77578    0.058
 6841.00    0.81138   0.77637    0.058
 6842.00    0.81690   0.77816    0.057
 6843.00    0.82462   0.78100    0.057
 6844.00    0.83245   0.78447    0.057
 6845.00    0.84414   0.78762    0.057
 6846.00    0.85513   0.78975    0.057
 6847.00    0.85433   0.79066    0.057
 6848.00    0.85637   0.79065    0.058
 6849.00    0.88817   0.78976    0.058
 6850.00    0.91408   0.78768    0.058
 6851.00    0.89624   0.78478    0.057
 6852.00    0.87878   0.78204    0.057
 6853.00    0.86346   0.77970    0.056
 6854.00    0.84761   0.77760    0.056
 6855.00    0.82934   0.77581    0.056
 6856.00    0.81546   0.77452    0.055
 6857.00    0.81785   0.77408    0.055
 6858.00    0.81910   0.77458    0.056
 6859.00    0.81681   0.77593    0.056
 6860.00    0.81670   0.77780    0.056
 6861.00    0.82233   0.77932    0.056
 6862.00    0.82385   0.78027    0.056
 6863.00    0.81611   0.78110    0.056
 6864.00    0.81097   0.78181    0.056
 6865.00    0.81093   0.78199    0.056
 6866.00    0.81470   0.78145    0.057
 6867.00    0.82494   0.78038    0.058
 6868.00    0.83203   0.77927    0.058
 6869.00    0.83441   0.77893    0.059
 6870.00    0.84277   0.77967    0.059
 6871.00    0.85898   0.78088    0.058
 6872.00    0.87147   0.78207    0.058
 6873.00    0.87965   0.78352    0.057
 6874.00    0.87457   0.78548    0.057
 6875.00    0.85596   0.78732    0.056
 6876.00    0.84669   0.78830    0.056
 6877.00    0.84583   0.78835    0.056
 6878.00    0.83996   0.78779    0.056
 6879.00    0.83011   0.78694    0.055
 6880.00    0.82426   0.78616    0.055
 6881.00    0.82120   0.78550    0.055
 6882.00    0.81959   0.78514    0.056
 6883.00    0.81886   0.78587    0.057
 6884.00    0.82162   0.78786    0.057
 6885.00    0.82624   0.79056    0.056
 6886.00    0.83247   0.79317    0.056
 6887.00    0.83944   0.79555    0.057
 6888.00    0.84283   0.79776    0.058
 6889.00    0.84479   0.79938    0.058
 6890.00    0.85009   0.80019    0.058
 6891.00    0.85654   0.80030    0.058
 6892.00    0.84632   0.79995    0.058
 6893.00    0.83132   0.79937    0.058
 6894.00    0.82851   0.79880    0.059
 6895.00    0.82858   0.79830    0.059
 6896.00    0.72736   0.79772    0.056
 6897.00    0.60683   0.79757    0.053
 6898.00    0.73773   0.79824    0.095
 6899.00    0.90578   0.79928    1.071
 6900.00    0.91650   0.80016   -1.000
 6901.00    0.91024   0.80101   -1.000
 6902.00    0.91252   0.80249   -1.000
 6903.00    0.91541   0.80438   -1.000
 6904.00    0.91119   0.80578   -1.000
 6905.00    0.90673   0.80644   -1.000
 6906.00    0.89819   0.80657   -1.000
 6907.00    0.89021   0.80626   -1.000
 6908.00    0.90231   0.80525   -1.000
 6909.00    0.91417   0.80321   -1.000
 6910.00    0.92218   0.80040   -1.000
 6911.00    0.92639   0.79775   -1.000
 6912.00    0.89252   0.79562   -1.000
 6913.00    0.86372   0.79401   -1.000
 6914.00    0.87138   0.79317   -1.000
 6915.00    0.87662   0.79315   -1.000
 6916.00    0.86850   0.79418   -1.000
 6917.00    0.86455   0.79570   -1.000
 6918.00    0.87901   0.79683   -1.000
 6919.00    0.89236   0.79731   -1.000
 6920.00    0.90162   0.79679   -1.000
 6921.00    0.90737   0.79573   -1.000
 6922.00    0.90243   0.79474   -1.000
 6923.00    0.90296   0.79403   -1.000
 6924.00    0.91764   0.79349   -1.000
 6925.00    0.92329   0.79324   -1.000
 6926.00    0.90887   0.79377   -1.000
 6927.00    0.89715   0.79499   -1.000
 6928.00    0.89061   0.79613   -1.000
 6929.00    0.88905   0.79654   -1.000
 6930.00    0.89583   0.79672   -1.000
 6931.00    0.89408   0.79711   -1.000
 6932.00    0.87975   0.79749   -1.000
 6933.00    0.87280   0.79775   -1.000
 6934.00    0.87539   0.79823   -1.000
 6935.00    0.87306   0.79932   -1.000
 6936.00    0.86513   0.80058   -1.000
 6937.00    0.86612   0.80129   -1.000
 6938.00    0.87608   0.80125   -1.000
 6939.00    0.87749   0.80058   -1.000
 6940.00    0.87129   0.79920   -1.000
 6941.00    0.86371   0.79738   -1.000
 6942.00    0.85505   0.79593   -1.000
 6943.00    0.86503   0.79508   -1.000
 6944.00    0.88783   0.79454   -1.000
 6945.00    0.89888   0.79437   -1.000
 6946.00    0.90286   0.79467   -1.000
 6947.00    0.89988   0.79530   -1.000
 6948.00    0.89324   0.79584   -1.000
 6949.00    0.88080   0.79581   -1.000
 6950.00    0.86572   0.79545   -1.000
 6951.00    0.88345   0.79524   -1.000
 6952.00    0.91406   0.79552   -1.000
 6953.00    0.89559   0.79653   -1.000
 6954.00    0.86071   0.79804   -1.000
 6955.00    0.86685   0.79987   -1.000
 6956.00    0.88452   0.80204   -1.000
 6957.00    0.88568   0.80428   -1.000
 6958.00    0.88302   0.80617   -1.000
 6959.00    0.88667   0.80770   -1.000
 6960.00    0.89149   0.80899   -1.000
 6961.00    0.90036   0.80982   -1.000
 6962.00    0.90981   0.81028   -1.000
 6963.00    0.89852   0.81086   -1.000
 6964.00    0.88508   0.81162   -1.000
 6965.00    0.89246   0.81208   -1.000
 6966.00    0.90123   0.81187   -1.000
 6967.00    0.89750   0.81131   -1.000
 6968.00    0.89338   0.81093   -1.000
 6969.00    0.89434   0.81026   -1.000
 6970.00    0.89556   0.80822   -1.000
 6971.00    0.90500   0.80482   -1.000
 6972.00    0.91319   0.80067   -1.000
 6973.00    0.90273   0.79603   -1.000
 6974.00    0.89242   0.79066   -1.000
 6975.00    0.88352   0.78551   -1.000
 6976.00    0.87690   0.78258   -1.000
 6977.00    0.88620   0.78216   -1.000
 6978.00    0.89423   0.78358   -1.000
 6979.00    0.89543   0.78664   -1.000
 6980.00    0.89619   0.79156   -1.000
 6981.00    0.89500   0.79762   -1.000
 6982.00    0.88995   0.80291   -1.000
 6983.00    0.87124   0.80650   -1.000
 6984.00    0.85986   0.80840   -1.000
 6985.00    0.87039   0.80888   -1.000
 6986.00    0.88233   0.80870   -1.000
 6987.00    0.89784   0.80841   -1.000
 6988.00    0.91298   0.80816   -1.000
 6989.00    0.92734   0.80781   -1.000
 6990.00    0.92452   0.80749   -1.000
 6991.00    0.88911   0.80751   -1.000
 6992.00    0.87117   0.80771   -1.000
 6993.00    0.88217   0.80752   -1.000
 6994.00    0.88841   0.80643   -1.000
 6995.00    0.88775   0.80438   -1.000
 6996.00    0.88008   0.80216   -1.000
 6997.00    0.86347   0.80051   -1.000
 6998.00    0.86940   0.79928   -1.000
 6999.00    0.90067   0.79785   -1.000
 7000.00    0.90735   0.79622   -1.000
 7001.00    0.88964   0.79534   -1.000
 7002.00    0.87391   0.79560   -1.000
 7003.00    0.85993   0.79631   -1.000
 7004.00    0.85489   0.79690   -1.000
 7005.00    0.85677   0.79766   -1.000
 7006.00    0.86082   0.79876   -1.000
 7007.00    0.86636   0.79972   -1.000
 7008.00    0.86206   0.80024   -1.000
 7009.00    0.85192   0.80038   -1.000
 7010.00    0.85984   0.79972   -1.000
 7011.00    0.87711   0.79749   -1.000
 7012.00    0.88205   0.79408   -1.000
 7013.00    0.88146   0.79162   -1.000
 7014.00    0.87745   0.79118   -1.000
 7015.00    0.87212   0.79155   -1.000
 7016.00    0.85610   0.79199   -1.000
 7017.00    0.83658   0.79322   -1.000
 7018.00    0.84471   0.79565   -1.000
 7019.00    0.86046   0.79780   -1.000
 7020.00    0.86745   0.79842   -1.000
 7021.00    0.87245   0.79830   -1.000
 7022.00    0.87522   0.79838   -1.000
 7023.00    0.87759   0.79838   -1.000
 7024.00    0.87474   0.79844   -1.000
 7025.00    0.87117   0.79945   -1.000
 7026.00    0.88473   0.80153   -1.000
 7027.00    0.89999   0.80383   -1.000
 7028.00    0.87678   0.80544   -1.000
 7029.00    0.85117   0.80642   -1.000
 7030.00    0.85977   0.80695   -1.000
 7031.00    0.86939   0.80716   -1.000
 7032.00    0.89404   0.80719   -1.000
 7033.00    0.91746   0.80662   -1.000
 7034.00    0.90747   0.80548   -1.000
 7035.00    0.89653   0.80516   -1.000
 7036.00    0.87233   0.80682   -1.000
 7037.00    0.85227   0.80979   -1.000
 7038.00    0.87033   0.81287   -1.000
 7039.00    0.88642   0.81617   -1.000
 7040.00    0.88918   0.82028   -1.000
 7041.00    0.89570   0.82445   -1.000
 7042.00    0.92186   0.82759   -1.000
 7043.00    0.93861   0.82964   -1.000
 7044.00    0.91572   0.83068   -1.000
 7045.00    0.90225   0.83047   -1.000
 7046.00    0.92157   0.82902   -1.000
 7047.00    0.92462   0.82643   -1.000
 7048.00    0.88006   0.82217   -1.000
 7049.00    0.85672   0.81601   -1.000
 7050.00    0.88633   0.80860   -2.000
 7051.00    0.92229   0.80082   -2.000
 7052.00    0.97191   0.79359   -2.000
 7053.00    0.99815   0.78734   -2.000
 7054.00    0.98072   0.78224   -2.000
 7055.00    0.97277   0.77819   -2.000
 7056.00    0.98027   0.77511   -2.000
 7057.00    0.97246   0.77318   -2.000
 7058.00    0.94274   0.77193   -2.000
 7059.00    0.93890   0.77061   -2.000
 7060.00    0.96761   0.76921   -2.000
 7061.00    0.98893   0.76813   -2.000
 7062.00    1.00205   0.76736   -2.000
 7063.00    1.01489   0.76656   -2.000
 7064.00    1.02744   0.76568   -2.000
 7065.00    1.02934   0.76539   -2.000
 7066.00    1.02205   0.76614   -2.000
 7067.00    1.00023   0.76769   -2.000
 7068.00    0.96737   0.76992   -2.000
 7069.00    0.95002   0.77282   -2.000
 7070.00    0.94302   0.77647   -2.000
 7071.00    0.96905   0.78023   -2.000
 7072.00    1.01440   0.78319   -2.000
 7073.00    1.03902   0.78523   -2.000
 7074.00    1.05307   0.78675   -2.000
 7075.00    1.05076   0.78758   -2.000
 7076.00    1.04123   0.78754   -2.000
 7077.00    1.01176   0.78668   -2.000
 7078.00    0.97473   0.78475   -2.000
 7079.00    0.98951   0.78128   -2.000
 7080.00    1.02098   0.77608   -2.000
 7081.00    1.00686   0.77000   -2.000
 7082.00    0.98046   0.76387   -2.000
 7083.00    0.93586   0.75746   -2.000
 7084.00    0.88723   0.75073   -2.000
 7085.00    0.94164   0.74471   -2.000
 7086.00    1.01416   0.74031   -2.000
 7087.00    0.98077   0.73744   -2.000
 7088.00    0.93319   0.73523   -2.000
 7089.00    0.92430   0.73356   -2.000
 7090.00    0.91908   0.73292   -2.000
 7091.00    0.90437   0.73314   -2.000
 7092.00    0.88910   0.73401   -2.000
 7093.00    0.86087   0.73531   -2.000
 7094.00    0.83273   0.73690   -2.000
 7095.00    0.85898   0.73909   -2.000
 7096.00    0.88330   0.74146   -2.000
 7097.00    0.85928   0.74369   -2.000
 7098.00    0.83652   0.74558   -2.000
 7099.00    0.83044   0.74720   -2.000
 7100.00    0.82437   0.74881   -2.000
 7101.00    0.81831   0.75014   -2.000
 7102.00    0.81255   0.75087   -2.000
 7103.00    0.80881   0.75090   -2.000
 7104.00    0.80494   0.75092   -2.000
 7105.00    0.80050   0.75119   -2.000
 7106.00    0.79779   0.75094   -2.000
 7107.00    0.80225   0.74973   -2.000
 7108.00    0.79991   0.74858   -2.000
 7109.00    0.77440   0.74846   -2.000
 7110.00    0.76932   0.74895   -2.000
 7111.00    0.82296   0.74943   -2.000
 7112.00    0.85322   0.75035   -2.000
 7113.00    0.82614   0.75212   -2.000
 7114.00    0.80916   0.75404   -2.000
 7115.00    0.81357   0.75540   -2.000
 7116.00    0.82431   0.75614   -2.000
 7117.00    0.84669   0.75624   -2.000
 7118.00    0.87241   0.75537   -2.000
 7119.00    0.90347   0.75395   -2.000
 7120.00    0.92799   0.75241   -2.000
 7121.00    0.94328   0.75003   -2.000
 7122.00    0.93255   0.74645   -2.000
 7123.00    0.88952   0.74259   -2.000
 7124.00    0.85473   0.73948   -2.000
 7125.00    0.82895   0.73641   -2.000
 7126.00    0.81891   0.73252   -2.000
 7127.00    0.82404   0.72897   -2.000
 7128.00    0.84525   0.72728   -2.000
 7129.00    0.88014   0.72728   -2.000
 7130.00    0.88070   0.72801   -2.000
 7131.00    0.85556   0.72922   -2.000
 7132.00    0.83638   0.73140   -2.000
 7133.00    0.82113   0.73455   -2.000
 7134.00    0.81491   0.73755   -2.000
 7135.00    0.81389   0.73965   -2.000
 7136.00    0.81551   0.74113   -2.000
 7137.00    0.81844   0.74252   -2.000
 7138.00    0.84244   0.74367   -2.000
 7139.00    0.87559   0.74397   -2.000
 7140.00    0.84909   0.74363   -2.000
 7141.00    0.80037   0.74329   -2.000
 7142.00    0.80834   0.74281   -2.000
 7143.00    0.83420   0.74144   -2.000
 7144.00    0.83827   0.73930   -2.000
 7145.00    0.83660   0.73770   -2.000
 7146.00    0.83346   0.73744   -2.000
 7147.00    0.83000   0.73801   -2.000
 7148.00    0.81612   0.73910   -2.000
 7149.00    0.80047   0.74147   -2.000
 7150.00    0.81457   0.74517   -2.000
 7151.00    0.83252   0.74869   -2.000
 7152.00    0.82552   0.75147   -2.000
 7153.00    0.81625   0.75428   -2.000
 7154.00    0.82377   0.75652   -2.000
 7155.00    0.83221   0.75697   -2.000
 7156.00    0.83388   0.75603   -2.000
 7157.00    0.83537   0.75495   -2.000
 7158.00    0.83433   0.75378   -2.000
 7159.00    0.83147   0.75148   -2.000
 7160.00    0.78752   0.74802   -2.000
 7161.00    0.75010   0.74469   -2.000
 7162.00    0.79494   0.74291   -2.000
 7163.00    0.83648   0.74275   -2.000
 7164.00    0.84978   0.74324   -2.000
 7165.00    0.87408   0.74426   -2.000
 7166.00    0.96814   0.74659   -2.000
 7167.00    1.03227   0.75028   -2.000
 7168.00    0.94788   0.75397   -2.000
 7169.00    0.88083   0.75672   -2.000
 7170.00    0.88357   0.75848   -2.000
 7171.00    0.88529   0.75938   -2.000
 7172.00    0.88356   0.75933   -2.000
 7173.00    0.88486   0.75844   -2.000
 7174.00    0.89470   0.75722   -2.000
 7175.00    0.89565   0.75572   -2.000
 7176.00    0.87518   0.75351   -2.000
 7177.00    0.85215   0.75097   -2.000
 7178.00    0.82382   0.74938   -2.000
 7179.00    0.81099   0.74903   -2.000
 7180.00    0.82623   0.74881   -2.000
 7181.00    0.83330   0.74801   -2.000
 7182.00    0.82745   0.74707   -2.000
 7183.00    0.81770   0.74620   -2.000
 7184.00    0.80256   0.74495   -2.000
 7185.00    0.80627   0.74322   -2.000
 7186.00    0.83304   0.74163   -2.000
 7187.00    0.84085   0.74075   -2.000
 7188.00    0.82822   0.74052   -2.000
 7189.00    0.82645   0.74103   -2.000
 7190.00    0.83502   0.74249   -2.000
 7191.00    0.83806   0.74475   -2.000
 7192.00    0.83648   0.74691   -2.000
 7193.00    0.81915   0.74790   -2.000
 7194.00    0.79019   0.74838   -2.000
 7195.00    0.77740   0.74948   -2.000
 7196.00    0.77509   0.75070   -2.000
 7197.00    0.77809   0.75088   -2.000
 7198.00    0.78410   0.75021   -2.000
 7199.00    0.76086   0.75003   -2.000
 7200.00    0.72319   0.75045   -2.000
 7201.00    0.71256   0.75026   -2.000
 7202.00    0.71348   0.74871   -2.000
 7203.00    0.76648   0.74637   -2.000
 7204.00    0.83852   0.74457   -2.000
 7205.00    0.86106   0.74364   -2.000
 7206.00    0.86826   0.74311   -2.000
 7207.00    0.82028   0.74305   -2.000
 7208.00    0.75806   0.74397   -2.000
 7209.00    0.76784   0.74598   -2.000
 7210.00    0.79276   0.74835   -2.000
 7211.00    0.77478   0.75063   -2.000
 7212.00    0.74967   0.75263   -2.000
 7213.00    0.74615   0.75414   -2.000
 7214.00    0.74533   0.75547   -2.000
 7215.00    0.75826   0.75679   -2.000
 7216.00    0.77239   0.75780   -2.000
 7217.00    0.79179   0.75863   -2.000
 7218.00    0.81145   0.75955   -2.000
