###################################################################
## OUTPUT of StarlightChains_v04.for    [Cid@UFSC - 01/Apr/2007] ##
###################################################################

## Some input info
KUG0210-078._30_30.txt                   [arq_obs]
Base.CB07.vall.4m                        [arq_base]
Masks.EmLines.NEW.gm                     [arq_masks]
StCv04.C11.config                        [arq_config]
   66                                    [N_base]
    0                                    [N_YAV_components = # of components with extra extinction!]
    0                                    [i_FitPowerLaw (1/0 = Yes/No)]
-9.99                                    [alpha_PowerLaw]
CCM                                      [red_law_option]
 1.458241                                [q_norm = A(l_norm)/A(V)]

## (Re)Sampling Parameters
 3741.00                                 [l_ini (A)]
 7218.00                                 [l_fin (A)]
    1.00                                 [dl    (A)]     (OBS: dl_cushion =    50.00 A)

## Normalization info
 4020.00                                 [l_norm (A) - for base]
 4010.00                                 [llow_norm (A) - window for f_obs]
 4060.00                                 [lupp_norm (A) - window for f_obs]
6.116808E-17                             [fobs_norm (in input units)]

## S/N
 3691.00                                 [llow_SN (A) - window for S/N]
 7268.00                                 [lupp_SN (A) - window for S/N]
   6.419                                 [S/N in S/N window]
   6.744                                 [S/N in norm. window]
   0.092                                 [S/N_err in S/N window]
   0.097                                 [S/N_err in norm. window]
  1.0000                                 [fscale_chi2]

## etc...
    -2007431                             [idum_orig]
  2432                                   [NOl_eff]
  2024                                   [Nl_eff]
   408    NSIGMA                         [Ntot_cliped & clip_method]
 10574270                                [Nglobal_steps]
   7                                     [N_chains]
  28                                     [NEX0s_base = N_base in EX0s-fits]
 0   0   1      408   2.0   5.510E+04    [Clip-Bug, RC-Crash & Burn-In warning-flags, n_censored_weights, wei_nsig_threshold & wei_limit]
    76     75.862     75.269      0.593  [idt_all, wdt_TotTime, wdt_UsrTime & wdt_SysTime (sec)]

## Synthesis Results - Best model ##

 1.23567E-05                             [chi2/Nl_eff]
     3.05084                             [adev (%)]

   110.84131                             [sum-of-x (%)]
 2.21828E-17                             [Flux_tot (units of input spectrum!)]
 1.99646E-12                             [Mini_tot (???)]
 1.00460E-12                             [Mcor_tot (???)]

  50.28                                  [v0_min  (km/s)]
 204.36                                  [vd_min  (km/s)]
-0.8318                                  [AV_min  (mag)]
 0.0000                                  [YAV_min (mag)]

# j     x_j(%)      Mini_j(%)     Mcor_j(%)     age_j(yr)     Z_j      (L/M)_j    YAV?  Mstars   component_j        a/Fe...       SSP_chi2r SSP_adev(%)   SSP_AV   SSP_x(%)
  1      0.0000     0.0000E+00    0.0000E+00    1.000000E+06  0.00400  1.094E-02    0   1.0000   age020_m42            0.0000     6.7890E-05     5.9155   2.8050    99.7314
  2      0.0000     0.0000E+00    0.0000E+00    3.160000E+06  0.00400  4.007E-02    0   0.9999   age045_m42            0.0000     6.8842E-05     5.2574   2.1907   101.4682
  3      0.0000     0.0000E+00    0.0000E+00    5.010000E+06  0.00400  2.539E-02    0   0.9488   age055_m42            0.0000     6.5508E-05     5.4335   2.4560   101.4379
  4      0.0000     0.0000E+00    0.0000E+00    6.610000E+06  0.00400  2.620E-02    0   0.9220   age061_m42            0.0000     6.5374E-05     5.0549   2.1153   101.8326
  5      0.0000     0.0000E+00    0.0000E+00    1.000000E+07  0.00400  1.322E-02    0   0.8862   age070_m42            0.0000     6.2325E-05     4.6176   1.8257   104.6391
  6      3.5236     4.4807E-03    7.6321E-03    1.445000E+07  0.00400  7.883E-03    0   0.8571   age078_m42            0.0000     6.2581E-05     4.6951   2.1272   103.1074
  7      0.0000     0.0000E+00    0.0000E+00    2.512000E+07  0.00400  5.251E-03    0   0.8174   age090_m42            0.0000     6.4144E-05     4.7129   1.7060   104.8052
  8      0.0000     0.0000E+00    0.0000E+00    4.000000E+07  0.00400  3.649E-03    0   0.7851   age104_m42            0.0000     6.3219E-05     4.6722   1.4959   104.8392
  9      0.0000     0.0000E+00    0.0000E+00    5.500000E+07  0.00400  3.098E-03    0   0.7629   age110_m42            0.0000     6.4885E-05     4.6819   1.6695   103.7683
 10      0.0000     0.0000E+00    0.0000E+00    1.015200E+08  0.00400  2.228E-03    0   0.7207   age116_m42            0.0000     6.4588E-05     4.6807   1.7000   103.4234
 11      0.0000     0.0000E+00    0.0000E+00    2.861200E+08  0.00400  1.093E-03    0   0.6648   age125_m42            0.0000     6.5221E-05     4.7364   1.1492   105.5411
 12      0.0000     0.0000E+00    0.0000E+00    5.088000E+08  0.00400  6.597E-04    0   0.6365   age130_m42            0.0000     6.3500E-05     4.5556   1.1679   104.9818
 13      0.0000     0.0000E+00    0.0000E+00    1.434000E+09  0.00400  2.132E-04    0   0.5798   age139_m42            0.0000     4.7226E-05     3.9322   0.2341   105.4372
 14      0.0000     0.0000E+00    0.0000E+00    4.250000E+09  0.00400  5.895E-05    0   0.5377   age158_m42            0.0000     2.9916E-05     3.5541  -0.2568   103.6582
 15      0.0000     0.0000E+00    0.0000E+00    7.500000E+09  0.00400  3.510E-05    0   0.5212   age171_m42            0.0000     2.6409E-05     3.4512  -0.4455   102.9277
 16      0.0000     0.0000E+00    0.0000E+00    1.300000E+10  0.00400  2.005E-05    0   0.5034   age193_m42            0.0000     2.5490E-05     3.4529  -0.6075   102.1484
 17      0.0000     0.0000E+00    0.0000E+00    1.800000E+10  0.00400  1.525E-05    0   0.4967   age213_m42            0.0000     2.4242E-05     3.4308  -0.6439   102.3268
 18      4.6389     3.7562E-03    7.4648E-03    1.000000E+06  0.00800  1.238E-02    0   1.0000   age020_m52            0.0000     6.7579E-05     5.9174   2.8005    99.9684
 19      0.0000     0.0000E+00    0.0000E+00    3.160000E+06  0.00800  3.074E-02    0   0.9966   age045_m52            0.0000     6.6995E-05     5.8958   2.7324   100.4939
 20      0.0000     0.0000E+00    0.0000E+00    5.010000E+06  0.00800  2.668E-02    0   0.9443   age055_m52            0.0000     6.4300E-05     5.4273   2.5278   101.0409
 21      0.0000     0.0000E+00    0.0000E+00    6.610000E+06  0.00800  2.136E-02    0   0.9177   age061_m52            0.0000     5.0463E-05     4.2302   1.3214   106.0958
 22      0.7972     6.5774E-04    1.1538E-03    1.000000E+07  0.00800  1.215E-02    0   0.8827   age070_m52            0.0000     6.3754E-05     4.6471   1.9942   104.8972
 23      0.0000     0.0000E+00    0.0000E+00    1.445000E+07  0.00800  8.717E-03    0   0.8552   age078_m52            0.0000     6.2579E-05     4.5982   2.1071   103.8665
 24      0.0000     0.0000E+00    0.0000E+00    2.512000E+07  0.00800  5.592E-03    0   0.8162   age090_m52            0.0000     6.4735E-05     4.7021   1.7805   105.4920
 25      0.0000     0.0000E+00    0.0000E+00    4.000000E+07  0.00800  3.896E-03    0   0.7841   age104_m52            0.0000     6.4324E-05     4.6894   1.7119   105.3274
 26      0.0000     0.0000E+00    0.0000E+00    1.015200E+08  0.00800  2.148E-03    0   0.7226   age116_m52            0.0000     6.2864E-05     4.6167   1.6676   104.2559
 27      0.0000     0.0000E+00    0.0000E+00    2.861200E+08  0.00800  9.925E-04    0   0.6683   age125_m52            0.0000     6.0165E-05     4.4750   1.2300   106.1121
 28      5.2129     1.6637E-01    2.0293E-01    9.047900E+08  0.00800  3.141E-04    0   0.6138   age135_m52            0.0000     4.8892E-05     4.0514   0.4974   107.1933
 29      0.0000     0.0000E+00    0.0000E+00    1.434000E+09  0.00800  1.719E-04    0   0.5853   age139_m52            0.0000     3.2263E-05     3.4568  -0.1302   107.2916
 30      0.0000     0.0000E+00    0.0000E+00    2.500000E+09  0.00800  7.872E-05    0   0.5600   age150_m52            0.0000     2.2733E-05     3.2555  -0.4128   105.1506
 31      0.0000     0.0000E+00    0.0000E+00    4.250000E+09  0.00800  4.336E-05    0   0.5426   age158_m52            0.0000     2.2373E-05     3.2833  -0.4319   104.3443
 32      2.3085     7.3255E-01    7.7434E-01    6.250000E+09  0.00800  3.159E-05    0   0.5319   age166_m52            0.0000     2.0286E-05     3.3426  -0.6293   104.0525
 33      0.0000     0.0000E+00    0.0000E+00    1.300000E+10  0.00800  1.361E-05    0   0.5073   age193_m52            0.0000     2.2799E-05     4.1071  -1.0000   100.9885
 34      0.0000     0.0000E+00    0.0000E+00    1.800000E+10  0.00800  9.886E-06    0   0.4990   age213_m52            0.0000     4.0275E-05     5.5728  -1.0000    97.5873
 35      0.0000     0.0000E+00    0.0000E+00    1.000000E+06  0.02000  1.544E-02    0   1.0000   age020_m62            0.0000     6.7688E-05     5.9355   2.7937   100.3262
 36      0.0000     0.0000E+00    0.0000E+00    3.160000E+06  0.02000  3.762E-02    0   0.9858   age045_m62            0.0000     6.7805E-05     5.9259   2.7420   100.7900
 37      0.0000     0.0000E+00    0.0000E+00    5.010000E+06  0.02000  3.296E-02    0   0.9342   age055_m62            0.0000     6.5743E-05     5.3682   2.4391   101.6257
 38      0.0000     0.0000E+00    0.0000E+00    8.710000E+06  0.02000  1.154E-02    0   0.8861   age067_m62            0.0000     7.9258E-05     6.0008   1.4081   110.1284
 39      0.0000     0.0000E+00    0.0000E+00    1.445000E+07  0.02000  7.663E-03    0   0.8472   age078_m62            0.0000     6.7420E-05     4.9346   1.6475   106.9954
 40      0.0000     0.0000E+00    0.0000E+00    2.512000E+07  0.02000  4.532E-03    0   0.8099   age090_m62            0.0000     6.9011E-05     5.0759   1.6393   106.7068
 41      0.0000     0.0000E+00    0.0000E+00    5.500000E+07  0.02000  2.733E-03    0   0.7595   age110_m62            0.0000     5.9844E-05     4.4984   1.6808   105.2410
 42      0.0000     0.0000E+00    0.0000E+00    1.609000E+08  0.02000  1.369E-03    0   0.6985   age120_m62            0.0000     6.0180E-05     4.4708   1.5617   105.9804
 43      1.6130     1.7940E-02    2.3937E-02    2.861200E+08  0.02000  9.013E-04    0   0.6714   age125_m62            0.0000     6.0697E-05     4.4311   1.3516   107.0373
 44      0.0000     0.0000E+00    0.0000E+00    5.088000E+08  0.02000  5.028E-04    0   0.6449   age130_m62            0.0000     5.8747E-05     4.3026   1.0301   107.0070
 45      1.8989     7.8397E-02    9.6269E-02    9.047900E+08  0.02000  2.428E-04    0   0.6179   age135_m62            0.0000     3.7365E-05     3.7027   0.4293   107.0630
 46      4.1042     3.2575E-01    3.8246E-01    1.434000E+09  0.02000  1.263E-04    0   0.5908   age139_m62            0.0000     2.5886E-05     3.3564  -0.0342   106.4360
 47      0.0000     0.0000E+00    0.0000E+00    2.500000E+09  0.02000  5.985E-05    0   0.5673   age150_m62            0.0000     1.8280E-05     3.4197  -0.4353   106.6041
 48      0.0000     0.0000E+00    0.0000E+00    4.250000E+09  0.02000  3.271E-05    0   0.5468   age158_m62            0.0000     1.7465E-05     3.7781  -0.7422   105.7179
 49      0.0000     0.0000E+00    0.0000E+00    1.000000E+10  0.02000  1.360E-05    0   0.5167   age181_m62            0.0000     2.4086E-05     4.3976  -1.0000   103.0247
 50      7.9998     1.1257E+01    1.1214E+01    1.800000E+10  0.02000  7.124E-06    0   0.5013   age213_m62            0.0000     7.5523E-05     7.0532  -1.0000    96.7395
 51      9.7082     3.7546E-03    7.4600E-03    1.000000E+06  0.05000  2.592E-02    0   0.9998   age020_m72            0.0000     6.7362E-05     5.9664   2.7731   100.9183
 52      0.0000     0.0000E+00    0.0000E+00    3.160000E+06  0.05000  4.845E-02    0   0.9577   age045_m72            0.0000     6.7537E-05     5.8032   2.6548   100.7752
 53      0.0000     0.0000E+00    0.0000E+00    5.010000E+06  0.05000  3.072E-02    0   0.9147   age055_m72            0.0000     6.5076E-05     4.9116   2.1989   104.1434
 54      0.0000     0.0000E+00    0.0000E+00    6.610000E+06  0.05000  1.455E-02    0   0.8877   age061_m72            0.0000     1.2590E-04     8.6549   1.4273   111.6309
 55      0.0000     0.0000E+00    0.0000E+00    1.000000E+07  0.05000  9.074E-03    0   0.8524   age070_m72            0.0000     7.9802E-05     6.1429   2.3725   103.6760
 56      0.0000     0.0000E+00    0.0000E+00    2.512000E+07  0.05000  4.250E-03    0   0.7902   age090_m72            0.0000     7.3363E-05     5.3849   2.1162   104.0202
 57      1.1261     3.6566E-03    5.5359E-03    4.000000E+07  0.05000  3.087E-03    0   0.7618   age104_m72            0.0000     7.5316E-05     5.4546   1.9033   105.1046
 58      3.7728     2.2247E-02    3.1373E-02    1.015200E+08  0.05000  1.700E-03    0   0.7096   age116_m72            0.0000     6.5815E-05     4.6944   1.6969   105.8371
 59      4.8399     6.5705E-02    8.6612E-02    2.861200E+08  0.05000  7.384E-04    0   0.6633   age125_m72            0.0000     5.4740E-05     4.2088   1.2410   107.4249
 60      0.0000     0.0000E+00    0.0000E+00    5.088000E+08  0.05000  3.819E-04    0   0.6372   age130_m72            0.0000     4.3473E-05     3.9099   0.7851   107.3648
 61      0.0000     0.0000E+00    0.0000E+00    9.047900E+08  0.05000  1.676E-04    0   0.6110   age135_m72            0.0000     2.3546E-05     3.7810   0.0512   107.2986
 62      0.0000     0.0000E+00    0.0000E+00    1.434000E+09  0.05000  8.837E-05    0   0.5874   age139_m72            0.0000     1.7897E-05     3.3592  -0.4128   107.0162
 63      0.0000     0.0000E+00    0.0000E+00    2.500000E+09  0.05000  4.233E-05    0   0.5598   age150_m72            0.0000     1.7096E-05     3.9236  -0.7477   106.8152
 64     22.9093     1.6003E+01    1.6694E+01    6.250000E+09  0.05000  1.435E-05    0   0.5249   age166_m72            0.0000     4.0093E-05     5.3117  -1.0000   100.0338
 65     13.7156     2.1110E+01    2.1127E+01    1.300000E+10  0.05000  6.513E-06    0   0.5036   age193_m72            0.0000     1.5637E-04    10.1556  -1.0000    93.5077
 66     22.6724     5.0204E+01    4.9337E+01    1.800000E+10  0.05000  4.527E-06    0   0.4945   age213_m72            0.0000     2.6654E-04    12.9996  -1.0000    88.7623


## Synthesis Results - Average & Chains ##

# j      x_j: min, <> & last-chain-values for 1 ...  7 chains
  1      0.0000      0.1741      0.0263      0.1793      0.0245      0.0973      0.3716      0.1309      0.1300
  2      0.0000      0.1642      0.0000      0.0639      0.0067      0.0895      0.1698      0.0207      0.0430
  3      0.0000      0.1624      0.0000      0.0373      0.0254      0.0000      0.5712      0.0899      0.0970
  4      0.0000      0.1879      0.0000      0.0499      0.0875      0.0724      0.5228      0.1304      0.0621
  5      0.0000      0.1695      0.0551      0.0281      0.0249      0.0778      0.0000      0.0000      0.0251
  6      3.5236      0.1762      0.1422      0.3692      0.0167      0.0791      0.0000      0.0761      0.1277
  7      0.0000      0.1673      0.1166      0.0000      0.0717      0.0696      0.2747      0.0400      0.0109
  8      0.0000      0.1817      0.0000      0.0000      0.0555      0.0619      0.8949      0.0000      0.0000
  9      0.0000      0.1683      0.2962      0.0000      0.0000      0.0083      0.0000      0.0000      0.0904
 10      0.0000      0.1519      0.2324      0.3158      0.0842      0.0000      0.5598      0.0904      0.0271
 11      0.0000      0.1559      0.1122      0.1967      0.0696      0.0458      0.3401      0.0413      0.0318
 12      0.0000      0.1399      0.0330      0.0799      0.0497      0.0808      0.0000      0.0428      0.0756
 13      0.0000      0.1717      0.0868      0.0397      0.0944      0.0112      0.6364      0.1663      0.0000
 14      0.0000      0.2028      0.0993      0.2794      0.1186      0.0000      0.6960      0.0000      0.1175
 15      0.0000      0.1962      0.0856      0.0879      0.0381      0.0000      0.0000      0.0245      0.0732
 16      0.0000      0.1994      0.0000      0.1059      0.1019      0.0687      0.7983      0.0225      0.1387
 17      0.0000      0.1460      0.1163      0.1500      0.0280      0.2205      0.2134      0.0475      0.0396
 18      4.6389      0.1555      0.2398      0.0956      0.0432      0.0008      0.1736      0.0386      0.1196
 19      0.0000      0.1748      0.0607      0.1608      0.0537      0.0000      0.2421      0.1164      0.0812
 20      0.0000      0.1512      0.0000      0.1182      0.0712      0.0825      0.1671      0.0549      0.1089
 21      0.0000      0.2580      0.0945      0.1380      0.0680      0.0465      0.4480      0.0000      0.0457
 22      0.7972      0.2177      0.1261      0.1584      0.0000      0.0198      0.7450      0.0570      0.0736
 23      0.0000      0.1937      0.0547      0.0000      0.0361      0.0010      0.0000      0.0946      0.0142
 24      0.0000      0.1647      0.0885      0.0134      0.0000      0.0736      0.7313      0.0000      0.0783
 25      0.0000      0.1669      0.0000      0.0935      0.0787      0.0672      0.7694      0.1387      0.0904
 26      0.0000      0.1446      0.0524      0.3103      0.1024      0.2539      0.2469      0.1234      0.1707
 27      0.0000      0.1448      0.0518      0.2215      0.0250      0.0000      0.0000      0.0699      0.2488
 28      5.2129      0.7992      0.7217      1.0510      0.8424      0.9204      0.7038      0.8323      0.4478
 29      0.0000      0.1346      0.2061      0.1006      0.0000      0.0882      1.4826      0.0122      0.0000
 30      0.0000      0.1192      0.0000      0.1122      0.0000      0.1216      0.0000      0.0000      0.1224
 31      0.0000      0.1683      0.1077      0.2228      0.0952      0.0456      0.3795      0.0000      0.1065
 32      2.3085      3.3948      3.5112      3.6916      3.6097      3.5297      3.5101      3.6295      3.7306
 33      0.0000      0.1902      0.0830      0.0814      0.0000      0.0095      0.3897      0.0680      0.0549
 34      0.0000      0.1927      0.3142      0.1252      0.0997      0.0299      0.1999      0.0340      0.0000
 35      0.0000      0.6882      0.6354      0.5320      0.7752      0.8271      0.0000      0.5626      0.6849
 36      0.0000      0.1957      0.0758      0.5266      0.1702      0.0000      1.3948      0.0536      0.0000
 37      0.0000      0.2035      0.0685      0.0000      0.0962      0.0992      0.1467      0.0000      0.1547
 38      0.0000      0.1932      0.0805      0.1492      0.0169      0.0716      0.1910      0.0955      0.1141
 39      0.0000      0.2224      0.0519      0.1789      0.0909      0.0557      0.1529      0.0113      0.0000
 40      0.0000      0.1758      0.0337      0.0000      0.0618      0.1407      0.2963      0.0244      0.0187
 41      0.0000      0.2418      0.0056      0.0020      0.0603      0.0521      0.2900      0.0339      0.0639
 42      0.0000      0.1595      0.0000      0.0019      0.0448      0.0000      0.0000      0.0489      0.1255
 43      1.6130      0.1645      0.1377      0.0000      0.0055      0.0000      0.7559      0.0409      0.1664
 44      0.0000      2.6757      2.8785      2.2841      2.9057      2.8879      3.1106      2.9576      2.8395
 45      1.8989      1.1257      1.1582      0.8842      1.1217      1.1016      1.7461      1.0836      1.0454
 46      4.1042      0.1428      0.1676      0.1228      0.0365      0.0786      0.0047      0.0000      0.1168
 47      0.0000      0.6080      0.5479      0.6595      0.6635      0.5699      0.6119      0.6803      0.4642
 48      0.0000      0.1719      0.0793      0.0553      0.0060      0.0062      0.6557      0.0579      0.0398
 49      0.0000      0.1451      0.1202      0.1572      0.0345      0.0021      0.0000      0.0405      0.1963
 50      7.9998      0.2992      0.4164      0.2688      0.1570      0.2622      0.0000      0.2670      0.3925
 51      9.7082      1.7167      1.7107      1.3827      1.8968      1.8496      3.0231      1.7845      1.6613
 52      0.0000      0.2200      0.0000      0.2359      0.0442      0.0084      0.0000      0.0000      0.2263
 53      0.0000      0.2190      0.2961      0.2795      0.1778      0.0973      0.0107      0.0921      0.1656
 54      0.0000      0.3475      0.0985      0.0000      0.1286      0.0196      0.2353      0.0962      0.1320
 55      0.0000      0.1943      0.0772      0.2063      0.1371      0.0610      0.1062      0.0000      0.0531
 56      0.0000      0.2617      0.1451      0.0000      0.0630      0.1097      0.0000      0.0761      0.0673
 57      1.1261      0.1988      0.1570      0.2076      0.0559      0.0468      0.2283      0.3344      0.0211
 58      3.7728      0.2435      0.1778      0.3545      0.0000      0.1314      0.1206      0.0391      0.0581
 59      4.8399      0.2165      0.1504      0.2427      0.0254      0.0663      0.0000      0.1392      0.0000
 60      0.0000      0.2462      0.1278      0.0998      0.1957      0.1284      0.5392      0.3506      0.1258
 61      0.0000      2.3595      2.7088      2.4994      2.6291      2.7105      1.7589      2.6633      2.5766
 62      0.0000      0.2057      0.0628      0.0000      0.1156      0.0169      0.6015      0.0889      0.1391
 63      0.0000     50.0481     52.6751     52.5472     53.5790     54.8985     40.4609     54.6319     53.2061
 64     22.9093     21.9690     22.9186     22.3991     23.2486     23.4493     22.8981     22.0664     23.2311
 65     13.7156      4.5837      4.8741      4.9095      5.0239      4.8054      4.8805      4.9128      4.8772
 66     22.6724      5.9560      6.4985      6.2144      6.5115      5.2381      5.7026      6.6122      6.5004

# j      m_j: min, <> & last-chain-values for 1 ...  7 chains
  1  0.0000E+00  6.0760E-04  8.6774E-05  6.0487E-04  8.0831E-05  3.3648E-04  1.3364E-03  4.3550E-04  4.2846E-04
  2  0.0000E+00  1.5652E-04  0.0000E+00  5.8852E-05  6.0017E-06  8.4481E-05  1.6672E-04  1.8842E-05  3.8711E-05
  3  0.0000E+00  2.3177E-04  0.0000E+00  5.1379E-05  3.4207E-05  0.0000E+00  8.3982E-04  1.2225E-04  1.3066E-04
  4  0.0000E+00  2.5247E-04  0.0000E+00  6.4796E-05  1.1116E-04  9.6360E-05  7.2386E-04  1.6697E-04  7.8832E-05
  5  0.0000E+00  4.3395E-04  1.3353E-04  6.9624E-05  6.0172E-05  1.9739E-04  0.0000E+00  0.0000E+00  6.0540E-05
  6  7.6321E-03  7.3171E-04  5.5856E-04  1.4812E-03  6.5432E-05  3.2557E-04  0.0000E+00  3.0104E-04  5.0071E-04
  7  0.0000E+00  9.9428E-04  6.5572E-04  0.0000E+00  4.0310E-04  4.0991E-04  1.6823E-03  2.2687E-04  6.1365E-05
  8  0.0000E+00  1.4927E-03  0.0000E+00  0.0000E+00  4.3113E-04  5.0393E-04  7.5753E-03  0.0000E+00  0.0000E+00
  9  0.0000E+00  1.5826E-03  2.6343E-03  0.0000E+00  0.0000E+00  7.7696E-05  0.0000E+00  0.0000E+00  8.0225E-04
 10  0.0000E+00  1.8764E-03  2.7147E-03  3.7699E-03  9.8385E-04  0.0000E+00  7.1243E-03  1.0647E-03  3.1569E-04
 11  0.0000E+00  3.6218E-03  2.4659E-03  4.4154E-03  1.5284E-03  1.0541E-03  8.1388E-03  9.1476E-04  6.9834E-04
 12  0.0000E+00  5.1539E-03  1.1513E-03  2.8440E-03  1.7320E-03  2.9497E-03  0.0000E+00  1.5027E-03  2.6295E-03
 13  0.0000E+00  1.7832E-02  8.5301E-03  3.9875E-03  9.2687E-03  1.1484E-03  6.8091E-02  1.6462E-02  0.0000E+00
 14  0.0000E+00  7.0643E-02  3.2710E-02  9.4053E-02  3.9062E-02  0.0000E+00  2.4979E-01  0.0000E+00  3.8642E-02
 15  0.0000E+00  1.1126E-01  4.5893E-02  4.8142E-02  2.0437E-02  0.0000E+00  0.0000E+00  1.3267E-02  3.9201E-02
 16  0.0000E+00  1.9121E-01  0.0000E+00  9.8108E-02  9.2370E-02  6.5256E-02  7.8858E-01  2.0581E-02  1.2551E-01
 17  0.0000E+00  1.8156E-01  1.3687E-01  1.8028E-01  3.2913E-02  2.7175E-01  2.7352E-01  5.6328E-02  4.6479E-02
 18  7.4648E-03  4.7972E-04  6.9954E-04  2.8501E-04  1.2612E-04  2.5075E-06  5.5175E-04  1.1336E-04  3.4819E-04
 19  0.0000E+00  2.1639E-04  7.1038E-05  1.9235E-04  6.2896E-05  0.0000E+00  3.0887E-04  1.3733E-04  9.4940E-05
 20  0.0000E+00  2.0441E-04  0.0000E+00  1.5435E-04  9.1014E-05  1.1042E-04  2.3272E-04  7.0717E-05  1.3894E-04
 21  0.0000E+00  4.2335E-04  1.4661E-04  2.1871E-04  1.0545E-04  7.5511E-05  7.5723E-04  0.0000E+00  7.0754E-05
 22  1.1538E-03  6.0398E-04  3.3091E-04  4.2459E-04  0.0000E+00  5.4469E-05  2.1294E-03  1.5081E-04  1.9284E-04
 23  0.0000E+00  7.2561E-04  1.9395E-04  0.0000E+00  1.2777E-04  3.6826E-06  0.0000E+00  3.3768E-04  5.0360E-05
 24  0.0000E+00  9.1796E-04  4.6668E-04  7.2211E-05  0.0000E+00  4.0620E-04  4.1997E-03  0.0000E+00  4.1217E-04
 25  0.0000E+00  1.2830E-03  0.0000E+00  6.9431E-04  5.7197E-04  5.1166E-04  6.0928E-03  1.0156E-03  6.5577E-04
 26  0.0000E+00  1.8577E-03  6.3658E-04  3.8522E-03  1.2440E-03  3.2311E-03  3.2680E-03  1.5113E-03  2.0700E-03
 27  0.0000E+00  3.7230E-03  1.2597E-03  5.5044E-03  6.0704E-04  0.0000E+00  0.0000E+00  1.7130E-03  6.0397E-03
 28  2.0293E-01  5.9641E-02  5.0941E-02  7.5788E-02  5.9445E-02  6.8049E-02  5.4111E-02  5.9195E-02  3.1550E-02
 29  0.0000E+00  1.7500E-02  2.5352E-02  1.2634E-02  0.0000E+00  1.1358E-02  1.9862E-01  1.5078E-03  0.0000E+00
 30  0.0000E+00  3.2388E-02  0.0000E+00  2.9457E-02  0.0000E+00  3.2734E-02  0.0000E+00  0.0000E+00  3.1392E-02
 31  0.0000E+00  8.0445E-02  4.8659E-02  1.0290E-01  4.3037E-02  2.1588E-02  1.8686E-01  0.0000E+00  4.8051E-02
 32  7.7434E-01  2.1829E+00  2.1353E+00  2.2936E+00  2.1947E+00  2.2486E+00  2.3254E+00  2.2242E+00  2.2646E+00
 33  0.0000E+00  2.7071E-01  1.1170E-01  1.1196E-01  0.0000E+00  1.3350E-02  5.7146E-01  9.2185E-02  7.3721E-02
 34  0.0000E+00  3.7141E-01  5.7289E-01  2.3324E-01  1.8176E-01  5.7139E-02  3.9695E-01  6.2548E-02  0.0000E+00
 35  0.0000E+00  1.7021E-03  1.4864E-03  1.2714E-03  1.8129E-03  2.0268E-03  0.0000E+00  1.3262E-03  1.5991E-03
 36  0.0000E+00  1.9580E-04  7.1766E-05  5.0919E-04  1.6107E-04  0.0000E+00  1.4380E-03  5.1140E-05  0.0000E+00
 37  0.0000E+00  2.2022E-04  7.0086E-05  0.0000E+00  9.8437E-05  1.0634E-04  1.6360E-04  0.0000E+00  1.5812E-04
 38  0.0000E+00  5.6643E-04  2.2337E-04  4.2283E-04  4.6873E-05  2.0793E-04  5.7707E-04  2.6681E-04  3.1592E-04
 39  0.0000E+00  9.3887E-04  2.0728E-04  7.2984E-04  3.6274E-04  2.3283E-04  6.6497E-04  4.5286E-05  0.0000E+00
 40  0.0000E+00  1.1994E-03  2.1755E-04  0.0000E+00  3.9876E-04  9.5152E-04  2.0834E-03  1.5863E-04  1.2043E-04
 41  0.0000E+00  2.5658E-03  5.5817E-05  2.0371E-05  6.0544E-04  5.4829E-04  3.1713E-03  3.4243E-04  6.4013E-04
 42  0.0000E+00  3.1082E-03  0.0000E+00  3.6173E-05  8.2627E-04  0.0000E+00  0.0000E+00  9.0786E-04  2.3088E-03
 43  2.3937E-02  4.6806E-03  3.7050E-03  0.0000E+00  1.4801E-04  0.0000E+00  2.2154E-02  1.1081E-03  4.4692E-03
 44  0.0000E+00  1.3106E-01  1.3335E-01  1.0810E-01  1.3457E-01  1.4015E-01  1.5698E-01  1.3806E-01  1.3130E-01
 45  9.6269E-02  1.0940E-01  1.0646E-01  8.3030E-02  1.0307E-01  1.0607E-01  1.7484E-01  1.0036E-01  9.5911E-02
 46  3.8246E-01  2.5505E-02  2.8317E-02  2.1194E-02  6.1633E-03  1.3908E-02  8.5863E-04  0.0000E+00  1.9703E-02
 47  0.0000E+00  2.2008E-01  1.8757E-01  2.3068E-01  2.2711E-01  2.0440E-01  2.2820E-01  2.3468E-01  1.5864E-01
 48  0.0000E+00  1.0976E-01  4.7907E-02  3.4084E-02  3.6365E-03  3.9181E-03  4.3126E-01  3.5251E-02  2.3961E-02
 49  0.0000E+00  2.1056E-01  1.6496E-01  2.2039E-01  4.7362E-02  2.9679E-03  0.0000E+00  5.5975E-02  2.6889E-01
 50  1.1214E+01  8.0415E-01  1.0584E+00  6.9797E-01  3.9891E-01  6.9811E-01  0.0000E+00  6.8376E-01  9.9573E-01
 51  7.4600E-03  2.5288E-03  2.3834E-03  1.9680E-03  2.6419E-03  2.6993E-03  4.5879E-03  2.5052E-03  2.3103E-03
 52  0.0000E+00  1.6606E-04  0.0000E+00  1.7204E-04  3.1582E-05  6.2786E-06  0.0000E+00  0.0000E+00  1.6129E-04
 53  0.0000E+00  2.4904E-04  3.1844E-04  3.0711E-04  1.9117E-04  1.0961E-04  1.2494E-05  9.9763E-05  1.7779E-04
 54  0.0000E+00  8.0953E-04  2.1697E-04  0.0000E+00  2.8331E-04  4.5300E-05  5.6474E-04  2.1350E-04  2.9037E-04
 55  0.0000E+00  6.9718E-04  2.6202E-04  7.1498E-04  4.6491E-04  2.1684E-04  3.9244E-04  0.0000E+00  1.7980E-04
 56  0.0000E+00  1.8584E-03  9.7471E-04  0.0000E+00  4.2323E-04  7.7166E-04  0.0000E+00  5.1517E-04  4.5092E-04
 57  5.5359E-03  1.8739E-03  1.3991E-03  1.8908E-03  4.9790E-04  4.3705E-04  2.2164E-03  3.0034E-03  1.8751E-04
 58  3.1373E-02  3.8821E-03  2.6806E-03  5.4601E-03  0.0000E+00  2.0759E-03  1.9813E-03  5.9448E-04  8.7504E-04
 59  8.6612E-02  7.4266E-03  4.8789E-03  8.0444E-03  8.2441E-04  2.2536E-03  0.0000E+00  4.5511E-03  0.0000E+00
 60  0.0000E+00  1.5685E-02  7.7012E-03  6.1462E-03  1.1792E-02  8.1082E-03  3.5396E-02  2.1291E-02  7.5693E-03
 61  0.0000E+00  3.2848E-01  3.5668E-01  3.3622E-01  3.4609E-01  3.7387E-01  2.5229E-01  3.5336E-01  3.3865E-01
 62  0.0000E+00  5.2223E-02  1.5079E-02  0.0000E+00  2.7756E-02  4.2416E-03  1.5730E-01  2.1498E-02  3.3346E-02
 63  0.0000E+00  2.5276E+01  2.5161E+01  2.5642E+01  2.5585E+01  2.7469E+01  2.1053E+01  2.6295E+01  2.5367E+01
 64  1.6694E+01  3.0688E+01  3.0279E+01  3.0233E+01  3.0707E+01  3.2453E+01  3.2955E+01  2.9376E+01  3.0635E+01
 65  2.1127E+01  1.3535E+01  1.3612E+01  1.4008E+01  1.4027E+01  1.4058E+01  1.4848E+01  1.3825E+01  1.3596E+01
 66  4.9337E+01  2.4845E+01  2.5639E+01  2.5049E+01  2.5683E+01  2.1649E+01  2.4509E+01  2.6287E+01  2.5599E+01

# AV, chi2 & Mass for <> & i_chain = 1 ...  7 solutions
AV      -0.8318     -0.8027     -0.8057     -0.7851     -0.8120     -0.7981     -0.6496     -0.8048     -0.8094
chi2 1.2357E-05  2.1568E-05  1.6280E-05  1.6384E-05  1.6541E-05  1.6494E-05  1.6356E-05  1.6629E-05  1.6579E-05
Mass 1.0046E-12  5.4500E-13  5.7388E-13  5.7754E-13  5.6922E-13  5.5348E-13  6.4968E-13  5.7021E-13  5.7213E-13
  50.28                                  [v0_min (km/s) before EX0s...]
 204.36                                  [vd_min (km/s) before EX0s...]


## Synthetic spectrum (Best Model) ##l_obs f_obs f_syn wei
 3478    [Nl_obs]
 3741.00    0.50400   0.63628    0.000
 3742.00    0.54219   0.64240    0.000
 3743.00    0.53045   0.63400    0.000
 3744.00    0.50645   0.61412    0.000
 3745.00    0.47531   0.58772   -1.000
 3746.00    0.47250   0.56014   -1.000
 3747.00    0.48407   0.53635   -1.000
 3748.00    0.48751   0.52075   -1.000
 3749.00    0.48737   0.51704   -1.000
 3750.00    0.49637   0.52749   -1.000
 3751.00    0.50882   0.55174   -1.000
 3752.00    0.52298   0.58610   -1.000
 3753.00    0.53770   0.62395   -1.000
 3754.00    0.56177   0.65748   -1.000
 3755.00    0.58835   0.68017   -1.000
 3756.00    0.55630   0.68898   -1.000
 3757.00    0.51139   0.68541   -1.000
 3758.00    0.52544   0.67459   -1.000
 3759.00    0.54977   0.66285   -1.000
 3760.00    0.58727   0.65476   -1.000
 3761.00    0.62651   0.65160   -1.000
 3762.00    0.59995   0.65167   -1.000
 3763.00    0.56720   0.65220   -1.000
 3764.00    0.57126   0.65117   -1.000
 3765.00    0.57745   0.64824   -1.000
 3766.00    0.59432   0.64459   -1.000
 3767.00    0.61138   0.64216   -1.000
 3768.00    0.62050   0.64293   -1.000
 3769.00    0.62971   0.64823   -1.000
 3770.00    0.64114   0.65845   -1.000
 3771.00    0.64887   0.67299   -1.000
 3772.00    0.60814   0.69047   -1.000
 3773.00    0.57418   0.70921   -1.000
 3774.00    0.59967   0.72774   -1.000
 3775.00    0.62723   0.74531   -1.000
 3776.00    0.66821   0.76199   -1.000
 3777.00    0.70131   0.77833   -1.000
 3778.00    0.69457   0.79471   -1.000
 3779.00    0.68971   0.81088   -1.000
 3780.00    0.69257   0.82567   -1.000
 3781.00    0.68950   0.83718   -1.000
 3782.00    0.66633   0.84315   -1.000
 3783.00    0.65433   0.84152   -1.000
 3784.00    0.67427   0.83098   -1.000
 3785.00    0.67793   0.81172   -1.000
 3786.00    0.64180   0.78584   -1.000
 3787.00    0.61084   0.75708   -1.000
 3788.00    0.59078   0.72967   -1.000
 3789.00    0.57064   0.70671   -1.000
 3790.00    0.55039   0.68902   -1.000
 3791.00    0.53643   0.67493   -1.000
 3792.00    0.53255   0.66143   -1.000
 3793.00    0.54768   0.64573   -1.000
 3794.00    0.58951   0.62678   -1.000
 3795.00    0.59316   0.60573   -1.000
 3796.00    0.54963   0.58571   -1.000
 3797.00    0.50699   0.57087   -1.000
 3798.00    0.46531   0.56528   -1.000
 3799.00    0.45953   0.57161   -1.000
 3800.00    0.48824   0.59017   -1.000
 3801.00    0.52506   0.61836   -1.000
 3802.00    0.56875   0.65129   -1.000
 3803.00    0.61153   0.68326   -1.000
 3804.00    0.65365   0.70965   -1.000
 3805.00    0.69309   0.72840   -1.000
 3806.00    0.73076   0.74027   -1.000
 3807.00    0.73935   0.74774   -1.000
 3808.00    0.73125   0.75330   -1.000
 3809.00    0.69317   0.75776   -1.000
 3810.00    0.64013   0.75984   -1.000
 3811.00    0.57787   0.75709   -1.000
 3812.00    0.51162   0.74771   -1.000
 3813.00    0.48602   0.73184   -1.000
 3814.00    0.47549   0.71179   -1.000
 3815.00    0.46147   0.69084   -1.000
 3816.00    0.44636   0.67169   -1.000
 3817.00    0.48326   0.65550   -1.000
 3818.00    0.53379   0.64204   -1.000
 3819.00    0.52406   0.63056   -1.000
 3820.00    0.50141   0.62061   -1.000
 3821.00    0.47186   0.61204   -1.000
 3822.00    0.44113   0.60451   -1.000
 3823.00    0.42367   0.59722   -1.000
 3824.00    0.40792   0.58926   -1.000
 3825.00    0.42894   0.58028   -1.000
 3826.00    0.45326   0.57075   -1.000
 3827.00    0.47432   0.56146   -1.000
 3828.00    0.49520   0.55265   -1.000
 3829.00    0.47540   0.54358   -1.000
 3830.00    0.45476   0.53294   -1.000
 3831.00    0.43128   0.51983   -1.000
 3832.00    0.40900   0.50464   -1.000
 3833.00    0.41338   0.48922   -1.000
 3834.00    0.41685   0.47622   -1.000
 3835.00    0.40906   0.46804   -1.000
 3836.00    0.40337   0.46600   -1.000
 3837.00    0.41537   0.47032   -1.000
 3838.00    0.42889   0.48063   -1.000
 3839.00    0.45193   0.49657   -1.000
 3840.00    0.45995   0.51786   -1.000
 3841.00    0.39379   0.54380   -1.000
 3842.00    0.34998   0.57276   -1.000
 3843.00    0.39567   0.60213   -1.000
 3844.00    0.43870   0.62894   -1.000
 3845.00    0.47287   0.65073   -1.000
 3846.00    0.50334   0.66627   -1.000
 3847.00    0.52339   0.67572    0.000
 3848.00    0.54545   0.68031    0.000
 3849.00    0.57232   0.68180    0.000
 3850.00    0.57856   0.68181    0.000
 3851.00    0.54204   0.68132    0.000
 3852.00    0.51297   0.68035    0.000
 3853.00    0.49735   0.67815    0.000
 3854.00    0.49716   0.67380    0.000
 3855.00    0.52134   0.66688    0.000
 3856.00    0.52603   0.65797    0.000
 3857.00    0.50376   0.64863    0.000
 3858.00    0.47835   0.64100    0.000
 3859.00    0.44913   0.63728    0.000
 3860.00    0.45772   0.63896    0.000
 3861.00    0.50692   0.64622    0.000
 3862.00    0.54243   0.65756    0.000
 3863.00    0.56497   0.67018    0.000
 3864.00    0.56676   0.68098    0.000
 3865.00    0.55121   0.68763    0.000
 3866.00    0.56705   0.68923    0.000
 3867.00    0.60598   0.68618    0.000
 3868.00    0.61230   0.67975    0.000
 3869.00    0.59755   0.67157    0.000
 3870.00    0.57569   0.66358    0.000
 3871.00    0.54981   0.65775    0.000
 3872.00    0.53042   0.65565    0.000
 3873.00    0.51423   0.65757    0.000
 3874.00    0.51401   0.66209    0.000
 3875.00    0.52059   0.66646    0.000
 3876.00    0.53799   0.66778    0.000
 3877.00    0.55934   0.66449    0.000
 3878.00    0.55674   0.65704    0.000
 3879.00    0.54677   0.64743    0.000
 3880.00    0.53522   0.63791    0.000
 3881.00    0.52327   0.62969   -1.000
 3882.00    0.51702   0.62249   -1.000
 3883.00    0.51195   0.61488   -1.000
 3884.00    0.57170   0.60536   -1.000
 3885.00    0.64213   0.59362   -1.000
 3886.00    0.59843   0.58124   -1.000
 3887.00    0.54060   0.57171   -1.000
 3888.00    0.52889   0.56920   -1.000
 3889.00    0.52112   0.57686   -1.000
 3890.00    0.57845   0.59517   -1.000
 3891.00    0.63902   0.62150   -1.000
 3892.00    0.67264   0.65120   -1.000
 3893.00    0.70496   0.67941   -1.000
 3894.00    0.68099   0.70269   -1.000
 3895.00    0.65809   0.71978   -1.000
 3896.00    0.65721   0.73148   -1.000
 3897.00    0.65807   0.73948   -1.000
 3898.00    0.67970   0.74543   -1.000
 3899.00    0.69864   0.75033   -1.000
 3900.00    0.69560   0.75450   -1.000
 3901.00    0.68782   0.75777   -1.000
 3902.00    0.65104   0.75990   -1.000
 3903.00    0.61762   0.76109   -1.000
 3904.00    0.60046   0.76236   -1.000
 3905.00    0.59407   0.76556   -1.000
 3906.00    0.62985   0.77271   -1.000
 3907.00    0.65722   0.78501   -1.000
 3908.00    0.65722   0.80199   -1.000
 3909.00    0.65458   0.82164   -1.000
 3910.00    0.64464   0.84103   -1.000
 3911.00    0.65308   0.85721   -1.000
 3912.00    0.70488   0.86817   -1.000
 3913.00    0.74894   0.87299   -1.000
 3914.00    0.77720   0.87153   -1.000
 3915.00    0.77642   0.86412   -1.000
 3916.00    0.72410   0.85137   -1.000
 3917.00    0.70742   0.83418   -1.000
 3918.00    0.74612   0.81380   -1.000
 3919.00    0.73954   0.79204   -1.000
 3920.00    0.67118   0.77104   -1.000
 3921.00    0.62017   0.75272   -1.000
 3922.00    0.59001   0.73799   -1.000
 3923.00    0.57914   0.72631   -1.000
 3924.00    0.58872   0.71555   -1.000
 3925.00    0.58466   0.70278   -1.000
 3926.00    0.56786   0.68543   -1.000
 3927.00    0.53033   0.66227   -1.000
 3928.00    0.47574   0.63378   -1.000
 3929.00    0.40860   0.60191   -1.000
 3930.00    0.33236   0.56954   -1.000
 3931.00    0.29681   0.53977   -1.000
 3932.00    0.28716   0.51557   -1.000
 3933.00    0.29989   0.49953   -1.000
 3934.00    0.32509   0.49356   -1.000
 3935.00    0.30456   0.49863   -1.000
 3936.00    0.26190   0.51427   -1.000
 3937.00    0.29321   0.53846   -1.000
 3938.00    0.35545   0.56784   -1.000
 3939.00    0.41601   0.59843   -1.000
 3940.00    0.47597   0.62673   -1.000
 3941.00    0.49252   0.65064   -1.000
 3942.00    0.49594   0.67003   -1.000
 3943.00    0.52769   0.68642   -1.000
 3944.00    0.56656   0.70213   -1.000
 3945.00    0.60704   0.71906   -1.000
 3946.00    0.64785   0.73796   -1.000
 3947.00    0.67002   0.75825   -1.000
 3948.00    0.68919   0.77848   -1.000
 3949.00    0.68687   0.79708   -1.000
 3950.00    0.68199   0.81292   -1.000
 3951.00    0.71932   0.82523   -1.000
 3952.00    0.76009   0.83356   -1.000
 3953.00    0.75772   0.83778   -1.000
 3954.00    0.75337   0.83784   -1.000
 3955.00    0.71453   0.83351   -1.000
 3956.00    0.67731   0.82444   -1.000
 3957.00    0.74799   0.81021   -1.000
 3958.00    0.80791   0.79041   -1.000
 3959.00    0.66418   0.76458   -1.000
 3960.00    0.53039   0.73255    0.000
 3961.00    0.50849   0.69523    0.000
 3962.00    0.48682   0.65434    0.000
 3963.00    0.46701   0.61181    0.000
 3964.00    0.44442   0.56929    0.000
 3965.00    0.40538   0.52819    0.000
 3966.00    0.37559   0.49005    0.000
 3967.00    0.38926   0.45695    0.000
 3968.00    0.38774   0.43162    0.000
 3969.00    0.32801   0.41720    0.000
 3970.00    0.29419   0.41656    0.000
 3971.00    0.34318   0.43110    0.000
 3972.00    0.37869   0.46004    0.000
 3973.00    0.37773   0.50069    0.000
 3974.00    0.40720   0.54925    0.000
 3975.00    0.50733   0.60177    0.000
 3976.00    0.60058   0.65470    0.000
 3977.00    0.68002   0.70514    0.000
 3978.00    0.73714   0.75089    0.000
 3979.00    0.75521   0.79039    0.000
 3980.00    0.76055   0.82269    0.000
 3981.00    0.74638   0.84774   -1.000
 3982.00    0.72567   0.86662   -1.000
 3983.00    0.69616   0.88129   -1.000
 3984.00    0.72667   0.89390   -1.000
 3985.00    0.82827   0.90623   -1.000
 3986.00    0.88485   0.91903   -1.000
 3987.00    0.89443   0.93211   -1.000
 3988.00    0.89334   0.94459   -1.000
 3989.00    0.88243   0.95549   -1.000
 3990.00    0.89859   0.96424   -1.000
 3991.00    0.93673   0.97068   -1.000
 3992.00    0.95358   0.97487   -1.000
 3993.00    0.95522   0.97676   -1.000
 3994.00    0.95835   0.97646   -1.000
 3995.00    0.96243   0.97494   -1.000
 3996.00    0.94465   0.97379   -1.000
 3997.00    0.91491   0.97485   -1.000
 3998.00    0.90765   0.97967   -1.000
 3999.00    0.91112   0.98846   -1.000
 4000.00    0.90804   0.99942   -1.000
 4001.00    0.90228   1.00913   -1.000
 4002.00    0.89475   1.01412   -1.000
 4003.00    0.88660   1.01260   -1.000
 4004.00    0.89891   1.00518   -1.000
 4005.00    0.91729   0.99500   -1.000
 4006.00    0.91517   0.98667   -1.000
 4007.00    0.90802   0.98402   -1.000
 4008.00    0.92880   0.98835   -1.000
 4009.00    0.95512   0.99877   -1.000
 4010.00    0.98757   1.01299   -1.000
 4011.00    1.02097   1.02796   -1.000
 4012.00    1.01933   1.04111   -1.000
 4013.00    1.01366   1.05149   -1.000
 4014.00    1.03412   1.05948   -1.000
 4015.00    1.05659   1.06567   -1.000
 4016.00    1.02100   1.07034   -1.000
 4017.00    0.98297   1.07359   -1.000
 4018.00    1.05118   1.07538   -1.000
 4019.00    1.11831   1.07557   -1.000
 4020.00    1.09567   1.07386   -1.000
 4021.00    1.07515   1.07007   -1.000
 4022.00    1.09207   1.06476   -1.000
 4023.00    1.10651   1.05876   -1.000
 4024.00    1.09418   1.05292   -1.000
 4025.00    1.08165   1.04810   -1.000
 4026.00    1.06755   1.04420   -1.000
 4027.00    1.04839   1.03919   -1.000
 4028.00    1.00000   1.03014   -1.000
 4029.00    0.96066   1.01516   -1.000
 4030.00    0.96281   0.99446   -1.000
 4031.00    0.95550   0.97096   -1.000
 4032.00    0.91277   0.95009   -1.000
 4033.00    0.87868   0.93794   -1.000
 4034.00    0.87171   0.93886   -1.000
 4035.00    0.91727   0.95393   -1.000
 4036.00    1.10259   0.97971   -1.000
 4037.00    1.21073   1.00943   -1.000
 4038.00    1.14267   1.03612   -1.000
 4039.00    1.08983   1.05399   -1.000
 4040.00    1.06712   1.05923   -1.000
 4041.00    1.03831   1.05075   -1.000
 4042.00    0.99900   1.03023   -1.000
 4043.00    0.95526   1.00202   -1.000
 4044.00    0.90486   0.97224   -1.000
 4045.00    0.88629   0.94754   -1.000
 4046.00    0.90992   0.93374   -1.000
 4047.00    0.94739   0.93385   -1.000
 4048.00    1.00102   0.94765   -1.000
 4049.00    1.02757   0.97142   -1.000
 4050.00    1.02624   0.99835   -1.000
 4051.00    0.99736   1.02055   -1.000
 4052.00    0.94346   1.03215   -1.000
 4053.00    0.92519   1.03212   -1.000
 4054.00    0.93543   1.02335   -1.000
 4055.00    0.92319   1.00967   -1.000
 4056.00    0.89512   0.99481   -1.000
 4057.00    0.87744   0.98165   -1.000
 4058.00    0.86617   0.97116   -1.000
 4059.00    0.88437   0.96267   -1.000
 4060.00    0.91846   0.95454   -1.000
 4061.00    0.88697   0.94501   -1.000
 4062.00    0.82473   0.93425   -1.000
 4063.00    0.80439   0.92416   -1.000
 4064.00    0.80098   0.91689   -1.000
 4065.00    0.85519   0.91462   -1.000
 4066.00    0.92927   0.91872   -1.000
 4067.00    0.93288   0.92861   -1.000
 4068.00    0.91602   0.94131   -1.000
 4069.00    0.88836   0.95225   -1.000
 4070.00    0.85811   0.95801   -1.000
 4071.00    0.88543   0.95885   -1.000
 4072.00    0.92390   0.95662   -1.000
 4073.00    0.98426   0.95218   -1.000
 4074.00    1.04792   0.94629   -1.000
 4075.00    1.02404   0.94091   -1.000
 4076.00    0.99047   0.93830   -1.000
 4077.00    0.92388   0.93933   -1.000
 4078.00    0.85487   0.94449   -1.000
 4079.00    0.86065   0.95518   -1.000
 4080.00    0.86930   0.97169   -1.000
 4081.00    0.86046   0.99163   -1.000
 4082.00    0.85401   1.01101   -1.000
 4083.00    0.94137   1.02647   -1.000
 4084.00    1.02154   1.03731   -1.000
 4085.00    0.98338   1.04527   -1.000
 4086.00    0.95084   1.05280   -1.000
 4087.00    0.97615   1.06157   -1.000
 4088.00    0.99402   1.07095   -1.000
 4089.00    0.95733   1.07818   -1.000
 4090.00    0.93517   1.08028   -1.000
 4091.00    0.99448   1.07523   -1.000
 4092.00    1.04461   1.06233    0.000
 4093.00    1.05362   1.04241    0.000
 4094.00    1.04465   1.01715    0.000
 4095.00    0.96964   0.98794    0.000
 4096.00    0.91647   0.95597    0.000
 4097.00    0.93049   0.92255    0.000
 4098.00    0.92705   0.88909    0.000
 4099.00    0.87801   0.85818    0.000
 4100.00    0.85675   0.83344    0.000
 4101.00    0.89788   0.81756    0.000
 4102.00    0.91911   0.81219    0.000
 4103.00    0.90161   0.81816    0.000
 4104.00    0.88429   0.83496    0.000
 4105.00    0.86726   0.86016    0.000
 4106.00    0.86490   0.88895    0.000
 4107.00    0.88432   0.91552    0.000
 4108.00    0.91254   0.93621    0.000
 4109.00    0.95225   0.95047    0.000
 4110.00    0.97036   0.95962    0.000
 4111.00    0.96361   0.96621    0.000
 4112.00    0.96353   0.97290    0.000
 4113.00    0.97020   0.98092   -1.000
 4114.00    0.97155   0.98984   -1.000
 4115.00    0.96813   0.99807   -1.000
 4116.00    0.96887   1.00362   -1.000
 4117.00    0.97288   1.00514   -1.000
 4118.00    1.00024   1.00275   -1.000
 4119.00    1.04381   0.99825   -1.000
 4120.00    1.00357   0.99381   -1.000
 4121.00    0.91234   0.99099   -1.000
 4122.00    0.85259   0.99099   -1.000
 4123.00    0.80957   0.99381   -1.000
 4124.00    0.83683   0.99737   -1.000
 4125.00    0.89649   0.99917   -1.000
 4126.00    0.95695   0.99782   -1.000
 4127.00    1.01772   0.99253   -1.000
 4128.00    0.99847   0.98272   -1.000
 4129.00    0.95214   0.96891   -1.000
 4130.00    0.89379   0.95357   -1.000
 4131.00    0.83202   0.94006   -1.000
 4132.00    0.84303   0.93112   -1.000
 4133.00    0.87113   0.92855   -1.000
 4134.00    0.89190   0.93315   -1.000
 4135.00    0.91129   0.94459   -1.000
 4136.00    0.92159   0.96096   -1.000
 4137.00    0.93056   0.97793   -1.000
 4138.00    0.90527   0.99038   -1.000
 4139.00    0.87633   0.99438   -1.000
 4140.00    0.87085   0.98827   -1.000
 4141.00    0.86701   0.97387   -1.000
 4142.00    0.89987   0.95505   -1.000
 4143.00    0.93400   0.93608   -1.000
 4144.00    0.92569   0.92114   -1.000
 4145.00    0.91626   0.91306   -1.000
 4146.00    0.87273   0.91305   -1.000
 4147.00    0.83111   0.91996   -1.000
 4148.00    0.81883   0.92942   -1.000
 4149.00    0.81332   0.93599   -1.000
 4150.00    0.87465   0.93742   -1.000
 4151.00    0.92135   0.93477   -1.000
 4152.00    0.86425   0.93008   -1.000
 4153.00    0.82459   0.92572   -1.000
 4154.00    0.88020   0.92356   -1.000
 4155.00    0.92830   0.92439   -1.000
 4156.00    0.94356   0.92881   -1.000
 4157.00    0.95390   0.93733   -1.000
 4158.00    0.94658   0.94986   -1.000
 4159.00    0.93009   0.96501   -1.000
 4160.00    0.88594   0.98083   -1.000
 4161.00    0.87381   0.99522   -1.000
 4162.00    0.94390   1.00551   -1.000
 4163.00    0.98954   1.01011   -1.000
 4164.00    0.98120   1.00938   -1.000
 4165.00    0.98202   1.00463   -1.000
 4166.00    1.00040   0.99649   -1.000
 4167.00    0.99264   0.98575   -1.000
 4168.00    0.94120   0.97416   -1.000
 4169.00    0.89998   0.96249   -1.000
 4170.00    0.87374   0.95040   -1.000
 4171.00    0.83999   0.93820   -1.000
 4172.00    0.79657   0.92599   -1.000
 4173.00    0.80174   0.91379   -1.000
 4174.00    0.86203   0.90321   -1.000
 4175.00    0.87279   0.89665   -1.000
 4176.00    0.83399   0.89579   -1.000
 4177.00    0.83637   0.89976   -1.000
 4178.00    0.87509   0.90596   -1.000
 4179.00    0.89524   0.91274   -1.000
 4180.00    0.90094   0.91995   -1.000
 4181.00    0.89704   0.92779   -1.000
 4182.00    0.88657   0.93572   -1.000
 4183.00    0.85488   0.94251   -1.000
 4184.00    0.81047   0.94755   -1.000
 4185.00    0.83396   0.95125   -1.000
 4186.00    0.89296   0.95398   -1.000
 4187.00    0.93233   0.95571   -1.000
 4188.00    0.96280   0.95689   -1.000
 4189.00    0.97123   0.95802   -1.000
 4190.00    0.97107   0.96052   -1.000
 4191.00    0.92635   0.96550   -1.000
 4192.00    0.86685   0.97002   -1.000
 4193.00    0.86173   0.96955   -1.000
 4194.00    0.87177   0.96284   -1.000
 4195.00    0.92967   0.95148   -1.000
 4196.00    0.99854   0.93617   -1.000
 4197.00    0.96646   0.91766   -1.000
 4198.00    0.91582   0.89974   -1.000
 4199.00    0.90654   0.88706   -1.000
 4200.00    0.90311   0.88170   -1.000
 4201.00    0.93039   0.88362   -1.000
 4202.00    0.96080   0.89258   -1.000
 4203.00    0.95801   0.90736   -1.000
 4204.00    0.95306   0.92543   -1.000
 4205.00    0.93700   0.94554   -1.000
 4206.00    0.92063   0.96642   -1.000
 4207.00    0.91826   0.98486   -1.000
 4208.00    0.91715   0.99858   -1.000
 4209.00    0.95321   1.00696   -1.000
 4210.00    0.98717   1.00933   -1.000
 4211.00    0.99043   1.00608   -1.000
 4212.00    0.99310   0.99900    2.713
 4213.00    0.99025   0.99118    0.237
 4214.00    0.99148   0.98591    0.132
 4215.00    1.02073   0.98460    0.131
 4216.00    1.04877   0.98786    0.130
 4217.00    1.07032   0.99631    0.129
 4218.00    1.08621   1.00894    0.128
 4219.00    1.07788   1.02258    0.129
 4220.00    1.07480   1.03039    0.129
 4221.00    1.09016   1.02437    0.129
 4222.00    1.07770   1.00213    0.129
 4223.00    0.98285   0.96732    0.129
 4224.00    0.89638   0.92581    0.128
 4225.00    0.83103   0.88475    0.124
 4226.00    0.80052   0.85281    0.122
 4227.00    0.84572   0.83668    0.123
 4228.00    0.88280   0.83837    0.124
 4229.00    0.90457   0.85656    0.122
 4230.00    0.93319   0.88698    0.122
 4231.00    0.97305   0.92102    0.123
 4232.00    0.99682   0.94839    0.124
 4233.00    0.99737   0.96445    0.123
 4234.00    1.00084   0.97043    0.123
 4235.00    1.00799   0.96959    0.123
 4236.00    0.99537   0.96751    0.122
 4237.00    0.96062   0.96914    0.122
 4238.00    0.96153   0.97518    0.121
 4239.00    0.99763   0.98609    0.122
 4240.00    1.01678   1.00269    0.122
 4241.00    1.02118   1.02235    0.121
 4242.00    1.02106   1.04178    0.122
 4243.00    1.01748   1.05879    0.125
 4244.00    1.00206   1.07032    0.126
 4245.00    0.97867   1.07306    0.125
 4246.00    1.01653   1.06650    0.127
 4247.00    1.09056   1.05203    0.131
 4248.00    1.09332   1.03070    0.133
 4249.00    1.05940   1.00553    0.134
 4250.00    1.02122   0.98166    0.133
 4251.00    0.98114   0.96323    0.132
 4252.00    0.96739   0.95178    0.131
 4253.00    0.96372   0.94741    0.130
 4254.00    0.97053   0.94940    0.129
 4255.00    0.98076   0.95410    0.128
 4256.00    0.98054   0.95742    0.128
 4257.00    0.97747   0.96002    0.127
 4258.00    1.00601   0.96462    0.128
 4259.00    1.04163   0.97091    0.129
 4260.00    1.02619   0.97718    0.129
 4261.00    1.00161   0.98489    0.130
 4262.00    1.02900   0.99782    0.131
 4263.00    1.06349   1.01686    0.132
 4264.00    1.04234   1.03867    0.131
 4265.00    1.01576   1.05655    0.131
 4266.00    1.04826   1.06265    0.131
 4267.00    1.08438   1.05326    0.131
 4268.00    1.08424   1.03023    0.138
 4269.00    1.08282   0.99724    0.146
 4270.00    1.02192   0.95888    0.146
 4271.00    0.96102   0.92210    0.145
 4272.00    0.90034   0.89345    0.143
 4273.00    0.84389   0.87709    0.141
 4274.00    0.84541   0.87612    0.132
 4275.00    0.85401   0.89067    0.124
 4276.00    0.92693   0.91507    0.125
 4277.00    0.98802   0.94254    0.126
 4278.00    0.97029   0.96954    0.127
 4279.00    0.95862   0.99246    0.127
 4280.00    0.97834   1.00703    0.126
 4281.00    0.98320   1.01166    0.124
 4282.00    0.92607   1.00855   -2.000
 4283.00    0.90127   1.00190   -2.000
 4284.00    0.98810   0.99408   -2.000
 4285.00    1.04562   0.98377   -2.000
 4286.00    1.01796   0.97008   -2.000
 4287.00    1.00125   0.95401   -2.000
 4288.00    1.01168   0.93784   -2.000
 4289.00    1.01313   0.92450   -2.000
 4290.00    0.99539   0.91477   -2.000
 4291.00    0.96624   0.90879   -2.000
 4292.00    0.91592   0.90793   -2.000
 4293.00    0.89589   0.91239   -2.000
 4294.00    0.92500   0.91796   -2.000
 4295.00    0.92738   0.91784   -2.000
 4296.00    0.89175   0.90821   -2.000
 4297.00    0.86013   0.89066   -2.000
 4298.00    0.83354   0.86855    0.119
 4299.00    0.82285   0.84390    0.119
 4300.00    0.82971   0.81927    0.118
 4301.00    0.82679   0.79783    0.117
 4302.00    0.81437   0.78213    0.118
 4303.00    0.77717   0.77266    0.117
 4304.00    0.71870   0.76620    0.115
 4305.00    0.70245   0.75995    0.115
 4306.00    0.71812   0.75432    0.116
 4307.00    0.73963   0.75061    0.116
 4308.00    0.76502   0.75048    0.115
 4309.00    0.76231   0.75705    0.115
 4310.00    0.74326   0.77321    0.115
 4311.00    0.77156   0.80146    0.114
 4312.00    0.82385   0.84232    0.114
 4313.00    0.88555   0.89209    0.114
 4314.00    0.95137   0.94573    0.115
 4315.00    0.98821   0.99924    0.116
 4316.00    1.01412   1.04850    0.117
 4317.00    1.05687   1.09001    0.117
 4318.00    1.10500   1.12067    0.118
 4319.00    1.14837   1.13476    0.119
 4320.00    1.19047   1.12849    0.121
 4321.00    1.18118   1.10461    0.121
 4322.00    1.16065   1.06966    0.120
 4323.00    1.07160   1.03129    0.119
 4324.00    0.97063   0.99679    0.118
 4325.00    0.94970   0.97116    0.117
 4326.00    0.93937   0.95776    0.117
 4327.00    0.97546   0.96042    0.117
 4328.00    1.01588   0.98049    0.117
 4329.00    1.07729   1.01380    0.117
 4330.00    1.13989   1.05096    0.000
 4331.00    1.13361   1.08180    0.000
 4332.00    1.12613   1.10051    0.000
 4333.00    1.16396   1.10631    0.000
 4334.00    1.20013   1.10055    0.000
 4335.00    1.19638   1.08295    0.000
 4336.00    1.18711   1.05350    0.000
 4337.00    1.10585   1.01591    0.000
 4338.00    1.03087   0.97528    0.000
 4339.00    1.01083   0.93675    0.000
 4340.00    0.99610   0.90851    0.000
 4341.00    1.01568   0.89765    0.000
 4342.00    1.03679   0.90424    0.000
 4343.00    1.06561   0.92555    0.000
 4344.00    1.09324   0.95792    0.000
 4345.00    1.11596   0.99376    0.000
 4346.00    1.12687   1.02560    0.000
 4347.00    1.09784   1.05002    0.000
 4348.00    1.08040   1.06494    0.000
 4349.00    1.09601   1.07009    0.000
 4350.00    1.09255   1.06840    0.000
 4351.00    1.04257   1.06245   -1.000
 4352.00    1.01603   1.05316   -1.000
 4353.00    1.03883   1.04386   -1.000
 4354.00    1.06070   1.04128   -1.000
 4355.00    1.08088   1.04908   -1.000
 4356.00    1.10048   1.06371   -1.000
 4357.00    1.11918   1.08004   -1.000
 4358.00    1.13197   1.09627   -1.000
 4359.00    1.13646   1.11153   -1.000
 4360.00    1.16821   1.12474   -1.000
 4361.00    1.23359   1.13717   -1.000
 4362.00    1.25437   1.15091    0.494
 4363.00    1.22666   1.16434    0.160
 4364.00    1.20035   1.17310    0.120
 4365.00    1.17537   1.17543    0.120
 4366.00    1.17315   1.17277    0.120
 4367.00    1.19018   1.16577    0.120
 4368.00    1.18060   1.15336    0.120
 4369.00    1.15120   1.13663    0.120
 4370.00    1.12971   1.11918    0.120
 4371.00    1.11340   1.10340    0.119
 4372.00    1.10145   1.08909    0.119
 4373.00    1.09201   1.07662    0.118
 4374.00    1.07759   1.06685    0.118
 4375.00    1.06069   1.05930    0.117
 4376.00    1.04960   1.05373    0.118
 4377.00    1.04102   1.05106    0.118
 4378.00    1.05471   1.04964    0.118
 4379.00    1.07664   1.04344    0.119
 4380.00    1.05670   1.02651    0.118
 4381.00    1.02362   0.99909    0.117
 4382.00    0.98874   0.96706    0.117
 4383.00    0.95338   0.93668    0.117
 4384.00    0.97459   0.91161    0.116
 4385.00    1.00787   0.89581    0.115
 4386.00    1.01130   0.89505    0.115
 4387.00    1.00967   0.91085    0.115
 4388.00    1.00174   0.93634    0.114
 4389.00    0.99300   0.96166    0.114
 4390.00    1.01437   0.98249    0.115
 4391.00    1.03843   0.99995    0.116
 4392.00    1.01748   1.01636    0.115
 4393.00    0.99413   1.03371    0.115
 4394.00    1.02719   1.05184    0.116
 4395.00    1.06128   1.06797    0.116
 4396.00    1.09006   1.07984    0.116
 4397.00    1.11647   1.08824    0.116
 4398.00    1.09101   1.09504    0.115
 4399.00    1.07144   1.09711    0.114
 4400.00    1.12481   1.08824    0.116
 4401.00    1.16451   1.06832    0.118
 4402.00    1.08925   1.04366    0.117
 4403.00    1.02720   1.02096    0.116
 4404.00    1.04798   1.00251    0.117
 4405.00    1.06158   0.98651    0.117
 4406.00    1.03992   0.97551    0.116
 4407.00    1.02382   0.97774    0.115
 4408.00    1.02992   0.99568    0.114
 4409.00    1.03781   1.02144    0.114
 4410.00    1.05160   1.04685    0.114
 4411.00    1.06901   1.06926    0.115
 4412.00    1.09660   1.08692    0.115
 4413.00    1.13445   1.09706    0.115
 4414.00    1.19689   1.09972    0.116
 4415.00    1.22306   1.09756    0.116
 4416.00    1.17418   1.09336    0.116
 4417.00    1.14089   1.09203    0.116
 4418.00    1.13569   1.09775    0.115
 4419.00    1.13142   1.10778    0.115
 4420.00    1.12861   1.11725    0.114
 4421.00    1.13794   1.12349    0.114
 4422.00    1.16403   1.12429    0.115
 4423.00    1.18071   1.11956    0.116
 4424.00    1.18593   1.11296    0.115
 4425.00    1.18359   1.10913    0.115
 4426.00    1.17314   1.10833    0.115
 4427.00    1.17468   1.10743    0.115
 4428.00    1.18755   1.10595    0.114
 4429.00    1.17626   1.10462    0.114
 4430.00    1.14483   1.10207    0.114
 4431.00    1.13659   1.09570    0.113
 4432.00    1.14538   1.08602    0.114
 4433.00    1.13964   1.07891    0.114
 4434.00    1.12453   1.07701    0.115
 4435.00    1.11148   1.07767    0.115
 4436.00    1.09958   1.08051    0.114
 4437.00    1.09975   1.08748    0.115
 4438.00    1.10586   1.09907    0.116
 4439.00    1.12642   1.11217    0.115
 4440.00    1.15312   1.12202    0.115
 4441.00    1.15531   1.12702    0.115
 4442.00    1.14859   1.12807    0.115
 4443.00    1.13860   1.12743    0.115
 4444.00    1.12760   1.12951    0.116
 4445.00    1.15488   1.13769    0.116
 4446.00    1.19195   1.15105    0.116
 4447.00    1.24390   1.16502    0.116
 4448.00    1.29895   1.17420    0.115
 4449.00    1.27565   1.17601    0.116
 4450.00    1.23948   1.17172    0.116
 4451.00    1.20629   1.16047    0.114
 4452.00    1.17347   1.14157    0.113
 4453.00    1.16035   1.11945    0.112
 4454.00    1.14891   1.09636    0.110
 4455.00    1.09350   1.07160    0.110
 4456.00    1.03592   1.04725    0.109
 4457.00    1.06461   1.02759    0.110
 4458.00    1.09370   1.01559    0.110
 4459.00    1.06118   1.01060    0.110
 4460.00    1.03124   1.01077    0.109
 4461.00    1.05349   1.01554    0.000
 4462.00    1.07554   1.02460    0.000
 4463.00    1.09534   1.03652    0.000
 4464.00    1.11338   1.05148    0.000
 4465.00    1.11720   1.06902    0.000
 4466.00    1.12389   1.08360    0.000
 4467.00    1.14806   1.09273    0.000
 4468.00    1.16867   1.10015    0.000
 4469.00    1.17225   1.10896    0.000
 4470.00    1.18339   1.11943    0.000
 4471.00    1.22413   1.13116    0.000
 4472.00    1.24742   1.14575    0.000
 4473.00    1.21398   1.16393    0.000
 4474.00    1.18889   1.18365    0.000
 4475.00    1.18678   1.20096    0.000
 4476.00    1.20174   1.21090    0.000
 4477.00    1.25692   1.21178    0.000
 4478.00    1.28798   1.20688    0.000
 4479.00    1.26993   1.19911    0.000
 4480.00    1.24292   1.18866    0.000
 4481.00    1.20005   1.17677    0.000
 4482.00    1.17521   1.16806    0.109
 4483.00    1.17833   1.16710    0.110
 4484.00    1.20243   1.17386    0.110
 4485.00    1.25511   1.18439    0.110
 4486.00    1.26789   1.19294    0.110
 4487.00    1.23283   1.19613    0.110
 4488.00    1.21707   1.19428    0.110
 4489.00    1.22171   1.18739    0.109
 4490.00    1.22747   1.17563    0.109
 4491.00    1.23427   1.16197    0.110
 4492.00    1.22631   1.15135    0.110
 4493.00    1.20621   1.14619    0.110
 4494.00    1.19053   1.14461    0.110
 4495.00    1.17806   1.14411    0.109
 4496.00    1.18738   1.14520    0.109
 4497.00    1.21055   1.15167    0.108
 4498.00    1.21264   1.16443    0.108
 4499.00    1.20302   1.18227    0.108
 4500.00    1.22401   1.20364    0.109
 4501.00    1.25978   1.22492    0.110
 4502.00    1.26680   1.24330    0.111
 4503.00    1.26181   1.25844    0.111
 4504.00    1.27808   1.27332    0.110
 4505.00    1.30192   1.28798    0.109
 4506.00    1.31770   1.29720    0.109
 4507.00    1.33104   1.29915    0.109
 4508.00    1.32154   1.29582    0.109
 4509.00    1.30631   1.28904    0.107
 4510.00    1.28822   1.28040    0.108
 4511.00    1.26954   1.27059    0.108
 4512.00    1.22855   1.26003    0.107
 4513.00    1.18399   1.24846    0.107
 4514.00    1.20060   1.23571    0.107
 4515.00    1.22447   1.22453    0.107
 4516.00    1.25585   1.21820    0.108
 4517.00    1.28783   1.21748    0.109
 4518.00    1.26223   1.22003    0.108
 4519.00    1.23401   1.22105    0.106
 4520.00    1.23229   1.22002    0.107
 4521.00    1.23079   1.21888    0.107
 4522.00    1.22386   1.21391    0.107
 4523.00    1.21639   1.20099    0.107
 4524.00    1.19896   1.17896    0.106
 4525.00    1.18321   1.15212    0.105
 4526.00    1.18635   1.12612    0.106
 4527.00    1.18465   1.10116    0.107
 4528.00    1.14502   1.07866    0.106
 4529.00    1.10900   1.06266    0.105
 4530.00    1.09427   1.05405    0.105
 4531.00    1.08643   1.05205    0.105
 4532.00    1.11079   1.05569    0.105
 4533.00    1.12556   1.06492    0.105
 4534.00    1.10367   1.08007    0.105
 4535.00    1.09794   1.09590    0.105
 4536.00    1.14375   1.10968    0.106
 4537.00    1.17940   1.12407    0.107
 4538.00    1.18761   1.14162    0.106
 4539.00    1.19946   1.16012    0.106
 4540.00    1.21974   1.17155    0.106
 4541.00    1.22772   1.17377    0.106
 4542.00    1.21106   1.17161    0.105
 4543.00    1.19392   1.17006    0.105
 4544.00    1.17593   1.17045    0.105
 4545.00    1.16814   1.16892    0.105
 4546.00    1.17595   1.16241    0.104
 4547.00    1.17568   1.15547    0.104
 4548.00    1.16455   1.15265    0.104
 4549.00    1.15914   1.15076    0.104
 4550.00    1.16047   1.14663    0.000
 4551.00    1.17994   1.14165    0.000
 4552.00    1.21830   1.14078    0.000
 4553.00    1.23544   1.14509    0.000
 4554.00    1.23305   1.15102    0.000
 4555.00    1.23313   1.15893    0.000
 4556.00    1.23521   1.17014    0.000
 4557.00    1.25141   1.18451    0.000
 4558.00    1.27769   1.20175    0.000
 4559.00    1.27807   1.21822    0.000
 4560.00    1.26225   1.22816    0.000
 4561.00    1.26449   1.23035    0.000
 4562.00    1.27661   1.22745    0.000
 4563.00    1.28608   1.22349    0.000
 4564.00    1.29429   1.21995    0.000
 4565.00    1.27446   1.21505    0.000
 4566.00    1.24313   1.21115    0.000
 4567.00    1.22815   1.21165    0.000
 4568.00    1.21889   1.21576    0.000
 4569.00    1.23477   1.22176    0.000
 4570.00    1.25808   1.22700    0.000
 4571.00    1.28854   1.22919    0.000
 4572.00    1.32076   1.22848    0.000
 4573.00    1.30131   1.22631    0.000
 4574.00    1.27162   1.22674    0.000
 4575.00    1.25771   1.22856    0.000
 4576.00    1.24625   1.22407    0.000
 4577.00    1.24097   1.21320    0.000
 4578.00    1.23640   1.20158    0.000
 4579.00    1.24699   1.19063    0.000
 4580.00    1.25874   1.17855    0.000
 4581.00    1.27280   1.16554    0.000
 4582.00    1.28695   1.15570    0.000
 4583.00    1.27224   1.15251    0.000
 4584.00    1.25712   1.15566    0.000
 4585.00    1.23490   1.16169    0.000
 4586.00    1.21442   1.16866    0.000
 4587.00    1.22452   1.17624    0.000
 4588.00    1.23266   1.18342    0.000
 4589.00    1.21974   1.19019    0.000
 4590.00    1.20815   1.19471    0.000
 4591.00    1.20651   1.19380    0.000
 4592.00    1.20414   1.18669    0.000
 4593.00    1.19752   1.17637    0.000
 4594.00    1.19863   1.16686    0.000
 4595.00    1.23507   1.15997    0.000
 4596.00    1.25934   1.15491    0.000
 4597.00    1.23807   1.15052    0.000
 4598.00    1.21543   1.14866    0.000
 4599.00    1.18851   1.15009    0.000
 4600.00    1.17735   1.15307    0.000
 4601.00    1.20800   1.15619    0.000
 4602.00    1.23663   1.15797    0.000
 4603.00    1.26064   1.16187    0.000
 4604.00    1.26687   1.17053    0.000
 4605.00    1.23800   1.18215    0.000
 4606.00    1.21803   1.19547    0.000
 4607.00    1.21336   1.20924    0.000
 4608.00    1.22212   1.22388    0.000
 4609.00    1.25108   1.23899    0.000
 4610.00    1.27789   1.25143    0.000
 4611.00    1.30185   1.25884    0.000
 4612.00    1.30556   1.26108    0.000
 4613.00    1.28564   1.26024    0.000
 4614.00    1.27628   1.25978    0.000
 4615.00    1.27777   1.25998    0.000
 4616.00    1.28008   1.26057    0.000
 4617.00    1.28312   1.26218    0.000
 4618.00    1.28627   1.26402    0.000
 4619.00    1.28952   1.26560    0.000
 4620.00    1.30463   1.26585    0.000
 4621.00    1.32808   1.26488    0.000
 4622.00    1.33173   1.26469    0.000
 4623.00    1.32318   1.26439    0.000
 4624.00    1.30063   1.26218    0.000
 4625.00    1.27054   1.25950    0.000
 4626.00    1.25136   1.25641    0.000
 4627.00    1.23729   1.25249    0.000
 4628.00    1.25833   1.25007    0.000
 4629.00    1.29353   1.24877    0.000
 4630.00    1.29204   1.24495    0.000
 4631.00    1.27794   1.23865    0.000
 4632.00    1.29183   1.23326    0.000
 4633.00    1.31383   1.22801    0.000
 4634.00    1.28340   1.21807    0.000
 4635.00    1.24042   1.20438    0.000
 4636.00    1.21822   1.19190    0.000
 4637.00    1.20005   1.18125    0.000
 4638.00    1.18480   1.17171    0.000
 4639.00    1.16999   1.16312    0.000
 4640.00    1.15677   1.15580    0.000
 4641.00    1.14372   1.14976    0.000
 4642.00    1.14834   1.14414    0.000
 4643.00    1.15424   1.13804    0.000
 4644.00    1.12756   1.12956    0.000
 4645.00    1.09964   1.11888    0.000
 4646.00    1.12731   1.10939    0.000
 4647.00    1.15421   1.10279    0.000
 4648.00    1.14179   1.09958    0.000
 4649.00    1.13018   1.10263    0.000
 4650.00    1.13198   1.11241    0.000
 4651.00    1.13501   1.12461    0.000
 4652.00    1.15060   1.13626    0.000
 4653.00    1.16547   1.14694    0.000
 4654.00    1.17508   1.15718    0.000
 4655.00    1.18755   1.16703    0.000
 4656.00    1.21593   1.17589    0.000
 4657.00    1.23713   1.18536    0.000
 4658.00    1.22631   1.19563    0.000
 4659.00    1.21894   1.20482    0.000
 4660.00    1.22425   1.21060    0.000
 4661.00    1.23272   1.21035    0.000
 4662.00    1.25085   1.20198    0.000
 4663.00    1.25547   1.18417    0.000
 4664.00    1.22485   1.15921    0.000
 4665.00    1.19587   1.13341    0.000
 4666.00    1.17061   1.11237    0.000
 4667.00    1.14348   1.09643    0.000
 4668.00    1.11275   1.08479    0.000
 4669.00    1.10460   1.08067    0.000
 4670.00    1.13467   1.08740    0.000
 4671.00    1.14634   1.10206    0.000
 4672.00    1.13069   1.11871    0.000
 4673.00    1.12817   1.13430    0.000
 4674.00    1.14275   1.14663    0.000
 4675.00    1.15616   1.15431    0.000
 4676.00    1.16821   1.15813    0.000
 4677.00    1.17281   1.15930    0.000
 4678.00    1.16986   1.15744    0.000
 4679.00    1.16278   1.15172    0.000
 4680.00    1.15199   1.14485    0.000
 4681.00    1.14979   1.13999    0.000
 4682.00    1.15433   1.13729    0.000
 4683.00    1.14220   1.13646    0.000
 4684.00    1.11853   1.13791    0.000
 4685.00    1.13555   1.14098    0.000
 4686.00    1.17728   1.14358    0.000
 4687.00    1.17352   1.14490    0.000
 4688.00    1.14563   1.14531    0.000
 4689.00    1.14231   1.14507    0.000
 4690.00    1.15029   1.14539    0.000
 4691.00    1.15628   1.14703    0.000
 4692.00    1.16148   1.14929    0.000
 4693.00    1.15680   1.15196    0.000
 4694.00    1.14878   1.15476    0.000
 4695.00    1.16159   1.15541    0.000
 4696.00    1.18031   1.15323    0.000
 4697.00    1.17433   1.14964    0.000
 4698.00    1.16256   1.14330    0.000
 4699.00    1.14802   1.13219    0.000
 4700.00    1.13296   1.11895    0.000
 4701.00    1.11985   1.10959    0.000
 4702.00    1.10702   1.10496    0.000
 4703.00    1.12018   1.10103    0.000
 4704.00    1.13608   1.09717    0.000
 4705.00    1.11064   1.09643    0.000
 4706.00    1.08236   1.09953    0.000
 4707.00    1.11177   1.10330    0.000
 4708.00    1.14314   1.10644    0.000
 4709.00    1.13123   1.11003    0.000
 4710.00    1.11972   1.11464    0.000
 4711.00    1.12375   1.11956    0.000
 4712.00    1.12782   1.12605    0.000
 4713.00    1.13267   1.13514    0.000
 4714.00    1.13892   1.14434    0.000
 4715.00    1.15898   1.15292    0.000
 4716.00    1.18030   1.16387    0.000
 4717.00    1.21047   1.17955    0.000
 4718.00    1.23840   1.19693    0.000
 4719.00    1.25408   1.21094    0.000
 4720.00    1.26610   1.22138    0.000
 4721.00    1.26218   1.23033    0.000
 4722.00    1.25022   1.23589    0.000
 4723.00    1.20941   1.23439    0.000
 4724.00    1.18323   1.22531    0.000
 4725.00    1.20108   1.21206    0.000
 4726.00    1.21067   1.19728    0.000
 4727.00    1.19911   1.18018    0.000
 4728.00    1.18471   1.16045    0.000
 4729.00    1.16407   1.14189    0.000
 4730.00    1.14309   1.12987    0.000
 4731.00    1.12142   1.12554    0.000
 4732.00    1.12531   1.12672    0.000
 4733.00    1.17181   1.13109    0.000
 4734.00    1.18546   1.13788    0.000
 4735.00    1.15111   1.14730    0.000
 4736.00    1.13977   1.15808    0.000
 4737.00    1.15803   1.16672    0.000
 4738.00    1.17841   1.17177    0.000
 4739.00    1.20121   1.17783    0.000
 4740.00    1.22059   1.18682    0.000
 4741.00    1.23656   1.19341    0.000
 4742.00    1.25039   1.19580    0.000
 4743.00    1.26232   1.19946    0.000
 4744.00    1.26432   1.20650    0.000
 4745.00    1.25859   1.21249    0.000
 4746.00    1.25653   1.21523    0.000
 4747.00    1.25697   1.21788    0.000
 4748.00    1.23916   1.22150    0.000
 4749.00    1.21045   1.22207    0.000
 4750.00    1.21214   1.21817    0.000
 4751.00    1.22971   1.21251    0.000
 4752.00    1.21454   1.20627    0.000
 4753.00    1.18456   1.19832    0.000
 4754.00    1.19810   1.18942    0.000
 4755.00    1.22859   1.18197    0.000
 4756.00    1.22506   1.17676    0.000
 4757.00    1.21025   1.17342    0.000
 4758.00    1.22038   1.17015    0.000
 4759.00    1.23745   1.16547    0.000
 4760.00    1.18871   1.15969    0.000
 4761.00    1.12493   1.15318    0.100
 4762.00    1.13009   1.14400    0.100
 4763.00    1.14787   1.13158    0.101
 4764.00    1.12309   1.12035    0.101
 4765.00    1.09230   1.11398    0.101
 4766.00    1.09374   1.11155    0.100
 4767.00    1.09845   1.11234    0.098
 4768.00    1.12737   1.11762    0.100
 4769.00    1.15786   1.12736    0.101
 4770.00    1.19542   1.13986    0.101
 4771.00    1.23315   1.15379    0.101
 4772.00    1.24092   1.16665    0.100
 4773.00    1.24789   1.17655    0.100
 4774.00    1.23166   1.18615    0.098
 4775.00    1.21599   1.19711    0.097
 4776.00    1.20841   1.20566    0.098
 4777.00    1.20138   1.20868    0.099
 4778.00    1.19950   1.20889    0.098
 4779.00    1.19942   1.20778    0.097
 4780.00    1.21177   1.20216    0.097
 4781.00    1.21851   1.19244    0.097
 4782.00    1.19557   1.18271    0.095
 4783.00    1.17797   1.17274    0.093
 4784.00    1.18314   1.16123    0.094
 4785.00    1.18435   1.15214    0.095
 4786.00    1.17159   1.14805    0.095
 4787.00    1.16031   1.14573    0.095
 4788.00    1.15339   1.14481    0.095
 4789.00    1.15094   1.14903    0.094
 4790.00    1.15971   1.15785    0.095
 4791.00    1.17145   1.16852    0.096
 4792.00    1.18963   1.18096    0.096
 4793.00    1.20434   1.19427    0.096
 4794.00    1.21250   1.20599    0.097
 4795.00    1.21847   1.21488    0.097
 4796.00    1.22086   1.21983    0.097
 4797.00    1.21846   1.21952    0.097
 4798.00    1.20916   1.21576    0.097
 4799.00    1.21389   1.21179    0.097
 4800.00    1.23642   1.20798    0.097
 4801.00    1.24354   1.20389    0.097
 4802.00    1.23346   1.20087    0.097
 4803.00    1.22586   1.19993    0.097
 4804.00    1.22070   1.19868    0.098
 4805.00    1.21459   1.19419    0.098
 4806.00    1.20766   1.18782    0.096
 4807.00    1.20078   1.18313    0.096
 4808.00    1.19395   1.18027    0.096
 4809.00    1.17849   1.17750    0.096
 4810.00    1.15722   1.17666    0.096
 4811.00    1.15374   1.17983    0.096
 4812.00    1.16073   1.18532    0.096
 4813.00    1.17200   1.19108    0.096
 4814.00    1.18547   1.19766    0.096
 4815.00    1.20168   1.20535    0.096
 4816.00    1.21910   1.21291    0.096
 4817.00    1.23324   1.21926    0.097
 4818.00    1.24612   1.22386    0.097
 4819.00    1.22735   1.22573    0.097
 4820.00    1.19829   1.22335    0.096
 4821.00    1.19436   1.21689    0.096
 4822.00    1.19726   1.20897    0.097
 4823.00    1.18665   1.20099    0.097
 4824.00    1.17302   1.19148    0.097
 4825.00    1.15083   1.18151    0.096
 4826.00    1.12710   1.17567    0.095
 4827.00    1.13936   1.17422    0.095
 4828.00    1.15653   1.17229    0.096
 4829.00    1.16712   1.16774    0.097
 4830.00    1.17708   1.16432    0.098
 4831.00    1.17977   1.16468    0.098
 4832.00    1.18201   1.16531    0.097
 4833.00    1.16516   1.16327    0.097
 4834.00    1.14790   1.16237    0.097
 4835.00    1.14682   1.16506    0.096
 4836.00    1.14533   1.16639    0.096
 4837.00    1.13329   1.16337    0.096
 4838.00    1.12246   1.15985    0.096
 4839.00    1.12798   1.15765    0.096
 4840.00    1.13284   1.15328    0.097
 4841.00    1.13184   1.14736    0.096
 4842.00    1.13532   1.14530    0.096
 4843.00    1.16848   1.14727    0.096
 4844.00    1.19357   1.14841    0.097
 4845.00    1.17704   1.14813    0.098
 4846.00    1.16413   1.14968    0.098
 4847.00    1.16629   1.15250    0.098
 4848.00    1.17501   1.15229    0.000
 4849.00    1.20632   1.14738    0.000
 4850.00    1.21911   1.14112    0.000
 4851.00    1.17822   1.13536    0.000
 4852.00    1.15095   1.12596    0.000
 4853.00    1.15740   1.11114    0.000
 4854.00    1.15947   1.09529    0.000
 4855.00    1.15220   1.07866    0.000
 4856.00    1.12430   1.05693    0.000
 4857.00    1.05818   1.03187    0.000
 4858.00    1.01012   1.00843    0.000
 4859.00    0.99129   0.98740    0.000
 4860.00    0.98820   0.96903    0.000
 4861.00    1.00745   0.95480    0.000
 4862.00    1.01483   0.94661    0.000
 4863.00    1.00738   0.94847    0.000
 4864.00    1.00333   0.96040    0.000
 4865.00    1.00303   0.97532    0.000
 4866.00    1.01445   0.99003    0.000
 4867.00    1.03727   1.00566    0.000
 4868.00    1.04939   1.01762    0.000
 4869.00    1.05235   1.02240    0.000
 4870.00    1.06177   1.02550    0.000
 4871.00    1.07605   1.02930    0.000
 4872.00    1.07386   1.03000    0.000
 4873.00    1.06074   1.03160    0.000
 4874.00    1.06871   1.04148    0.000
 4875.00    1.08890   1.05614    0.100
 4876.00    1.09267   1.06999    0.099
 4877.00    1.08812   1.08502    0.097
 4878.00    1.10474   1.10010    0.098
 4879.00    1.13062   1.11036    0.100
 4880.00    1.14495   1.11734    0.101
 4881.00    1.15494   1.12184    0.102
 4882.00    1.13777   1.11848    0.101
 4883.00    1.11195   1.10860    0.101
 4884.00    1.09765   1.09955    0.100
 4885.00    1.08644   1.09093    0.099
 4886.00    1.11061   1.07916    0.100
 4887.00    1.14251   1.06707    0.101
 4888.00    1.09152   1.05891    0.101
 4889.00    1.02617   1.05626    0.100
 4890.00    1.06361   1.06029    0.100
 4891.00    1.11459   1.06969    0.100
 4892.00    1.12019   1.08323    0.100
 4893.00    1.12159   1.10354    0.100
 4894.00    1.13974   1.13007    0.100
 4895.00    1.15884   1.15607    0.099
 4896.00    1.17598   1.17675    0.099
 4897.00    1.19302   1.19136    0.100
 4898.00    1.20261   1.20037    0.102
 4899.00    1.21085   1.20445    0.104
 4900.00    1.18668   1.20224    0.102
 4901.00    1.16497   1.19476    0.100
 4902.00    1.17510   1.18858    0.099
 4903.00    1.18160   1.18588    0.098
 4904.00    1.15661   1.18196    0.099
 4905.00    1.13537   1.17642    0.100
 4906.00    1.13832   1.17311    0.098
 4907.00    1.14199   1.17034    0.097
 4908.00    1.14929   1.16430    0.098
 4909.00    1.15809   1.15680    0.098
 4910.00    1.17302   1.15069    0.099
 4911.00    1.17865   1.14554    0.100
 4912.00    1.15296   1.14178    0.098
 4913.00    1.13594   1.14044    0.098
 4914.00    1.14359   1.13851    0.099
 4915.00    1.14637   1.13230    0.099
 4916.00    1.13725   1.12156    0.098
 4917.00    1.12382   1.10668    0.097
 4918.00    1.10131   1.08786    0.096
 4919.00    1.07512   1.06814    0.095
 4920.00    1.04221   1.05174    0.095
 4921.00    1.02738   1.04074    0.095
 4922.00    1.04136   1.03795    0.094
 4923.00    1.05723   1.04660    0.094
 4924.00    1.07576   1.06381    0.095
 4925.00    1.08989   1.08339    0.096
 4926.00    1.09862   1.10515    0.096
 4927.00    1.11244   1.12998    0.096
 4928.00    1.13177   1.15227    0.094
 4929.00    1.15216   1.16813    0.094
 4930.00    1.17355   1.17806    0.094
 4931.00    1.16937   1.18097    0.094
 4932.00    1.14360   1.17771    0.093
 4933.00    1.11381   1.17092    0.093
 4934.00    1.08104   1.15869    0.094
 4935.00    1.06499   1.14183    0.093
 4936.00    1.05987   1.12757    0.092
 4937.00    1.04769   1.11872    0.092
 4938.00    1.03147   1.11268    0.093
 4939.00    1.04083   1.10961    0.093
 4940.00    1.06291   1.11301    0.000
 4941.00    1.09493   1.12503    0.000
 4942.00    1.13124   1.14147    0.000
 4943.00    1.15133   1.15616    0.000
 4944.00    1.16544   1.17034    0.000
 4945.00    1.18519   1.18633    0.000
 4946.00    1.20670   1.19892    0.000
 4947.00    1.19872   1.20557    0.000
 4948.00    1.18304   1.21129    0.000
 4949.00    1.17770   1.21666    0.000
 4950.00    1.17457   1.21639    0.000
 4951.00    1.18081   1.21033    0.000
 4952.00    1.18863   1.20249    0.000
 4953.00    1.21456   1.19155    0.000
 4954.00    1.24280   1.17320    0.000
 4955.00    1.21281   1.15022    0.000
 4956.00    1.17766   1.13198    0.000
 4957.00    1.14764   1.11982    0.000
 4958.00    1.11788   1.10769    0.000
 4959.00    1.10764   1.09962    0.000
 4960.00    1.09799   1.10375    0.000
 4961.00    1.10580   1.11427    0.000
 4962.00    1.11326   1.11995    0.000
 4963.00    1.11341   1.12211    0.000
 4964.00    1.11401   1.12599    0.000
 4965.00    1.12024   1.12782    0.000
 4966.00    1.12341   1.12367    0.000
 4967.00    1.10105   1.11870    0.000
 4968.00    1.08444   1.11811    0.000
 4969.00    1.10376   1.12043    0.000
 4970.00    1.12032   1.12431    0.000
 4971.00    1.12329   1.13053    0.000
 4972.00    1.12634   1.13835    0.000
 4973.00    1.12968   1.14520    0.000
 4974.00    1.13249   1.14925    0.000
 4975.00    1.13352   1.14901    0.000
 4976.00    1.13605   1.14293    0.000
 4977.00    1.14278   1.13214    0.000
 4978.00    1.13169   1.11814    0.000
 4979.00    1.07801   1.09940    0.000
 4980.00    1.04474   1.07722    0.000
 4981.00    1.05364   1.05823    0.000
 4982.00    1.05544   1.04397    0.000
 4983.00    1.04450   1.03139    0.000
 4984.00    1.03633   1.02444    0.000
 4985.00    1.03254   1.02780    0.000
 4986.00    1.04634   1.03684    0.000
 4987.00    1.08441   1.04695    0.000
 4988.00    1.10992   1.05946    0.000
 4989.00    1.12018   1.07345    0.000
 4990.00    1.12655   1.08515    0.000
 4991.00    1.12876   1.09252    0.000
 4992.00    1.11336   1.09709    0.000
 4993.00    1.08135   1.10132    0.000
 4994.00    1.07951   1.10322    0.000
 4995.00    1.10279   1.10092    0.000
 4996.00    1.10554   1.09709    0.000
 4997.00    1.09325   1.09191    0.000
 4998.00    1.08734   1.08307    0.000
 4999.00    1.08552   1.07161    0.000
 5000.00    1.08048   1.05885    0.000
 5001.00    1.07363   1.04538    0.000
 5002.00    1.05713   1.03291    0.000
 5003.00    1.03589   1.02132    0.000
 5004.00    1.04604   1.01119    0.000
 5005.00    1.06949   1.00580    0.000
 5006.00    1.08692   1.00392    0.000
 5007.00    1.10218   1.00196    0.000
 5008.00    1.08085   1.00199    0.000
 5009.00    1.04829   1.00501    0.000
 5010.00    1.04597   1.00529    0.000
 5011.00    1.05136   1.00086    0.000
 5012.00    1.01592   0.99548    0.000
 5013.00    0.97199   0.99052    0.000
 5014.00    0.96751   0.98464    0.000
 5015.00    0.96950   0.97838    0.000
 5016.00    0.96980   0.97537    0.000
 5017.00    0.96991   0.97749    0.000
 5018.00    0.98924   0.98157    0.000
 5019.00    1.01021   0.98500    0.000
 5020.00    0.99469   0.99046    0.000
 5021.00    0.97740   0.99898    0.000
 5022.00    0.99077   1.00664    0.000
 5023.00    1.00436   1.01234    0.000
 5024.00    1.00223   1.01932    0.000
 5025.00    1.00203   1.02725    0.000
 5026.00    1.04046   1.03499    0.000
 5027.00    1.07608   1.04381    0.000
 5028.00    1.07886   1.05244    0.000
 5029.00    1.08026   1.06078    0.092
 5030.00    1.07060   1.07115    0.092
 5031.00    1.06145   1.08156    0.091
 5032.00    1.05541   1.08682    0.092
 5033.00    1.04807   1.08681    0.093
 5034.00    1.03449   1.08404    0.092
 5035.00    1.02192   1.07717    0.091
 5036.00    1.01322   1.06314    0.091
 5037.00    1.01583   1.04428    0.091
 5038.00    1.05513   1.02665    0.094
 5039.00    1.07377   1.01185    0.095
 5040.00    1.03568   1.00113    0.093
 5041.00    1.00354   0.99647    0.091
 5042.00    0.98542   0.99839    0.091
 5043.00    0.99338   1.00872    0.090
 5044.00    1.05436   1.02567    0.092
 5045.00    1.08398   1.04090    0.093
 5046.00    1.05812   1.05145    0.093
 5047.00    1.04765   1.06124    0.092
 5048.00    1.06099   1.06766    0.092
 5049.00    1.06480   1.06607    0.093
 5050.00    1.05564   1.06174    0.095
 5051.00    1.03956   1.06123    0.095
 5052.00    1.01522   1.06352    0.093
 5053.00    1.01378   1.06682    0.092
 5054.00    1.03653   1.07383    0.093
 5055.00    1.05058   1.08572    0.094
 5056.00    1.05653   1.09872    0.094
 5057.00    1.07496   1.10934    0.094
 5058.00    1.10362   1.11830    0.094
 5059.00    1.11176   1.12604    0.094
 5060.00    1.10507   1.12991    0.095
 5061.00    1.09787   1.12806    0.096
 5062.00    1.09035   1.12118    0.097
 5063.00    1.09014   1.11186    0.096
 5064.00    1.09397   1.10165    0.096
 5065.00    1.07614   1.08810    0.095
 5066.00    1.04786   1.07307    0.094
 5067.00    1.02635   1.06385    0.095
 5068.00    1.00765   1.05959    0.097
 5069.00    1.02438   1.05328    0.097
 5070.00    1.05372   1.04804    0.097
 5071.00    1.05802   1.05035    0.098
 5072.00    1.05480   1.05301    0.099
 5073.00    1.04486   1.04904    0.099
 5074.00    1.03325   1.04529    0.099
 5075.00    1.01190   1.04523    0.098
 5076.00    0.98858   1.03993    0.097
 5077.00    0.99675   1.02704    0.096
 5078.00    1.00992   1.01686    0.095
 5079.00    1.01211   1.01068    0.095
 5080.00    1.01299   1.00095    0.096
 5081.00    1.00159   0.99150    0.095
 5082.00    0.98921   0.99139    0.094
 5083.00    0.97164   0.99747    0.093
 5084.00    0.95382   1.00307    0.093
 5085.00    0.98195   1.01157    0.092
 5086.00    1.01054   1.02577    0.092
 5087.00    1.03464   1.04060    0.092
 5088.00    1.05730   1.05217    0.092
 5089.00    1.05317   1.06241    0.093
 5090.00    1.05002   1.07297    0.093
 5091.00    1.05767   1.08107    0.092
 5092.00    1.06138   1.08420    0.092
 5093.00    1.03444   1.08381    0.091
 5094.00    1.01237   1.08149    0.091
 5095.00    1.01899   1.07537    0.091
 5096.00    1.02534   1.06443    0.091
 5097.00    1.03045   1.05224    0.091
 5098.00    1.03235   1.04280    0.091
 5099.00    1.02204   1.03496    0.090
 5100.00    1.01177   1.02769    0.089
 5101.00    1.00164   1.02417    0.089
 5102.00    0.98772   1.02480    0.089
 5103.00    0.96357   1.02571    0.088
 5104.00    0.95124   1.02464    0.088
 5105.00    0.96623   1.02276    0.089
 5106.00    0.97745   1.02148    0.089
 5107.00    0.98114   1.01934    0.090
 5108.00    0.98141   1.01518    0.090
 5109.00    0.97572   1.01391    0.088
 5110.00    0.96408   1.01722    0.087
 5111.00    0.94337   1.02131    0.088
 5112.00    0.94741   1.02821    0.088
 5113.00    0.98461   1.03928    0.089
 5114.00    1.01357   1.05021    0.091
 5115.00    1.03280   1.06028    0.094
 5116.00    1.03550   1.06986    0.095
 5117.00    1.02100   1.07551    0.094
 5118.00    1.02401   1.07612    0.093
 5119.00    1.04307   1.07294    0.093
 5120.00    1.04978   1.06494    0.093
 5121.00    1.04649   1.05125    0.094
 5122.00    1.03391   1.03538    0.093
 5123.00    1.01471   1.02032    0.091
 5124.00    0.99423   1.00500    0.091
 5125.00    0.97296   0.99091    0.091
 5126.00    0.96985   0.98221    0.091
 5127.00    0.97667   0.97828    0.091
 5128.00    0.96024   0.97693    0.092
 5129.00    0.93278   0.98006    0.092
 5130.00    0.94642   0.98700    0.092
 5131.00    0.97689   0.99438    0.092
 5132.00    0.98406   1.00276    0.091
 5133.00    0.98309   1.01198    0.091
 5134.00    1.00541   1.01748    0.093
 5135.00    1.03459   1.01968    0.094
 5136.00    1.01958   1.02097    0.095
 5137.00    0.99377   1.01780    0.094
 5138.00    1.00213   1.01244    0.095
 5139.00    1.01724   1.00755    0.095
 5140.00    0.99731   0.99930    0.095
 5141.00    0.97198   0.99229    0.095
 5142.00    0.95604   0.99010    0.094
 5143.00    0.94115   0.98517    0.092
 5144.00    0.95632   0.97885    0.094
 5145.00    0.97378   0.97791    0.095
 5146.00    0.97755   0.97737    0.096
 5147.00    0.98077   0.97407    0.097
 5148.00    0.97922   0.97209    0.096
 5149.00    0.97702   0.97201    0.095
 5150.00    0.94867   0.97255    0.093
 5151.00    0.92311   0.97369    0.092
 5152.00    0.94570   0.97597    0.093
 5153.00    0.96683   0.98113    0.094
 5154.00    0.97249   0.98909    0.094
 5155.00    0.97684   0.99840    0.095
 5156.00    0.97135   1.00849    0.095
 5157.00    0.97452   1.01811    0.096
 5158.00    1.02727   1.02663    0.095
 5159.00    1.06170   1.03114    0.095
 5160.00    1.01266   1.02768    0.094
 5161.00    0.96329   1.01839    0.093
 5162.00    0.91272   1.00325    0.091
 5163.00    0.87647   0.97822    0.090
 5164.00    0.88491   0.94652    0.091
 5165.00    0.87691   0.91289    0.092
 5166.00    0.82536   0.87773    0.090
 5167.00    0.78918   0.84412    0.089
 5168.00    0.78794   0.81670    0.089
 5169.00    0.78350   0.79497    0.089
 5170.00    0.77278   0.77947    0.089
 5171.00    0.75521   0.77511    0.089
 5172.00    0.72588   0.78077    0.089
 5173.00    0.72643   0.79071    0.089
 5174.00    0.77190   0.80590    0.089
 5175.00    0.82068   0.82908    0.089
 5176.00    0.87384   0.85306    0.089
 5177.00    0.89381   0.87008    0.088
 5178.00    0.87517   0.88213    0.087
 5179.00    0.86375   0.89030    0.087
 5180.00    0.85974   0.88896    0.087
 5181.00    0.84845   0.87795    0.087
 5182.00    0.83058   0.86708    0.086
 5183.00    0.82815   0.86104    0.086
 5184.00    0.83804   0.85715    0.085
 5185.00    0.84480   0.85923    0.086
 5186.00    0.84936   0.87107    0.087
 5187.00    0.85775   0.88930    0.087
 5188.00    0.86848   0.90898    0.087
 5189.00    0.89158   0.92468    0.088
 5190.00    0.92133   0.93686    0.000
 5191.00    0.93029   0.94926    0.000
 5192.00    0.92953   0.95613    0.000
 5193.00    0.93976   0.95554    0.000
 5194.00    0.95441   0.95897    0.000
 5195.00    0.97077   0.96736    0.000
 5196.00    0.98772   0.97245    0.000
 5197.00    0.99787   0.97867    0.000
 5198.00    1.00607   0.98920    0.000
 5199.00    0.98493   0.99603    0.000
 5200.00    0.95678   0.99720    0.000
 5201.00    0.96884   0.99622    0.000
 5202.00    0.98864   0.98898    0.000
 5203.00    0.96958   0.97380    0.000
 5204.00    0.94472   0.95819    0.000
 5205.00    0.93137   0.94278    0.000
 5206.00    0.91927   0.92454    0.000
 5207.00    0.88572   0.91232    0.000
 5208.00    0.85063   0.91027    0.000
 5209.00    0.91252   0.91206    0.000
 5210.00    0.97803   0.91967    0.000
 5211.00    0.96112   0.93585    0.095
 5212.00    0.94486   0.95438    0.094
 5213.00    0.96611   0.97127    0.095
 5214.00    0.98705   0.98817    0.095
 5215.00    1.00286   1.00385    0.095
 5216.00    1.01798   1.01579    0.096
 5217.00    1.02621   1.02490    0.094
 5218.00    1.03400   1.03192    0.093
 5219.00    1.03866   1.03694    0.094
 5220.00    1.04122   1.03854    0.095
 5221.00    1.03213   1.03499    0.095
 5222.00    1.01657   1.02752    0.096
 5223.00    0.97225   1.01724    0.094
 5224.00    0.93998   1.00277    0.093
 5225.00    0.95177   0.98702    0.094
 5226.00    0.95706   0.97716    0.095
 5227.00    0.94248   0.97104    0.094
 5228.00    0.93698   0.96710    0.093
 5229.00    0.95507   0.97245    0.092
 5230.00    0.96435   0.98257    0.092
 5231.00    0.95392   0.99111    0.091
 5232.00    0.95816   1.00313    0.091
 5233.00    0.99085   1.01653    0.091
 5234.00    1.02310   1.02695    0.091
 5235.00    1.05461   1.03820    0.091
 5236.00    1.06445   1.05047    0.091
 5237.00    1.04219   1.06104    0.091
 5238.00    1.03740   1.07123    0.090
 5239.00    1.05534   1.08142    0.091
 5240.00    1.06945   1.08831    0.091
 5241.00    1.07916   1.09146    0.092
 5242.00    1.07640   1.09362    0.091
 5243.00    1.06102   1.09322    0.089
 5244.00    1.05271   1.08637    0.089
 5245.00    1.05070   1.07634    0.089
 5246.00    1.03706   1.06842    0.090
 5247.00    1.01428   1.05781    0.090
 5248.00    1.00293   1.04273    0.089
 5249.00    0.99949   1.03276    0.088
 5250.00    1.00718   1.02814    0.088
 5251.00    1.02163   1.02291    0.090
 5252.00    1.03345   1.02079    0.090
 5253.00    1.04389   1.02455    0.090
 5254.00    1.04992   1.03179    0.090
 5255.00    1.05393   1.03955    0.089
 5256.00    1.03680   1.04634    0.089
 5257.00    1.01132   1.05276    0.090
 5258.00    1.00253   1.05587    0.090
 5259.00    0.99936   1.05180    0.091
 5260.00    1.00711   1.04037    0.092
 5261.00    1.01795   1.02290    0.095
 5262.00    0.98638   1.00059    0.095
 5263.00    0.94491   0.97323    0.095
 5264.00    0.90748   0.94329    0.095
 5265.00    0.87080   0.91901    0.094
 5266.00    0.88840   0.89949    0.094
 5267.00    0.91386   0.87931    0.094
 5268.00    0.92297   0.86862    0.096
 5269.00    0.93036   0.87172    0.098
 5270.00    0.90957   0.87572    0.096
 5271.00    0.88685   0.88321    0.093
 5272.00    0.89763   0.90364    0.094
 5273.00    0.90953   0.92605    0.096
 5274.00    0.95974   0.94588    0.097
 5275.00    1.00852   0.97111    0.098
 5276.00    1.01024   0.99548    0.096
 5277.00    1.01345   1.01336    0.094
 5278.00    1.03926   1.02905    0.096
 5279.00    1.06103   1.04151    0.097
 5280.00    1.04349   1.04890    0.096
 5281.00    1.02909   1.05311    0.095
 5282.00    1.03675   1.05607    0.095
 5283.00    1.04248   1.06104    0.094
 5284.00    1.03777   1.06824    0.093
 5285.00    1.03343   1.07622    0.091
 5286.00    1.03066   1.08732    0.092
 5287.00    1.03368   1.10121    0.093
 5288.00    1.05739   1.11369    0.094
 5289.00    1.07978   1.12334    0.094
 5290.00    1.09815   1.13014    0.092
 5291.00    1.10680   1.13212    0.091
 5292.00    1.09057   1.12873    0.091
 5293.00    1.07228   1.12078    0.091
 5294.00    1.04948   1.10837    0.091
 5295.00    1.03446   1.09226    0.091
 5296.00    1.03428   1.07566    0.092
 5297.00    1.03018   1.06229    0.092
 5298.00    1.01957   1.05126    0.090
 5299.00    1.01817   1.04315    0.089
 5300.00    1.03020   1.04350    0.088
 5301.00    1.04787   1.05084    0.089
 5302.00    1.07277   1.06049    0.091
 5303.00    1.08487   1.07432    0.091
 5304.00    1.08249   1.09149    0.089
 5305.00    1.07765   1.10687    0.088
 5306.00    1.07038   1.12069    0.088
 5307.00    1.07341   1.13358    0.088
 5308.00    1.08551   1.14239    0.088
 5309.00    1.10155   1.14789    0.088
 5310.00    1.12062   1.15166    0.087
 5311.00    1.11161   1.15186    0.087
 5312.00    1.08347   1.14960    0.085
 5313.00    1.07736   1.14650    0.086
 5314.00    1.08439   1.14080    0.088
 5315.00    1.09074   1.13405    0.089
 5316.00    1.09674   1.12817    0.088
 5317.00    1.08548   1.12079    0.088
 5318.00    1.06641   1.11246    0.088
 5319.00    1.05755   1.10470    0.088
 5320.00    1.05265   1.09586    0.088
 5321.00    1.06031   1.08449    0.089
 5322.00    1.07213   1.07007    0.092
 5323.00    1.07444   1.05488    0.091
 5324.00    1.07412   1.03947    0.090
 5325.00    1.03219   1.02033    0.090
 5326.00    0.98077   1.00091    0.089
 5327.00    0.96813   0.98892    0.089
 5328.00    0.96256   0.98169    0.089
 5329.00    0.95480   0.97698    0.091
 5330.00    0.94673   0.98126    0.093
 5331.00    0.95954   0.99386    0.091
 5332.00    0.97446   1.00940    0.089
 5333.00    0.99209   1.02675    0.089
 5334.00    1.00991   1.04396    0.090
 5335.00    1.04652   1.05838    0.091
 5336.00    1.08358   1.06936    0.092
 5337.00    1.07643   1.07466    0.092
 5338.00    1.06900   1.07365    0.092
 5339.00    1.05333   1.07166    0.091
 5340.00    1.03789   1.06939    0.091
 5341.00    1.02588   1.06372    0.090
 5342.00    1.01548   1.06019    0.089
 5343.00    1.02012   1.06022    0.088
 5344.00    1.02729   1.05931    0.087
 5345.00    1.05160   1.06075    0.088
 5346.00    1.07157   1.06381    0.088
 5347.00    1.06856   1.06551    0.087
 5348.00    1.06482   1.07030    0.086
 5349.00    1.05795   1.07774    0.087
 5350.00    1.05563   1.08491    0.088
 5351.00    1.06927   1.09480    0.086
 5352.00    1.07737   1.10863    0.085
 5353.00    1.06912   1.12272    0.085
 5354.00    1.07062   1.13532    0.086
 5355.00    1.09661   1.14823    0.085
 5356.00    1.12136   1.15927    0.085
 5357.00    1.14340   1.16534    0.086
 5358.00    1.15925   1.16830    0.087
 5359.00    1.16347   1.16749    0.086
 5360.00    1.16486   1.16161    0.086
 5361.00    1.16162   1.15367    0.085
 5362.00    1.15166   1.14277    0.085
 5363.00    1.13205   1.12847    0.086
 5364.00    1.11035   1.11490    0.086
 5365.00    1.08601   1.10031    0.086
 5366.00    1.06785   1.08413    0.086
 5367.00    1.05656   1.07051    0.087
 5368.00    1.05006   1.05775   -2.000
 5369.00    1.04828   1.04576   -2.000
 5370.00    1.02814   1.03961   -2.000
 5371.00    0.99209   1.03830   -2.000
 5372.00    0.98828   1.03958   -2.000
 5373.00    1.00912   1.04758   -2.000
 5374.00    1.02917   1.06047   -2.000
 5375.00    1.04869   1.07251   -2.000
 5376.00    1.06721   1.08606   -2.000
 5377.00    1.08513   1.09948   -2.000
 5378.00    1.09518   1.10729   -2.000
 5379.00    1.10119   1.11290   -2.000
 5380.00    1.08541   1.11710   -2.000
 5381.00    1.05996   1.11609   -2.000
 5382.00    1.06646   1.11406   -2.000
 5383.00    1.08516   1.11297    0.089
 5384.00    1.08201   1.10869    0.089
 5385.00    1.07177   1.10388    0.089
 5386.00    1.06880   1.10045    0.089
 5387.00    1.06781   1.09422    0.088
 5388.00    1.06149   1.08610    0.088
 5389.00    1.05399   1.07838    0.088
 5390.00    1.04108   1.06924    0.088
 5391.00    1.02721   1.05836    0.089
 5392.00    1.02214   1.04754    0.088
 5393.00    1.01828   1.03877    0.088
 5394.00    1.00229   1.03020    0.086
 5395.00    0.98513   1.02068    0.083
 5396.00    0.97507   1.01607    0.084
 5397.00    0.96542   1.01450    0.085
 5398.00    0.96829   1.01005    0.085
 5399.00    0.97149   1.00890    0.085
 5400.00    0.97696   1.01112    0.084
 5401.00    0.98178   1.00840    0.084
 5402.00    0.97015   1.00399    0.083
 5403.00    0.95884   1.00081    0.082
 5404.00    0.95188   0.99416    0.082
 5405.00    0.94571   0.98642    0.082
 5406.00    0.94655   0.98196    0.081
 5407.00    0.94702   0.97891    0.081
 5408.00    0.94502   0.97896    0.080
 5409.00    0.94687   0.98507    0.079
 5410.00    0.96856   0.99421    0.080
 5411.00    0.98952   1.00562    0.080
 5412.00    1.00741   1.02084    0.081
 5413.00    1.02195   1.03673    0.082
 5414.00    1.02494   1.05167    0.083
 5415.00    1.02629   1.06570    0.084
 5416.00    1.02289   1.07717    0.083
 5417.00    1.02460   1.08648    0.082
 5418.00    1.03895   1.09228    0.082
 5419.00    1.04945   1.09404    0.082
 5420.00    1.05174   1.09532    0.083
 5421.00    1.05377   1.09397    0.084
 5422.00    1.05531   1.08952    0.084
 5423.00    1.06287   1.08724    0.084
 5424.00    1.08015   1.08359    0.084
 5425.00    1.07937   1.07764    0.084
 5426.00    1.05302   1.07428    0.084
 5427.00    1.02717   1.06787    0.084
 5428.00    1.00195   1.05925    0.085
 5429.00    0.99480   1.05370    0.085
 5430.00    1.00752   1.04423    0.085
 5431.00    1.01210   1.03425    0.084
 5432.00    1.00880   1.03039    0.085
 5433.00    1.01117   1.02630    0.085
 5434.00    1.01839   1.02428    0.086
 5435.00    1.02079   1.02947    0.086
 5436.00    1.01957   1.03787    0.086
 5437.00    1.03118   1.04863    0.085
 5438.00    1.05126   1.06243    0.085
 5439.00    1.05684   1.07671    0.085
 5440.00    1.05402   1.08903    0.085
 5441.00    1.05361   1.09761    0.084
 5442.00    1.05442   1.10137    0.083
 5443.00    1.04927   1.10051    0.083
 5444.00    1.04154   1.09447    0.083
 5445.00    1.03706   1.08469    0.083
 5446.00    1.03381   1.07538    0.082
 5447.00    1.01302   1.06584    0.082
 5448.00    0.98665   1.05697    0.082
 5449.00    0.99126   1.05270    0.081
 5450.00    1.00410   1.04964    0.081
 5451.00    1.02978   1.04658    0.081
 5452.00    1.05826   1.04563    0.081
 5453.00    1.05818   1.04331    0.082
 5454.00    1.05317   1.04040    0.082
 5455.00    1.04374   1.03946    0.082
 5456.00    1.03374   1.03795    0.081
 5457.00    1.02815   1.03760    0.081
 5458.00    1.02296   1.03976    0.080
 5459.00    1.04248   1.04214    0.080
 5460.00    1.06339   1.04455    0.080
 5461.00    1.04929   1.04594    0.079
 5462.00    1.03451   1.04755    0.079
 5463.00    1.03114   1.04954    0.079
 5464.00    1.02784   1.04876    0.079
 5465.00    1.02601   1.04892    0.080
 5466.00    1.02341   1.05146    0.081
 5467.00    1.01087   1.05117    0.080
 5468.00    0.99994   1.04945    0.080
 5469.00    1.00299   1.04930    0.080
 5470.00    1.00827   1.04701    0.081
 5471.00    1.02788   1.04006    0.082
 5472.00    1.04282   1.03343    0.083
 5473.00    1.03426   1.02811    0.083
 5474.00    1.02515   1.01848    0.084
 5475.00    1.01378   1.00927    0.084
 5476.00    1.00022   1.00564    0.084
 5477.00    0.97927   1.00119    0.083
 5478.00    0.96216   0.99721   -2.000
 5479.00    0.95598   0.99904   -2.000
 5480.00    0.95854   1.00309   -2.000
 5481.00    0.98233   1.00678   -2.000
 5482.00    1.00405   1.01213   -2.000
 5483.00    1.02140   1.02004   -2.000
 5484.00    1.00418   1.02724   -2.000
 5485.00    0.92403   1.03174   -2.000
 5486.00    0.86557   1.03745   -2.000
 5487.00    0.84166   1.04310   -2.000
 5488.00    0.86313   1.04428   -2.000
 5489.00    0.94797   1.04590   -2.000
 5490.00    1.02716   1.04947   -2.000
 5491.00    1.09938   1.04917   -2.000
 5492.00    1.13482   1.04868   -2.000
 5493.00    1.13038   1.05138   -2.000
 5494.00    1.10858   1.05155   -2.000
 5495.00    1.07019   1.04989   -2.000
 5496.00    1.04988   1.05089   -2.000
 5497.00    1.04481   1.05142   -2.000
 5498.00    1.04057   1.04885   -2.000
 5499.00    1.03693   1.04697   -2.000
 5500.00    1.03610   1.04634   -2.000
 5501.00    1.03710   1.04269   -2.000
 5502.00    1.04153   1.03811    0.080
 5503.00    1.04791   1.03571    0.079
 5504.00    1.03638   1.03147    0.079
 5505.00    1.01595   1.02693    0.078
 5506.00    0.99774   1.02536    0.077
 5507.00    0.98050   1.02191    0.076
 5508.00    0.96745   1.01876    0.076
 5509.00    0.95595   1.01846    0.076
 5510.00    0.96709   1.01536    0.077
 5511.00    0.98530   1.01269    0.079
 5512.00    0.99006   1.01295    0.079
 5513.00    0.99131   1.01212    0.078
 5514.00    1.01089   1.01340    0.079
 5515.00    1.03437   1.01800    0.080
 5516.00    1.02434   1.02395    0.080
 5517.00    1.00870   1.03194    0.081
 5518.00    0.99616   1.04058    0.081
 5519.00    0.98402   1.04942    0.081
 5520.00    1.00401   1.05715    0.081
 5521.00    1.02683   1.06180    0.081
 5522.00    1.02767   1.06444    0.082
 5523.00    1.02736   1.06407    0.084
 5524.00    1.03326   1.06072    0.083
 5525.00    1.03919   1.05611    0.083
 5526.00    1.03843   1.04960    0.082
 5527.00    1.03731   1.04362    0.082
 5528.00    1.02833   1.03955    0.081
 5529.00    1.02004   1.03536    0.081
 5530.00    1.02015   1.03356    0.081
 5531.00    1.02027   1.03511    0.081
 5532.00    1.02050   1.03637    0.081
 5533.00    1.01947   1.03786    0.080
 5534.00    1.01063   1.04176    0.080
 5535.00    1.00533   1.04524    0.079
 5536.00    1.01736   1.04708    0.079
 5537.00    1.02918   1.05092    0.079
 5538.00    1.04017   1.05514    0.080
 5539.00    1.04753   1.05763    0.081
 5540.00    1.04294   1.06137    0.084
 5541.00    1.03908   1.06478    0.099
 5542.00    1.03723   1.06700    0.240
 5543.00    1.03867   1.06984   -1.000
 5544.00    1.04796   1.07136   -1.000
 5545.00    1.05360   1.07323   -1.000
 5546.00    1.05171   1.07666   -1.000
 5547.00    1.05041   1.07849   -1.000
 5548.00    1.05018   1.08087   -1.000
 5549.00    1.05066   1.08470    0.394
 5550.00    1.05227   1.08611    0.110
 5551.00    1.05167   1.08640    0.078
 5552.00    1.04804   1.08660    0.078
 5553.00    1.04246   1.08469    0.078
 5554.00    1.03451   1.08176    0.077
 5555.00    1.03102   1.07826    0.077
 5556.00    1.03228   1.07434    0.077
 5557.00    1.03499   1.07092    0.077
 5558.00    1.03905   1.06671    0.078
 5559.00    1.04297   1.06262    0.078
 5560.00    1.04677   1.05927    0.078
 5561.00    1.03745   1.05449    0.078
 5562.00    1.01852   1.05002    0.078
 5563.00    0.99806   1.04597    0.079
 5564.00    0.97662   1.04049    0.079
 5565.00    0.97888   1.03646    0.080
 5566.00    0.99447   1.03358    0.080
 5567.00    1.00541   1.02934    0.081
 5568.00    1.01406   1.02708    0.082
 5569.00    1.01175   1.02774    0.081
 5570.00    1.00481   1.02656    0.080
 5571.00    1.00676   1.02601    0.081
 5572.00    1.01192   1.03044    0.081
 5573.00    1.01878   1.03260    0.082
 5574.00    1.02616   1.03302    0.082
 5575.00    1.02337   1.03928    0.081
 5576.00    1.01799   1.04327    0.080
 5577.00    1.00900   1.04322    0.080
 5578.00    0.99925   1.04754    0.079
 5579.00    1.00727   1.04928    0.079
 5580.00    1.01818   1.04562    0.079
 5581.00    1.01174   1.04372    0.078
 5582.00    1.00319   1.03870    0.078
 5583.00    1.00205   1.02881    0.078
 5584.00    1.00153   1.01951    0.078
 5585.00    0.98359   1.00827    0.078
 5586.00    0.96480   0.99571    0.078
 5587.00    0.94772   0.98520    0.076
 5588.00    0.93094   0.97631    0.075
 5589.00    0.93103   0.97055    0.075
 5590.00    0.93133   0.96804    0.076
 5591.00    0.93576   0.96901    0.076
 5592.00    0.94034   0.97315    0.077
 5593.00    0.94678   0.97819    0.077
 5594.00    0.95140   0.98529    0.078
 5595.00    0.94139   0.99156    0.078
 5596.00    0.93497   0.99515    0.077
 5597.00    0.95022   0.99967    0.079
 5598.00    0.96303   1.00147    0.080
 5599.00    0.96417   1.00014    0.079
 5600.00    0.96229   1.00157    0.079
 5601.00    0.94861   1.00310    0.078
 5602.00    0.94061   1.00451    0.078
 5603.00    0.95103   1.01014    0.078
 5604.00    0.96396   1.01802    0.079
 5605.00    0.98377   1.02742    0.079
 5606.00    0.99840   1.03811    0.080
 5607.00    1.00088   1.04803    0.078
 5608.00    1.00521   1.05685    0.078
 5609.00    1.01328   1.06286    0.079
 5610.00    1.02017   1.06481    0.080
 5611.00    1.02495   1.06350    0.080
 5612.00    1.02430   1.05886    0.080
 5613.00    1.01523   1.05031    0.080
 5614.00    1.01042   1.04097    0.079
 5615.00    1.01138   1.03197    0.078
 5616.00    1.00624   1.02134    0.078
 5617.00    0.99383   1.01372    0.079
 5618.00    0.98121   1.01008    0.078
 5619.00    0.96837   1.00562    0.077
 5620.00    0.96418   1.00351    0.077
 5621.00    0.96802   1.00468    0.077
 5622.00    0.96990   1.00452    0.076
 5623.00    0.97016   1.00432    0.075
 5624.00    0.97473   1.00598    0.075
 5625.00    0.98241   1.00709    0.077
 5626.00    0.98221   1.00905    0.077
 5627.00    0.97701   1.01426    0.076
 5628.00    0.97521   1.01921    0.075
 5629.00    0.97528   1.02394    0.075
 5630.00    0.97764   1.03076    0.075
 5631.00    0.98110   1.03595    0.075
 5632.00    0.98562   1.03808    0.074
 5633.00    0.99058   1.03923    0.074
 5634.00    0.98389   1.03829    0.074
 5635.00    0.97305   1.03467    0.075
 5636.00    0.97453   1.03024    0.074
 5637.00    0.97971   1.02572    0.073
 5638.00    0.97888   1.02088    0.073
 5639.00    0.97656   1.01658    0.075
 5640.00    0.97507   1.01426    0.075
 5641.00    0.97375   1.01295    0.075
 5642.00    0.97409   1.01180    0.075
 5643.00    0.97469   1.01313    0.075
 5644.00    0.99269   1.01560    0.075
 5645.00    1.01275   1.01733    0.076
 5646.00    1.01051   1.02059    0.076
 5647.00    1.00650   1.02398    0.076
 5648.00    0.99654   1.02648    0.077
 5649.00    0.98632   1.02921    0.077
 5650.00    0.98956   1.03048    0.078
 5651.00    0.99279   1.03067    0.078
 5652.00    0.98769   1.03011    0.077
 5653.00    0.98306   1.02705    0.077
 5654.00    0.98700   1.02312    0.078
 5655.00    0.99021   1.01808    0.078
 5656.00    0.98526   1.01033    0.078
 5657.00    0.97793   1.00424    0.078
 5658.00    0.95227   0.99940    0.078
 5659.00    0.93119   0.99233    0.077
 5660.00    0.93694   0.98900    0.077
 5661.00    0.94284   0.99045    0.076
 5662.00    0.94940   0.99067    0.074
 5663.00    0.95611   0.99247    0.073
 5664.00    0.96341   0.99827    0.073
 5665.00    0.96818   1.00366    0.073
 5666.00    0.96495   1.00827    0.074
 5667.00    0.96215   1.01394    0.075
 5668.00    0.96053   1.01919    0.075
 5669.00    0.95936   1.02417    0.074
 5670.00    0.95926   1.02981    0.073
 5671.00    0.96544   1.03534    0.073
 5672.00    0.98414   1.04071    0.073
 5673.00    1.00271   1.04625    0.074
 5674.00    1.02105   1.05167    0.074
 5675.00    1.03398   1.05554    0.075
 5676.00    1.03867   1.05733    0.076
 5677.00    1.03963   1.05821    0.077
 5678.00    1.03557   1.05750    0.077
 5679.00    1.02445   1.05412    0.077
 5680.00    1.00498   1.04926    0.077
 5681.00    0.98845   1.04438    0.077
 5682.00    0.97495   1.03914    0.077
 5683.00    0.96807   1.03291    0.076
 5684.00    0.96724   1.02778    0.075
 5685.00    0.96796   1.02479    0.075
 5686.00    0.96994   1.02249    0.076
 5687.00    0.97434   1.02138    0.077
 5688.00    0.98046   1.02261    0.077
 5689.00    0.97644   1.02532    0.076
 5690.00    0.96610   1.02913    0.076
 5691.00    0.97366   1.03381    0.076
 5692.00    0.99097   1.03796    0.076
 5693.00    1.01264   1.04173    0.076
 5694.00    1.03638   1.04429    0.077
 5695.00    1.04024   1.04433    0.078
 5696.00    1.03598   1.04212    0.078
 5697.00    1.02494   1.03857    0.078
 5698.00    1.01153   1.03356    0.077
 5699.00    1.00579   1.02591    0.077
 5700.00    1.00230   1.01874    0.077
 5701.00    0.99700   1.01237    0.077
 5702.00    0.99127   1.00426    0.077
 5703.00    0.99183   0.99736    0.076
 5704.00    0.99362   0.99136    0.076
 5705.00    0.97405   0.98508    0.074
 5706.00    0.95120   0.97964    0.073
 5707.00    0.93151   0.97373    0.072
 5708.00    0.91217   0.97003    0.072
 5709.00    0.92019   0.96841    0.072
 5710.00    0.93029   0.96676    0.073
 5711.00    0.94305   0.97035    0.072
 5712.00    0.95593   0.97667    0.072
 5713.00    0.96429   0.98282    0.073
 5714.00    0.97255   0.99421    0.073
 5715.00    0.97809   1.00636    0.073
 5716.00    0.98402   1.01652    0.073
 5717.00    0.99669   1.02897    0.073
 5718.00    1.00936   1.03997    0.074
 5719.00    1.02201   1.04823    0.075
 5720.00    1.03344   1.05673    0.075
 5721.00    1.03568   1.06306    0.077
 5722.00    1.03569   1.06682    0.078
 5723.00    1.02297   1.07001    0.077
 5724.00    1.01299   1.07121    0.076
 5725.00    1.01544   1.07004    0.077
 5726.00    1.01476   1.06870    0.077
 5727.00    1.00245   1.06661    0.076
 5728.00    0.99379   1.06301    0.075
 5729.00    0.99651   1.06037    0.075
 5730.00    0.99923   1.05918    0.074
 5731.00    1.00193   1.05794    0.075
 5732.00    1.00622   1.05670    0.075
 5733.00    1.01412   1.05710    0.076
 5734.00    1.02158   1.05877    0.076
 5735.00    1.02822   1.05937    0.076
 5736.00    1.03197   1.06009    0.076
 5737.00    1.03080   1.06126    0.075
 5738.00    1.02979   1.06131    0.075
 5739.00    1.02904   1.06137    0.074
 5740.00    1.03099   1.06131    0.000
 5741.00    1.03651   1.06057    0.000
 5742.00    1.04079   1.06041    0.000
 5743.00    1.04363   1.06003    0.000
 5744.00    1.04076   1.05901    0.000
 5745.00    1.03206   1.05840    0.000
 5746.00    1.02878   1.05729    0.000
 5747.00    1.03041   1.05562    0.000
 5748.00    1.03109   1.05346    0.000
 5749.00    1.03103   1.04996    0.000
 5750.00    1.02443   1.04702    0.000
 5751.00    1.01326   1.04465    0.000
 5752.00    1.01102   1.04135    0.000
 5753.00    1.01426   1.03893    0.000
 5754.00    1.01760   1.03771    0.000
 5755.00    1.02099   1.03649    0.000
 5756.00    1.01899   1.03677    0.000
 5757.00    1.01446   1.03775    0.000
 5758.00    1.01960   1.03752    0.000
 5759.00    1.02861   1.03773    0.000
 5760.00    1.03387   1.03790    0.000
 5761.00    1.03785   1.03721    0.000
 5762.00    1.03841   1.03783    0.000
 5763.00    1.03798   1.03922    0.000
 5764.00    1.04700   1.04109    0.000
 5765.00    1.05826   1.04561    0.000
 5766.00    1.05515   1.05053    0.000
 5767.00    1.04927   1.05424    0.000
 5768.00    1.04382   1.05844    0.000
 5769.00    1.03844   1.06169    0.000
 5770.00    1.03703   1.06242    0.000
 5771.00    1.03606   1.06238    0.000
 5772.00    1.03329   1.06128    0.000
 5773.00    1.03039   1.05803    0.000
 5774.00    1.03300   1.05486    0.000
 5775.00    1.03582   1.05063    0.000
 5776.00    1.04459   1.04447    0.000
 5777.00    1.05278   1.03828    0.000
 5778.00    1.03934   1.03037    0.000
 5779.00    1.02514   1.02071    0.000
 5780.00    0.99856   1.01133    0.000
 5781.00    0.97383   1.00124    0.000
 5782.00    0.96792   0.99137    0.000
 5783.00    0.96293   0.98410    0.000
 5784.00    0.96464   0.97991    0.000
 5785.00    0.96738   0.97850    0.000
 5786.00    0.97575   0.97879    0.000
 5787.00    0.98224   0.98314    0.000
 5788.00    0.98035   0.99072    0.000
 5789.00    0.98234   0.99748    0.000
 5790.00    0.99843   1.00608    0.000
 5791.00    1.01359   1.01492   -2.000
 5792.00    1.02587   1.02167   -2.000
 5793.00    1.03093   1.02959   -2.000
 5794.00    1.01727   1.03622   -2.000
 5795.00    1.01147   1.04102   -2.000
 5796.00    1.02325   1.04638   -2.000
 5797.00    1.03428   1.05081   -2.000
 5798.00    1.04386   1.05398   -2.000
 5799.00    1.04475   1.05661   -2.000
 5800.00    1.03097   1.05989   -2.000
 5801.00    1.02318   1.06242   -2.000
 5802.00    1.02421   1.06275   -2.000
 5803.00    1.03010   1.06336   -2.000
 5804.00    1.04227   1.06327   -2.000
 5805.00    1.04934   1.06117   -2.000
 5806.00    1.05056   1.05984   -2.000
 5807.00    1.05070   1.05871   -2.000
 5808.00    1.04976   1.05733   -2.000
 5809.00    1.04873   1.05679   -2.000
 5810.00    1.04763   1.05613   -2.000
 5811.00    1.04625   1.05593    0.000
 5812.00    1.04464   1.05592    0.000
 5813.00    1.04592   1.05517    0.000
 5814.00    1.04919   1.05493    0.000
 5815.00    1.05104   1.05511    0.000
 5816.00    1.05205   1.05538    0.000
 5817.00    1.05033   1.05624    0.000
 5818.00    1.04717   1.05833    0.000
 5819.00    1.04133   1.06168    0.000
 5820.00    1.03426   1.06477    0.000
 5821.00    1.03285   1.06783    0.000
 5822.00    1.03367   1.07111    0.000
 5823.00    1.03801   1.07362    0.000
 5824.00    1.04352   1.07536    0.000
 5825.00    1.04684   1.07674    0.000
 5826.00    1.04954   1.07781    0.000
 5827.00    1.04393   1.07815    0.000
 5828.00    1.03637   1.07810    0.000
 5829.00    1.03219   1.07772    0.000
 5830.00    1.02865   1.07707    0.000
 5831.00    1.03223   1.07602    0.000
 5832.00    1.03684   1.07424    0.000
 5833.00    1.04269   1.07251    0.000
 5834.00    1.04867   1.07113    0.000
 5835.00    1.04766   1.06936    0.000
 5836.00    1.04618   1.06772    0.000
 5837.00    1.05394   1.06772    0.000
 5838.00    1.06200   1.06822    0.000
 5839.00    1.05943   1.06808    0.000
 5840.00    1.05697   1.06891    0.000
 5841.00    1.05831   1.07029    0.000
 5842.00    1.05900   1.07057    0.000
 5843.00    1.05010   1.06992    0.000
 5844.00    1.04102   1.06844    0.000
 5845.00    1.03016   1.06551    0.000
 5846.00    1.02052   1.06141    0.000
 5847.00    1.01951   1.05649    0.000
 5848.00    1.01969   1.05050    0.000
 5849.00    1.02634   1.04411    0.000
 5850.00    1.03012   1.03759    0.000
 5851.00    1.02152   1.03070    0.000
 5852.00    1.01097   1.02400    0.000
 5853.00    0.99349   1.01710    0.000
 5854.00    0.97684   1.01009    0.000
 5855.00    0.96268   1.00424    0.000
 5856.00    0.95198   0.99985    0.000
 5857.00    0.95008   0.99643    0.000
 5858.00    0.95244   0.99329    0.000
 5859.00    0.96417   0.99233    0.000
 5860.00    0.96861   0.99396    0.000
 5861.00    0.95917   0.99608    0.000
 5862.00    0.95733   0.99941    0.000
 5863.00    0.96813   1.00284    0.000
 5864.00    0.97651   1.00636    0.000
 5865.00    0.98136   1.01083    0.000
 5866.00    0.98466   1.01496    0.000
 5867.00    0.98599   1.01809    0.000
 5868.00    0.99066   1.02115    0.000
 5869.00    0.99908   1.02467    0.000
 5870.00    1.00779   1.02753    0.000
 5871.00    1.01678   1.02940    0.000
 5872.00    1.01821   1.03040    0.000
 5873.00    1.01299   1.03041    0.000
 5874.00    1.00386   1.02917    0.000
 5875.00    0.99170   1.02716    0.000
 5876.00    0.98731   1.02418    0.000
 5877.00    0.98821   1.01970    0.000
 5878.00    0.98419   1.01463    0.000
 5879.00    0.97724   1.00903    0.000
 5880.00    0.97671   1.00238    0.000
 5881.00    0.97953   0.99419    0.000
 5882.00    0.97570   0.98448    0.000
 5883.00    0.96888   0.97355    0.000
 5884.00    0.95732   0.95956    0.000
 5885.00    0.94392   0.94122    0.000
 5886.00    0.92087   0.92044    0.000
 5887.00    0.89463   0.89779    0.000
 5888.00    0.86629   0.87280    0.000
 5889.00    0.83738   0.84828    0.000
 5890.00    0.82009   0.82483    0.000
 5891.00    0.80545   0.80359    0.000
 5892.00    0.79195   0.79150    0.000
 5893.00    0.77867   0.78583    0.000
 5894.00    0.78001   0.78330    0.000
 5895.00    0.78340   0.78898    0.000
 5896.00    0.79412   0.79832    0.000
 5897.00    0.80556   0.81028    0.000
 5898.00    0.82255   0.83083    0.000
 5899.00    0.83989   0.85345    0.000
 5900.00    0.86478   0.87466    0.000
 5901.00    0.88990   0.89743    0.073
 5902.00    0.91401   0.91899    0.073
 5903.00    0.93768   0.93773    0.073
 5904.00    0.94859   0.95410    0.073
 5905.00    0.95910   0.96716    0.073
 5906.00    0.96397   0.97700    0.073
 5907.00    0.96860   0.98455    0.073
 5908.00    0.97108   0.99004    0.072
 5909.00    0.97227   0.99343    0.071
 5910.00    0.96470   0.99512    0.071
 5911.00    0.95845   0.99539    0.071
 5912.00    0.95913   0.99472    0.070
 5913.00    0.96123   0.99399    0.070
 5914.00    0.96938   0.99227    0.070
 5915.00    0.97649   0.99003    0.070
 5916.00    0.97998   0.98962    0.070
 5917.00    0.98237   0.98947    0.070
 5918.00    0.98154   0.99032    0.069
 5919.00    0.98238   0.99242    0.068
 5920.00    0.98737   0.99409    0.067
 5921.00    0.98971   0.99689    0.067
 5922.00    0.98632   0.99956    0.068
 5923.00    0.97937   1.00087    0.069
 5924.00    0.96572   1.00270    0.069
 5925.00    0.95678   1.00385    0.069
 5926.00    0.95554   1.00365    0.069
 5927.00    0.95824   1.00383    0.070
 5928.00    0.96657   1.00299    0.070
 5929.00    0.97079   1.00186    0.071
 5930.00    0.96979   1.00095    0.072
 5931.00    0.96292   0.99922    0.072
 5932.00    0.94951   0.99921    0.071
 5933.00    0.94348   0.99962    0.071
 5934.00    0.94471   0.99953    0.072
 5935.00    0.95136   0.99975    0.073
 5936.00    0.96270   0.99988    0.072
 5937.00    0.96972   1.00138    0.072
 5938.00    0.97345   1.00259    0.073
 5939.00    0.97546   1.00283    0.073
 5940.00    0.97632   1.00397    0.072
 5941.00    0.98184   1.00457    0.072
 5942.00    0.99008   1.00432    0.071
 5943.00    0.99091   1.00481    0.072
 5944.00    0.98796   1.00512    0.073
 5945.00    0.98270   1.00493    0.072
 5946.00    0.97641   1.00480    0.071
 5947.00    0.97625   1.00417    0.070
 5948.00    0.97843   1.00290    0.068
 5949.00    0.97970   1.00088    0.068
 5950.00    0.98068   0.99846    0.068
 5951.00    0.98348   0.99685    0.068
 5952.00    0.98678   0.99574    0.069
 5953.00    0.98898   0.99371    0.069
 5954.00    0.99094   0.99172    0.070
 5955.00    0.99532   0.99195    0.070
 5956.00    1.00013   0.99317    0.070
 5957.00    1.00418   0.99413    0.070
 5958.00    1.00813   0.99581    0.071
 5959.00    0.99334   0.99854    0.070
 5960.00    0.97674   1.00232    0.070
 5961.00    0.97790   1.00611    0.071
 5962.00    0.98011   1.00949    0.073
 5963.00    0.97641   1.01293    0.072
 5964.00    0.97263   1.01572    0.072
 5965.00    0.97844   1.01852    0.073
 5966.00    0.98430   1.02071    0.073
 5967.00    0.99118   1.02195    0.073
 5968.00    0.99766   1.02404    0.073
 5969.00    0.99887   1.02536    0.072
 5970.00    1.00062   1.02574    0.072
 5971.00    1.00716   1.02575    0.073
 5972.00    1.01269   1.02457    0.073
 5973.00    1.01151   1.02253    0.072
 5974.00    1.01008   1.01963    0.071
 5975.00    1.00729   1.01593    0.071
 5976.00    1.00357   1.01185    0.071
 5977.00    0.99604   1.00723    0.070
 5978.00    0.98744   1.00326    0.069
 5979.00    0.97518   0.99978    0.069
 5980.00    0.96636   0.99625    0.068
 5981.00    0.96753   0.99406    0.068
 5982.00    0.96857   0.99196    0.068
 5983.00    0.96931   0.99003    0.068
 5984.00    0.96763   0.98896    0.068
 5985.00    0.96082   0.98766    0.067
 5986.00    0.95889   0.98838    0.067
 5987.00    0.96596   0.99057    0.067
 5988.00    0.97362   0.99223    0.068
 5989.00    0.98223   0.99492    0.070
 5990.00    0.98812   0.99796    0.070
 5991.00    0.99018   1.00110    0.070
 5992.00    0.98792   1.00353    0.071
 5993.00    0.98028   1.00460    0.071
 5994.00    0.97611   1.00592    0.071
 5995.00    0.97574   1.00626    0.070
 5996.00    0.97356   1.00531    0.070
 5997.00    0.96965   1.00379    0.071
 5998.00    0.96519   1.00112    0.071
 5999.00    0.96025   0.99854    0.071
 6000.00    0.96062   0.99666    0.071
 6001.00    0.96497   0.99418    0.070
 6002.00    0.96880   0.99200    0.070
 6003.00    0.97228   0.98937    0.071
 6004.00    0.97238   0.98587    0.070
 6005.00    0.97050   0.98444    0.069
 6006.00    0.96549   0.98292    0.069
 6007.00    0.95888   0.98077    0.070
 6008.00    0.95283   0.97939    0.069
 6009.00    0.94701   0.97708    0.068
 6010.00    0.94314   0.97682    0.068
 6011.00    0.94001   0.97791    0.067
 6012.00    0.94469   0.97723    0.068
 6013.00    0.95186   0.97651    0.069
 6014.00    0.95864   0.97534    0.068
 6015.00    0.96531   0.97460    0.068
 6016.00    0.96468   0.97474    0.068
 6017.00    0.96248   0.97341    0.068
 6018.00    0.95347   0.97205    0.068
 6019.00    0.94328   0.97222    0.069
 6020.00    0.93753   0.97233    0.069
 6021.00    0.93236   0.97322    0.070
 6022.00    0.93286   0.97517    0.069
 6023.00    0.93388   0.97766    0.069
 6024.00    0.93478   0.98185    0.069
 6025.00    0.93566   0.98594    0.069
 6026.00    0.94662   0.99091    0.070
 6027.00    0.95778   0.99647    0.071
 6028.00    0.96697   1.00116    0.071
 6029.00    0.97559   1.00665    0.071
 6030.00    0.97108   1.01162    0.071
 6031.00    0.96722   1.01578    0.070
 6032.00    0.97160   1.01938    0.070
 6033.00    0.97672   1.02229    0.070
 6034.00    0.98816   1.02496    0.070
 6035.00    0.99864   1.02671    0.070
 6036.00    1.00296   1.02760    0.070
 6037.00    1.00551   1.02826    0.069
 6038.00    0.99929   1.02844    0.069
 6039.00    0.99349   1.02880    0.068
 6040.00    0.98943   1.02894    0.068
 6041.00    0.98659   1.02891    0.068
 6042.00    0.98783   1.02984    0.068
 6043.00    0.99003   1.03065    0.068
 6044.00    0.99496   1.03207    0.068
 6045.00    1.00041   1.03370    0.068
 6046.00    1.00711   1.03486    0.068
 6047.00    1.01553   1.03602    0.068
 6048.00    1.02753   1.03652    0.068
 6049.00    1.02899   1.03624    0.068
 6050.00    1.01133   1.03503    0.068
 6051.00    0.99623   1.03350    0.068
 6052.00    0.98521   1.03106    0.068
 6053.00    0.98079   1.02800    0.069
 6054.00    0.98556   1.02456    0.071
 6055.00    0.99350   1.02128    0.072
 6056.00    1.00533   1.01862    0.072
 6057.00    1.00698   1.01580    0.072
 6058.00    0.99762   1.01348    0.071
 6059.00    0.98696   1.01155    0.070
 6060.00    0.97505   1.01018    0.070
 6061.00    0.97105   1.00869    0.071
 6062.00    0.97370   1.00743    0.072
 6063.00    0.97430   1.00698    0.072
 6064.00    0.97337   1.00676    0.070
 6065.00    0.97251   1.00792    0.069
 6066.00    0.97169   1.00923    0.069
 6067.00    0.97537   1.01215    0.068
 6068.00    0.98161   1.01734    0.068
 6069.00    0.99012   1.02198    0.068
 6070.00    0.99976   1.02666    0.068
 6071.00    1.00380   1.03054    0.068
 6072.00    1.00543   1.03338    0.068
 6073.00    1.01481   1.03568    0.068
 6074.00    1.02702   1.03547    0.069
 6075.00    1.02845   1.03341    0.069
 6076.00    1.02652   1.03034    0.069
 6077.00    1.01948   1.02548    0.068
 6078.00    1.01111   1.02008    0.068
 6079.00    1.00755   1.01421    0.069
 6080.00    1.00501   1.00835    0.070
 6081.00    0.99508   1.00384    0.069
 6082.00    0.98392   0.99942    0.068
 6083.00    0.97777   0.99538    0.069
 6084.00    0.97226   0.99309    0.070
 6085.00    0.97764   0.99161    0.069
 6086.00    0.98399   0.99019    0.069
 6087.00    0.98633   0.98937    0.069
 6088.00    0.98846   0.98876    0.069
 6089.00    0.98603   0.98869    0.071
 6090.00    0.98345   0.98895    0.072
 6091.00    0.97714   0.98870    0.071
 6092.00    0.97136   0.98908    0.070
 6093.00    0.97676   0.99012    0.069
 6094.00    0.98198   0.99105    0.068
 6095.00    0.98506   0.99218    0.068
 6096.00    0.98679   0.99341    0.069
 6097.00    0.97727   0.99354    0.068
 6098.00    0.96873   0.99207    0.068
 6099.00    0.96632   0.98981    0.067
 6100.00    0.96538   0.98817    0.066
 6101.00    0.97166   0.98612    0.067
 6102.00    0.97795   0.98360    0.068
 6103.00    0.98434   0.98018    0.068
 6104.00    0.98906   0.97763    0.069
 6105.00    0.98829   0.97973    0.068
 6106.00    0.98856   0.98243    0.068
 6107.00    0.99176   0.98498    0.067
 6108.00    0.99478   0.98805    0.067
 6109.00    0.99739   0.99108    0.069
 6110.00    0.99756   0.99618    0.069
 6111.00    0.99274   1.00055    0.068
 6112.00    0.99121   1.00210    0.068
 6113.00    0.99555   1.00315    0.070
 6114.00    0.99917   1.00384    0.071
 6115.00    1.00165   1.00321    0.071
 6116.00    1.00185   1.00111    0.071
 6117.00    0.99892   0.99668    0.070
 6118.00    0.99252   0.99115    0.070
 6119.00    0.98194   0.98698    0.070
 6120.00    0.96872   0.98231    0.070
 6121.00    0.95268   0.97705    0.070
 6122.00    0.94197   0.97303    0.070
 6123.00    0.93628   0.96934    0.069
 6124.00    0.93874   0.96874    0.069
 6125.00    0.94796   0.97039    0.069
 6126.00    0.95692   0.97150    0.069
 6127.00    0.96569   0.97343    0.068
 6128.00    0.97360   0.97505    0.068
 6129.00    0.98097   0.97674    0.067
 6130.00    0.98146   0.97815    0.067
 6131.00    0.97809   0.97760    0.066
 6132.00    0.96903   0.97501    0.067
 6133.00    0.95720   0.97022    0.068
 6134.00    0.94127   0.96549    0.068
 6135.00    0.92362   0.96064    0.067
 6136.00    0.91431   0.95539    0.068
 6137.00    0.90802   0.95042    0.069
 6138.00    0.91059   0.94633    0.070
 6139.00    0.91587   0.94710    0.069
 6140.00    0.91188   0.95133    0.069
 6141.00    0.90553   0.95626    0.070
 6142.00    0.91224   0.96143    0.070
 6143.00    0.92164   0.96655    0.070
 6144.00    0.93378   0.97338    0.070
 6145.00    0.94637   0.97976    0.070
 6146.00    0.96342   0.98357    0.070
 6147.00    0.98102   0.98557    0.069
 6148.00    0.99013   0.98583    0.070
 6149.00    0.99855   0.98545    0.070
 6150.00    0.99083   0.98367    0.069
 6151.00    0.98234   0.98064    0.068
 6152.00    0.97931   0.97761    0.068
 6153.00    0.97619   0.97382    0.068
 6154.00    0.96370   0.96950    0.068
 6155.00    0.95169   0.96371    0.067
 6156.00    0.94903   0.95637    0.067
 6157.00    0.94638   0.94800    0.067
 6158.00    0.94391   0.93829    0.068
 6159.00    0.93877   0.92809    0.068
 6160.00    0.91229   0.91781    0.068
 6161.00    0.88629   0.90770    0.067
 6162.00    0.86309   0.89765    0.066
 6163.00    0.84478   0.89004    0.066
 6164.00    0.84970   0.88570    0.066
 6165.00    0.85562   0.88357    0.067
 6166.00    0.86542   0.88400    0.067
 6167.00    0.87549   0.88582    0.067
 6168.00    0.88645   0.88955    0.068
 6169.00    0.89849   0.89417    0.069
 6170.00    0.91351   0.89831    0.070
 6171.00    0.92322   0.90323    0.070
 6172.00    0.92049   0.90937    0.070
 6173.00    0.92032   0.91568    0.070
 6174.00    0.92533   0.92127    0.070
 6175.00    0.92924   0.92663    0.070
 6176.00    0.93122   0.93163    0.070
 6177.00    0.92632   0.93678    0.070
 6178.00    0.91078   0.94138    0.069
 6179.00    0.89545   0.94517    0.068
 6180.00    0.88042   0.94839    0.066
 6181.00    0.87872   0.95000    0.065
 6182.00    0.89293   0.95056    0.065
 6183.00    0.90558   0.95020    0.066
 6184.00    0.91661   0.94825    0.066
 6185.00    0.91959   0.94518    0.066
 6186.00    0.91512   0.94105    0.066
 6187.00    0.91206   0.93497    0.066
 6188.00    0.91017   0.92928    0.066
 6189.00    0.90568   0.92468    0.066
 6190.00    0.89934   0.92052    0.068
 6191.00    0.89424   0.91806    0.068
 6192.00    0.88992   0.91579    0.068
 6193.00    0.88712   0.91589    0.068
 6194.00    0.88516   0.91909    0.069
 6195.00    0.87978   0.92208    0.071
 6196.00    0.87274   0.92571   -2.000
 6197.00    0.88263   0.92954   -2.000
 6198.00    0.89953   0.93339   -2.000
 6199.00    0.91214   0.93724   -2.000
 6200.00    0.92322   0.93968   -2.000
 6201.00    0.93945   0.94176   -2.000
 6202.00    0.95721   0.94458   -2.000
 6203.00    0.96077   0.94728   -2.000
 6204.00    0.96081   0.94931   -2.000
 6205.00    0.96326   0.95050   -2.000
 6206.00    0.96621   0.95064   -2.000
 6207.00    0.95677   0.95008   -2.000
 6208.00    0.94538   0.94834    0.071
 6209.00    0.94006   0.94451    0.070
 6210.00    0.93545   0.93923    0.070
 6211.00    0.92793   0.93269    0.068
 6212.00    0.92018   0.92511    0.066
 6213.00    0.90593   0.91780    0.065
 6214.00    0.89139   0.90992    0.065
 6215.00    0.87987   0.90231    0.065
 6216.00    0.86864   0.89643    0.064
 6217.00    0.86935   0.89196    0.064
 6218.00    0.87056   0.88968    0.064
 6219.00    0.88080   0.88875    0.066
 6220.00    0.89070   0.88783    0.068
 6221.00    0.89675   0.88834    0.068
 6222.00    0.90135   0.88976    0.068
 6223.00    0.89470   0.89148    0.068
 6224.00    0.88982   0.89323    0.069
 6225.00    0.89527   0.89339    0.069
 6226.00    0.90093   0.89289    0.070
 6227.00    0.90757   0.89204    0.070
 6228.00    0.91402   0.89087    0.070
 6229.00    0.91972   0.88945    0.070
 6230.00    0.92364   0.88810    0.069
 6231.00    0.92192   0.88667    0.069
 6232.00    0.91881   0.88614    0.068
 6233.00    0.91194   0.88758    0.067
 6234.00    0.90564   0.88901    0.066
 6235.00    0.90065   0.89144    0.065
 6236.00    0.89614   0.89310    0.065
 6237.00    0.89259   0.89386    0.065
 6238.00    0.88963   0.89392    0.065
 6239.00    0.88771   0.89181    0.065
 6240.00    0.88479   0.88964    0.065
 6241.00    0.88034   0.88641    0.065
 6242.00    0.88073   0.88345    0.065
 6243.00    0.88758   0.88147    0.065
 6244.00    0.89154   0.87906    0.065
 6245.00    0.89213   0.87838    0.066
 6246.00    0.89184   0.87866    0.067
 6247.00    0.89066   0.87899    0.068
 6248.00    0.89301   0.87983    0.069
 6249.00    0.89861   0.88039    0.070
 6250.00    0.89625   0.87982    0.070
 6251.00    0.88749   0.87823    0.069
 6252.00    0.88043   0.87524    0.068
 6253.00    0.87459   0.87080    0.069
 6254.00    0.86634   0.86655    0.069
 6255.00    0.85659   0.86253    0.068
 6256.00    0.84715   0.86002    0.069
 6257.00    0.83788   0.85822    0.069
 6258.00    0.84130   0.85783    0.070
 6259.00    0.85071   0.85967    0.070
 6260.00    0.86528   0.86304    0.073
 6261.00    0.88196   0.86883    0.078
 6262.00    0.89927   0.87483    0.080
 6263.00    0.91680   0.88154    0.081
 6264.00    0.92281   0.88825    0.079
 6265.00    0.92543   0.89371    0.076
 6266.00    0.91602   0.89824    0.072
 6267.00    0.90370   0.90217    0.069
 6268.00    0.90345   0.90592    0.067
 6269.00    0.90558   0.90874    0.066
 6270.00    0.91672   0.91059    0.066
 6271.00    0.92924   0.91224    0.066
 6272.00    0.93183   0.91380    0.067
 6273.00    0.93330   0.91516    0.068
 6274.00    0.94179   0.91632    0.068
 6275.00    0.95081   0.91685    0.068
 6276.00    0.95346   0.91679    0.068
 6277.00    0.95585   0.91673    0.069
 6278.00    0.94270   0.91647    0.069
 6279.00    0.92944   0.91619    0.069
 6280.00    0.91617   0.91637    0.000
 6281.00    0.90398   0.91611    0.000
 6282.00    0.90988   0.91697    0.000
 6283.00    0.91591   0.91893    0.000
 6284.00    0.92330   0.92117    0.000
 6285.00    0.92994   0.92446    0.000
 6286.00    0.93097   0.92682    0.000
 6287.00    0.93230   0.92916    0.000
 6288.00    0.93533   0.93142    0.000
 6289.00    0.93902   0.93237    0.000
 6290.00    0.94571   0.93291    0.000
 6291.00    0.95192   0.93171    0.000
 6292.00    0.95631   0.92910    0.000
 6293.00    0.95632   0.92607    0.000
 6294.00    0.94274   0.92210    0.000
 6295.00    0.93008   0.91846    0.000
 6296.00    0.91989   0.91466    0.000
 6297.00    0.91259   0.91026    0.000
 6298.00    0.91184   0.90653    0.000
 6299.00    0.91030   0.90383    0.000
 6300.00    0.90717   0.90249    0.000
 6301.00    0.90514   0.90209    0.000
 6302.00    0.90498   0.90214    0.000
 6303.00    0.90747   0.90349    0.000
 6304.00    0.91395   0.90601    0.000
 6305.00    0.92232   0.90919    0.000
 6306.00    0.93319   0.91239    0.000
 6307.00    0.94290   0.91518    0.000
 6308.00    0.95126   0.91786    0.000
 6309.00    0.94747   0.91942    0.000
 6310.00    0.93124   0.91971    0.000
 6311.00    0.92195   0.91837    0.000
 6312.00    0.91889   0.91595    0.000
 6313.00    0.91498   0.91285    0.000
 6314.00    0.91040   0.90914    0.000
 6315.00    0.90778   0.90566    0.000
 6316.00    0.90654   0.90202    0.000
 6317.00    0.90970   0.89970    0.000
 6318.00    0.91558   0.89858    0.000
 6319.00    0.91627   0.89785    0.000
 6320.00    0.91419   0.89952    0.000
 6321.00    0.90797   0.90244    0.064
 6322.00    0.89983   0.90637    0.065
 6323.00    0.89940   0.91075    0.065
 6324.00    0.90205   0.91514    0.066
 6325.00    0.91060   0.92040    0.067
 6326.00    0.92117   0.92425    0.067
 6327.00    0.93253   0.92793    0.068
 6328.00    0.94413   0.93060    0.069
 6329.00    0.95501   0.93193    0.069
 6330.00    0.96571   0.93278    0.070
 6331.00    0.96383   0.93142    0.069
 6332.00    0.95953   0.92983    0.068
 6333.00    0.95313   0.92760    0.068
 6334.00    0.94641   0.92489    0.069
 6335.00    0.93549   0.92200    0.068
 6336.00    0.92412   0.91842    0.067
 6337.00    0.91830   0.91570    0.066
 6338.00    0.91288   0.91372    0.065
 6339.00    0.91318   0.91282    0.066
 6340.00    0.91368   0.91219    0.066
 6341.00    0.92178   0.91259    0.066
 6342.00    0.93006   0.91351    0.065
 6343.00    0.94363   0.91414    0.065
 6344.00    0.95647   0.91533    0.065
 6345.00    0.95775   0.91653    0.065
 6346.00    0.95790   0.91865    0.066
 6347.00    0.94663   0.92077    0.066
 6348.00    0.93638   0.92249    0.066
 6349.00    0.93360   0.92413    0.066
 6350.00    0.93175   0.92483    0.066
 6351.00    0.93513   0.92444    0.067
 6352.00    0.93678   0.92308    0.067
 6353.00    0.93079   0.92056    0.068
 6354.00    0.92401   0.91664    0.068
 6355.00    0.91435   0.91123    0.068
 6356.00    0.90710   0.90495    0.068
 6357.00    0.90717   0.89877    0.068
 6358.00    0.90616   0.89252    0.067
 6359.00    0.90235   0.88642    0.067
 6360.00    0.89611   0.88145    0.067
 6361.00    0.88445   0.87819    0.067
 6362.00    0.87573   0.87661    0.067
 6363.00    0.87267   0.87680    0.067
 6364.00    0.87543   0.87941    0.066
 6365.00    0.88800   0.88388    0.066
 6366.00    0.89760   0.88969    0.066
 6367.00    0.90282   0.89662    0.066
 6368.00    0.90465   0.90421    0.066
 6369.00    0.90207   0.91212    0.066
 6370.00    0.90642   0.91923    0.065
 6371.00    0.91868   0.92556    0.064
 6372.00    0.93100   0.93107    0.064
 6373.00    0.94341   0.93559    0.066
 6374.00    0.94975   0.93894    0.067
 6375.00    0.95070   0.94085    0.067
 6376.00    0.95121   0.94186    0.067
 6377.00    0.95138   0.94192    0.067
 6378.00    0.95003   0.94138    0.067
 6379.00    0.94763   0.94025    0.069
 6380.00    0.94752   0.93906    0.069
 6381.00    0.94880   0.93822    0.067
 6382.00    0.94962   0.93730    0.067
 6383.00    0.95021   0.93706    0.068
 6384.00    0.95068   0.93706    0.068
 6385.00    0.95110   0.93700    0.068
 6386.00    0.95102   0.93694    0.068
 6387.00    0.95076   0.93661    0.067
 6388.00    0.94798   0.93605    0.067
 6389.00    0.94437   0.93476    0.066
 6390.00    0.94644   0.93312    0.065
 6391.00    0.95012   0.93126    0.065
 6392.00    0.95006   0.92883    0.065
 6393.00    0.94914   0.92619    0.066
 6394.00    0.94364   0.92307    0.066
 6395.00    0.93729   0.92099    0.066
 6396.00    0.93020   0.91975    0.067
 6397.00    0.92299   0.91918    0.067
 6398.00    0.91316   0.91945    0.067
 6399.00    0.90305   0.91969    0.068
 6400.00    0.90781   0.92027    0.068
 6401.00    0.91356   0.92031    0.068
 6402.00    0.91768   0.92191    0.069
 6403.00    0.92175   0.92425    0.069
 6404.00    0.91944   0.92584    0.068
 6405.00    0.91742   0.92740    0.068
 6406.00    0.92401   0.92791    0.067
 6407.00    0.93054   0.92780    0.067
 6408.00    0.93606   0.92703    0.069
 6409.00    0.94007   0.92590    0.070
 6410.00    0.92954   0.92546    0.068
 6411.00    0.92015   0.92470    0.066
 6412.00    0.91868   0.92351    0.066
 6413.00    0.91836   0.92275    0.065
 6414.00    0.92427   0.92216    0.065
 6415.00    0.93038   0.92156    0.064
 6416.00    0.93741   0.92122    0.064
 6417.00    0.94084   0.92135    0.064
 6418.00    0.93149   0.92130    0.065
 6419.00    0.92394   0.92136    0.066
 6420.00    0.92181   0.92159    0.065
 6421.00    0.92102   0.92218    0.065
 6422.00    0.92363   0.92344    0.066
 6423.00    0.92303   0.92535    0.067
 6424.00    0.91539   0.92792    0.067
 6425.00    0.91017   0.92986    0.067
 6426.00    0.90956   0.93150    0.067
 6427.00    0.91287   0.93246    0.067
 6428.00    0.92270   0.93291    0.068
 6429.00    0.93389   0.93268    0.069
 6430.00    0.94706   0.93183    0.069
 6431.00    0.95288   0.93053    0.069
 6432.00    0.94928   0.92869    0.071
 6433.00    0.94235   0.92777    0.070
 6434.00    0.93166   0.92734    0.067
 6435.00    0.92660   0.92759    0.066
 6436.00    0.92714   0.92837    0.067
 6437.00    0.93073   0.92930    0.067
 6438.00    0.93699   0.93067    0.067
 6439.00    0.93759   0.93204    0.066
 6440.00    0.93383   0.93372    0.066
 6441.00    0.93854   0.93626    0.066
 6442.00    0.94901   0.93864    0.066
 6443.00    0.96027   0.94019    0.066
 6444.00    0.97199   0.94080    0.065
 6445.00    0.97243   0.94018    0.066
 6446.00    0.96702   0.93830    0.067
 6447.00    0.96017   0.93555    0.068
 6448.00    0.95266   0.93194    0.068
 6449.00    0.94122   0.92778    0.069
 6450.00    0.92826   0.92327    0.071
 6451.00    0.91758   0.91938    0.070
 6452.00    0.90765   0.91783    0.069
 6453.00    0.90500   0.91755    0.069
 6454.00    0.90437   0.91897    0.069
 6455.00    0.91156   0.92128    0.069
 6456.00    0.92053   0.92322    0.069
 6457.00    0.91626   0.92545    0.068
 6458.00    0.90958   0.92768    0.068
 6459.00    0.90766   0.92971    0.067
 6460.00    0.90640   0.93127    0.066
 6461.00    0.91835   0.93199    0.066
 6462.00    0.93162   0.93221    0.067
 6463.00    0.93415   0.93145    0.066
 6464.00    0.93601   0.93097    0.066
 6465.00    0.93997   0.93146    0.065
 6466.00    0.94397   0.93209    0.065
 6467.00    0.94342   0.93358    0.064
 6468.00    0.94281   0.93478    0.064
 6469.00    0.94058   0.93597    0.065
 6470.00    0.93909   0.93664    0.065
 6471.00    0.94808   0.93730    0.066
 6472.00    0.95575   0.93759    0.066
 6473.00    0.95119   0.93756    0.067
 6474.00    0.94614   0.93778    0.067
 6475.00    0.93782   0.93710    0.068
 6476.00    0.93062   0.93604    0.069
 6477.00    0.92930   0.93457    0.069
 6478.00    0.92992   0.93303    0.069
 6479.00    0.93871   0.93096    0.069
 6480.00    0.94732   0.92874    0.069
 6481.00    0.95529   0.92649    0.068
 6482.00    0.96215   0.92397    0.068
 6483.00    0.96573   0.92149    0.067
 6484.00    0.96622   0.91930    0.067
 6485.00    0.95894   0.91742    0.067
 6486.00    0.95123   0.91537    0.066
 6487.00    0.94258   0.91279    0.066
 6488.00    0.93573   0.90871    0.066
 6489.00    0.93227   0.90343    0.065
 6490.00    0.92493   0.89656    0.064
 6491.00    0.91126   0.88820    0.064
 6492.00    0.90039   0.87903    0.065
 6493.00    0.89352   0.86912    0.066
 6494.00    0.88865   0.85994    0.066
 6495.00    0.88631   0.85140    0.067
 6496.00    0.88242   0.84527    0.068
 6497.00    0.87679   0.84224    0.067
 6498.00    0.87014   0.84208    0.067
 6499.00    0.86249   0.84576    0.067
 6500.00    0.85803   0.85131    0.067
 6501.00    0.85633   0.85932    0.067
 6502.00    0.86532   0.86834    0.067
 6503.00    0.88246   0.87768    0.067
 6504.00    0.90003   0.88716    0.068
 6505.00    0.91788   0.89560    0.069
 6506.00    0.93500   0.90305    0.068
 6507.00    0.95169   0.90917    0.066
 6508.00    0.95757   0.91382    0.066
 6509.00    0.95792   0.91704    0.066
 6510.00    0.95203   0.91907    0.065
 6511.00    0.94338   0.92028    0.065
 6512.00    0.93985   0.92067    0.065
 6513.00    0.93827   0.92030    0.065
 6514.00    0.94421   0.91975    0.066
 6515.00    0.95256   0.91874    0.066
 6516.00    0.95920   0.91764    0.066
 6517.00    0.96538   0.91663    0.065
 6518.00    0.96475   0.91605    0.066
 6519.00    0.96261   0.91590    0.067
 6520.00    0.96533   0.91612    0.068
 6521.00    0.96891   0.91714    0.070
 6522.00    0.96713   0.91818    0.069
 6523.00    0.96464   0.91959    0.069
 6524.00    0.96138   0.92067    0.076
 6525.00    0.95805   0.92148    0.087
 6526.00    0.95931   0.92194    0.088
 6527.00    0.96085   0.92191    0.089
 6528.00    0.94639   0.92164    0.000
 6529.00    0.93159   0.92137    0.000
 6530.00    0.92564   0.92114    0.000
 6531.00    0.92037   0.92102    0.000
 6532.00    0.93221   0.92116    0.000
 6533.00    0.94370   0.92137    0.000
 6534.00    0.95060   0.92198    0.000
 6535.00    0.95675   0.92275    0.000
 6536.00    0.95629   0.92383    0.000
 6537.00    0.95589   0.92473    0.000
 6538.00    0.95596   0.92525    0.000
 6539.00    0.95613   0.92524    0.000
 6540.00    0.95676   0.92435    0.000
 6541.00    0.95863   0.92285    0.000
 6542.00    0.96556   0.92042    0.000
 6543.00    0.97121   0.91729    0.000
 6544.00    0.97244   0.91351    0.000
 6545.00    0.97363   0.90927    0.000
 6546.00    0.97470   0.90510    0.000
 6547.00    0.97644   0.90054    0.000
 6548.00    0.97983   0.89652    0.000
 6549.00    0.97841   0.89255    0.000
 6550.00    0.96680   0.88870    0.000
 6551.00    0.95373   0.88486    0.000
 6552.00    0.93796   0.88027    0.000
 6553.00    0.92569   0.87524    0.000
 6554.00    0.91905   0.86927    0.000
 6555.00    0.90979   0.86231    0.000
 6556.00    0.89685   0.85415    0.000
 6557.00    0.88713   0.84491    0.000
 6558.00    0.88141   0.83572    0.000
 6559.00    0.88115   0.82599    0.000
 6560.00    0.88687   0.81659    0.000
 6561.00    0.88602   0.80790    0.000
 6562.00    0.87884   0.80077    0.000
 6563.00    0.87613   0.79557    0.000
 6564.00    0.87722   0.79297    0.000
 6565.00    0.88309   0.79489    0.000
 6566.00    0.89254   0.79948    0.000
 6567.00    0.89555   0.80708    0.000
 6568.00    0.89432   0.81612    0.000
 6569.00    0.89569   0.82484    0.000
 6570.00    0.89857   0.83323    0.000
 6571.00    0.90287   0.84077    0.000
 6572.00    0.90789   0.84736    0.000
 6573.00    0.91368   0.85286    0.000
 6574.00    0.91981   0.85778    0.000
 6575.00    0.91416   0.86222    0.000
 6576.00    0.90411   0.86602    0.000
 6577.00    0.89466   0.87014    0.000
 6578.00    0.88540   0.87401    0.000
 6579.00    0.89875   0.87790    0.000
 6580.00    0.91806   0.88141    0.000
 6581.00    0.94032   0.88454    0.000
 6582.00    0.96322   0.88713    0.000
 6583.00    0.97991   0.88939    0.000
 6584.00    0.99553   0.89125    0.000
 6585.00    1.00629   0.89254    0.000
 6586.00    1.01640   0.89333    0.000
 6587.00    1.01108   0.89308    0.000
 6588.00    1.00434   0.89225    0.000
 6589.00    0.98553   0.89079    0.000
 6590.00    0.96605   0.88842    0.000
 6591.00    0.94848   0.88589    0.000
 6592.00    0.93092   0.88281    0.000
 6593.00    0.91037   0.87993    0.000
 6594.00    0.89047   0.87736    0.000
 6595.00    0.88558   0.87588    0.000
 6596.00    0.88149   0.87559    0.000
 6597.00    0.88771   0.87634    0.000
 6598.00    0.89404   0.87820    0.000
 6599.00    0.90126   0.88017    0.000
 6600.00    0.90818   0.88225    0.000
 6601.00    0.91313   0.88422    0.000
 6602.00    0.91644   0.88570    0.000
 6603.00    0.91152   0.88652    0.000
 6604.00    0.90746   0.88664    0.000
 6605.00    0.90682   0.88605    0.000
 6606.00    0.90851   0.88489    0.000
 6607.00    0.91805   0.88374    0.000
 6608.00    0.92375   0.88267    0.000
 6609.00    0.91860   0.88233    0.067
 6610.00    0.91214   0.88251    0.067
 6611.00    0.90248   0.88371    0.067
 6612.00    0.89670   0.88571    0.067
 6613.00    0.89905   0.88827    0.067
 6614.00    0.90264   0.89129    0.068
 6615.00    0.90847   0.89396    0.068
 6616.00    0.91460   0.89658    0.068
 6617.00    0.92122   0.89847    0.068
 6618.00    0.92567   0.89992    0.068
 6619.00    0.92710   0.90050    0.068
 6620.00    0.93103   0.90025    0.068
 6621.00    0.93800   0.89927    0.068
 6622.00    0.94319   0.89759    0.067
 6623.00    0.94644   0.89538    0.066
 6624.00    0.94410   0.89254    0.065
 6625.00    0.93645   0.88951    0.066
 6626.00    0.93041   0.88613    0.065
 6627.00    0.92573   0.88317    0.065
 6628.00    0.92009   0.88009    0.065
 6629.00    0.91374   0.87754    0.065
 6630.00    0.90650   0.87510    0.066
 6631.00    0.89868   0.87276    0.067
 6632.00    0.89486   0.87086    0.068
 6633.00    0.89331   0.86930    0.069
 6634.00    0.89173   0.86828    0.068
 6635.00    0.89013   0.86773    0.067
 6636.00    0.88998   0.86791    0.067
 6637.00    0.89044   0.86849    0.067
 6638.00    0.89913   0.86957    0.067
 6639.00    0.91084   0.87071    0.068
 6640.00    0.92196   0.87165    0.068
 6641.00    0.93290   0.87236    0.068
 6642.00    0.93508   0.87293    0.068
 6643.00    0.93501   0.87332    0.068
 6644.00    0.93197   0.87350    0.067
 6645.00    0.92830   0.87375    0.064
 6646.00    0.92320   0.87386    0.064
 6647.00    0.91785   0.87411    0.064
 6648.00    0.91775   0.87456    0.064
 6649.00    0.91831   0.87490    0.064
 6650.00    0.91449   0.87516    0.065
 6651.00    0.91030   0.87525    0.066
 6652.00    0.90263   0.87528    0.067
 6653.00    0.89479   0.87499    0.068
 6654.00    0.88592   0.87446    0.067
 6655.00    0.87723   0.87347    0.066
 6656.00    0.88303   0.87235    0.067
 6657.00    0.88884   0.87075    0.068
 6658.00    0.89481   0.86881    0.068
 6659.00    0.90004   0.86660    0.069
 6660.00    0.89619   0.86398    0.069
 6661.00    0.89204   0.86150    0.070
 6662.00    0.88533   0.85895    0.068
 6663.00    0.88039   0.85686    0.066
 6664.00    0.88631   0.85503    0.068
 6665.00    0.89202   0.85417    0.069
 6666.00    0.89666   0.85401    0.068
 6667.00    0.89960   0.85464    0.067
 6668.00    0.89578   0.85618    0.066
 6669.00    0.89403   0.85785    0.066
 6670.00    0.89907   0.85965    0.065
 6671.00    0.90449   0.86136    0.065
 6672.00    0.91093   0.86264    0.065
 6673.00    0.91284   0.86322    0.066
 6674.00    0.90402   0.86299    0.066
 6675.00    0.89700   0.86198    0.067
 6676.00    0.89370   0.86050    0.067
 6677.00    0.89075   0.85868    0.066
 6678.00    0.88843   0.85692    0.066
 6679.00    0.88820   0.85527    0.066
 6680.00    0.89124   0.85438    0.068
 6681.00    0.89533   0.85418    0.069
 6682.00    0.90087   0.85491    0.070
 6683.00    0.90644   0.85654    0.070
 6684.00    0.91204   0.85809    0.069
 6685.00    0.91371   0.85992    0.069
 6686.00    0.91119   0.86168    0.068
 6687.00    0.90560   0.86314    0.067
 6688.00    0.89713   0.86418    0.066
 6689.00    0.89283   0.86460    0.066
 6690.00    0.89197   0.86463    0.066
 6691.00    0.89705   0.86406    0.066
 6692.00    0.90644   0.86315    0.065
 6693.00    0.91058   0.86183    0.066
 6694.00    0.91136   0.86022    0.067
 6695.00    0.90636   0.85847    0.067
 6696.00    0.89811   0.85679    0.000
 6697.00    0.88926   0.85518    0.000
 6698.00    0.88010   0.85402    0.000
 6699.00    0.87383   0.85304    0.000
 6700.00    0.86879   0.85258    0.000
 6701.00    0.86947   0.85260    0.000
 6702.00    0.87222   0.85257    0.000
 6703.00    0.86861   0.85277    0.000
 6704.00    0.86306   0.85268    0.000
 6705.00    0.86865   0.85238    0.000
 6706.00    0.87706   0.85187    0.000
 6707.00    0.87387   0.85102    0.000
 6708.00    0.86830   0.84996    0.000
 6709.00    0.87661   0.84844    0.000
 6710.00    0.88717   0.84655    0.000
 6711.00    0.88458   0.84407    0.000
 6712.00    0.88039   0.84136    0.000
 6713.00    0.89372   0.83839    0.000
 6714.00    0.90850   0.83529    0.000
 6715.00    0.91353   0.83272    0.000
 6716.00    0.91810   0.83034    0.000
 6717.00    0.90510   0.82877    0.000
 6718.00    0.89179   0.82799    0.000
 6719.00    0.87444   0.82807    0.000
 6720.00    0.85779   0.82922    0.000
 6721.00    0.85475   0.83088    0.000
 6722.00    0.85256   0.83345    0.000
 6723.00    0.86012   0.83589    0.000
 6724.00    0.86751   0.83843    0.000
 6725.00    0.87369   0.84066    0.000
 6726.00    0.88097   0.84285    0.000
 6727.00    0.89483   0.84468    0.000
 6728.00    0.90819   0.84614    0.000
 6729.00    0.91917   0.84721    0.000
 6730.00    0.92661   0.84805    0.000
 6731.00    0.92040   0.84873    0.000
 6732.00    0.91583   0.84886    0.000
 6733.00    0.91658   0.84879    0.000
 6734.00    0.91564   0.84816    0.000
 6735.00    0.91009   0.84730    0.000
 6736.00    0.90432   0.84597    0.000
 6737.00    0.89805   0.84460    0.000
 6738.00    0.88843   0.84297    0.000
 6739.00    0.87202   0.84134    0.000
 6740.00    0.86146   0.83957    0.000
 6741.00    0.86120   0.83782    0.000
 6742.00    0.86231   0.83626    0.000
 6743.00    0.86555   0.83489    0.000
 6744.00    0.87127   0.83370    0.000
 6745.00    0.88035   0.83248    0.000
 6746.00    0.88260   0.83142    0.000
 6747.00    0.87671   0.83050    0.000
 6748.00    0.87183   0.83003    0.000
 6749.00    0.86800   0.82945    0.000
 6750.00    0.86174   0.82949    0.000
 6751.00    0.85323   0.82975    0.000
 6752.00    0.84769   0.83072    0.000
 6753.00    0.84458   0.83213    0.071
 6754.00    0.84427   0.83401    0.072
 6755.00    0.84596   0.83664    0.072
 6756.00    0.84835   0.83903    0.073
 6757.00    0.85116   0.84205    0.073
 6758.00    0.86262   0.84474    0.073
 6759.00    0.87883   0.84716    0.074
 6760.00    0.90259   0.84909    0.076
 6761.00    0.92995   0.85035    0.079
 6762.00    0.97183   0.85085    0.081
 6763.00    1.01972   0.85055    0.083
 6764.00    1.03326   0.84974    0.083
 6765.00    1.03466   0.84828    0.084
 6766.00    1.02622   0.84676    0.083
 6767.00    1.01485   0.84514    0.081
 6768.00    1.00176   0.84376    0.081
 6769.00    0.98824   0.84271    0.080
 6770.00    0.96479   0.84228    0.077
 6771.00    0.93935   0.84259    0.074
 6772.00    0.91908   0.84368    0.073
 6773.00    0.89962   0.84522    0.074
 6774.00    0.89228   0.84690    0.072
 6775.00    0.88636   0.84883    0.070
 6776.00    0.88954   0.85058    0.070
 6777.00    0.89343   0.85184    0.069
 6778.00    0.90811   0.85229    0.071
 6779.00    0.92326   0.85188    0.073
 6780.00    0.93789   0.85065    0.074
 6781.00    0.95193   0.84854    0.075
 6782.00    0.93877   0.84614    0.076
 6783.00    0.92613   0.84321    0.076
 6784.00    0.92279   0.84037    0.076
 6785.00    0.91895   0.83771    0.075
 6786.00    0.90944   0.83558    0.075
 6787.00    0.90031   0.83416    0.074
 6788.00    0.89404   0.83345    0.074
 6789.00    0.89322   0.83348    0.074
 6790.00    0.92416   0.83372    0.076
 6791.00    0.94788   0.83446    0.076
 6792.00    0.93823   0.83497    0.075
 6793.00    0.93337   0.83554    0.074
 6794.00    0.94664   0.83613    0.074
 6795.00    0.95151   0.83671    0.074
 6796.00    0.92987   0.83720    0.073
 6797.00    0.91794   0.83768    0.072
 6798.00    0.93203   0.83849    0.071
 6799.00    0.93917   0.83917    0.071
 6800.00    0.93034   0.83995    0.072
 6801.00    0.92302   0.84071    0.073
 6802.00    0.91870   0.84120    0.074
 6803.00    0.91634   0.84165    0.075
 6804.00    0.91736   0.84183    0.074
 6805.00    0.91527   0.84183    0.074
 6806.00    0.90844   0.84162    0.073
 6807.00    0.90600   0.84119    0.073
 6808.00    0.90941   0.84084    0.072
 6809.00    0.91240   0.84047    0.073
 6810.00    0.91489   0.83994    0.074
 6811.00    0.91481   0.83970    0.075
 6812.00    0.91206   0.83954    0.076
 6813.00    0.91823   0.83940    0.076
 6814.00    0.93254   0.83955    0.075
 6815.00    0.93568   0.83999    0.074
 6816.00    0.92984   0.84041    0.074
 6817.00    0.91094   0.84111    0.072
 6818.00    0.88282   0.84177    0.070
 6819.00    0.88151   0.84283    0.069
 6820.00    0.89686   0.84398    0.069
 6821.00    0.91202   0.84493    0.070
 6822.00    0.92708   0.84578    0.070
 6823.00    0.92105   0.84638    0.071
 6824.00    0.90507   0.84698    0.071
 6825.00    0.89514   0.84737    0.072
 6826.00    0.88768   0.84757    0.072
 6827.00    0.88505   0.84737    0.073
 6828.00    0.88411   0.84713    0.074
 6829.00    0.89825   0.84663    0.075
 6830.00    0.91679   0.84617    0.077
 6831.00    0.93009   0.84540    0.076
 6832.00    0.94213   0.84472    0.075
 6833.00    0.94636   0.84392    0.075
 6834.00    0.94907   0.84284    0.074
 6835.00    0.94721   0.84128    0.073
 6836.00    0.94465   0.83923    0.073
 6837.00    0.94096   0.83695    0.074
 6838.00    0.93715   0.83442    0.075
 6839.00    0.91905   0.83183    0.075
 6840.00    0.89988   0.82925    0.075
 6841.00    0.88814   0.82730    0.074
 6842.00    0.87670   0.82584    0.073
 6843.00    0.87693   0.82526    0.072
 6844.00    0.87768   0.82547    0.071
 6845.00    0.89608   0.82639    0.072
 6846.00    0.91373   0.82797    0.073
 6847.00    0.91879   0.82972    0.075
 6848.00    0.92360   0.83140    0.076
 6849.00    0.92582   0.83256    0.074
 6850.00    0.92656   0.83315    0.072
 6851.00    0.91635   0.83309    0.073
 6852.00    0.90720   0.83233    0.074
 6853.00    0.90404   0.83094    0.074
 6854.00    0.90037   0.82914    0.074
 6855.00    0.89442   0.82709    0.071
 6856.00    0.88897   0.82498    0.069
 6857.00    0.88536   0.82299    0.071
 6858.00    0.88022   0.82115    0.071
 6859.00    0.87031   0.81990    0.071
 6860.00    0.86518   0.81928    0.071
 6861.00    0.87262   0.81887    0.072
 6862.00    0.87938   0.81898    0.072
 6863.00    0.88463   0.81920    0.071
 6864.00    0.88741   0.81946    0.071
 6865.00    0.88537   0.81981    0.073
 6866.00    0.88164   0.82026    0.074
 6867.00    0.87500   0.82060    0.073
 6868.00    0.87258   0.82062    0.074
 6869.00    0.87646   0.82059    0.075
 6870.00    0.88002   0.82047    0.076
 6871.00    0.88314   0.82043    0.075
 6872.00    0.88317   0.82068    0.074
 6873.00    0.87960   0.82130    0.073
 6874.00    0.87902   0.82189    0.073
 6875.00    0.88150   0.82262    0.073
 6876.00    0.87984   0.82343    0.074
 6877.00    0.87446   0.82441    0.074
 6878.00    0.86382   0.82520    0.072
 6879.00    0.84901   0.82599    0.070
 6880.00    0.84140   0.82667    0.069
 6881.00    0.83883   0.82744    0.068
 6882.00    0.84691   0.82809    0.069
 6883.00    0.86151   0.82899    0.069
 6884.00    0.87959   0.83003    0.070
 6885.00    0.89955   0.83140    0.070
 6886.00    0.89774   0.83313    0.071
 6887.00    0.88584   0.83523    0.072
 6888.00    0.87808   0.83753    0.072
 6889.00    0.87199   0.83968    0.072
 6890.00    0.87776   0.84184    0.073
 6891.00    0.88758   0.84371    0.073
 6892.00    0.89226   0.84522    0.073
 6893.00    0.89548   0.84633    0.073
 6894.00    0.88610   0.84713    0.073
 6895.00    0.87375   0.84757    0.073
 6896.00    0.86306   0.84774    0.072
 6897.00    0.85268   0.84794    0.072
 6898.00    0.87423   0.84801    0.072
 6899.00    0.90051   0.84822    0.072
 6900.00    0.90686   0.84852    0.072
 6901.00    0.91106   0.84904    0.072
 6902.00    0.91299   0.84958    0.073
 6903.00    0.91476   0.85018    0.073
 6904.00    0.91434   0.85079    0.071
 6905.00    0.91384   0.85140    0.070
 6906.00    0.90478   0.85182    0.071
 6907.00    0.89592   0.85192    0.072
 6908.00    0.89511   0.85182    0.073
 6909.00    0.89423   0.85125    0.075
 6910.00    0.89209   0.85054    0.075
 6911.00    0.89045   0.84935    0.075
 6912.00    0.89369   0.84810    0.076
 6913.00    0.88871   0.84664    0.076
 6914.00    0.82462   0.84527    0.075
 6915.00    0.77653   0.84402    0.075
 6916.00    0.81674   0.84301    0.076
 6917.00    0.84819   0.84229    0.076
 6918.00    0.84107   0.84177    0.075
 6919.00    0.83877   0.84163    0.075
 6920.00    0.85397   0.84125    0.074
 6921.00    0.87025   0.84109    0.073
 6922.00    0.88983   0.84060    0.074
 6923.00    0.90049   0.84002    0.074
 6924.00    0.88810   0.83930    0.073
 6925.00    0.87678   0.83840    0.072
 6926.00    0.86785   0.83764    0.073
 6927.00    0.85426   0.83682    0.074
 6928.00    0.83166   0.83637    0.075
 6929.00    0.82561   0.83615    0.076
 6930.00    0.84736   0.83630    0.078
 6931.00    0.85711   0.83675    0.079
 6932.00    0.84919   0.83731    0.078
 6933.00    0.85088   0.83810    0.078
 6934.00    0.86500   0.83882    0.078
 6935.00    0.87228   0.83966    0.078
 6936.00    0.87175   0.84035    0.078
 6937.00    0.86226   0.84102    0.078
 6938.00    0.84375   0.84157    0.077
 6939.00    0.82995   0.84180    0.076
 6940.00    0.82034   0.84182    0.074
 6941.00    0.82360   0.84142    0.074
 6942.00    0.83691   0.84081    0.075
 6943.00    0.85256   0.83993    0.075
 6944.00    0.86982   0.83898    0.074
 6945.00    0.87240   0.83794    0.075
 6946.00    0.86614   0.83697    0.076
 6947.00    0.85451   0.83614    0.076
 6948.00    0.84004   0.83547    0.077
 6949.00    0.84238   0.83510    0.077
 6950.00    0.85239   0.83498    0.077
 6951.00    0.86218   0.83504    0.077
 6952.00    0.87189   0.83532    0.077
 6953.00    0.87113   0.83576    0.078
 6954.00    0.86688   0.83636    0.079
 6955.00    0.86195   0.83724    0.079
 6956.00    0.85684   0.83843    0.079
 6957.00    0.85575   0.83980    0.078
 6958.00    0.85559   0.84156    0.078
 6959.00    0.86359   0.84331    0.078
 6960.00    0.87311   0.84524    0.077
 6961.00    0.86841   0.84699    0.076
 6962.00    0.86168   0.84873    0.075
 6963.00    0.86567   0.85014    0.076
 6964.00    0.87077   0.85142    0.076
 6965.00    0.85977   0.85237    0.076
 6966.00    0.84770   0.85307    0.075
 6967.00    0.84318   0.85342    0.076
 6968.00    0.83891   0.85334    0.077
 6969.00    0.85719   0.85281    0.078
 6970.00    0.87535   0.85177    0.080
 6971.00    0.88965   0.85017    0.081
 6972.00    0.90332   0.84799    0.081
 6973.00    0.90768   0.84531    0.081
 6974.00    0.91033   0.84216    0.081
 6975.00    0.89653   0.83875    0.080
 6976.00    0.88278   0.83550    0.079
 6977.00    0.86939   0.83255    0.078
 6978.00    0.85658   0.83042    0.076
 6979.00    0.84689   0.82911    0.077
 6980.00    0.84083   0.82891    0.078
 6981.00    0.85036   0.82982    0.078
 6982.00    0.85763   0.83177    0.078
 6983.00    0.85688   0.83453    0.077
 6984.00    0.86065   0.83772    0.076
 6985.00    0.87790   0.84118    0.077
 6986.00    0.89123   0.84441    0.078
 6987.00    0.89463   0.84708    0.079
 6988.00    0.89623   0.84920    0.080
 6989.00    0.89389   0.85071    0.080
 6990.00    0.88846   0.85165    0.080
 6991.00    0.87715   0.85214    0.079
 6992.00    0.87534   0.85222    0.080
 6993.00    0.88925   0.85199    0.081
 6994.00    0.88939   0.85145    0.082
 6995.00    0.86953   0.85066    0.081
 6996.00    0.85708   0.84966    0.081
 6997.00    0.85408   0.84842    0.081
 6998.00    0.85410   0.84691    0.081
 6999.00    0.85754   0.84529    0.079
 7000.00    0.86260   0.84359    0.079
 7001.00    0.86928   0.84203    0.080
 7002.00    0.86250   0.84060    0.079
 7003.00    0.84396   0.83933    0.077
 7004.00    0.83906   0.83837    0.077
 7005.00    0.84467   0.83760    0.079
 7006.00    0.86289   0.83724    0.079
 7007.00    0.88967   0.83702    0.079
 7008.00    0.88142   0.83686    0.080
 7009.00    0.85236   0.83658    0.081
 7010.00    0.82190   0.83621    0.081
 7011.00    0.79071   0.83577    0.081
 7012.00    0.80148   0.83508    0.081
 7013.00    0.83109   0.83432    0.081
 7014.00    0.84907   0.83337    0.082
 7015.00    0.86257   0.83257    0.084
 7016.00    0.85205   0.83173    0.082
 7017.00    0.83365   0.83133    0.080
 7018.00    0.82466   0.83116    0.079
 7019.00    0.81826   0.83140    0.080
 7020.00    0.81391   0.83172    0.080
 7021.00    0.81004   0.83232    0.080
 7022.00    0.83173   0.83298    0.079
 7023.00    0.85803   0.83405    0.078
 7024.00    0.86555   0.83487    0.078
 7025.00    0.87047   0.83578    0.078
 7026.00    0.84570   0.83658    0.079
 7027.00    0.81798   0.83762    0.080
 7028.00    0.83284   0.83858    0.083
 7029.00    0.85036   0.83982    0.085
 7030.00    0.84704   0.84106    0.085
 7031.00    0.84317   0.84248    0.085
 7032.00    0.84791   0.84369    0.085
 7033.00    0.85287   0.84487    0.085
 7034.00    0.86356   0.84594    0.086
 7035.00    0.87406   0.84708    0.086
 7036.00    0.88190   0.84824    0.084
 7037.00    0.88763   0.84965    0.082
 7038.00    0.87398   0.85130    0.081
 7039.00    0.86202   0.85337    0.081
 7040.00    0.86142   0.85571    0.080
 7041.00    0.85911   0.85838    0.080
 7042.00    0.84787   0.86106    0.080
 7043.00    0.83964   0.86363    0.081
 7044.00    0.84415   0.86582    0.082
 7045.00    0.85336   0.86767    0.083
 7046.00    0.87890   0.86855    0.084
 7047.00    0.90105   0.86847    0.085
 7048.00    0.91325   0.86711    0.086
 7049.00    0.91732   0.86456    0.086
 7050.00    0.90107   0.86074   -2.000
 7051.00    0.88818   0.85587   -2.000
 7052.00    0.88251   0.85014   -2.000
 7053.00    0.88233   0.84368   -2.000
 7054.00    0.89241   0.83688   -2.000
 7055.00    0.91048   0.82998   -2.000
 7056.00    0.94160   0.82327   -2.000
 7057.00    0.95590   0.81708   -2.000
 7058.00    0.94615   0.81139   -2.000
 7059.00    0.94583   0.80662   -2.000
 7060.00    0.95738   0.80246   -2.000
 7061.00    0.96581   0.79916   -2.000
 7062.00    0.97081   0.79640   -2.000
 7063.00    0.96836   0.79427   -2.000
 7064.00    0.95864   0.79255   -2.000
 7065.00    0.94843   0.79136   -2.000
 7066.00    0.93780   0.79065   -2.000
 7067.00    0.91564   0.79051   -2.000
 7068.00    0.88472   0.79089   -2.000
 7069.00    0.88142   0.79185   -2.000
 7070.00    0.89657   0.79333   -2.000
 7071.00    0.91767   0.79521   -2.000
 7072.00    0.94224   0.79746   -2.000
 7073.00    0.94124   0.79985   -2.000
 7074.00    0.92721   0.80223   -2.000
 7075.00    0.93087   0.80442   -2.000
 7076.00    0.94236   0.80610   -2.000
 7077.00    0.93682   0.80714   -2.000
 7078.00    0.92482   0.80726   -2.000
 7079.00    0.91525   0.80645   -2.000
 7080.00    0.90648   0.80454   -2.000
 7081.00    0.91130   0.80168   -2.000
 7082.00    0.91978   0.79782   -2.000
 7083.00    0.90689   0.79323   -2.000
 7084.00    0.88929   0.78799   -2.000
 7085.00    0.88742   0.78249   -2.000
 7086.00    0.88830   0.77686   -2.000
 7087.00    0.89397   0.77153   -2.000
 7088.00    0.90028   0.76654   -2.000
 7089.00    0.88333   0.76232   -2.000
 7090.00    0.86418   0.75870   -2.000
 7091.00    0.84944   0.75612   -2.000
 7092.00    0.83496   0.75421   -2.000
 7093.00    0.84837   0.75332   -2.000
 7094.00    0.86241   0.75296   -2.000
 7095.00    0.86853   0.75333   -2.000
 7096.00    0.87386   0.75408   -2.000
 7097.00    0.85951   0.75530   -2.000
 7098.00    0.84574   0.75669   -2.000
 7099.00    0.83959   0.75816   -2.000
 7100.00    0.83293   0.75966   -2.000
 7101.00    0.82165   0.76085   -2.000
 7102.00    0.81217   0.76205   -2.000
 7103.00    0.81450   0.76268   -2.000
 7104.00    0.81362   0.76329   -2.000
 7105.00    0.79637   0.76332   -2.000
 7106.00    0.78197   0.76334   -2.000
 7107.00    0.77929   0.76291   -2.000
 7108.00    0.78062   0.76251   -2.000
 7109.00    0.79562   0.76191   -2.000
 7110.00    0.80570   0.76148   -2.000
 7111.00    0.80165   0.76110   -2.000
 7112.00    0.80484   0.76098   -2.000
 7113.00    0.82578   0.76095   -2.000
 7114.00    0.83111   0.76110   -2.000
 7115.00    0.80343   0.76137   -2.000
 7116.00    0.78984   0.76167   -2.000
 7117.00    0.80218   0.76184   -2.000
 7118.00    0.81731   0.76179   -2.000
 7119.00    0.83695   0.76144   -2.000
 7120.00    0.85047   0.76076   -2.000
 7121.00    0.85536   0.75959   -2.000
 7122.00    0.86306   0.75806   -2.000
 7123.00    0.87423   0.75608   -2.000
 7124.00    0.87377   0.75383   -2.000
 7125.00    0.86059   0.75133   -2.000
 7126.00    0.85951   0.74874   -2.000
 7127.00    0.87010   0.74627   -2.000
 7128.00    0.88603   0.74392   -2.000
 7129.00    0.90649   0.74208   -2.000
 7130.00    0.87681   0.74058   -2.000
 7131.00    0.80957   0.73991   -2.000
 7132.00    0.79312   0.73968   -2.000
 7133.00    0.81011   0.74025   -2.000
 7134.00    0.79724   0.74125   -2.000
 7135.00    0.76719   0.74278   -2.000
 7136.00    0.78359   0.74451   -2.000
 7137.00    0.82330   0.74631   -2.000
 7138.00    0.84489   0.74805   -2.000
 7139.00    0.85861   0.74950   -2.000
 7140.00    0.84321   0.75070   -2.000
 7141.00    0.81697   0.75141   -2.000
 7142.00    0.80031   0.75181   -2.000
 7143.00    0.78668   0.75172   -2.000
 7144.00    0.79430   0.75144   -2.000
 7145.00    0.80752   0.75087   -2.000
 7146.00    0.80990   0.75033   -2.000
 7147.00    0.80996   0.74980   -2.000
 7148.00    0.81082   0.74961   -2.000
 7149.00    0.81181   0.74967   -2.000
 7150.00    0.81763   0.75027   -2.000
 7151.00    0.82407   0.75118   -2.000
 7152.00    0.81972   0.75258   -2.000
 7153.00    0.81438   0.75413   -2.000
 7154.00    0.81250   0.75590   -2.000
 7155.00    0.81081   0.75746   -2.000
 7156.00    0.81619   0.75891   -2.000
 7157.00    0.82154   0.75982   -2.000
 7158.00    0.81072   0.76041   -2.000
 7159.00    0.80147   0.76041   -2.000
 7160.00    0.82771   0.76007   -2.000
 7161.00    0.85301   0.75932   -2.000
 7162.00    0.86640   0.75849   -2.000
 7163.00    0.87792   0.75767   -2.000
 7164.00    0.87344   0.75707   -2.000
 7165.00    0.86852   0.75691   -2.000
 7166.00    0.86080   0.75722   -2.000
 7167.00    0.85903   0.75813   -2.000
 7168.00    0.88683   0.75943   -2.000
 7169.00    0.90158   0.76118   -2.000
 7170.00    0.86383   0.76307   -2.000
 7171.00    0.83461   0.76500   -2.000
 7172.00    0.83390   0.76667   -2.000
 7173.00    0.82573   0.76794   -2.000
 7174.00    0.79648   0.76872   -2.000
 7175.00    0.78490   0.76894   -2.000
 7176.00    0.81590   0.76864   -2.000
 7177.00    0.83570   0.76782   -2.000
 7178.00    0.83218   0.76665   -2.000
 7179.00    0.83534   0.76518   -2.000
 7180.00    0.85058   0.76362   -2.000
 7181.00    0.85717   0.76198   -2.000
 7182.00    0.85007   0.76040   -2.000
 7183.00    0.83135   0.75882   -2.000
 7184.00    0.79648   0.75735   -2.000
 7185.00    0.78155   0.75589   -2.000
 7186.00    0.79100   0.75456   -2.000
 7187.00    0.79117   0.75326   -2.000
 7188.00    0.78134   0.75219   -2.000
 7189.00    0.79968   0.75125   -2.000
 7190.00    0.84480   0.75067   -2.000
 7191.00    0.84372   0.75033   -2.000
 7192.00    0.80391   0.75046   -2.000
 7193.00    0.79306   0.75084   -2.000
 7194.00    0.80359   0.75163   -2.000
 7195.00    0.80730   0.75258   -2.000
 7196.00    0.80661   0.75371   -2.000
 7197.00    0.78369   0.75487   -2.000
 7198.00    0.74818   0.75599   -2.000
 7199.00    0.75534   0.75697   -2.000
 7200.00    0.78357   0.75774   -2.000
 7201.00    0.81275   0.75827   -2.000
 7202.00    0.84233   0.75848   -2.000
 7203.00    0.81546   0.75843   -2.000
 7204.00    0.76793   0.75808   -2.000
 7205.00    0.74488   0.75761   -2.000
 7206.00    0.72941   0.75703   -2.000
 7207.00    0.75052   0.75654   -2.000
 7208.00    0.78106   0.75621   -2.000
 7209.00    0.75576   0.75618   -2.000
 7210.00    0.71871   0.75652   -2.000
 7211.00    0.72392   0.75723   -2.000
 7212.00    0.73614   0.75836   -2.000
 7213.00    0.73978   0.75971   -2.000
 7214.00    0.74235   0.76138   -2.000
 7215.00    0.73992   0.76308   -2.000
 7216.00    0.73705   0.76490   -2.000
 7217.00    0.75375   0.76662   -2.000
 7218.00    0.77143   0.76833   -2.000
