###################################################################
## OUTPUT of StarlightChains_v04.for    [Cid@UFSC - 01/Apr/2007] ##
###################################################################

## Some input info
KUG0210-078._34_32.txt                   [arq_obs]
Base.CB07.vall.4m                        [arq_base]
Masks.EmLines.NEW.gm                     [arq_masks]
StCv04.C11.config                        [arq_config]
   66                                    [N_base]
    0                                    [N_YAV_components = # of components with extra extinction!]
    0                                    [i_FitPowerLaw (1/0 = Yes/No)]
-9.99                                    [alpha_PowerLaw]
CCM                                      [red_law_option]
 1.458241                                [q_norm = A(l_norm)/A(V)]

## (Re)Sampling Parameters
 3741.00                                 [l_ini (A)]
 7218.00                                 [l_fin (A)]
    1.00                                 [dl    (A)]     (OBS: dl_cushion =    50.00 A)

## Normalization info
 4020.00                                 [l_norm (A) - for base]
 4010.00                                 [llow_norm (A) - window for f_obs]
 4060.00                                 [lupp_norm (A) - window for f_obs]
8.082051E-17                             [fobs_norm (in input units)]

## S/N
 3691.00                                 [llow_SN (A) - window for S/N]
 7268.00                                 [lupp_SN (A) - window for S/N]
   4.490                                 [S/N in S/N window]
   4.064                                 [S/N in norm. window]
   0.135                                 [S/N_err in S/N window]
   0.122                                 [S/N_err in norm. window]
  1.0000                                 [fscale_chi2]

## etc...
    -2007537                             [idum_orig]
  2432                                   [NOl_eff]
  2298                                   [Nl_eff]
   134    NSIGMA                         [Ntot_cliped & clip_method]
 10851260                                [Nglobal_steps]
   7                                     [N_chains]
   8                                     [NEX0s_base = N_base in EX0s-fits]
 0   0   1      134   2.0   4.069E+04    [Clip-Bug, RC-Crash & Burn-In warning-flags, n_censored_weights, wei_nsig_threshold & wei_limit]
    71     70.386     69.823      0.563  [idt_all, wdt_TotTime, wdt_UsrTime & wdt_SysTime (sec)]

## Synthesis Results - Best model ##

 9.75032E-05                             [chi2/Nl_eff]
     4.49967                             [adev (%)]

   112.92581                             [sum-of-x (%)]
 2.38242E-17                             [Flux_tot (units of input spectrum!)]
 2.18175E-12                             [Mini_tot (???)]
 1.12486E-12                             [Mcor_tot (???)]

 -83.99                                  [v0_min  (km/s)]
 175.29                                  [vd_min  (km/s)]
-1.0000                                  [AV_min  (mag)]
 0.0000                                  [YAV_min (mag)]

# j     x_j(%)      Mini_j(%)     Mcor_j(%)     age_j(yr)     Z_j      (L/M)_j    YAV?  Mstars   component_j        a/Fe...       SSP_chi2r SSP_adev(%)   SSP_AV   SSP_x(%)
  1      0.0000     0.0000E+00    0.0000E+00    1.000000E+06  0.00400  1.094E-02    0   1.0000   age020_m42            0.0000     8.3384E-04    11.4326   3.3518    94.4073
  2      0.0000     0.0000E+00    0.0000E+00    3.160000E+06  0.00400  4.007E-02    0   0.9999   age045_m42            0.0000     8.0188E-04    11.6945   2.6680    98.8473
  3      0.0000     0.0000E+00    0.0000E+00    5.010000E+06  0.00400  2.539E-02    0   0.9488   age055_m42            0.0000     8.3836E-04    11.7598   2.9786    96.9247
  4      0.0000     0.0000E+00    0.0000E+00    6.610000E+06  0.00400  2.620E-02    0   0.9220   age061_m42            0.0000     8.3034E-04    11.9883   2.6054    98.5444
  5      0.0000     0.0000E+00    0.0000E+00    1.000000E+07  0.00400  1.322E-02    0   0.8862   age070_m42            0.0000     9.5708E-04    13.5355   2.3428    99.6907
  6      0.0000     0.0000E+00    0.0000E+00    1.445000E+07  0.00400  7.883E-03    0   0.8571   age078_m42            0.0000     9.5538E-04    13.2726   2.6548    97.8547
  7      0.0000     0.0000E+00    0.0000E+00    2.512000E+07  0.00400  5.251E-03    0   0.8174   age090_m42            0.0000     9.8312E-04    13.9175   2.2195    99.9357
  8      0.0000     0.0000E+00    0.0000E+00    4.000000E+07  0.00400  3.649E-03    0   0.7851   age104_m42            0.0000     9.4966E-04    13.7402   1.9947   100.6618
  9      0.0000     0.0000E+00    0.0000E+00    5.500000E+07  0.00400  3.098E-03    0   0.7629   age110_m42            0.0000     8.9753E-04    13.1435   2.1486   100.6444
 10      0.0000     0.0000E+00    0.0000E+00    1.015200E+08  0.00400  2.228E-03    0   0.7207   age116_m42            0.0000     8.6571E-04    12.7936   2.1715   100.7110
 11      0.0000     0.0000E+00    0.0000E+00    2.861200E+08  0.00400  1.093E-03    0   0.6648   age125_m42            0.0000     8.7115E-04    13.2402   1.5995   103.4640
 12      0.0000     0.0000E+00    0.0000E+00    5.088000E+08  0.00400  6.597E-04    0   0.6365   age130_m42            0.0000     7.8644E-04    12.4532   1.5868   104.5621
 13      0.0000     0.0000E+00    0.0000E+00    1.434000E+09  0.00400  2.132E-04    0   0.5798   age139_m42            0.0000     5.9466E-04    11.3021   0.5919   108.0186
 14      0.0000     0.0000E+00    0.0000E+00    4.250000E+09  0.00400  5.895E-05    0   0.5377   age158_m42            0.0000     4.1313E-04     8.8830   0.0922   106.7815
 15      0.0000     0.0000E+00    0.0000E+00    7.500000E+09  0.00400  3.510E-05    0   0.5212   age171_m42            0.0000     3.5061E-04     8.0663  -0.1155   106.9515
 16      0.0000     0.0000E+00    0.0000E+00    1.300000E+10  0.00400  2.005E-05    0   0.5034   age193_m42            0.0000     2.9732E-04     7.3936  -0.3021   107.2812
 17      0.0000     0.0000E+00    0.0000E+00    1.800000E+10  0.00400  1.525E-05    0   0.4967   age213_m42            0.0000     3.0267E-04     7.4615  -0.3260   106.8600
 18      0.0000     0.0000E+00    0.0000E+00    1.000000E+06  0.00800  1.238E-02    0   1.0000   age020_m52            0.0000     8.3441E-04    11.4140   3.3482    94.5899
 19      0.0000     0.0000E+00    0.0000E+00    3.160000E+06  0.00800  3.074E-02    0   0.9966   age045_m52            0.0000     8.3274E-04    11.4179   3.2764    95.2425
 20      0.0000     0.0000E+00    0.0000E+00    5.010000E+06  0.00800  2.668E-02    0   0.9443   age055_m52            0.0000     8.4932E-04    11.7717   3.0568    96.2568
 21      0.0000     0.0000E+00    0.0000E+00    6.610000E+06  0.00800  2.136E-02    0   0.9177   age061_m52            0.0000     8.3061E-04    12.6755   1.8166   102.2219
 22      0.0000     0.0000E+00    0.0000E+00    1.000000E+07  0.00800  1.215E-02    0   0.8827   age070_m52            0.0000     1.0007E-03    13.8913   2.5145    99.6982
 23      0.0000     0.0000E+00    0.0000E+00    1.445000E+07  0.00800  8.717E-03    0   0.8552   age078_m52            0.0000     9.5464E-04    13.3644   2.6260    98.9660
 24      0.0000     0.0000E+00    0.0000E+00    2.512000E+07  0.00800  5.592E-03    0   0.8162   age090_m52            0.0000     9.9090E-04    14.0334   2.2852   100.9579
 25      0.0000     0.0000E+00    0.0000E+00    4.000000E+07  0.00800  3.896E-03    0   0.7841   age104_m52            0.0000     9.5070E-04    13.7241   2.1980   101.6516
 26      0.0000     0.0000E+00    0.0000E+00    1.015200E+08  0.00800  2.148E-03    0   0.7226   age116_m52            0.0000     8.7741E-04    13.0095   2.1368   101.5334
 27      0.0000     0.0000E+00    0.0000E+00    2.861200E+08  0.00800  9.925E-04    0   0.6683   age125_m52            0.0000     8.0041E-04    12.5747   1.6594   105.1583
 28      0.0000     0.0000E+00    0.0000E+00    9.047900E+08  0.00800  3.141E-04    0   0.6138   age135_m52            0.0000     5.3870E-04    10.5708   0.8130   111.9140
 29      0.0000     0.0000E+00    0.0000E+00    1.434000E+09  0.00800  1.719E-04    0   0.5853   age139_m52            0.0000     4.6757E-04     9.6959   0.2079   110.8680
 30      0.0000     0.0000E+00    0.0000E+00    2.500000E+09  0.00800  7.872E-05    0   0.5600   age150_m52            0.0000     3.3657E-04     7.9101  -0.0916   109.6564
 31      0.0000     0.0000E+00    0.0000E+00    4.250000E+09  0.00800  4.336E-05    0   0.5426   age158_m52            0.0000     3.1589E-04     7.6200  -0.1191   109.2226
 32      0.0000     0.0000E+00    0.0000E+00    6.250000E+09  0.00800  3.159E-05    0   0.5319   age166_m52            0.0000     2.4694E-04     6.7682  -0.3428   110.1985
 33      0.0000     0.0000E+00    0.0000E+00    1.300000E+10  0.00800  1.361E-05    0   0.5073   age193_m52            0.0000     1.7985E-04     5.8657  -0.8321   110.4744
 34      0.0000     0.0000E+00    0.0000E+00    1.800000E+10  0.00800  9.886E-06    0   0.4990   age213_m52            0.0000     1.3821E-04     5.1059  -0.9598   110.7949
 35      0.0000     0.0000E+00    0.0000E+00    1.000000E+06  0.02000  1.544E-02    0   1.0000   age020_m62            0.0000     8.3492E-04    11.3808   3.3422    94.8890
 36      0.0000     0.0000E+00    0.0000E+00    3.160000E+06  0.02000  3.762E-02    0   0.9858   age045_m62            0.0000     8.4040E-04    11.3851   3.2838    95.6059
 37      0.0000     0.0000E+00    0.0000E+00    5.010000E+06  0.02000  3.296E-02    0   0.9342   age055_m62            0.0000     8.3540E-04    11.7022   2.9498    97.6006
 38      0.0000     0.0000E+00    0.0000E+00    8.710000E+06  0.02000  1.154E-02    0   0.8861   age067_m62            0.0000     1.3095E-03    17.0355   1.9682   101.9696
 39      0.0000     0.0000E+00    0.0000E+00    1.445000E+07  0.02000  7.663E-03    0   0.8472   age078_m62            0.0000     1.0693E-03    14.7285   2.1596   101.7803
 40      0.0000     0.0000E+00    0.0000E+00    2.512000E+07  0.02000  4.532E-03    0   0.8099   age090_m62            0.0000     1.1145E-03    15.1331   2.1619   100.9340
 41      0.0000     0.0000E+00    0.0000E+00    5.500000E+07  0.02000  2.733E-03    0   0.7595   age110_m62            0.0000     9.5260E-04    13.7058   2.1819   100.9230
 42      0.0000     0.0000E+00    0.0000E+00    1.609000E+08  0.02000  1.369E-03    0   0.6985   age120_m62            0.0000     8.7550E-04    13.0857   2.0326   103.0987
 43      0.0000     0.0000E+00    0.0000E+00    2.861200E+08  0.02000  9.013E-04    0   0.6714   age125_m62            0.0000     8.1391E-04    12.7449   1.7878   105.8282
 44      0.0000     0.0000E+00    0.0000E+00    5.088000E+08  0.02000  5.028E-04    0   0.6449   age130_m62            0.0000     6.2662E-04    11.1648   1.3776   110.2581
 45      0.0000     0.0000E+00    0.0000E+00    9.047900E+08  0.02000  2.428E-04    0   0.6179   age135_m62            0.0000     4.4286E-04     9.3533   0.7390   112.1973
 46      0.0000     0.0000E+00    0.0000E+00    1.434000E+09  0.02000  1.263E-04    0   0.5908   age139_m62            0.0000     3.6218E-04     8.3092   0.2684   111.9380
 47      0.0000     0.0000E+00    0.0000E+00    2.500000E+09  0.02000  5.985E-05    0   0.5673   age150_m62            0.0000     2.6577E-04     6.9114  -0.1301   112.0152
 48      0.0000     0.0000E+00    0.0000E+00    4.250000E+09  0.02000  3.271E-05    0   0.5468   age158_m62            0.0000     1.8121E-04     5.7159  -0.4633   112.3934
 49      0.0000     0.0000E+00    0.0000E+00    1.000000E+10  0.02000  1.360E-05    0   0.5167   age181_m62            0.0000     1.1647E-04     4.5945  -0.8445   113.3894
 50      0.0000     0.0000E+00    0.0000E+00    1.800000E+10  0.02000  7.124E-06    0   0.5013   age213_m62            0.0000     9.6437E-05     4.9000  -1.0000   111.1006
 51      0.0000     0.0000E+00    0.0000E+00    1.000000E+06  0.05000  2.592E-02    0   0.9998   age020_m72            0.0000     8.3692E-04    11.3763   3.3290    95.1493
 52      0.0000     0.0000E+00    0.0000E+00    3.160000E+06  0.05000  4.845E-02    0   0.9577   age045_m72            0.0000     8.4114E-04    11.4893   3.1869    96.0035
 53      0.0000     0.0000E+00    0.0000E+00    5.010000E+06  0.05000  3.072E-02    0   0.9147   age055_m72            0.0000     9.9371E-04    13.4014   2.7141    99.1905
 54      0.0000     0.0000E+00    0.0000E+00    6.610000E+06  0.05000  1.455E-02    0   0.8877   age061_m72            0.0000     1.5787E-03    18.9055   1.9823   102.7649
 55      0.0000     0.0000E+00    0.0000E+00    1.000000E+07  0.05000  9.074E-03    0   0.8524   age070_m72            0.0000     1.0663E-03    13.7150   2.8758    98.9751
 56      0.0000     0.0000E+00    0.0000E+00    2.512000E+07  0.05000  4.250E-03    0   0.7902   age090_m72            0.0000     1.0507E-03    14.0279   2.6178    99.4277
 57      0.0000     0.0000E+00    0.0000E+00    4.000000E+07  0.05000  3.087E-03    0   0.7618   age104_m72            0.0000     1.0734E-03    14.4453   2.4021   100.4869
 58      0.0000     0.0000E+00    0.0000E+00    1.015200E+08  0.05000  1.700E-03    0   0.7096   age116_m72            0.0000     9.4702E-04    13.6241   2.1760   102.4254
 59      0.0000     0.0000E+00    0.0000E+00    2.861200E+08  0.05000  7.384E-04    0   0.6633   age125_m72            0.0000     7.1882E-04    11.9729   1.6421   107.9632
 60      0.0000     0.0000E+00    0.0000E+00    5.088000E+08  0.05000  3.819E-04    0   0.6372   age130_m72            0.0000     5.0027E-04    10.0675   1.1012   112.3029
 61      0.0000     0.0000E+00    0.0000E+00    9.047900E+08  0.05000  1.676E-04    0   0.6110   age135_m72            0.0000     2.9069E-04     7.3758   0.3402   113.6559
 62      0.0000     0.0000E+00    0.0000E+00    1.434000E+09  0.05000  8.837E-05    0   0.5874   age139_m72            0.0000     2.4286E-04     6.6905  -0.1431   114.2016
 63      0.0000     0.0000E+00    0.0000E+00    2.500000E+09  0.05000  4.233E-05    0   0.5598   age150_m72            0.0000     1.5829E-04     5.3043  -0.4773   113.9801
 64     83.4456     5.6231E+01    5.7247E+01    6.250000E+09  0.05000  1.435E-05    0   0.5249   age166_m72            0.0000     1.0288E-04     4.2284  -0.9543   113.4955
 65     29.4803     4.3769E+01    4.2753E+01    1.300000E+10  0.05000  6.513E-06    0   0.5036   age193_m72            0.0000     1.5187E-04     7.6630  -1.0000   107.3791
 66      0.0000     0.0000E+00    0.0000E+00    1.800000E+10  0.05000  4.527E-06    0   0.4945   age213_m72            0.0000     2.7391E-04    10.6517  -1.0000   101.9789


## Synthesis Results - Average & Chains ##

# j      x_j: min, <> & last-chain-values for 1 ...  7 chains
  1      0.0000      0.1720      0.0025      0.0722      0.0035      0.0000      0.0000      0.0000      0.0058
  2      0.0000      0.2469      0.0000      0.1173      0.0078      0.0312      0.0020      0.0000      0.0103
  3      0.0000      0.1442      0.0033      0.1032      0.0000      0.0286      0.0000      0.0002      0.0000
  4      0.0000      0.1521      0.0000      0.0228      0.0019      0.0179      0.0065      0.0085      0.0000
  5      0.0000      0.1522      0.0223      0.0632      0.0000      0.0176      0.0093      0.0269      0.0077
  6      0.0000      0.1660      0.0003      0.0200      0.0155      0.0175      0.0134      0.0050      0.0040
  7      0.0000      0.1626      0.0037      0.0642      0.0147      0.0193      0.0039      0.0014      0.0220
  8      0.0000      0.2628      0.0000      0.0000      0.0018      0.0000      0.0022      0.0000      0.0032
  9      0.0000      0.2190      0.0130      0.0273      0.0003      0.0022      0.0001      0.0080      0.0389
 10      0.0000      0.1431      0.0036      0.0000      0.0000      0.0133      0.0080      0.0006      0.0000
 11      0.0000      0.1931      0.0000      0.0076      0.0107      0.0000      0.0048      0.0000      0.0227
 12      0.0000      0.2212      0.0000      0.0883      0.0113      0.0028      0.0000      0.0183      0.0115
 13      0.0000      0.1943      0.0025      0.0407      0.0311      0.0031      0.0019      0.0105      0.0019
 14      0.0000      0.1767      0.0005      0.1548      0.0115      0.0212      0.0111      0.0064      0.0096
 15      0.0000      0.1565      0.0253      0.0485      0.0088      0.0000      0.0000      0.0091      0.0119
 16      0.0000      0.2303      0.0395      0.0083      0.0044      0.0344      0.0082      0.0131      0.0000
 17      0.0000      0.2031      0.0000      0.0860      0.0050      0.0000      0.0000      0.0114      0.0078
 18      0.0000      0.1797      0.0189      0.0344      0.0192      0.0162      0.0096      0.0005      0.0194
 19      0.0000      0.1692      0.0129      0.0128      0.0000      0.0114      0.0000      0.0146      0.0122
 20      0.0000      0.2020      0.0016      0.0417      0.0007      0.0000      0.0000      0.0000      0.0000
 21      0.0000      0.1260      0.0052      0.0135      0.0039      0.0603      0.0070      0.0051      0.0000
 22      0.0000      0.1941      0.0000      0.0000      0.0039      0.0000      0.0000      0.0032      0.0000
 23      0.0000      0.1724      0.0000      0.0000      0.0102      0.0153      0.0000      0.0000      0.0029
 24      0.0000      0.1760      0.0073      0.0182      0.0158      0.0175      0.0000      0.0021      0.0000
 25      0.0000      0.1671      0.0073      0.0585      0.0034      0.0000      0.0096      0.0113      0.0262
 26      0.0000      0.2425      0.0010      0.0000      0.0229      0.0000      0.0000      0.0068      0.0000
 27      0.0000      0.2559      0.0000      0.0154      0.0054      0.0337      0.0032      0.0141      0.0065
 28      0.0000      0.1677      0.0000      0.0394      0.0070      0.0340      0.0000      0.0170      0.0126
 29      0.0000      0.1909      0.0000      0.1664      0.0115      0.0270      0.0095      0.0000      0.0050
 30      0.0000      0.4251      0.6242      0.5073      0.0526      0.3594      0.7825      0.6457      0.0355
 31      0.0000      8.3268     10.1884      8.1903      9.9374      8.8310      7.2767      7.6264     11.1002
 32      0.0000     11.8689     13.1207     13.7853     12.7042     13.1670     14.6669     13.7853     13.1187
 33      0.0000      0.1707      0.0070      0.0189      0.0031      0.0453      0.0177      0.0085      0.0121
 34      0.0000      0.0900      0.0000      0.0036      0.0029      0.0057      0.0088      0.0046      0.0056
 35      0.0000      0.1612      0.0331      0.0062      0.0156      0.0000      0.0000      0.0000      0.0000
 36      0.0000      0.1910      0.0000      0.0514      0.0000      0.0000      0.0049      0.0084      0.0000
 37      0.0000      0.1629      0.0033      0.0009      0.0049      0.0607      0.0000      0.0071      0.0000
 38      0.0000      0.1901      0.0151      0.0000      0.0038      0.0000      0.0005      0.0069      0.0000
 39      0.0000      0.1287      0.0014      0.0117      0.0086      0.0110      0.0000      0.0263      0.0029
 40      0.0000      0.2206      0.0107      0.0141      0.0000      0.0380      0.0105      0.0051      0.0055
 41      0.0000      0.1587      0.0000      0.1425      0.0050      0.0000      0.0000      0.0007      0.0000
 42      0.0000      0.1530      0.0000      0.0474      0.0068      0.0121      0.0000      0.0000      0.0000
 43      0.0000      0.1654      0.0201      0.0102      0.0252      0.0011      0.0062      0.0179      0.0118
 44      0.0000      0.1311      0.0000      0.0177      0.0060      0.0000      0.0000      0.0100      0.0035
 45      0.0000      0.1791      0.0435      0.0688      0.0026      0.0783      0.0340      0.0500      0.0707
 46      0.0000      0.5411      0.7223      0.5103      0.0698      0.1244      0.6544      0.8404      0.2127
 47      0.0000      9.6848      9.3877     10.3701     12.1937     13.2840     10.4530     10.4247     10.6379
 48      0.0000      0.1690      0.0000      0.0076      0.0000      0.0202      0.0066      0.0000      0.0000
 49      0.0000      0.1317      0.0186      0.0326      0.0203      0.0635      0.0000      0.0054      0.0000
 50      0.0000      0.1986      0.1031      0.3595      0.0886      0.1230      0.0971      0.2053      0.0984
 51      0.0000      0.1225      0.0041      0.0670      0.0025      0.0414      0.0000      0.0170      0.0107
 52      0.0000      0.2003      0.0000      0.0000      0.0072      0.0090      0.0016      0.0023      0.0000
 53      0.0000      0.1673      0.0058      0.0219      0.0036      0.0110      0.0019      0.0137      0.0014
 54      0.0000      0.1443      0.0220      0.1104      0.0000      0.0438      0.0257      0.0034      0.0085
 55      0.0000      0.2196      0.0000      0.1495      0.0029      0.0555      0.0000      0.0035      0.0000
 56      0.0000      0.1951      0.0000      0.0736      0.0043      0.0266      0.0048      0.0128      0.0139
 57      0.0000      0.1366      0.0069      0.0107      0.0000      0.0256      0.0000      0.0011      0.0025
 58      0.0000      0.1681      0.0000      0.0600      0.0000      0.0451      0.0034      0.0170      0.0011
 59      0.0000      0.1795      0.0000      0.0083      0.0026      0.0089      0.0021      0.0000      0.0038
 60      0.0000      0.1440      0.0000      0.0368      0.0004      0.0000      0.0015      0.0000      0.0000
 61      0.0000      0.1684      0.0086      0.0000      0.0169      0.0376      0.0134      0.0320      0.0261
 62      0.0000      0.7322      0.8806      0.6275      0.0347      0.0350      1.4566      1.5866      0.1016
 63      0.0000      0.2303      0.0469      0.1471      0.0331      0.5262      0.0253      0.0462      0.2905
 64     83.4456     18.8891     21.8146     22.2088     22.3507     19.3754     22.4128     22.9892     20.5671
 65     29.4803      4.0493      1.8454      4.4775      4.9865      4.9814      4.8600      5.0199      5.1413
 66      0.0000     16.2197     21.8535     17.2421     17.9132     19.0705     17.9084     17.2080     19.0653

# j      m_j: min, <> & last-chain-values for 1 ...  7 chains
  1  0.0000E+00  4.8540E-04  6.0362E-06  1.8740E-04  8.7836E-06  0.0000E+00  0.0000E+00  0.0000E+00  1.4393E-05
  2  0.0000E+00  1.9020E-04  0.0000E+00  8.3101E-05  5.3479E-06  2.1235E-05  1.3772E-06  0.0000E+00  6.9146E-06
  3  0.0000E+00  1.6641E-04  3.2789E-06  1.0957E-04  0.0000E+00  2.9227E-05  0.0000E+00  2.6052E-07  0.0000E+00
  4  0.0000E+00  1.6528E-04  0.0000E+00  2.2820E-05  1.8505E-06  1.7254E-05  6.3179E-06  8.3388E-06  0.0000E+00
  5  0.0000E+00  3.1497E-04  3.9390E-05  1.2030E-04  0.0000E+00  3.2242E-05  1.7315E-05  5.0561E-05  1.3917E-05
  6  0.0000E+00  5.5743E-04  9.3601E-07  6.1697E-05  4.6560E-05  5.1982E-05  4.0283E-05  1.5357E-05  1.1709E-05
  7  0.0000E+00  7.8128E-04  1.5361E-05  2.8366E-04  6.3105E-05  8.2032E-05  1.6674E-05  6.1247E-06  9.2549E-05
  8  0.0000E+00  1.7458E-03  0.0000E+00  0.0000E+00  1.0828E-05  0.0000E+00  1.3234E-05  0.0000E+00  1.8607E-05
  9  0.0000E+00  1.6653E-03  8.4214E-05  1.9077E-04  1.7923E-06  1.4890E-05  8.3364E-07  5.4821E-05  2.5810E-04
 10  0.0000E+00  1.4294E-03  3.0964E-05  0.0000E+00  0.0000E+00  1.1736E-04  7.1185E-05  5.7890E-06  0.0000E+00
 11  0.0000E+00  3.6264E-03  0.0000E+00  1.3179E-04  1.8015E-04  0.0000E+00  8.1266E-05  0.0000E+00  3.7252E-04
 12  0.0000E+00  6.5884E-03  0.0000E+00  2.4205E-03  3.0023E-04  7.2857E-05  0.0000E+00  4.9493E-04  2.9977E-04
 13  0.0000E+00  1.6313E-02  1.8105E-04  3.1430E-03  2.3334E-03  2.3091E-04  1.4166E-04  8.0122E-04  1.3873E-04
 14  0.0000E+00  4.9773E-02  1.1018E-04  4.0103E-02  2.8884E-03  5.2761E-03  2.8119E-03  1.6301E-03  2.3575E-03
 15  0.0000E+00  7.1741E-02  9.9024E-03  2.0451E-02  3.5936E-03  0.0000E+00  0.0000E+00  3.7754E-03  4.7680E-03
 16  0.0000E+00  1.7851E-01  2.6191E-02  5.9354E-03  3.0784E-03  2.3576E-02  5.6937E-03  9.2108E-03  0.0000E+00
 17  0.0000E+00  2.0426E-01  0.0000E+00  7.9536E-02  4.4607E-03  0.0000E+00  0.0000E+00  1.0389E-02  6.8927E-03
 18  0.0000E+00  4.4814E-04  4.0290E-05  7.9018E-05  4.2707E-05  3.5782E-05  2.1430E-05  1.1813E-06  4.2358E-05
 19  0.0000E+00  1.6937E-04  1.1045E-05  1.1789E-05  0.0000E+00  1.0108E-05  0.0000E+00  1.3249E-05  1.0675E-05
 20  0.0000E+00  2.2075E-04  1.4742E-06  4.1914E-05  7.2682E-07  0.0000E+00  0.0000E+00  0.0000E+00  0.0000E+00
 21  0.0000E+00  1.6709E-04  5.8968E-06  1.6425E-05  4.6790E-06  7.0731E-05  8.2622E-06  6.1918E-06  0.0000E+00
 22  0.0000E+00  4.3535E-04  0.0000E+00  0.0000E+00  7.8240E-06  0.0000E+00  0.0000E+00  6.5707E-06  0.0000E+00
 23  0.0000E+00  5.2221E-04  0.0000E+00  0.0000E+00  2.7572E-05  4.0887E-05  0.0000E+00  0.0000E+00  7.6597E-06
 24  0.0000E+00  7.9302E-04  2.8121E-05  7.5291E-05  6.3740E-05  6.9927E-05  0.0000E+00  8.5584E-06  0.0000E+00
 25  0.0000E+00  1.0382E-03  3.8752E-05  3.3425E-04  1.9115E-05  0.0000E+00  5.3497E-05  6.3650E-05  1.4247E-04
 26  0.0000E+00  2.5192E-03  8.4763E-06  0.0000E+00  2.1234E-04  0.0000E+00  0.0000E+00  6.3900E-05  0.0000E+00
 27  0.0000E+00  5.3208E-03  0.0000E+00  2.9485E-04  1.0122E-04  6.2044E-04  6.0328E-05  2.6553E-04  1.1872E-04
 28  0.0000E+00  1.0119E-02  0.0000E+00  2.1861E-03  3.7842E-04  1.8150E-03  0.0000E+00  9.2920E-04  6.6207E-04
 29  0.0000E+00  2.0074E-02  0.0000E+00  1.6092E-02  1.0832E-03  2.5121E-03  8.9636E-04  0.0000E+00  4.5570E-04
 30  0.0000E+00  9.3363E-02  1.1719E-01  1.0250E-01  1.0332E-02  6.9851E-02  1.5393E-01  1.2862E-01  6.8066E-03
 31  0.0000E+00  3.2173E+00  3.3647E+00  2.9109E+00  3.4323E+00  3.0189E+00  2.5182E+00  2.6723E+00  3.7467E+00
 32  0.0000E+00  6.1704E+00  5.8302E+00  6.5922E+00  5.9040E+00  6.0565E+00  6.8293E+00  6.4994E+00  5.9580E+00
 33  0.0000E+00  1.9650E-01  6.8475E-03  2.0043E-02  3.1522E-03  4.6080E-02  1.8197E-02  8.8289E-03  1.2212E-02
 34  0.0000E+00  1.4032E-01  0.0000E+00  5.2238E-03  3.9760E-03  7.8888E-03  1.2303E-02  6.5469E-03  7.6579E-03
 35  0.0000E+00  3.2244E-04  5.6558E-05  1.1491E-05  2.7889E-05  0.0000E+00  0.0000E+00  0.0000E+00  0.0000E+00
 36  0.0000E+00  1.5450E-04  0.0000E+00  3.8231E-05  0.0000E+00  0.0000E+00  3.5686E-06  6.1392E-06  0.0000E+00
 37  0.0000E+00  1.4260E-04  2.4326E-06  7.1464E-07  3.8174E-06  4.7014E-05  0.0000E+00  5.6275E-06  0.0000E+00
 38  0.0000E+00  4.5062E-04  3.0569E-05  0.0000E+00  8.0217E-06  0.0000E+00  1.1420E-06  1.4769E-05  0.0000E+00
 39  0.0000E+00  4.3937E-04  4.2297E-06  3.6608E-05  2.6185E-05  3.3122E-05  0.0000E+00  8.1556E-05  8.7671E-06
 40  0.0000E+00  1.2172E-03  5.0597E-05  7.1585E-05  0.0000E+00  1.8561E-04  5.1916E-05  2.5289E-05  2.6669E-05
 41  0.0000E+00  1.3615E-03  0.0000E+00  1.1246E-03  3.8153E-05  0.0000E+00  0.0000E+00  5.7578E-06  0.0000E+00
 42  0.0000E+00  2.4100E-03  0.0000E+00  6.8736E-04  9.5626E-05  1.6863E-04  0.0000E+00  0.0000E+00  0.0000E+00
 43  0.0000E+00  3.8050E-03  3.9585E-04  2.1494E-04  5.1763E-04  2.3283E-05  1.2767E-04  3.7403E-04  2.3711E-04
 44  0.0000E+00  5.1930E-03  0.0000E+00  6.4526E-04  2.1189E-04  0.0000E+00  0.0000E+00  3.5824E-04  1.2183E-04
 45  0.0000E+00  1.4071E-02  2.9217E-03  4.9726E-03  1.8201E-04  5.4452E-03  2.3907E-03  3.5613E-03  4.8541E-03
 46  0.0000E+00  7.8147E-02  8.9166E-02  6.7790E-02  9.0163E-03  1.5893E-02  8.4650E-02  1.1008E-01  2.6840E-02
 47  0.0000E+00  2.8344E+00  2.3483E+00  2.7917E+00  3.1901E+00  3.4398E+00  2.7400E+00  2.7669E+00  2.7198E+00
 48  0.0000E+00  8.7231E-02  0.0000E+00  3.6036E-03  0.0000E+00  9.2037E-03  3.0342E-03  0.0000E+00  0.0000E+00
 49  0.0000E+00  1.5453E-01  1.8634E-02  3.5221E-02  2.1262E-02  6.5954E-02  0.0000E+00  5.7898E-03  0.0000E+00
 50  0.0000E+00  4.3159E-01  1.9152E-01  7.1840E-01  1.7215E-01  2.3644E-01  1.8886E-01  4.0455E-01  1.8671E-01
 51  0.0000E+00  1.4593E-04  4.2237E-06  7.3344E-05  2.6264E-06  4.3634E-05  0.0000E+00  1.8316E-05  1.1093E-05
 52  0.0000E+00  1.2223E-04  0.0000E+00  0.0000E+00  3.9391E-06  4.8859E-06  8.9948E-07  1.2967E-06  0.0000E+00
 53  0.0000E+00  1.5383E-04  4.5243E-06  1.8494E-05  2.9388E-06  8.9159E-06  1.5458E-06  1.1461E-05  1.1229E-06
 54  0.0000E+00  2.7190E-04  3.5354E-05  1.9131E-04  0.0000E+00  7.2932E-05  4.3394E-05  5.7747E-06  1.3936E-05
 55  0.0000E+00  6.3692E-04  0.0000E+00  3.9874E-04  7.4167E-06  1.4238E-04  0.0000E+00  9.2083E-06  0.0000E+00
 56  0.0000E+00  1.1200E-03  0.0000E+00  3.8853E-04  2.1993E-05  1.3529E-04  2.4830E-05  6.6446E-05  6.9863E-05
 57  0.0000E+00  1.0406E-03  4.5219E-05  7.5214E-05  0.0000E+00  1.7236E-04  0.0000E+00  7.2851E-06  1.6355E-05
 58  0.0000E+00  2.1660E-03  0.0000E+00  7.1132E-04  0.0000E+00  5.1397E-04  3.9192E-05  1.9884E-04  1.2127E-05
 59  0.0000E+00  4.9778E-03  0.0000E+00  2.1106E-04  6.4721E-05  2.1740E-04  5.3034E-05  0.0000E+00  9.3235E-05
 60  0.0000E+00  7.4193E-03  0.0000E+00  1.7431E-03  1.7026E-05  0.0000E+00  6.8334E-05  0.0000E+00  0.0000E+00
 61  0.0000E+00  1.8957E-02  8.2309E-04  0.0000E+00  1.6990E-03  3.7484E-03  1.3526E-03  3.2623E-03  2.5663E-03
 62  0.0000E+00  1.5028E-01  1.5447E-01  1.1847E-01  6.3626E-03  6.3473E-03  2.6775E-01  2.9532E-01  1.8224E-02
 63  0.0000E+00  9.4043E-02  1.6366E-02  5.5231E-02  1.2079E-02  1.9011E-01  9.2386E-03  1.7105E-02  1.0361E-01
 64  5.7247E+01  2.1333E+01  2.1058E+01  2.3072E+01  2.2565E+01  1.9361E+01  2.2672E+01  2.3546E+01  2.0292E+01
 65  4.2753E+01  9.6674E+00  3.7656E+00  9.8327E+00  1.0642E+01  1.0522E+01  1.0392E+01  1.0869E+01  1.0723E+01
 66  0.0000E+00  5.4704E+01  6.2998E+01  5.3491E+01  5.4007E+01  5.6908E+01  5.4097E+01  5.2634E+01  5.6174E+01

# AV, chi2 & Mass for <> & i_chain = 1 ...  7 solutions
AV      -1.0000     -0.0724     -0.0895     -0.0386     -0.0701     -0.0627     -0.0743     -0.0670     -0.0770
chi2 9.7503E-05  1.0740E-03  9.4721E-04  9.6773E-04  9.5787E-04  9.5395E-04  9.5340E-04  9.5589E-04  9.5556E-04
Mass 1.1249E-12  2.3750E-12  2.7158E-12  2.7018E-12  2.6650E-12  2.7195E-12  2.6452E-12  2.6379E-12  2.7020E-12
 -83.99                                  [v0_min (km/s) before EX0s...]
 175.29                                  [vd_min (km/s) before EX0s...]


## Synthetic spectrum (Best Model) ##l_obs f_obs f_syn wei
 3478    [Nl_obs]
 3741.00    0.28263   0.50957    0.000
 3742.00    0.27948   0.47882    0.000
 3743.00    0.27441   0.44094    0.000
 3744.00    0.26890   0.40491    0.000
 3745.00    0.26313   0.37713   -1.000
 3746.00    0.27875   0.36151   -1.000
 3747.00    0.30522   0.36123   -1.000
 3748.00    0.30772   0.38069   -1.000
 3749.00    0.29968   0.42109   -1.000
 3750.00    0.30386   0.47611   -1.000
 3751.00    0.31265   0.53449   -1.000
 3752.00    0.32708   0.58466   -1.000
 3753.00    0.34330   0.61609   -1.000
 3754.00    0.39507   0.62073   -1.000
 3755.00    0.45637   0.59830   -1.000
 3756.00    0.45434   0.55980   -1.000
 3757.00    0.43841   0.52300   -1.000
 3758.00    0.40394   0.50094   -1.000
 3759.00    0.36623   0.49490   -1.000
 3760.00    0.33190   0.49803   -1.000
 3761.00    0.29801   0.50282   -1.000
 3762.00    0.30495   0.50610   -1.000
 3763.00    0.31573   0.50907   -1.000
 3764.00    0.32857   0.51355   -1.000
 3765.00    0.34154   0.52178   -1.000
 3766.00    0.37740   0.53803   -1.000
 3767.00    0.41364   0.56400   -1.000
 3768.00    0.42944   0.59567   -1.000
 3769.00    0.44384   0.62770   -1.000
 3770.00    0.42424   0.65651   -1.000
 3771.00    0.40661   0.67863   -1.000
 3772.00    0.41472   0.69150   -1.000
 3773.00    0.42514   0.69610   -1.000
 3774.00    0.45592   0.69672   -1.000
 3775.00    0.48223   0.69793   -1.000
 3776.00    0.47952   0.70251   -1.000
 3777.00    0.47856   0.71180   -1.000
 3778.00    0.48651   0.72508   -1.000
 3779.00    0.49210   0.73845   -1.000
 3780.00    0.48802   0.74720   -1.000
 3781.00    0.48438   0.74778   -1.000
 3782.00    0.48220   0.73686   -1.000
 3783.00    0.47472   0.71113   -1.000
 3784.00    0.45205   0.67094   -1.000
 3785.00    0.43892   0.62377   -1.000
 3786.00    0.44904   0.58027   -1.000
 3787.00    0.44760   0.54823   -1.000
 3788.00    0.42175   0.53089   -1.000
 3789.00    0.40919   0.52639   -1.000
 3790.00    0.42095   0.52749   -1.000
 3791.00    0.42831   0.52599   -1.000
 3792.00    0.42864   0.51850   -1.000
 3793.00    0.42273   0.50686   -1.000
 3794.00    0.40806   0.49482   -1.000
 3795.00    0.39459   0.48515   -1.000
 3796.00    0.38260   0.48028   -1.000
 3797.00    0.34848   0.48441   -1.000
 3798.00    0.29026   0.50122   -1.000
 3799.00    0.29259   0.52966   -1.000
 3800.00    0.35313   0.56409   -1.000
 3801.00    0.40389   0.59709   -1.000
 3802.00    0.44638   0.62149   -1.000
 3803.00    0.45138   0.63267   -1.000
 3804.00    0.42842   0.63120   -1.000
 3805.00    0.41655   0.62314   -1.000
 3806.00    0.41195   0.61700   -1.000
 3807.00    0.42264   0.61695   -1.000
 3808.00    0.44209   0.61979   -1.000
 3809.00    0.43900   0.61791   -1.000
 3810.00    0.42464   0.60424   -1.000
 3811.00    0.41502   0.57665   -1.000
 3812.00    0.40743   0.53971   -1.000
 3813.00    0.41775   0.50161   -1.000
 3814.00    0.43471   0.46973   -1.000
 3815.00    0.40741   0.44744   -1.000
 3816.00    0.36619   0.43213   -1.000
 3817.00    0.33861   0.41835   -1.000
 3818.00    0.31461   0.40413   -1.000
 3819.00    0.31506   0.39200   -1.000
 3820.00    0.32074   0.38389   -1.000
 3821.00    0.32666   0.37729   -1.000
 3822.00    0.33263   0.36822   -1.000
 3823.00    0.34002   0.35612   -1.000
 3824.00    0.34759   0.34436   -1.000
 3825.00    0.28489   0.33701   -1.000
 3826.00    0.21589   0.33588   -1.000
 3827.00    0.21543   0.33974   -1.000
 3828.00    0.21865   0.34512   -1.000
 3829.00    0.23748   0.34810   -1.000
 3830.00    0.25681   0.34710   -1.000
 3831.00    0.29241   0.34444   -1.000
 3832.00    0.32501   0.34392   -1.000
 3833.00    0.29097   0.34724   -1.000
 3834.00    0.25795   0.35235   -1.000
 3835.00    0.23756   0.35517   -1.000
 3836.00    0.22218   0.35426   -1.000
 3837.00    0.24908   0.35289   -1.000
 3838.00    0.27735   0.35667   -1.000
 3839.00    0.31429   0.37048   -1.000
 3840.00    0.34913   0.39545   -1.000
 3841.00    0.37360   0.42681   -1.000
 3842.00    0.39641   0.45709   -1.000
 3843.00    0.41257   0.48064   -1.000
 3844.00    0.42333   0.49487   -1.000
 3845.00    0.41616   0.50021   -1.000
 3846.00    0.41151   0.49818   -1.000
 3847.00    0.41398   0.49076    0.000
 3848.00    0.42044   0.48182    0.000
 3849.00    0.43645   0.47562    0.000
 3850.00    0.44158   0.47248    0.000
 3851.00    0.42414   0.46911    0.000
 3852.00    0.41196   0.46256    0.000
 3853.00    0.40927   0.45159    0.000
 3854.00    0.39964   0.43631    0.000
 3855.00    0.37907   0.41859    0.000
 3856.00    0.36286   0.40098    0.000
 3857.00    0.35270   0.38728    0.000
 3858.00    0.35040   0.38314    0.000
 3859.00    0.35768   0.39270    0.000
 3860.00    0.37623   0.41471    0.000
 3861.00    0.40690   0.44186    0.000
 3862.00    0.42527   0.46512    0.000
 3863.00    0.43198   0.47888    0.000
 3864.00    0.43140   0.48225    0.000
 3865.00    0.42472   0.47700    0.000
 3866.00    0.44209   0.46557    0.000
 3867.00    0.47712   0.45061    0.000
 3868.00    0.46693   0.43526    0.000
 3869.00    0.42751   0.42400    0.000
 3870.00    0.39782   0.42187    0.000
 3871.00    0.37363   0.43184    0.000
 3872.00    0.38409   0.45174    0.000
 3873.00    0.41159   0.47355    0.000
 3874.00    0.42266   0.48776    0.000
 3875.00    0.42673   0.48931    0.000
 3876.00    0.41991   0.48028    0.000
 3877.00    0.40911   0.46813    0.000
 3878.00    0.40269   0.45921    0.000
 3879.00    0.39762   0.45587    0.000
 3880.00    0.39398   0.45900    0.000
 3881.00    0.39071   0.46838   -1.000
 3882.00    0.41939   0.47955   -1.000
 3883.00    0.45475   0.48600   -1.000
 3884.00    0.45012   0.48714   -1.000
 3885.00    0.43889   0.48926   -1.000
 3886.00    0.41522   0.49865   -1.000
 3887.00    0.39002   0.51909   -1.000
 3888.00    0.41433   0.55108   -1.000
 3889.00    0.44289   0.58985   -1.000
 3890.00    0.46656   0.62694   -1.000
 3891.00    0.48999   0.65451   -1.000
 3892.00    0.49092   0.66904   -1.000
 3893.00    0.49201   0.67218   -1.000
 3894.00    0.52691   0.66937   -1.000
 3895.00    0.56127   0.66508   -1.000
 3896.00    0.58465   0.66024   -1.000
 3897.00    0.60142   0.65565   -1.000
 3898.00    0.54005   0.65248   -1.000
 3899.00    0.48305   0.65028   -1.000
 3900.00    0.46168   0.64592   -1.000
 3901.00    0.44792   0.63804   -1.000
 3902.00    0.48059   0.62873   -1.000
 3903.00    0.50787   0.62113   -1.000
 3904.00    0.50920   0.62082   -1.000
 3905.00    0.50995   0.63302   -1.000
 3906.00    0.50847   0.65711   -1.000
 3907.00    0.52105   0.68776    1.797
 3908.00    0.57947   0.71869    0.342
 3909.00    0.64255   0.74519    0.217
 3910.00    0.71850   0.76436    0.229
 3911.00    0.76198   0.77455    0.236
 3912.00    0.72880   0.77560    0.228
 3913.00    0.70177   0.76792    0.222
 3914.00    0.68730   0.75158    0.221
 3915.00    0.67799   0.72767    0.226
 3916.00    0.67786   0.69757    0.244
 3917.00    0.66335   0.66295    0.249
 3918.00    0.62648   0.62753    0.233
 3919.00    0.59505   0.59656    0.222
 3920.00    0.57104   0.57410    0.216
 3921.00    0.56816   0.56029    0.218
 3922.00    0.59067   0.55106    0.229
 3923.00    0.60065   0.53943    0.233
 3924.00    0.59735   0.51931    0.227
 3925.00    0.56290   0.48821    0.226
 3926.00    0.49933   0.44772    0.229
 3927.00    0.47043   0.40258    0.226
 3928.00    0.47009   0.35835    0.219
 3929.00    0.42230   0.31976    0.213
 3930.00    0.34013   0.28997    0.207
 3931.00    0.29092   0.27041    0.207
 3932.00    0.26268   0.26165    0.209
 3933.00    0.28267   0.26445    0.213
 3934.00    0.32950   0.27971    0.217
 3935.00    0.34240   0.30689    0.217
 3936.00    0.33888   0.34320    0.214
 3937.00    0.32460   0.38362    0.208
 3938.00    0.30581   0.42202    0.202
 3939.00    0.37593   0.45374    0.210
 3940.00    0.47784   0.47767    0.225
 3941.00    0.54380   0.49653    0.232
 3942.00    0.59888   0.51607    0.237
 3943.00    0.59795   0.54153    0.230
 3944.00    0.58295   0.57328    0.221
 3945.00    0.59912   0.60774    0.220
 3946.00    0.62165   0.64170    0.220
 3947.00    0.67279   0.67348    0.223
 3948.00    0.72852   0.70136    0.227
 3949.00    0.74498   0.72330    0.230
 3950.00    0.75676   0.73868    0.234
 3951.00    0.73904   0.74876    0.235
 3952.00    0.71893   0.75407    0.236
 3953.00    0.74155   0.75349    0.232
 3954.00    0.76613   0.74682    0.228
 3955.00    0.74258   0.73491    0.222
 3956.00    0.71785   0.71718    0.218
 3957.00    0.66424   0.69086    0.219
 3958.00    0.61223   0.65326    0.221
 3959.00    0.59071   0.60537    0.217
 3960.00    0.56928   0.55242    0.000
 3961.00    0.54890   0.50033    0.000
 3962.00    0.52742   0.45258    0.000
 3963.00    0.49732   0.40995    0.000
 3964.00    0.46309   0.37235    0.000
 3965.00    0.40440   0.34075    0.000
 3966.00    0.35012   0.31782    0.000
 3967.00    0.31652   0.30704    0.000
 3968.00    0.30629   0.31111    0.000
 3969.00    0.38561   0.33063    0.000
 3970.00    0.44738   0.36407    0.000
 3971.00    0.45303   0.40872    0.000
 3972.00    0.44639   0.46152    0.000
 3973.00    0.40647   0.51920    0.000
 3974.00    0.41100   0.57885    0.000
 3975.00    0.51878   0.63812    0.000
 3976.00    0.61293   0.69449    0.000
 3977.00    0.67973   0.74473    0.000
 3978.00    0.74966   0.78525    0.000
 3979.00    0.82508   0.81391    0.000
 3980.00    0.85895   0.83175    0.000
 3981.00    0.82918   0.84272    0.230
 3982.00    0.84032   0.85195    0.232
 3983.00    0.90646   0.86326    0.237
 3984.00    0.93392   0.87803    0.238
 3985.00    0.91557   0.89546    0.234
 3986.00    0.90519   0.91245    0.230
 3987.00    0.90310   0.92630    0.224
 3988.00    0.92734   0.93690    0.225
 3989.00    0.97581   0.94515    0.235
 3990.00    0.96917   0.95133    0.236
 3991.00    0.91779   0.95444    0.229
 3992.00    0.91310   0.95312    0.228
 3993.00    0.94177   0.94726    0.230
 3994.00    0.94075   0.93941    0.228
 3995.00    0.92110   0.93509    0.224
 3996.00    0.91167   0.94020    0.220
 3997.00    0.90783   0.95634    0.216
 3998.00    0.91505   0.97952    0.215
 3999.00    0.92754   1.00263    0.215
 4000.00    0.94315   1.01729    0.218
 4001.00    0.96004   1.01661    0.222
 4002.00    0.96576   0.99998    0.218
 4003.00    0.96756   0.97545    0.211
 4004.00    0.99686   0.95498    0.217
 4005.00    1.03430   0.94748    0.228
 4006.00    1.00811   0.95546    0.225
 4007.00    0.96630   0.97520    0.220
 4008.00    0.95461   0.99967    0.219
 4009.00    0.94890   1.02274    0.219
 4010.00    0.97616   1.04161    0.219
 4011.00    1.00853   1.05620    0.219
 4012.00    1.02246   1.06759    0.217
 4013.00    1.03426   1.07602    0.214
 4014.00    1.01821   1.08123    0.215
 4015.00    1.00000   1.08442    0.216
 4016.00    1.00037   1.08699    0.222
 4017.00    1.00152   1.08880    0.228
 4018.00    1.00860   1.08912    0.228
 4019.00    1.01570   1.08722    0.228
 4020.00    1.02105   1.08264    0.225
 4021.00    1.02866   1.07641    0.221
 4022.00    1.07636   1.07170    0.221
 4023.00    1.12002   1.07155    0.222
 4024.00    1.12029   1.07576    0.228
 4025.00    1.11548   1.07955    0.234
 4026.00    1.07216   1.07435    0.228
 4027.00    1.02888   1.05239    0.225
 4028.00    0.98593   1.01276    0.237
 4029.00    0.94937   0.96265    0.246
 4030.00    0.94212   0.91473    0.238
 4031.00    0.92940   0.88314    0.231
 4032.00    0.89615   0.87788    0.223
 4033.00    0.89500   0.90094    0.219
 4034.00    0.99445   0.94565    0.224
 4035.00    1.07759   0.99911    0.229
 4036.00    1.11731   1.04716    0.233
 4037.00    1.12240   1.07909    0.234
 4038.00    1.04841   1.09039    0.229
 4039.00    0.99676   1.08095    0.226
 4040.00    0.98929   1.05199    0.228
 4041.00    0.98623   1.00620    0.230
 4042.00    0.99078   0.95086    0.231
 4043.00    0.96923   0.89939    0.227
 4044.00    0.90832   0.86747    0.218
 4045.00    0.87514   0.86575    0.214
 4046.00    0.87874   0.89456    0.218
 4047.00    0.90226   0.94321    0.221
 4048.00    0.94906   0.99478    0.223
 4049.00    0.99738   1.03406    0.226
 4050.00    1.04728   1.05292    0.231
 4051.00    1.05849   1.05108    0.230
 4052.00    1.03458   1.03390    0.222
 4053.00    1.01105   1.00875    0.216
 4054.00    0.98782   0.98259    0.212
 4055.00    0.98940   0.96125    0.213
 4056.00    1.00843   0.94785    0.217
 4057.00    0.97676   0.94121    0.215
 4058.00    0.91376   0.93587    0.209
 4059.00    0.89863   0.92519    0.212
 4060.00    0.90933   0.90663    0.218
 4061.00    0.91355   0.88448    0.218
 4062.00    0.91473   0.86726    0.214
 4063.00    0.90851   0.86327    0.213
 4064.00    0.89929   0.87610    0.212
 4065.00    0.94833   0.90193    0.217
 4066.00    1.01745   0.93106    0.225
 4067.00    1.00746   0.95334    0.225
 4068.00    0.97450   0.96385    0.222
 4069.00    0.91704   0.96419    0.215
 4070.00    0.85369   0.95919    0.208
 4071.00    0.85898   0.95327    0.207
 4072.00    0.87758   0.94742    0.207
 4073.00    0.89444   0.93970    0.205
 4074.00    0.91103   0.92976    0.202
 4075.00    0.88453   0.92204    0.205
 4076.00    0.85326   0.92443    0.208
 4077.00    0.87132   0.94268    0.211
 4078.00    0.89299   0.97510    0.214
 4079.00    0.93968   1.01292    0.218
 4080.00    0.98733   1.04565    0.221
 4081.00    1.01124   1.06719    0.223
 4082.00    1.03506   1.07913    0.225
 4083.00    1.06039   1.08871    0.219
 4084.00    1.08631   1.10311    0.214
 4085.00    1.12213   1.12464    0.220
 4086.00    1.15609   1.14963    0.227
 4087.00    1.17075   1.17101    0.231
 4088.00    1.17212   1.18257    0.233
 4089.00    1.07587   1.18196    0.222
 4090.00    1.00932   1.17029    0.213
 4091.00    1.10941   1.15000    0.217
 4092.00    1.17316   1.12345    0.000
 4093.00    1.07433   1.09248    0.000
 4094.00    1.00401   1.05897    0.000
 4095.00    1.03840   1.02512    0.000
 4096.00    1.04149   0.99279    0.000
 4097.00    0.94829   0.96328    0.000
 4098.00    0.89171   0.93805    0.000
 4099.00    0.93082   0.91990    0.000
 4100.00    0.94534   0.91297    0.000
 4101.00    0.90464   0.92078    0.000
 4102.00    0.90138   0.94312    0.000
 4103.00    0.97098   0.97499    0.000
 4104.00    1.01350   1.00819    0.000
 4105.00    1.01008   1.03460    0.000
 4106.00    1.00773   1.04932    0.000
 4107.00    1.00699   1.05242    0.000
 4108.00    1.00727   1.04842    0.000
 4109.00    1.00889   1.04384    0.000
 4110.00    1.01226   1.04412    0.000
 4111.00    1.01766   1.05140    0.000
 4112.00    1.03523   1.06363    0.000
 4113.00    1.06515   1.07579    0.203
 4114.00    1.09314   1.08268    0.203
 4115.00    1.11938   1.08142    0.204
 4116.00    1.11493   1.07249    0.205
 4117.00    1.08628   1.05947    0.206
 4118.00    1.07288   1.04725    0.206
 4119.00    1.07007   1.03964    0.205
 4120.00    1.08136   1.03799    0.207
 4121.00    1.10121   1.04127    0.211
 4122.00    1.09876   1.04677    0.211
 4123.00    1.08444   1.05105    0.210
 4124.00    1.09324   1.05074    0.209
 4125.00    1.11270   1.04361    0.209
 4126.00    1.09942   1.02915    0.208
 4127.00    1.07313   1.00849    0.207
 4128.00    1.01949   0.98393    0.203
 4129.00    0.95658   0.95899    0.198
 4130.00    0.97442   0.93856    0.200
 4131.00    1.01524   0.92823    0.204
 4132.00    1.03801   0.93225    0.202
 4133.00    1.05655   0.95108    0.198
 4134.00    1.06185   0.98031    0.200
 4135.00    1.06466   1.01206    0.202
 4136.00    1.04922   1.03751    0.205
 4137.00    1.03111   1.04942    0.208
 4138.00    1.04471   1.04370    0.206
 4139.00    1.06168   1.02052    0.203
 4140.00    1.06107   0.98531    0.203
 4141.00    1.05924   0.94826    0.203
 4142.00    0.97080   0.92083    0.202
 4143.00    0.87938   0.91059    0.201
 4144.00    0.94383   0.91728    0.207
 4145.00    1.00703   0.93362    0.213
 4146.00    1.01895   0.94990    0.215
 4147.00    1.03099   0.95918    0.216
 4148.00    1.04500   0.95967    0.214
 4149.00    1.05595   0.95365    0.212
 4150.00    1.03670   0.94473    0.212
 4151.00    1.01758   0.93595    0.213
 4152.00    0.99949   0.92942    0.214
 4153.00    0.98517   0.92699    0.216
 4154.00    0.99145   0.93061    0.215
 4155.00    0.99341   0.94183    0.213
 4156.00    0.97649   0.96083    0.208
 4157.00    0.96782   0.98575    0.205
 4158.00    0.98887   1.01309    0.210
 4159.00    1.01075   1.03858    0.212
 4160.00    1.03516   1.05811    0.205
 4161.00    1.03783   1.06854    0.200
 4162.00    0.98465   1.06845    0.197
 4163.00    0.96302   1.05886    0.196
 4164.00    1.01105   1.04320    0.199
 4165.00    1.03548   1.02606    0.200
 4166.00    1.01470   1.01075    0.198
 4167.00    1.00109   0.99743    0.198
 4168.00    0.99946   0.98343    0.199
 4169.00    0.99401   0.96571    0.198
 4170.00    0.98298   0.94410    0.194
 4171.00    0.97795   0.92208    0.194
 4172.00    0.98066   0.90486    0.198
 4173.00    0.98435   0.89613    0.203
 4174.00    0.98914   0.89616    0.210
 4175.00    0.98925   0.90261    0.209
 4176.00    0.98467   0.91235    0.201
 4177.00    0.97857   0.92300    0.196
 4178.00    0.97112   0.93332    0.196
 4179.00    0.98503   0.94322    0.194
 4180.00    1.01555   0.95324    0.191
 4181.00    1.01610   0.96370    0.190
 4182.00    0.99615   0.97361    0.190
 4183.00    0.98131   0.98076    0.189
 4184.00    0.96954   0.98330    0.189
 4185.00    0.97085   0.98186    0.189
 4186.00    0.97899   0.97986    0.190
 4187.00    0.99855   0.98143    0.189
 4188.00    1.02330   0.98859    0.187
 4189.00    1.03101   0.99983    0.186
 4190.00    1.03207   1.01069    0.186
 4191.00    1.02731   1.01558    0.186
 4192.00    1.02061   1.00990    0.186
 4193.00    1.03341   0.99211    0.185
 4194.00    1.05163   0.96477    0.185
 4195.00    1.02034   0.93391    0.184
 4196.00    0.97769   0.90647    0.184
 4197.00    0.94010   0.88765    0.183
 4198.00    0.90345   0.87964    0.182
 4199.00    0.93689   0.88235    0.182
 4200.00    0.98025   0.89479    0.182
 4201.00    0.99070   0.91597    0.183
 4202.00    0.99781   0.94443    0.183
 4203.00    0.99836   0.97747    0.182
 4204.00    0.99849   1.01097    0.181
 4205.00    1.00374   1.04034    0.180
 4206.00    1.00913   1.06198    0.179
 4207.00    1.00767   1.07429    0.182
 4208.00    1.00629   1.07772    0.184
 4209.00    1.00750   1.07372    0.183
 4210.00    1.01067   1.06374    0.182
 4211.00    1.04251   1.04948    0.181
 4212.00    1.07246   1.03427    0.180
 4213.00    1.08462   1.02386    0.183
 4214.00    1.09212   1.02477    0.185
 4215.00    1.06768   1.04036    0.183
 4216.00    1.05186   1.06769    0.181
 4217.00    1.08186   1.09735    0.182
 4218.00    1.10632   1.11695    0.182
 4219.00    1.10711   1.11560    0.184
 4220.00    1.09470   1.08737    0.185
 4221.00    1.03574   1.03312    0.183
 4222.00    0.98917   0.96090    0.182
 4223.00    0.97931   0.88511    0.183
 4224.00    0.96355   0.82362    0.183
 4225.00    0.93292   0.79235    0.182
 4226.00    0.91927   0.79925    0.182
 4227.00    0.94251   0.84005    0.182
 4228.00    0.98135   0.89975    0.182
 4229.00    1.04962   0.95912    0.182
 4230.00    1.09422   1.00270    0.181
 4231.00    1.09984   1.02409    0.179
 4232.00    1.10403   1.02619    0.178
 4233.00    1.10618   1.01750    0.180
 4234.00    1.09091   1.00748    0.180
 4235.00    1.05354   1.00326    0.178
 4236.00    1.04610   1.00862    0.176
 4237.00    1.07216   1.02430    0.174
 4238.00    1.09905   1.04898    0.173
 4239.00    1.12675   1.07997    0.175
 4240.00    1.15094   1.11345    0.176
 4241.00    1.17208   1.14456    0.178
 4242.00    1.16973   1.16754    0.179
 4243.00    1.14936   1.17680    0.179
 4244.00    1.15731   1.16867    0.181
 4245.00    1.18435   1.14341    0.182
 4246.00    1.17567   1.10592    0.183
 4247.00    1.14590   1.06445    0.183
 4248.00    1.09324   1.02749    0.184
 4249.00    1.02878   1.00083    0.187
 4250.00    1.02721   0.98619    0.188
 4251.00    1.05370   0.98197    0.189
 4252.00    1.06262   0.98542    0.187
 4253.00    1.06481   0.99389    0.184
 4254.00    1.05365   1.00442    0.181
 4255.00    1.03813   1.01315    0.179
 4256.00    1.03543   1.01664    0.177
 4257.00    1.03622   1.01496    0.176
 4258.00    1.03110   1.01351    0.177
 4259.00    1.02465   1.02095    0.178
 4260.00    1.06538   1.04355    0.179
 4261.00    1.11454   1.08045    0.181
 4262.00    1.09441   1.12297    0.180
 4263.00    1.06480   1.15825    0.179
 4264.00    1.06996   1.17482    0.180
 4265.00    1.07850   1.16609    0.182
 4266.00    1.10392   1.13180    0.182
 4267.00    1.13037   1.07721    0.183
 4268.00    1.10108   1.01189    0.181
 4269.00    1.07016   0.94782    0.179
 4270.00    1.01466   0.89721    0.177
 4271.00    0.96154   0.86960    0.175
 4272.00    0.97145   0.86948    0.177
 4273.00    0.98184   0.89523    0.178
 4274.00    0.99891   0.93952    0.178
 4275.00    1.01742   0.99117    0.178
 4276.00    1.04901   1.03834    0.178
 4277.00    1.08183   1.07205    0.179
 4278.00    1.12286   1.08905    0.182
 4279.00    1.15398   1.09197    0.184
 4280.00    1.13378   1.08646    0.181
 4281.00    1.11874   1.07743    0.179
 4282.00    1.12520   1.06670   -2.000
 4283.00    1.12466   1.05329   -2.000
 4284.00    1.10000   1.03535   -2.000
 4285.00    1.08037   1.01212   -2.000
 4286.00    1.07535   0.98534   -2.000
 4287.00    1.05832   0.95956   -2.000
 4288.00    1.01152   0.94086   -2.000
 4289.00    0.98862   0.93427   -2.000
 4290.00    1.01684   0.94053   -2.000
 4291.00    1.04167   0.95495   -2.000
 4292.00    1.06020   0.96893   -2.000
 4293.00    1.07810   0.97364   -2.000
 4294.00    1.09496   0.96322   -2.000
 4295.00    1.08782   0.93653   -2.000
 4296.00    1.04655   0.89719   -2.000
 4297.00    0.99407   0.85243   -2.000
 4298.00    0.92756   0.81089    0.177
 4299.00    0.88492   0.77952    0.175
 4300.00    0.86862   0.76077    0.173
 4301.00    0.86092   0.75207    0.172
 4302.00    0.86160   0.74755    0.171
 4303.00    0.84497   0.74142    0.172
 4304.00    0.81349   0.73106    0.173
 4305.00    0.79512   0.71869    0.172
 4306.00    0.78666   0.71063    0.169
 4307.00    0.78033   0.71461    0.168
 4308.00    0.77541   0.73669    0.168
 4309.00    0.82688   0.77897    0.169
 4310.00    0.91115   0.83970    0.171
 4311.00    0.98495   0.91479    0.171
 4312.00    1.05345   0.99923    0.171
 4313.00    1.08943   1.08723    0.171
 4314.00    1.11115   1.17150    0.172
 4315.00    1.13815   1.24313    0.172
 4316.00    1.16714   1.29334    0.173
 4317.00    1.20344   1.31588    0.176
 4318.00    1.24208   1.30880    0.179
 4319.00    1.22681   1.27443    0.179
 4320.00    1.19714   1.21874    0.180
 4321.00    1.18539   1.15105    0.179
 4322.00    1.17755   1.08442    0.177
 4323.00    1.09927   1.03418    0.174
 4324.00    1.00873   1.01385    0.171
 4325.00    1.04367   1.02943    0.172
 4326.00    1.09521   1.07596    0.175
 4327.00    1.16664   1.13962    0.176
 4328.00    1.23993   1.20428    0.177
 4329.00    1.26466   1.25820    0.177
 4330.00    1.28662   1.29637    0.000
 4331.00    1.31879   1.31811    0.000
 4332.00    1.35039   1.32310    0.000
 4333.00    1.29018   1.30946    0.000
 4334.00    1.23236   1.27560    0.000
 4335.00    1.23189   1.22382    0.000
 4336.00    1.22858   1.16261    0.000
 4337.00    1.18839   1.10515    0.000
 4338.00    1.14886   1.06494    0.000
 4339.00    1.11511   1.05050    0.000
 4340.00    1.09142   1.06266    0.000
 4341.00    1.13268   1.09530    0.000
 4342.00    1.17282   1.13890    0.000
 4343.00    1.20727   1.18423    0.000
 4344.00    1.23869   1.22445    0.000
 4345.00    1.25772   1.25479    0.000
 4346.00    1.26745   1.27158    0.000
 4347.00    1.24568   1.27208    0.000
 4348.00    1.22096   1.25620    0.000
 4349.00    1.18782   1.22858    0.000
 4350.00    1.17462   1.19869    0.000
 4351.00    1.21007   1.17753    0.177
 4352.00    1.23981   1.17250    0.178
 4353.00    1.25753   1.18394    0.179
 4354.00    1.26000   1.20583    0.179
 4355.00    1.23461   1.22999    0.178
 4356.00    1.22427   1.25078    0.177
 4357.00    1.23796   1.26733    0.180
 4358.00    1.26612   1.28253    0.181
 4359.00    1.31456   1.29989    0.180
 4360.00    1.35900   1.32034    0.180
 4361.00    1.39850   1.34134    0.182
 4362.00    1.40768   1.35788    0.181
 4363.00    1.38389   1.36498    0.178
 4364.00    1.36379   1.35999    0.175
 4365.00    1.34722   1.34383    0.175
 4366.00    1.31970   1.32065    0.174
 4367.00    1.28291   1.29551    0.172
 4368.00    1.26878   1.27177    0.173
 4369.00    1.27152   1.24977    0.176
 4370.00    1.25256   1.22798    0.176
 4371.00    1.21941   1.20572    0.174
 4372.00    1.19054   1.18527    0.172
 4373.00    1.16414   1.17133    0.169
 4374.00    1.16245   1.16774    0.170
 4375.00    1.17309   1.17353    0.172
 4376.00    1.18167   1.18149    0.173
 4377.00    1.18936   1.18044    0.172
 4378.00    1.18151   1.16046    0.173
 4379.00    1.16791   1.11812    0.174
 4380.00    1.11113   1.05935    0.172
 4381.00    1.04082   0.99804    0.168
 4382.00    1.01754   0.95089    0.168
 4383.00    1.00657   0.93043    0.170
 4384.00    1.03058   0.93948    0.169
 4385.00    1.06206   0.97076    0.167
 4386.00    1.08331   1.01160    0.167
 4387.00    1.10283   1.05067    0.167
 4388.00    1.12797   1.08236    0.167
 4389.00    1.15383   1.10688    0.167
 4390.00    1.17455   1.12752    0.168
 4391.00    1.19482   1.14771    0.170
 4392.00    1.21317   1.16947    0.171
 4393.00    1.23143   1.19303    0.172
 4394.00    1.21694   1.21668    0.171
 4395.00    1.20241   1.23670    0.171
 4396.00    1.23748   1.24830    0.171
 4397.00    1.27076   1.24755    0.171
 4398.00    1.26496   1.23312    0.172
 4399.00    1.25623   1.20656    0.172
 4400.00    1.21139   1.17132    0.172
 4401.00    1.16671   1.13171    0.171
 4402.00    1.12349   1.09316    0.170
 4403.00    1.08830   1.06259    0.170
 4404.00    1.10349   1.04735    0.170
 4405.00    1.11730   1.05258    0.170
 4406.00    1.12435   1.07881    0.171
 4407.00    1.13589   1.12120    0.172
 4408.00    1.16532   1.17056    0.171
 4409.00    1.20289   1.21571    0.171
 4410.00    1.26743   1.24672    0.171
 4411.00    1.31178   1.25838    0.172
 4412.00    1.29951   1.25273    0.174
 4413.00    1.28843   1.23850    0.175
 4414.00    1.28020   1.22735    0.173
 4415.00    1.27190   1.22786    0.172
 4416.00    1.26346   1.24131    0.173
 4417.00    1.26405   1.26157    0.174
 4418.00    1.28089   1.27924    0.173
 4419.00    1.30547   1.28712    0.172
 4420.00    1.34225   1.28383    0.173
 4421.00    1.35689   1.27346    0.173
 4422.00    1.34095   1.26232    0.172
 4423.00    1.33472   1.25518    0.173
 4424.00    1.34028   1.25332    0.173
 4425.00    1.33040   1.25493    0.173
 4426.00    1.30396   1.25684    0.171
 4427.00    1.27888   1.25633    0.170
 4428.00    1.25508   1.25181    0.170
 4429.00    1.24826   1.24288    0.171
 4430.00    1.25560   1.23027    0.173
 4431.00    1.26243   1.21606    0.174
 4432.00    1.26887   1.20406    0.174
 4433.00    1.27461   1.19940    0.174
 4434.00    1.27990   1.20636    0.175
 4435.00    1.28484   1.22537    0.175
 4436.00    1.28959   1.25138    0.174
 4437.00    1.29551   1.27545    0.175
 4438.00    1.30201   1.28950    0.175
 4439.00    1.29799   1.29096    0.175
 4440.00    1.28950   1.28444    0.174
 4441.00    1.31281   1.27879    0.176
 4442.00    1.34767   1.28198    0.178
 4443.00    1.35497   1.29665    0.178
 4444.00    1.35379   1.31928    0.178
 4445.00    1.36908   1.34278    0.178
 4446.00    1.38859   1.36016    0.177
 4447.00    1.39425   1.36708    0.177
 4448.00    1.39703   1.36198    0.178
 4449.00    1.38434   1.34517    0.177
 4450.00    1.36910   1.31785    0.175
 4451.00    1.35321   1.28213    0.173
 4452.00    1.33724   1.24157    0.170
 4453.00    1.31048   1.20106    0.170
 4454.00    1.28280   1.16560    0.169
 4455.00    1.24493   1.13867    0.168
 4456.00    1.20656   1.12141    0.168
 4457.00    1.20739   1.11318    0.167
 4458.00    1.20899   1.11311    0.167
 4459.00    1.21945   1.12114    0.167
 4460.00    1.23053   1.13747    0.167
 4461.00    1.25420   1.16106    0.000
 4462.00    1.27637   1.18871    0.000
 4463.00    1.28100   1.21567    0.000
 4464.00    1.28775   1.23774    0.000
 4465.00    1.31175   1.25312    0.000
 4466.00    1.33042   1.26338    0.000
 4467.00    1.31669   1.27251    0.000
 4468.00    1.31239   1.28495    0.000
 4469.00    1.35333   1.30368    0.000
 4470.00    1.38917   1.32904    0.000
 4471.00    1.40506   1.35865    0.000
 4472.00    1.41744   1.38833    0.000
 4473.00    1.41838   1.41346    0.000
 4474.00    1.42634   1.42996    0.000
 4475.00    1.45357   1.43474    0.000
 4476.00    1.46429   1.42642    0.000
 4477.00    1.43606   1.40639    0.000
 4478.00    1.40818   1.37987    0.000
 4479.00    1.38102   1.35527    0.000
 4480.00    1.36349   1.34130    0.000
 4481.00    1.36306   1.34293    0.000
 4482.00    1.37186   1.35851    0.167
 4483.00    1.39499   1.38041    0.168
 4484.00    1.41365   1.39859    0.168
 4485.00    1.42623   1.40533    0.169
 4486.00    1.44405   1.39851    0.169
 4487.00    1.46815   1.38178    0.170
 4488.00    1.45091   1.36163    0.169
 4489.00    1.38998   1.34360    0.168
 4490.00    1.36563   1.32992    0.167
 4491.00    1.37540   1.32001    0.166
 4492.00    1.38120   1.31289    0.166
 4493.00    1.38374   1.30945    0.166
 4494.00    1.39919   1.31238    0.167
 4495.00    1.42398   1.32403    0.167
 4496.00    1.42650   1.34443    0.167
 4497.00    1.41487   1.37102    0.166
 4498.00    1.40992   1.40039    0.166
 4499.00    1.40868   1.43015    0.166
 4500.00    1.43100   1.45931    0.165
 4501.00    1.46472   1.48717    0.165
 4502.00    1.48907   1.51210    0.166
 4503.00    1.50953   1.53133    0.168
 4504.00    1.50328   1.54246    0.167
 4505.00    1.48749   1.54498    0.165
 4506.00    1.51251   1.54052    0.165
 4507.00    1.54982   1.53140    0.165
 4508.00    1.53359   1.51911    0.164
 4509.00    1.50394   1.50409    0.162
 4510.00    1.49463   1.48644    0.163
 4511.00    1.48945   1.46704    0.165
 4512.00    1.46467   1.44823    0.165
 4513.00    1.43675   1.43302    0.165
 4514.00    1.43504   1.42390    0.164
 4515.00    1.43644   1.42178    0.164
 4516.00    1.42363   1.42579    0.163
 4517.00    1.40966   1.43335    0.163
 4518.00    1.41667   1.44057    0.163
 4519.00    1.42464   1.44276    0.162
 4520.00    1.41990   1.43559    0.161
 4521.00    1.41519   1.41639    0.160
 4522.00    1.42018   1.38522    0.161
 4523.00    1.42400   1.34486    0.162
 4524.00    1.40606   1.30029    0.161
 4525.00    1.38559   1.25764    0.160
 4526.00    1.33680   1.22286    0.160
 4527.00    1.29313   1.20013    0.159
 4528.00    1.28963   1.19059    0.158
 4529.00    1.28407   1.19241    0.158
 4530.00    1.26631   1.20212    0.157
 4531.00    1.25488   1.21643    0.157
 4532.00    1.27303   1.23394    0.158
 4533.00    1.29082   1.25518    0.159
 4534.00    1.30721   1.28088    0.160
 4535.00    1.32529   1.30989    0.160
 4536.00    1.34876   1.33841    0.160
 4537.00    1.37041   1.36160    0.161
 4538.00    1.38711   1.37623    0.161
 4539.00    1.41129   1.38213    0.162
 4540.00    1.45280   1.38161    0.162
 4541.00    1.47430   1.37747    0.161
 4542.00    1.45567   1.37180    0.161
 4543.00    1.43334   1.36546    0.160
 4544.00    1.40453   1.35854    0.159
 4545.00    1.38270   1.35122    0.158
 4546.00    1.37152   1.34407    0.158
 4547.00    1.36527   1.33772    0.159
 4548.00    1.36564   1.33278    0.159
 4549.00    1.36506   1.32949    0.160
 4550.00    1.36337   1.32793    0.000
 4551.00    1.36858   1.32887    0.000
 4552.00    1.38098   1.33410    0.000
 4553.00    1.38640   1.34583    0.000
 4554.00    1.38542   1.36505    0.000
 4555.00    1.39266   1.39031    0.000
 4556.00    1.40658   1.41793    0.000
 4557.00    1.43313   1.44247    0.000
 4558.00    1.46869   1.45871    0.000
 4559.00    1.47932   1.46368    0.000
 4560.00    1.47434   1.45770    0.000
 4561.00    1.46931   1.44430    0.000
 4562.00    1.46424   1.42929    0.000
 4563.00    1.45332   1.41857    0.000
 4564.00    1.43961   1.41594    0.000
 4565.00    1.45252   1.42141    0.000
 4566.00    1.47635   1.43147    0.000
 4567.00    1.49680   1.44147    0.000
 4568.00    1.51608   1.44800    0.000
 4569.00    1.53494   1.45051    0.000
 4570.00    1.55368   1.45095    0.000
 4571.00    1.55057   1.45167    0.000
 4572.00    1.54211   1.45343    0.000
 4573.00    1.52677   1.45425    0.000
 4574.00    1.51006   1.45052    0.000
 4575.00    1.51271   1.43970    0.000
 4576.00    1.51836   1.42148    0.000
 4577.00    1.49756   1.39807    0.000
 4578.00    1.47373   1.37427    0.000
 4579.00    1.44113   1.35496    0.000
 4580.00    1.40784   1.34301    0.000
 4581.00    1.42150   1.33911    0.000
 4582.00    1.43711   1.34247    0.000
 4583.00    1.43770   1.35171    0.000
 4584.00    1.43835   1.36534    0.000
 4585.00    1.44745   1.38148    0.000
 4586.00    1.45663   1.39743    0.000
 4587.00    1.46731   1.40981    0.000
 4588.00    1.47659   1.41522    0.000
 4589.00    1.47090   1.41160    0.000
 4590.00    1.46548   1.39973    0.000
 4591.00    1.46210   1.38278    0.000
 4592.00    1.45780   1.36516    0.000
 4593.00    1.44817   1.35083    0.000
 4594.00    1.43455   1.34191    0.000
 4595.00    1.40271   1.33849    0.000
 4596.00    1.37404   1.33916    0.000
 4597.00    1.35718   1.34200    0.000
 4598.00    1.35738   1.34560    0.000
 4599.00    1.41094   1.34935    0.000
 4600.00    1.45193   1.35344    0.000
 4601.00    1.45951   1.35903    0.000
 4602.00    1.45880   1.36790    0.000
 4603.00    1.43921   1.38175    0.000
 4604.00    1.43730   1.40162    0.000
 4605.00    1.47032   1.42644    0.000
 4606.00    1.49974   1.45290    0.000
 4607.00    1.52301   1.47665    0.000
 4608.00    1.53916   1.49356    0.000
 4609.00    1.54461   1.50163    0.000
 4610.00    1.55712   1.50196    0.000
 4611.00    1.57898   1.49809    0.000
 4612.00    1.57198   1.49416    0.000
 4613.00    1.53134   1.49301    0.000
 4614.00    1.51565   1.49524    0.000
 4615.00    1.52558   1.49934    0.000
 4616.00    1.53559   1.50336    0.000
 4617.00    1.54568   1.50620    0.000
 4618.00    1.54673   1.50752    0.000
 4619.00    1.54056   1.50769    0.000
 4620.00    1.53298   1.50702    0.000
 4621.00    1.52441   1.50521    0.000
 4622.00    1.52497   1.50217    0.000
 4623.00    1.53117   1.49816    0.000
 4624.00    1.54882   1.49350    0.000
 4625.00    1.57264   1.48914    0.000
 4626.00    1.56555   1.48599    0.000
 4627.00    1.54400   1.48376    0.000
 4628.00    1.54094   1.48146    0.000
 4629.00    1.54534   1.47783    0.000
 4630.00    1.54187   1.47127    0.000
 4631.00    1.53569   1.46064    0.000
 4632.00    1.51977   1.44607    0.000
 4633.00    1.50102   1.42850    0.000
 4634.00    1.47808   1.40922    0.000
 4635.00    1.45414   1.39023    0.000
 4636.00    1.44924   1.37402    0.000
 4637.00    1.44801   1.36215    0.000
 4638.00    1.43710   1.35464    0.000
 4639.00    1.42472   1.35011    0.000
 4640.00    1.41488   1.34592    0.000
 4641.00    1.40530   1.33874    0.000
 4642.00    1.39577   1.32624    0.000
 4643.00    1.38624   1.30907    0.000
 4644.00    1.36729   1.29078    0.000
 4645.00    1.34799   1.27673    0.000
 4646.00    1.34486   1.27229    0.000
 4647.00    1.34214   1.27974    0.000
 4648.00    1.35146   1.29706    0.000
 4649.00    1.36187   1.31937    0.000
 4650.00    1.39039   1.34092    0.000
 4651.00    1.41933   1.35740    0.000
 4652.00    1.45250   1.36812    0.000
 4653.00    1.47778   1.37589    0.000
 4654.00    1.44540   1.38508    0.000
 4655.00    1.42390   1.39880    0.000
 4656.00    1.46331   1.41669    0.000
 4657.00    1.50028   1.43501    0.000
 4658.00    1.52632   1.44767    0.000
 4659.00    1.54340   1.44863    0.000
 4660.00    1.52767   1.43459    0.000
 4661.00    1.50520   1.40599    0.000
 4662.00    1.46204   1.36690    0.000
 4663.00    1.42341   1.32385    0.000
 4664.00    1.39660   1.28413    0.000
 4665.00    1.37175   1.25431    0.000
 4666.00    1.35127   1.23907    0.000
 4667.00    1.34076   1.24009    0.000
 4668.00    1.34960   1.25543    0.000
 4669.00    1.36003   1.28066    0.000
 4670.00    1.37317   1.30982    0.000
 4671.00    1.38691   1.33667    0.000
 4672.00    1.40156   1.35687    0.000
 4673.00    1.41894   1.36909    0.000
 4674.00    1.43989   1.37388    0.000
 4675.00    1.43702   1.37232    0.000
 4676.00    1.40677   1.36553    0.000
 4677.00    1.39491   1.35523    0.000
 4678.00    1.40167   1.34409    0.000
 4679.00    1.41348   1.33522    0.000
 4680.00    1.42979   1.33140    0.000
 4681.00    1.42589   1.33377    0.000
 4682.00    1.40608   1.34066    0.000
 4683.00    1.39659   1.34873    0.000
 4684.00    1.39425   1.35502    0.000
 4685.00    1.40534   1.35785    0.000
 4686.00    1.42458   1.35703    0.000
 4687.00    1.43230   1.35414    0.000
 4688.00    1.43390   1.35163    0.000
 4689.00    1.41518   1.35123    0.000
 4690.00    1.38711   1.35385    0.000
 4691.00    1.40791   1.35922    0.000
 4692.00    1.44808   1.36529    0.000
 4693.00    1.44647   1.36929    0.000
 4694.00    1.43075   1.36881    0.000
 4695.00    1.40443   1.36193    0.000
 4696.00    1.37511   1.34849    0.000
 4697.00    1.37028   1.33062    0.000
 4698.00    1.37118   1.31174    0.000
 4699.00    1.39498   1.29535    0.000
 4700.00    1.42308   1.28414    0.000
 4701.00    1.38922   1.27914    0.000
 4702.00    1.34635   1.27912    0.000
 4703.00    1.33625   1.28159    0.000
 4704.00    1.32961   1.28506    0.000
 4705.00    1.35719   1.28923    0.000
 4706.00    1.38713   1.29436    0.000
 4707.00    1.36699   1.30049    0.000
 4708.00    1.34516   1.30777    0.000
 4709.00    1.38346   1.31646    0.000
 4710.00    1.42047   1.32639    0.000
 4711.00    1.41242   1.33694    0.000
 4712.00    1.40455   1.34848    0.000
 4713.00    1.39926   1.36234    0.000
 4714.00    1.39964   1.37966    0.000
 4715.00    1.45554   1.40106    0.000
 4716.00    1.50234   1.42535    0.000
 4717.00    1.48480   1.44952    0.000
 4718.00    1.47442   1.46975    0.000
 4719.00    1.50296   1.48270    0.000
 4720.00    1.52232   1.48747    0.000
 4721.00    1.50163   1.48445    0.000
 4722.00    1.48897   1.47340    0.000
 4723.00    1.50514   1.45421    0.000
 4724.00    1.51615   1.42792    0.000
 4725.00    1.51162   1.39711    0.000
 4726.00    1.50291   1.36569    0.000
 4727.00    1.48344   1.33834    0.000
 4728.00    1.45713   1.31960    0.000
 4729.00    1.41573   1.31243    0.000
 4730.00    1.39445   1.31692    0.000
 4731.00    1.41163   1.32966    0.000
 4732.00    1.42536   1.34548    0.000
 4733.00    1.43335   1.36075    0.000
 4734.00    1.43401   1.37409    0.000
 4735.00    1.42397   1.38524    0.000
 4736.00    1.42920   1.39483    0.000
 4737.00    1.45405   1.40365    0.000
 4738.00    1.48211   1.41155    0.000
 4739.00    1.51379   1.41906    0.000
 4740.00    1.52776   1.42651    0.000
 4741.00    1.52404   1.43296    0.000
 4742.00    1.53103   1.43898    0.000
 4743.00    1.54747   1.44597    0.000
 4744.00    1.52853   1.45358    0.000
 4745.00    1.48213   1.46011    0.000
 4746.00    1.47562   1.46386    0.000
 4747.00    1.49633   1.46393    0.000
 4748.00    1.50876   1.45999    0.000
 4749.00    1.51625   1.45131    0.000
 4750.00    1.49683   1.43858    0.000
 4751.00    1.46336   1.42434    0.000
 4752.00    1.45909   1.41101    0.000
 4753.00    1.46802   1.40025    0.000
 4754.00    1.47477   1.39327    0.000
 4755.00    1.48067   1.39022    0.000
 4756.00    1.46832   1.38919    0.000
 4757.00    1.44993   1.38738    0.000
 4758.00    1.45974   1.38205    0.000
 4759.00    1.47739   1.37153    0.000
 4760.00    1.47197   1.35600    0.000
 4761.00    1.46126   1.33756    0.148
 4762.00    1.44158   1.31972    0.148
 4763.00    1.42027   1.30638    0.149
 4764.00    1.43057   1.30114    0.150
 4765.00    1.44533   1.30558    0.150
 4766.00    1.42123   1.31815    0.150
 4767.00    1.39318   1.33608    0.149
 4768.00    1.43121   1.35671    0.149
 4769.00    1.47351   1.37736    0.148
 4770.00    1.47234   1.39599    0.148
 4771.00    1.46993   1.41226    0.148
 4772.00    1.50187   1.42671    0.148
 4773.00    1.53225   1.43972    0.148
 4774.00    1.51783   1.45128    0.149
 4775.00    1.50514   1.45970    0.149
 4776.00    1.51771   1.46254    0.148
 4777.00    1.52882   1.45854    0.147
 4778.00    1.52618   1.44854    0.147
 4779.00    1.52046   1.43432    0.147
 4780.00    1.49362   1.41725    0.146
 4781.00    1.46960   1.39930    0.145
 4782.00    1.46048   1.38296    0.143
 4783.00    1.45188   1.36983    0.142
 4784.00    1.44549   1.36067    0.143
 4785.00    1.43927   1.35640    0.143
 4786.00    1.43359   1.35774    0.144
 4787.00    1.43013   1.36427    0.145
 4788.00    1.43323   1.37599    0.145
 4789.00    1.44575   1.39357    0.146
 4790.00    1.48202   1.41527    0.145
 4791.00    1.50740   1.43766    0.145
 4792.00    1.50916   1.45761    0.144
 4793.00    1.51215   1.47155    0.144
 4794.00    1.51745   1.47695    0.146
 4795.00    1.52246   1.47405    0.147
 4796.00    1.52697   1.46522    0.146
 4797.00    1.52369   1.45425    0.146
 4798.00    1.50918   1.44536    0.146
 4799.00    1.50905   1.44100    0.146
 4800.00    1.52713   1.44048    0.146
 4801.00    1.53352   1.44111    0.147
 4802.00    1.52683   1.44004    0.147
 4803.00    1.50694   1.43523    0.147
 4804.00    1.47406   1.42651    0.146
 4805.00    1.46437   1.41614    0.145
 4806.00    1.47486   1.40771    0.146
 4807.00    1.47420   1.40406    0.146
 4808.00    1.46503   1.40576    0.146
 4809.00    1.46776   1.41156    0.145
 4810.00    1.47851   1.42032    0.145
 4811.00    1.48534   1.43099    0.145
 4812.00    1.48986   1.44232    0.145
 4813.00    1.48800   1.45381    0.146
 4814.00    1.48287   1.46546    0.146
 4815.00    1.49318   1.47637    0.147
 4816.00    1.51035   1.48438    0.148
 4817.00    1.52301   1.48727    0.148
 4818.00    1.53393   1.48385    0.148
 4819.00    1.54349   1.47407    0.149
 4820.00    1.55261   1.45961    0.149
 4821.00    1.54207   1.44341    0.149
 4822.00    1.52618   1.42853    0.147
 4823.00    1.49320   1.41744    0.147
 4824.00    1.45639   1.41070    0.146
 4825.00    1.46837   1.40747    0.146
 4826.00    1.48904   1.40640    0.145
 4827.00    1.46628   1.40497    0.145
 4828.00    1.43761   1.40162    0.145
 4829.00    1.44996   1.39772    0.145
 4830.00    1.46629   1.39568    0.145
 4831.00    1.48359   1.39659    0.146
 4832.00    1.50095   1.39934    0.148
 4833.00    1.46769   1.40220    0.147
 4834.00    1.43325   1.40416    0.146
 4835.00    1.42644   1.40378    0.145
 4836.00    1.42048   1.39924    0.145
 4837.00    1.43676   1.39120    0.143
 4838.00    1.45184   1.38274    0.143
 4839.00    1.45061   1.37666    0.145
 4840.00    1.45140   1.37434    0.147
 4841.00    1.47059   1.37634    0.147
 4842.00    1.48739   1.38202    0.146
 4843.00    1.48826   1.38913    0.146
 4844.00    1.48690   1.39507    0.145
 4845.00    1.47396   1.39879    0.146
 4846.00    1.46435   1.40022    0.146
 4847.00    1.46857   1.39843    0.146
 4848.00    1.46278   1.39267    0.000
 4849.00    1.42253   1.38364    0.000
 4850.00    1.39797   1.37242    0.000
 4851.00    1.41894   1.35892    0.000
 4852.00    1.42397   1.34161    0.000
 4853.00    1.38958   1.31948    0.000
 4854.00    1.35858   1.29336    0.000
 4855.00    1.33482   1.26452    0.000
 4856.00    1.31415   1.23463    0.000
 4857.00    1.29918   1.20659    0.000
 4858.00    1.28848   1.18305    0.000
 4859.00    1.28468   1.16590    0.000
 4860.00    1.27231   1.15775    0.000
 4861.00    1.24776   1.16142    0.000
 4862.00    1.24750   1.17719    0.000
 4863.00    1.27759   1.20151    0.000
 4864.00    1.30258   1.22692    0.000
 4865.00    1.32195   1.24537    0.000
 4866.00    1.32625   1.25372    0.000
 4867.00    1.31591   1.25338    0.000
 4868.00    1.30392   1.24694    0.000
 4869.00    1.29052   1.23838    0.000
 4870.00    1.29200   1.23292    0.000
 4871.00    1.30471   1.23413    0.000
 4872.00    1.30651   1.24372    0.000
 4873.00    1.30107   1.26257    0.000
 4874.00    1.32571   1.28800    0.000
 4875.00    1.36782   1.31361    0.145
 4876.00    1.38742   1.33471    0.146
 4877.00    1.39563   1.35007    0.147
 4878.00    1.41436   1.35863    0.147
 4879.00    1.43769   1.35898    0.147
 4880.00    1.44891   1.35157    0.147
 4881.00    1.45557   1.33777    0.146
 4882.00    1.41739   1.31934    0.145
 4883.00    1.36490   1.29965    0.144
 4884.00    1.35549   1.28100    0.145
 4885.00    1.35755   1.26347    0.145
 4886.00    1.34489   1.24905    0.145
 4887.00    1.32902   1.24195    0.146
 4888.00    1.35660   1.24539    0.146
 4889.00    1.39171   1.26024    0.146
 4890.00    1.37253   1.28565    0.144
 4891.00    1.34618   1.31989    0.142
 4892.00    1.39943   1.36007    0.145
 4893.00    1.46006   1.40151    0.148
 4894.00    1.48776   1.43709    0.148
 4895.00    1.51360   1.46022    0.147
 4896.00    1.51442   1.46892    0.148
 4897.00    1.51466   1.46559    0.148
 4898.00    1.51368   1.45501    0.147
 4899.00    1.51199   1.44254    0.145
 4900.00    1.49376   1.43175    0.144
 4901.00    1.47609   1.42445    0.144
 4902.00    1.46566   1.42099    0.144
 4903.00    1.45574   1.41884    0.144
 4904.00    1.45038   1.41465    0.143
 4905.00    1.44458   1.40772    0.143
 4906.00    1.43603   1.39844    0.144
 4907.00    1.42752   1.38688    0.144
 4908.00    1.41924   1.37471    0.144
 4909.00    1.41779   1.36585    0.144
 4910.00    1.44413   1.36303    0.143
 4911.00    1.46602   1.36506    0.143
 4912.00    1.47287   1.36732    0.143
 4913.00    1.47349   1.36368    0.143
 4914.00    1.45635   1.34924    0.143
 4915.00    1.43285   1.32372    0.142
 4916.00    1.39389   1.29135    0.142
 4917.00    1.36337   1.25769    0.141
 4918.00    1.35058   1.22890    0.141
 4919.00    1.34772   1.21164    0.140
 4920.00    1.36295   1.21117    0.140
 4921.00    1.36956   1.22790    0.140
 4922.00    1.36240   1.25811    0.140
 4923.00    1.36199   1.29574    0.139
 4924.00    1.37104   1.33393    0.138
 4925.00    1.39298   1.36875    0.138
 4926.00    1.43082   1.39896    0.140
 4927.00    1.46642   1.42203    0.141
 4928.00    1.49959   1.43487    0.142
 4929.00    1.51417   1.43696    0.142
 4930.00    1.51096   1.42937    0.142
 4931.00    1.49335   1.41299    0.140
 4932.00    1.46358   1.38999    0.139
 4933.00    1.43864   1.36416    0.139
 4934.00    1.41729   1.34001    0.139
 4935.00    1.40864   1.32239    0.139
 4936.00    1.40828   1.31419    0.138
 4937.00    1.41046   1.31514    0.138
 4938.00    1.41408   1.32454    0.138
 4939.00    1.41637   1.34230    0.139
 4940.00    1.41799   1.36719    0.000
 4941.00    1.43403   1.39558    0.000
 4942.00    1.45628   1.42158    0.000
 4943.00    1.46938   1.44103    0.000
 4944.00    1.47910   1.45452    0.000
 4945.00    1.49253   1.46430    0.000
 4946.00    1.50713   1.47099    0.000
 4947.00    1.53241   1.47510    0.000
 4948.00    1.56047   1.47681    0.000
 4949.00    1.55971   1.47382    0.000
 4950.00    1.55280   1.46279    0.000
 4951.00    1.53517   1.44182    0.000
 4952.00    1.51572   1.41265    0.000
 4953.00    1.50103   1.37997    0.000
 4954.00    1.48693   1.34921    0.000
 4955.00    1.46868   1.32567    0.000
 4956.00    1.45005   1.31277    0.000
 4957.00    1.44636   1.31132    0.000
 4958.00    1.44345   1.32005    0.000
 4959.00    1.44703   1.33669    0.000
 4960.00    1.45079   1.35537    0.000
 4961.00    1.45868   1.36720    0.000
 4962.00    1.46542   1.36803    0.000
 4963.00    1.44733   1.36105    0.000
 4964.00    1.42923   1.35146    0.000
 4965.00    1.41108   1.34275    0.000
 4966.00    1.39650   1.33786    0.000
 4967.00    1.41184   1.33991    0.000
 4968.00    1.42562   1.34931    0.000
 4969.00    1.42955   1.36308    0.000
 4970.00    1.43252   1.37773    0.000
 4971.00    1.43076   1.39015    0.000
 4972.00    1.43030   1.39731    0.000
 4973.00    1.43502   1.39714    0.000
 4974.00    1.43840   1.38857    0.000
 4975.00    1.43732   1.37166    0.000
 4976.00    1.43407   1.34660    0.000
 4977.00    1.42473   1.31521    0.000
 4978.00    1.40715   1.28155    0.000
 4979.00    1.36988   1.24983    0.000
 4980.00    1.33831   1.22439    0.000
 4981.00    1.31847   1.20894    0.000
 4982.00    1.30438   1.20443    0.000
 4983.00    1.30059   1.21040    0.000
 4984.00    1.29634   1.22641    0.000
 4985.00    1.29137   1.24943    0.000
 4986.00    1.29156   1.27374    0.000
 4987.00    1.29886   1.29497    0.000
 4988.00    1.32561   1.31078    0.000
 4989.00    1.37598   1.32033    0.000
 4990.00    1.39975   1.32514    0.000
 4991.00    1.39507   1.32748    0.000
 4992.00    1.39448   1.32850    0.000
 4993.00    1.39776   1.32784    0.000
 4994.00    1.39412   1.32312    0.000
 4995.00    1.38471   1.31341    0.000
 4996.00    1.38103   1.30027    0.000
 4997.00    1.38153   1.28397    0.000
 4998.00    1.36733   1.26488    0.000
 4999.00    1.34366   1.24444    0.000
 5000.00    1.32743   1.22380    0.000
 5001.00    1.31538   1.20571    0.000
 5002.00    1.34486   1.19359    0.000
 5003.00    1.39469   1.18805    0.000
 5004.00    1.40395   1.18767    0.000
 5005.00    1.39604   1.19058    0.000
 5006.00    1.39381   1.19462    0.000
 5007.00    1.39364   1.19792    0.000
 5008.00    1.37368   1.19923    0.000
 5009.00    1.34766   1.19630    0.000
 5010.00    1.33348   1.18750    0.000
 5011.00    1.32232   1.17478    0.000
 5012.00    1.30807   1.16206    0.000
 5013.00    1.29317   1.15293    0.000
 5014.00    1.26950   1.15041    0.000
 5015.00    1.24440   1.15467    0.000
 5016.00    1.23710   1.16315    0.000
 5017.00    1.23199   1.17274    0.000
 5018.00    1.25310   1.18178    0.000
 5019.00    1.27642   1.19108    0.000
 5020.00    1.28022   1.20129    0.000
 5021.00    1.28306   1.21111    0.000
 5022.00    1.26925   1.21911    0.000
 5023.00    1.25561   1.22695    0.000
 5024.00    1.26738   1.23740    0.000
 5025.00    1.27964   1.24986    0.000
 5026.00    1.30170   1.26287    0.000
 5027.00    1.32303   1.27713    0.000
 5028.00    1.33582   1.29261    0.000
 5029.00    1.34834   1.30773    0.135
 5030.00    1.35864   1.31884    0.135
 5031.00    1.36438   1.32172    0.135
 5032.00    1.34254   1.31586    0.134
 5033.00    1.32282   1.30153    0.134
 5034.00    1.31324   1.27817    0.134
 5035.00    1.30435   1.24700    0.134
 5036.00    1.29812   1.21315    0.134
 5037.00    1.28711   1.18598    0.135
 5038.00    1.26056   1.17194    0.134
 5039.00    1.23960   1.17028    0.133
 5040.00    1.23401   1.18002    0.133
 5041.00    1.24106   1.20086    0.134
 5042.00    1.27783   1.22911    0.135
 5043.00    1.30702   1.25868    0.135
 5044.00    1.32080   1.28198    0.135
 5045.00    1.32463   1.29335    0.135
 5046.00    1.31086   1.29311    0.135
 5047.00    1.30439   1.28519    0.135
 5048.00    1.30920   1.27465    0.135
 5049.00    1.31618   1.26735    0.135
 5050.00    1.32611   1.26830    0.135
 5051.00    1.33293   1.27828    0.136
 5052.00    1.33606   1.29442    0.137
 5053.00    1.34160   1.31379    0.137
 5054.00    1.34968   1.33402    0.137
 5055.00    1.35842   1.35265    0.137
 5056.00    1.36778   1.36761    0.137
 5057.00    1.38807   1.37726    0.137
 5058.00    1.41732   1.38050    0.137
 5059.00    1.41893   1.37593    0.137
 5060.00    1.40058   1.36387    0.136
 5061.00    1.38116   1.34730    0.136
 5062.00    1.36105   1.32785    0.137
 5063.00    1.35701   1.30623    0.137
 5064.00    1.36188   1.28581    0.138
 5065.00    1.33880   1.27045    0.137
 5066.00    1.30224   1.26189    0.136
 5067.00    1.30021   1.25939    0.135
 5068.00    1.31256   1.26023    0.134
 5069.00    1.31453   1.26205    0.135
 5070.00    1.31281   1.26391    0.136
 5071.00    1.30906   1.26487    0.135
 5072.00    1.30471   1.26307    0.135
 5073.00    1.30839   1.25697    0.135
 5074.00    1.31407   1.24626    0.136
 5075.00    1.31142   1.23146    0.136
 5076.00    1.30708   1.21424    0.136
 5077.00    1.29510   1.19752    0.135
 5078.00    1.28190   1.18379    0.134
 5079.00    1.24742   1.17450    0.133
 5080.00    1.21042   1.17196    0.131
 5081.00    1.21842   1.17938    0.130
 5082.00    1.23003   1.19593    0.130
 5083.00    1.25563   1.21628    0.130
 5084.00    1.28186   1.23663    0.131
 5085.00    1.28488   1.25632    0.131
 5086.00    1.28783   1.27466    0.131
 5087.00    1.30141   1.29048    0.131
 5088.00    1.31523   1.30345    0.131
 5089.00    1.33362   1.31330    0.129
 5090.00    1.35012   1.31899    0.128
 5091.00    1.34550   1.31894    0.129
 5092.00    1.33883   1.31225    0.131
 5093.00    1.31612   1.29905    0.130
 5094.00    1.29769   1.28058    0.129
 5095.00    1.30452   1.26059    0.130
 5096.00    1.30960   1.24343    0.131
 5097.00    1.30650   1.23150    0.129
 5098.00    1.30028   1.22513    0.128
 5099.00    1.28214   1.22377    0.128
 5100.00    1.26883   1.22700    0.128
 5101.00    1.27088   1.23296    0.127
 5102.00    1.27075   1.23644    0.126
 5103.00    1.26474   1.23415    0.127
 5104.00    1.25570   1.22738    0.128
 5105.00    1.23964   1.21913    0.129
 5106.00    1.23166   1.21332    0.129
 5107.00    1.23985   1.21187    0.129
 5108.00    1.25235   1.21467    0.129
 5109.00    1.27239   1.22303    0.129
 5110.00    1.29188   1.23662    0.129
 5111.00    1.31053   1.25321    0.132
 5112.00    1.31401   1.27230    0.133
 5113.00    1.29716   1.29090    0.131
 5114.00    1.29809   1.30474    0.131
 5115.00    1.32001   1.31239    0.133
 5116.00    1.33998   1.31288    0.134
 5117.00    1.35793   1.30555    0.136
 5118.00    1.35457   1.29027    0.136
 5119.00    1.33167   1.26778    0.135
 5120.00    1.30983   1.24154    0.134
 5121.00    1.28885   1.21546    0.132
 5122.00    1.26646   1.19232    0.131
 5123.00    1.24306   1.17404    0.131
 5124.00    1.22593   1.16169    0.130
 5125.00    1.21271   1.15701    0.130
 5126.00    1.20822   1.16056    0.131
 5127.00    1.20851   1.16940    0.131
 5128.00    1.22356   1.18051    0.132
 5129.00    1.24562   1.19332    0.133
 5130.00    1.24679   1.20779    0.133
 5131.00    1.23941   1.22133    0.133
 5132.00    1.24706   1.23052    0.133
 5133.00    1.25996   1.23336    0.132
 5134.00    1.26619   1.22987    0.132
 5135.00    1.27046   1.22335    0.133
 5136.00    1.26231   1.21574    0.133
 5137.00    1.25113   1.20456    0.132
 5138.00    1.25784   1.19178    0.133
 5139.00    1.26808   1.18268    0.134
 5140.00    1.23855   1.17740    0.133
 5141.00    1.20288   1.17442    0.132
 5142.00    1.20635   1.17111    0.133
 5143.00    1.21428   1.16619    0.133
 5144.00    1.22054   1.16378    0.132
 5145.00    1.22667   1.16419    0.131
 5146.00    1.21829   1.16292    0.129
 5147.00    1.20931   1.16033    0.128
 5148.00    1.21014   1.15944    0.128
 5149.00    1.21054   1.16133    0.129
 5150.00    1.18927   1.16631    0.130
 5151.00    1.16948   1.17389    0.130
 5152.00    1.17510   1.18477    0.130
 5153.00    1.18323   1.19974    0.129
 5154.00    1.21797   1.21686    0.129
 5155.00    1.24909   1.23372    0.129
 5156.00    1.25285   1.24787    0.129
 5157.00    1.25591   1.25489    0.129
 5158.00    1.25494   1.25182    0.129
 5159.00    1.25150   1.23746    0.129
 5160.00    1.23683   1.21065    0.129
 5161.00    1.21651   1.17173    0.128
 5162.00    1.17513   1.12210    0.127
 5163.00    1.13910   1.06679    0.126
 5164.00    1.11980   1.01492    0.126
 5165.00    1.09114   0.97123    0.126
 5166.00    1.03773   0.93425    0.124
 5167.00    0.99061   0.90361    0.123
 5168.00    0.95780   0.88432    0.122
 5169.00    0.93592   0.88338    0.122
 5170.00    0.93551   0.90025    0.123
 5171.00    0.94557   0.92631    0.123
 5172.00    0.97358   0.95470    0.124
 5173.00    0.99567   0.98667    0.124
 5174.00    1.00885   1.02421    0.124
 5175.00    1.03156   1.06051    0.124
 5176.00    1.06683   1.08321    0.123
 5177.00    1.09416   1.08557    0.124
 5178.00    1.11226   1.06986    0.124
 5179.00    1.10535   1.04387    0.123
 5180.00    1.07280   1.01825    0.122
 5181.00    1.05217   1.00180    0.121
 5182.00    1.04232   0.99760    0.121
 5183.00    1.04865   1.00523    0.122
 5184.00    1.06786   1.02552    0.123
 5185.00    1.08614   1.05934    0.124
 5186.00    1.10377   1.09785    0.124
 5187.00    1.13075   1.12600    0.125
 5188.00    1.16347   1.13983    0.128
 5189.00    1.18280   1.14518    0.127
 5190.00    1.19494   1.14701    0.000
 5191.00    1.18530   1.14657    0.000
 5192.00    1.16549   1.14555    0.000
 5193.00    1.17747   1.14997    0.000
 5194.00    1.20223   1.16392    0.000
 5195.00    1.22045   1.18222    0.000
 5196.00    1.23643   1.19794    0.000
 5197.00    1.23182   1.20965    0.000
 5198.00    1.22128   1.21587    0.000
 5199.00    1.22432   1.21274    0.000
 5200.00    1.23061   1.19822    0.000
 5201.00    1.22598   1.17428    0.000
 5202.00    1.21925   1.14601    0.000
 5203.00    1.20442   1.11757    0.000
 5204.00    1.18838   1.09233    0.000
 5205.00    1.17377   1.07477    0.000
 5206.00    1.15930   1.06969    0.000
 5207.00    1.16163   1.07993    0.000
 5208.00    1.16516   1.10187    0.000
 5209.00    1.16665   1.12845    0.000
 5210.00    1.16806   1.15646    0.000
 5211.00    1.18483   1.18282    0.131
 5212.00    1.20249   1.20474    0.130
 5213.00    1.24993   1.22232    0.130
 5214.00    1.29372   1.23578    0.129
 5215.00    1.27818   1.24531    0.129
 5216.00    1.26429   1.25204    0.129
 5217.00    1.26731   1.25796    0.129
 5218.00    1.27305   1.26175    0.129
 5219.00    1.29860   1.25902    0.129
 5220.00    1.31855   1.24645    0.129
 5221.00    1.30721   1.22437    0.129
 5222.00    1.29131   1.19719    0.129
 5223.00    1.25507   1.17171    0.127
 5224.00    1.22349   1.15430    0.126
 5225.00    1.20891   1.14682    0.126
 5226.00    1.20308   1.14899    0.127
 5227.00    1.22401   1.15975    0.127
 5228.00    1.23626   1.17644    0.127
 5229.00    1.22589   1.19675    0.127
 5230.00    1.22401   1.21596    0.126
 5231.00    1.24111   1.23134    0.125
 5232.00    1.25956   1.24563    0.125
 5233.00    1.28062   1.25943    0.125
 5234.00    1.29990   1.27352    0.125
 5235.00    1.31618   1.28990    0.127
 5236.00    1.32289   1.30681    0.127
 5237.00    1.31542   1.32169    0.126
 5238.00    1.31553   1.33173    0.125
 5239.00    1.32549   1.33611    0.123
 5240.00    1.34023   1.33681    0.123
 5241.00    1.36046   1.33337    0.124
 5242.00    1.36191   1.32313    0.125
 5243.00    1.34436   1.30713    0.125
 5244.00    1.32916   1.29037    0.125
 5245.00    1.31606   1.27398    0.125
 5246.00    1.30299   1.25557    0.125
 5247.00    1.28996   1.23763    0.125
 5248.00    1.28871   1.22666    0.125
 5249.00    1.29562   1.22504    0.125
 5250.00    1.29561   1.22756    0.126
 5251.00    1.29142   1.23205    0.127
 5252.00    1.27867   1.24391    0.127
 5253.00    1.26138   1.26195    0.126
 5254.00    1.27047   1.27841    0.127
 5255.00    1.29167   1.28849    0.127
 5256.00    1.31436   1.29100    0.128
 5257.00    1.33762   1.28578    0.128
 5258.00    1.33033   1.26903    0.129
 5259.00    1.31275   1.23859    0.129
 5260.00    1.30107   1.19794    0.129
 5261.00    1.29106   1.15230    0.130
 5262.00    1.24392   1.10855    0.130
 5263.00    1.18810   1.07290    0.130
 5264.00    1.15703   1.04475    0.131
 5265.00    1.13060   1.02190    0.132
 5266.00    1.11751   1.00969    0.132
 5267.00    1.10634   1.01443    0.131
 5268.00    1.10944   1.03266    0.131
 5269.00    1.11405   1.05429    0.131
 5270.00    1.10704   1.07660    0.131
 5271.00    1.09924   1.10627    0.131
 5272.00    1.14908   1.14550    0.133
 5273.00    1.20086   1.18551    0.135
 5274.00    1.23539   1.21799    0.133
 5275.00    1.26905   1.24234    0.132
 5276.00    1.27549   1.25926    0.131
 5277.00    1.28283   1.27110    0.131
 5278.00    1.30397   1.27860    0.130
 5279.00    1.32230   1.27951    0.129
 5280.00    1.31331   1.27753    0.129
 5281.00    1.30723   1.28041    0.129
 5282.00    1.32174   1.29095    0.129
 5283.00    1.33170   1.30652    0.128
 5284.00    1.31699   1.32458    0.127
 5285.00    1.30935   1.34571    0.126
 5286.00    1.33244   1.36891    0.126
 5287.00    1.35811   1.38698    0.126
 5288.00    1.39304   1.39398    0.126
 5289.00    1.42075   1.39143    0.126
 5290.00    1.42682   1.38372    0.126
 5291.00    1.42452   1.37063    0.125
 5292.00    1.40084   1.34861    0.125
 5293.00    1.37661   1.31899    0.125
 5294.00    1.35116   1.28998    0.125
 5295.00    1.33379   1.26954    0.125
 5296.00    1.33182   1.25642    0.124
 5297.00    1.32162   1.24745    0.124
 5298.00    1.29770   1.24699    0.125
 5299.00    1.29055   1.26063    0.125
 5300.00    1.30788   1.28613    0.124
 5301.00    1.33020   1.31349    0.124
 5302.00    1.35891   1.33657    0.126
 5303.00    1.37782   1.35728    0.126
 5304.00    1.38564   1.37775    0.124
 5305.00    1.39974   1.39562    0.124
 5306.00    1.42008   1.40723    0.125
 5307.00    1.43887   1.41203    0.125
 5308.00    1.45627   1.41248    0.125
 5309.00    1.45667   1.41137    0.126
 5310.00    1.44387   1.40878    0.129
 5311.00    1.43530   1.40270    0.130
 5312.00    1.42960   1.39304    0.130
 5313.00    1.42715   1.38252    0.130
 5314.00    1.42666   1.37308    0.129
 5315.00    1.42103   1.36404    0.129
 5316.00    1.41274   1.35458    0.129
 5317.00    1.40630   1.34428    0.128
 5318.00    1.40071   1.33272    0.127
 5319.00    1.38650   1.31746    0.126
 5320.00    1.36895   1.29688    0.126
 5321.00    1.34987   1.27493    0.126
 5322.00    1.33029   1.25182    0.126
 5323.00    1.32580   1.22288    0.126
 5324.00    1.32549   1.19030    0.127
 5325.00    1.28927   1.16730    0.126
 5326.00    1.24486   1.16180    0.125
 5327.00    1.21445   1.16678    0.124
 5328.00    1.18659   1.17518    0.122
 5329.00    1.20792   1.19163    0.123
 5330.00    1.23615   1.22295    0.124
 5331.00    1.25472   1.25968    0.124
 5332.00    1.27231   1.28765    0.124
 5333.00    1.27585   1.30447    0.123
 5334.00    1.27847   1.31450    0.122
 5335.00    1.31349   1.31790    0.123
 5336.00    1.34933   1.31150    0.124
 5337.00    1.32608   1.30034    0.123
 5338.00    1.30376   1.29241    0.122
 5339.00    1.30788   1.28779    0.121
 5340.00    1.31071   1.28346    0.120
 5341.00    1.29506   1.27978    0.120
 5342.00    1.28244   1.28149    0.119
 5343.00    1.29804   1.28862    0.119
 5344.00    1.31187   1.29298    0.120
 5345.00    1.31363   1.29358    0.120
 5346.00    1.31429   1.29661    0.120
 5347.00    1.30914   1.30598    0.118
 5348.00    1.30616   1.32006    0.117
 5349.00    1.31231   1.33491    0.118
 5350.00    1.32011   1.35302    0.119
 5351.00    1.33365   1.37652    0.119
 5352.00    1.35166   1.39988    0.120
 5353.00    1.38284   1.41812    0.121
 5354.00    1.40846   1.43081    0.121
 5355.00    1.42011   1.43947    0.119
 5356.00    1.43257   1.44260    0.119
 5357.00    1.44677   1.43748    0.120
 5358.00    1.45212   1.42604    0.121
 5359.00    1.44085   1.41162    0.121
 5360.00    1.42938   1.39440    0.122
 5361.00    1.41762   1.37382    0.121
 5362.00    1.40455   1.35203    0.121
 5363.00    1.38962   1.33099    0.121
 5364.00    1.36769   1.31168    0.121
 5365.00    1.33692   1.29179    0.120
 5366.00    1.31428   1.27047    0.121
 5367.00    1.30070   1.25294    0.122
 5368.00    1.28628   1.24436   -2.000
 5369.00    1.27105   1.24666   -2.000
 5370.00    1.25257   1.25599   -2.000
 5371.00    1.23128   1.27028   -2.000
 5372.00    1.24313   1.29005   -2.000
 5373.00    1.28029   1.31414   -2.000
 5374.00    1.31757   1.33825   -2.000
 5375.00    1.35494   1.35586   -2.000
 5376.00    1.37118   1.36516   -2.000
 5377.00    1.37500   1.36776   -2.000
 5378.00    1.38292   1.36644   -2.000
 5379.00    1.39295   1.36339   -2.000
 5380.00    1.38871   1.35971   -2.000
 5381.00    1.37812   1.35562   -2.000
 5382.00    1.37152   1.35097   -2.000
 5383.00    1.36642   1.34570    0.124
 5384.00    1.36596   1.33952    0.123
 5385.00    1.36699   1.33220    0.123
 5386.00    1.35357   1.32239    0.121
 5387.00    1.33624   1.30948    0.120
 5388.00    1.33129   1.29500    0.120
 5389.00    1.32910   1.28003    0.119
 5390.00    1.31581   1.26524    0.120
 5391.00    1.30054   1.25216    0.120
 5392.00    1.28349   1.23996    0.119
 5393.00    1.26619   1.22815    0.118
 5394.00    1.26849   1.22174    0.117
 5395.00    1.27268   1.22173    0.117
 5396.00    1.26553   1.22279    0.117
 5397.00    1.25770   1.22238    0.116
 5398.00    1.25036   1.22337    0.116
 5399.00    1.24321   1.22588    0.116
 5400.00    1.26546   1.22196    0.116
 5401.00    1.28548   1.20882    0.116
 5402.00    1.24803   1.19450    0.116
 5403.00    1.21340   1.18530    0.115
 5404.00    1.21684   1.17868    0.114
 5405.00    1.21890   1.17251    0.114
 5406.00    1.20858   1.17192    0.113
 5407.00    1.19946   1.18347    0.113
 5408.00    1.19819   1.20527    0.114
 5409.00    1.20209   1.22829    0.114
 5410.00    1.23257   1.24795    0.115
 5411.00    1.25884   1.26793    0.115
 5412.00    1.26766   1.29143    0.115
 5413.00    1.27827   1.31333    0.116
 5414.00    1.29504   1.32779    0.116
 5415.00    1.31206   1.33483    0.116
 5416.00    1.32983   1.33752    0.117
 5417.00    1.34449   1.33865    0.117
 5418.00    1.35146   1.33821    0.118
 5419.00    1.35488   1.33356    0.118
 5420.00    1.35070   1.32492    0.118
 5421.00    1.34673   1.31761    0.117
 5422.00    1.34316   1.31548    0.118
 5423.00    1.33377   1.31537    0.118
 5424.00    1.31499   1.30965    0.117
 5425.00    1.30410   1.29674    0.116
 5426.00    1.30439   1.28490    0.117
 5427.00    1.30462   1.27746    0.117
 5428.00    1.30478   1.26772    0.118
 5429.00    1.30380   1.25221    0.119
 5430.00    1.30158   1.23716    0.118
 5431.00    1.28475   1.23208    0.117
 5432.00    1.25376   1.23695    0.116
 5433.00    1.25912   1.24531    0.116
 5434.00    1.29558   1.25864    0.117
 5435.00    1.31425   1.27908    0.118
 5436.00    1.31953   1.30342    0.116
 5437.00    1.32826   1.32684    0.116
 5438.00    1.33927   1.34580    0.117
 5439.00    1.35110   1.35819    0.117
 5440.00    1.36340   1.36117    0.115
 5441.00    1.35640   1.35332    0.114
 5442.00    1.33966   1.33624    0.114
 5443.00    1.33519   1.31590    0.114
 5444.00    1.33608   1.29970    0.114
 5445.00    1.32901   1.28877    0.114
 5446.00    1.31895   1.28072    0.114
 5447.00    1.31950   1.27537    0.113
 5448.00    1.32343   1.27525    0.113
 5449.00    1.31878   1.27927    0.112
 5450.00    1.31185   1.27981    0.112
 5451.00    1.29280   1.27344    0.112
 5452.00    1.27113   1.26564    0.112
 5453.00    1.26209   1.26277    0.112
 5454.00    1.25524   1.26411    0.112
 5455.00    1.26816   1.26568    0.112
 5456.00    1.28367   1.26745    0.113
 5457.00    1.28462   1.27263    0.113
 5458.00    1.28422   1.27885    0.113
 5459.00    1.28007   1.28056    0.113
 5460.00    1.27572   1.27942    0.114
 5461.00    1.27797   1.27911    0.113
 5462.00    1.28038   1.27916    0.112
 5463.00    1.28357   1.27900    0.112
 5464.00    1.28677   1.28074    0.113
 5465.00    1.29034   1.28457    0.114
 5466.00    1.29369   1.28581    0.115
 5467.00    1.29414   1.28281    0.114
 5468.00    1.29518   1.27778    0.114
 5469.00    1.30130   1.26970    0.115
 5470.00    1.30639   1.25803    0.116
 5471.00    1.30491   1.24560    0.116
 5472.00    1.29832   1.23253    0.116
 5473.00    1.26617   1.21855    0.115
 5474.00    1.24226   1.20898    0.115
 5475.00    1.25178   1.20766    0.116
 5476.00    1.25597   1.20888    0.116
 5477.00    1.24225   1.20806    0.116
 5478.00    1.23132   1.21191   -2.000
 5479.00    1.22834   1.22403   -2.000
 5480.00    1.23007   1.23740   -2.000
 5481.00    1.24324   1.24739   -2.000
 5482.00    1.25359   1.25536   -2.000
 5483.00    1.25802   1.26297   -2.000
 5484.00    1.24294   1.26961   -2.000
 5485.00    1.19233   1.27517   -2.000
 5486.00    1.16588   1.27860   -2.000
 5487.00    1.17788   1.27916   -2.000
 5488.00    1.18522   1.27904   -2.000
 5489.00    1.18603   1.27979   -2.000
 5490.00    1.22083   1.28093   -2.000
 5491.00    1.29743   1.28250   -2.000
 5492.00    1.33379   1.28438   -2.000
 5493.00    1.32654   1.28355   -2.000
 5494.00    1.33679   1.28095   -2.000
 5495.00    1.36377   1.28177   -2.000
 5496.00    1.37197   1.28390   -2.000
 5497.00    1.36434   1.28074   -2.000
 5498.00    1.34437   1.27373   -2.000
 5499.00    1.31524   1.26965   -2.000
 5500.00    1.30315   1.26762   -2.000
 5501.00    1.30218   1.26197   -2.000
 5502.00    1.29222   1.25311    0.111
 5503.00    1.27714   1.24691    0.111
 5504.00    1.26690   1.24559    0.111
 5505.00    1.25905   1.24522    0.110
 5506.00    1.25292   1.24236    0.110
 5507.00    1.24753   1.23792    0.110
 5508.00    1.24227   1.23442    0.110
 5509.00    1.23705   1.23155    0.109
 5510.00    1.23178   1.22878    0.110
 5511.00    1.22650   1.22794    0.111
 5512.00    1.23171   1.23023    0.111
 5513.00    1.23963   1.23623    0.111
 5514.00    1.25046   1.24794    0.112
 5515.00    1.26190   1.26369    0.112
 5516.00    1.26128   1.27890    0.112
 5517.00    1.25864   1.29146    0.112
 5518.00    1.25805   1.30165    0.112
 5519.00    1.25773   1.30871    0.111
 5520.00    1.27927   1.30986    0.113
 5521.00    1.30274   1.30521    0.115
 5522.00    1.31116   1.29743    0.114
 5523.00    1.31878   1.28742    0.113
 5524.00    1.30847   1.27544    0.113
 5525.00    1.29768   1.26484    0.112
 5526.00    1.27571   1.25932    0.112
 5527.00    1.25492   1.25759    0.112
 5528.00    1.25930   1.25694    0.111
 5529.00    1.26342   1.25855    0.111
 5530.00    1.26441   1.26402    0.111
 5531.00    1.26593   1.26993    0.111
 5532.00    1.27194   1.27358    0.111
 5533.00    1.27964   1.27695    0.110
 5534.00    1.29785   1.28074    0.110
 5535.00    1.31288   1.28444    0.110
 5536.00    1.31232   1.28930    0.110
 5537.00    1.31195   1.29599    0.111
 5538.00    1.31232   1.30129    0.110
 5539.00    1.31326   1.30364    0.124
 5540.00    1.31607   1.30599    0.292
 5541.00    1.31611   1.30935   -1.000
 5542.00    1.30843   1.31137   -1.000
 5543.00    1.30360   1.31204   -1.000
 5544.00    1.30555   1.31508   -1.000
 5545.00    1.30803   1.32125   -1.000
 5546.00    1.31158   1.32684   -1.000
 5547.00    1.31698   1.33053    0.613
 5548.00    1.32572   1.33384    0.162
 5549.00    1.33078   1.33534    0.111
 5550.00    1.33007   1.33267    0.110
 5551.00    1.32848   1.32775    0.110
 5552.00    1.32566   1.32308    0.109
 5553.00    1.32517   1.31787    0.108
 5554.00    1.32747   1.31143    0.109
 5555.00    1.32192   1.30577    0.109
 5556.00    1.30797   1.30211    0.110
 5557.00    1.29676   1.29818    0.110
 5558.00    1.28812   1.29199    0.109
 5559.00    1.28449   1.28489    0.109
 5560.00    1.28501   1.27887    0.109
 5561.00    1.27741   1.27281    0.110
 5562.00    1.26387   1.26532    0.111
 5563.00    1.26165   1.25830    0.111
 5564.00    1.26671   1.25409    0.110
 5565.00    1.26354   1.25120    0.110
 5566.00    1.25573   1.24819    0.109
 5567.00    1.25140   1.24788    0.109
 5568.00    1.24878   1.25010    0.108
 5569.00    1.24949   1.25101    0.109
 5570.00    1.25161   1.25280    0.109
 5571.00    1.25662   1.25906    0.109
 5572.00    1.26269   1.26567    0.109
 5573.00    1.25726   1.26933    0.109
 5574.00    1.24831   1.27416    0.108
 5575.00    1.24696   1.28082    0.107
 5576.00    1.24754   1.28486    0.107
 5577.00    1.25251   1.28548    0.107
 5578.00    1.25839   1.28349    0.108
 5579.00    1.27142   1.27775    0.107
 5580.00    1.28562   1.26845    0.107
 5581.00    1.27387   1.25566    0.107
 5582.00    1.25896   1.23828    0.106
 5583.00    1.23373   1.21814    0.106
 5584.00    1.20764   1.19920    0.106
 5585.00    1.20390   1.18340    0.106
 5586.00    1.20125   1.17161    0.106
 5587.00    1.19241   1.16561    0.105
 5588.00    1.18345   1.16648    0.105
 5589.00    1.17305   1.17294    0.104
 5590.00    1.16388   1.18223    0.104
 5591.00    1.17919   1.19321    0.105
 5592.00    1.19292   1.20595    0.107
 5593.00    1.18827   1.21676    0.107
 5594.00    1.18366   1.22098    0.108
 5595.00    1.17937   1.22032    0.108
 5596.00    1.17929   1.22034    0.108
 5597.00    1.20463   1.21982    0.109
 5598.00    1.22418   1.21568    0.111
 5599.00    1.21610   1.21273    0.111
 5600.00    1.21098   1.21759    0.110
 5601.00    1.21735   1.22949    0.110
 5602.00    1.22273   1.24416    0.110
 5603.00    1.22492   1.26066    0.110
 5604.00    1.23236   1.27886    0.110
 5605.00    1.25418   1.29638    0.110
 5606.00    1.27154   1.30923    0.109
 5607.00    1.27841   1.31520    0.109
 5608.00    1.28488   1.31496    0.108
 5609.00    1.29050   1.31006    0.108
 5610.00    1.28584   1.29980    0.108
 5611.00    1.26300   1.28253    0.107
 5612.00    1.24840   1.26242    0.106
 5613.00    1.24651   1.24737    0.106
 5614.00    1.23632   1.23738    0.106
 5615.00    1.21485   1.22725    0.105
 5616.00    1.19846   1.21926    0.105
 5617.00    1.18812   1.21923    0.105
 5618.00    1.19345   1.22448    0.105
 5619.00    1.21526   1.22728    0.105
 5620.00    1.22681   1.22559    0.104
 5621.00    1.22883   1.22311    0.103
 5622.00    1.22448   1.22425    0.103
 5623.00    1.21493   1.22826    0.103
 5624.00    1.21178   1.23179    0.103
 5625.00    1.21323   1.23659    0.103
 5626.00    1.21628   1.24688    0.103
 5627.00    1.22033   1.25993    0.103
 5628.00    1.22565   1.26976    0.102
 5629.00    1.23167   1.27556    0.101
 5630.00    1.24315   1.27853    0.101
 5631.00    1.25726   1.27776    0.102
 5632.00    1.26498   1.27280    0.103
 5633.00    1.27004   1.26471    0.103
 5634.00    1.26110   1.25539    0.103
 5635.00    1.24718   1.24750    0.103
 5636.00    1.22816   1.24182    0.104
 5637.00    1.20761   1.23652    0.105
 5638.00    1.20377   1.23221    0.105
 5639.00    1.20408   1.23194    0.104
 5640.00    1.20060   1.23473    0.105
 5641.00    1.19636   1.23723    0.105
 5642.00    1.21799   1.24001    0.106
 5643.00    1.24371   1.24505    0.106
 5644.00    1.24299   1.25125    0.106
 5645.00    1.23915   1.25601    0.105
 5646.00    1.23599   1.25912    0.105
 5647.00    1.23287   1.26162    0.104
 5648.00    1.24055   1.26408    0.105
 5649.00    1.24871   1.26504    0.106
 5650.00    1.25532   1.26198    0.106
 5651.00    1.26156   1.25472    0.106
 5652.00    1.24990   1.24732    0.105
 5653.00    1.23830   1.24087    0.104
 5654.00    1.22789   1.22950    0.104
 5655.00    1.21747   1.21358    0.104
 5656.00    1.20705   1.20401    0.102
 5657.00    1.19598   1.20277    0.101
 5658.00    1.17986   1.20010    0.101
 5659.00    1.16624   1.19655    0.101
 5660.00    1.16728   1.20146    0.100
 5661.00    1.17015   1.21303    0.100
 5662.00    1.18156   1.22198    0.100
 5663.00    1.19109   1.22764    0.101
 5664.00    1.19345   1.23434    0.101
 5665.00    1.19489   1.24284    0.100
 5666.00    1.19340   1.25035    0.099
 5667.00    1.19419   1.25585    0.099
 5668.00    1.20109   1.26159    0.099
 5669.00    1.20841   1.27055    0.099
 5670.00    1.21668   1.28096    0.100
 5671.00    1.22960   1.28869    0.100
 5672.00    1.25176   1.29416    0.101
 5673.00    1.26799   1.30018    0.102
 5674.00    1.27389   1.30416    0.102
 5675.00    1.27321   1.30187    0.102
 5676.00    1.26253   1.29614    0.103
 5677.00    1.26188   1.29111    0.103
 5678.00    1.27464   1.28426    0.103
 5679.00    1.27743   1.27302    0.104
 5680.00    1.26847   1.26241    0.106
 5681.00    1.25675   1.25606    0.106
 5682.00    1.24216   1.25066    0.105
 5683.00    1.23465   1.24421    0.104
 5684.00    1.23360   1.24059    0.104
 5685.00    1.22704   1.24234    0.103
 5686.00    1.21603   1.24689    0.103
 5687.00    1.21422   1.25201    0.103
 5688.00    1.21897   1.25848    0.102
 5689.00    1.22979   1.26760    0.102
 5690.00    1.24441   1.27622    0.103
 5691.00    1.25725   1.28115    0.103
 5692.00    1.26913   1.28319    0.102
 5693.00    1.27727   1.28346    0.102
 5694.00    1.28365   1.27897    0.103
 5695.00    1.27740   1.26960    0.103
 5696.00    1.26601   1.26006    0.103
 5697.00    1.26102   1.25099    0.103
 5698.00    1.25826   1.23933    0.103
 5699.00    1.24750   1.22756    0.102
 5700.00    1.23439   1.21955    0.101
 5701.00    1.22191   1.21269    0.101
 5702.00    1.20959   1.20339    0.100
 5703.00    1.20334   1.19396    0.100
 5704.00    1.19827   1.18633    0.099
 5705.00    1.20012   1.17858    0.098
 5706.00    1.20303   1.17135    0.098
 5707.00    1.18896   1.16841    0.098
 5708.00    1.17296   1.16946    0.098
 5709.00    1.17277   1.17445    0.098
 5710.00    1.17377   1.18611    0.098
 5711.00    1.19756   1.20219    0.099
 5712.00    1.22227   1.21873    0.099
 5713.00    1.23361   1.23635    0.099
 5714.00    1.24452   1.25463    0.100
 5715.00    1.24155   1.27056    0.101
 5716.00    1.23910   1.28416    0.102
 5717.00    1.24568   1.29577    0.102
 5718.00    1.25331   1.30503    0.102
 5719.00    1.27199   1.31224    0.102
 5720.00    1.28931   1.31687    0.103
 5721.00    1.29646   1.31867    0.103
 5722.00    1.30182   1.31894    0.103
 5723.00    1.29702   1.31656    0.102
 5724.00    1.29131   1.31066    0.102
 5725.00    1.28147   1.30566    0.102
 5726.00    1.27426   1.30337    0.102
 5727.00    1.27684   1.29965    0.102
 5728.00    1.27934   1.29456    0.102
 5729.00    1.28162   1.29379    0.101
 5730.00    1.28480   1.29696    0.100
 5731.00    1.29034   1.29879    0.101
 5732.00    1.29488   1.29925    0.101
 5733.00    1.29712   1.30126    0.102
 5734.00    1.29461   1.30377    0.101
 5735.00    1.28277   1.30465    0.101
 5736.00    1.27708   1.30411    0.100
 5737.00    1.28192   1.30338    0.099
 5738.00    1.28704   1.30285    0.099
 5739.00    1.29259   1.30216    0.099
 5740.00    1.29011   1.30093    0.000
 5741.00    1.27703   1.30017    0.000
 5742.00    1.26836   1.30054    0.000
 5743.00    1.26479   1.30028    0.000
 5744.00    1.26803   1.29732    0.000
 5745.00    1.27824   1.29291    0.000
 5746.00    1.28517   1.28971    0.000
 5747.00    1.28914   1.28636    0.000
 5748.00    1.28685   1.28065    0.000
 5749.00    1.27958   1.27407    0.000
 5750.00    1.27444   1.26921    0.000
 5751.00    1.27077   1.26667    0.000
 5752.00    1.26815   1.26646    0.000
 5753.00    1.26617   1.26768    0.000
 5754.00    1.26095   1.26904    0.000
 5755.00    1.25399   1.27079    0.000
 5756.00    1.25456   1.27232    0.000
 5757.00    1.25863   1.27239    0.000
 5758.00    1.26664   1.27052    0.000
 5759.00    1.27623   1.26786    0.000
 5760.00    1.26690   1.26713    0.000
 5761.00    1.25109   1.27103    0.000
 5762.00    1.24938   1.27709    0.000
 5763.00    1.25174   1.28354    0.000
 5764.00    1.26308   1.29186    0.000
 5765.00    1.27657   1.30078    0.000
 5766.00    1.28951   1.30639    0.000
 5767.00    1.30234   1.30840    0.000
 5768.00    1.30114   1.30814    0.000
 5769.00    1.29786   1.30578    0.000
 5770.00    1.29867   1.30226    0.000
 5771.00    1.29993   1.29761    0.000
 5772.00    1.29634   1.29209    0.000
 5773.00    1.29241   1.28636    0.000
 5774.00    1.28303   1.27911    0.000
 5775.00    1.27345   1.26931    0.000
 5776.00    1.26518   1.25767    0.000
 5777.00    1.25697   1.24299    0.000
 5778.00    1.25080   1.22506    0.000
 5779.00    1.24487   1.20928    0.000
 5780.00    1.24264   1.19795    0.000
 5781.00    1.24059   1.18791    0.000
 5782.00    1.24031   1.18087    0.000
 5783.00    1.23929   1.18274    0.000
 5784.00    1.23288   1.19124    0.000
 5785.00    1.22670   1.20083    0.000
 5786.00    1.22183   1.21213    0.000
 5787.00    1.21935   1.22525    0.000
 5788.00    1.22743   1.23771    0.000
 5789.00    1.23244   1.24966    0.000
 5790.00    1.22624   1.25989    0.000
 5791.00    1.22487   1.26746   -2.000
 5792.00    1.23826   1.27511   -2.000
 5793.00    1.24732   1.28254   -2.000
 5794.00    1.24518   1.28648   -2.000
 5795.00    1.24137   1.28969   -2.000
 5796.00    1.23386   1.29599   -2.000
 5797.00    1.23167   1.30120   -2.000
 5798.00    1.23980   1.30305   -2.000
 5799.00    1.24885   1.30532   -2.000
 5800.00    1.25944   1.30743   -2.000
 5801.00    1.27603   1.30561   -2.000
 5802.00    1.30145   1.30198   -2.000
 5803.00    1.31379   1.29944   -2.000
 5804.00    1.30912   1.29692   -2.000
 5805.00    1.30045   1.29409   -2.000
 5806.00    1.28721   1.29296   -2.000
 5807.00    1.27750   1.29412   -2.000
 5808.00    1.27137   1.29532   -2.000
 5809.00    1.26799   1.29502   -2.000
 5810.00    1.26707   1.29476   -2.000
 5811.00    1.26920   1.29480    0.000
 5812.00    1.27372   1.29332    0.000
 5813.00    1.27513   1.29126    0.000
 5814.00    1.27438   1.29231    0.000
 5815.00    1.26954   1.29624    0.000
 5816.00    1.26223   1.30004    0.000
 5817.00    1.26867   1.30442    0.000
 5818.00    1.28236   1.31074    0.000
 5819.00    1.29341   1.31666    0.000
 5820.00    1.30324   1.32015    0.000
 5821.00    1.31196   1.32271    0.000
 5822.00    1.32023   1.32525    0.000
 5823.00    1.31859   1.32646    0.000
 5824.00    1.31361   1.32639    0.000
 5825.00    1.30027   1.32652    0.000
 5826.00    1.28456   1.32725    0.000
 5827.00    1.28405   1.32675    0.000
 5828.00    1.28709   1.32447    0.000
 5829.00    1.29126   1.32254    0.000
 5830.00    1.29563   1.32090    0.000
 5831.00    1.28288   1.31699    0.000
 5832.00    1.26766   1.31256    0.000
 5833.00    1.27266   1.31136    0.000
 5834.00    1.27977   1.31100    0.000
 5835.00    1.28353   1.30909    0.000
 5836.00    1.28705   1.30953    0.000
 5837.00    1.28330   1.31340    0.000
 5838.00    1.27930   1.31628    0.000
 5839.00    1.26990   1.31726    0.000
 5840.00    1.26110   1.31817    0.000
 5841.00    1.27169   1.31781    0.000
 5842.00    1.28170   1.31462    0.000
 5843.00    1.28289   1.30918    0.000
 5844.00    1.28338   1.30223    0.000
 5845.00    1.27713   1.29434    0.000
 5846.00    1.27102   1.28593    0.000
 5847.00    1.26590   1.27723    0.000
 5848.00    1.26095   1.26855    0.000
 5849.00    1.25694   1.25920    0.000
 5850.00    1.25191   1.24855    0.000
 5851.00    1.24252   1.23891    0.000
 5852.00    1.23295   1.23136    0.000
 5853.00    1.22279   1.22322    0.000
 5854.00    1.21569   1.21439    0.000
 5855.00    1.21775   1.20967    0.000
 5856.00    1.21902   1.20988    0.000
 5857.00    1.21822   1.21136    0.000
 5858.00    1.21712   1.21437    0.000
 5859.00    1.21534   1.21915    0.000
 5860.00    1.21549   1.22516    0.000
 5861.00    1.21930   1.23217    0.000
 5862.00    1.22328   1.23886    0.000
 5863.00    1.22754   1.24301    0.000
 5864.00    1.23116   1.24697    0.000
 5865.00    1.23386   1.25309    0.000
 5866.00    1.23407   1.25854    0.000
 5867.00    1.23107   1.26212    0.000
 5868.00    1.22894   1.26586    0.000
 5869.00    1.22779   1.26929    0.000
 5870.00    1.22733   1.27028    0.000
 5871.00    1.22757   1.27014    0.000
 5872.00    1.22193   1.26911    0.000
 5873.00    1.21113   1.26496    0.000
 5874.00    1.20935   1.25887    0.000
 5875.00    1.21455   1.25312    0.000
 5876.00    1.21437   1.24613    0.000
 5877.00    1.21055   1.23635    0.000
 5878.00    1.20871   1.22700    0.000
 5879.00    1.20804   1.21851    0.000
 5880.00    1.19916   1.20640    0.000
 5881.00    1.18602   1.18976    0.000
 5882.00    1.16567   1.16990    0.000
 5883.00    1.14208   1.14422    0.000
 5884.00    1.11728   1.11224    0.000
 5885.00    1.09202   1.07597    0.000
 5886.00    1.06887   1.03480    0.000
 5887.00    1.04643   0.99503    0.000
 5888.00    1.01826   0.96665    0.000
 5889.00    0.98851   0.94557    0.000
 5890.00    0.96815   0.92952    0.000
 5891.00    0.94994   0.92670    0.000
 5892.00    0.94278   0.93252    0.000
 5893.00    0.93763   0.94154    0.000
 5894.00    0.94463   0.96252    0.000
 5895.00    0.95332   0.99220    0.000
 5896.00    0.97152   1.01950    0.000
 5897.00    0.99067   1.05008    0.000
 5898.00    1.01403   1.08729    0.000
 5899.00    1.03765   1.12012    0.000
 5900.00    1.07317   1.14609    0.000
 5901.00    1.10898   1.16991    0.093
 5902.00    1.12798   1.18875    0.094
 5903.00    1.14651   1.20080    0.094
 5904.00    1.15173   1.21019    0.093
 5905.00    1.15705   1.21791    0.092
 5906.00    1.16397   1.22200    0.093
 5907.00    1.17111   1.22356    0.093
 5908.00    1.18034   1.22480    0.093
 5909.00    1.18815   1.22467    0.093
 5910.00    1.18637   1.22147    0.093
 5911.00    1.18307   1.21700    0.093
 5912.00    1.17178   1.21410    0.092
 5913.00    1.16278   1.21195    0.091
 5914.00    1.16346   1.21079    0.090
 5915.00    1.16545   1.21163    0.090
 5916.00    1.17203   1.21426    0.090
 5917.00    1.17915   1.21848    0.091
 5918.00    1.18786   1.22302    0.090
 5919.00    1.19283   1.22654    0.090
 5920.00    1.18842   1.22984    0.090
 5921.00    1.18606   1.23284    0.091
 5922.00    1.18809   1.23392    0.091
 5923.00    1.19320   1.23376    0.091
 5924.00    1.20405   1.23296    0.093
 5925.00    1.21019   1.23143    0.093
 5926.00    1.20862   1.22922    0.092
 5927.00    1.20128   1.22635    0.092
 5928.00    1.18568   1.22452    0.092
 5929.00    1.17384   1.22432    0.092
 5930.00    1.16675   1.22406    0.093
 5931.00    1.17017   1.22292    0.093
 5932.00    1.18526   1.22372    0.093
 5933.00    1.19099   1.22691    0.093
 5934.00    1.18753   1.22855    0.093
 5935.00    1.18737   1.22891    0.094
 5936.00    1.19005   1.23120    0.094
 5937.00    1.19196   1.23335    0.093
 5938.00    1.19329   1.23277    0.092
 5939.00    1.19715   1.23273    0.092
 5940.00    1.20270   1.23434    0.092
 5941.00    1.20301   1.23471    0.092
 5942.00    1.20024   1.23400    0.092
 5943.00    1.19273   1.23419    0.091
 5944.00    1.18281   1.23429    0.090
 5945.00    1.17889   1.23221    0.090
 5946.00    1.17763   1.22840    0.089
 5947.00    1.18495   1.22567    0.090
 5948.00    1.19554   1.22391    0.091
 5949.00    1.20003   1.21979    0.091
 5950.00    1.20256   1.21503    0.091
 5951.00    1.19425   1.21431    0.091
 5952.00    1.18299   1.21505    0.091
 5953.00    1.17433   1.21369    0.091
 5954.00    1.16624   1.21390    0.091
 5955.00    1.16699   1.21804    0.090
 5956.00    1.16931   1.22275    0.090
 5957.00    1.17599   1.22716    0.091
 5958.00    1.18325   1.23310    0.091
 5959.00    1.19560   1.23922    0.092
 5960.00    1.20844   1.24416    0.093
 5961.00    1.21165   1.24887    0.093
 5962.00    1.21428   1.25232    0.093
 5963.00    1.20455   1.25410    0.093
 5964.00    1.19457   1.25687    0.092
 5965.00    1.19445   1.25980    0.093
 5966.00    1.19461   1.26116    0.093
 5967.00    1.20168   1.26266    0.092
 5968.00    1.20906   1.26451    0.091
 5969.00    1.22061   1.26387    0.092
 5970.00    1.23071   1.26098    0.093
 5971.00    1.22769   1.25738    0.092
 5972.00    1.22469   1.25181    0.091
 5973.00    1.22175   1.24443    0.091
 5974.00    1.21775   1.23788    0.091
 5975.00    1.20828   1.23232    0.091
 5976.00    1.19893   1.22705    0.091
 5977.00    1.19005   1.22293    0.090
 5978.00    1.18252   1.21957    0.090
 5979.00    1.17960   1.21669    0.089
 5980.00    1.17889   1.21394    0.089
 5981.00    1.18457   1.21049    0.089
 5982.00    1.18739   1.20853    0.089
 5983.00    1.18317   1.20948    0.089
 5984.00    1.17827   1.21071    0.089
 5985.00    1.17195   1.21244    0.089
 5986.00    1.17080   1.21750    0.089
 5987.00    1.17922   1.22396    0.090
 5988.00    1.18582   1.22821    0.090
 5989.00    1.18948   1.23182    0.090
 5990.00    1.19460   1.23612    0.090
 5991.00    1.20180   1.23826    0.091
 5992.00    1.20672   1.23758    0.091
 5993.00    1.20879   1.23602    0.091
 5994.00    1.20550   1.23375    0.091
 5995.00    1.19631   1.23023    0.091
 5996.00    1.18938   1.22631    0.091
 5997.00    1.18464   1.22278    0.090
 5998.00    1.18155   1.21995    0.090
 5999.00    1.17988   1.21675    0.091
 6000.00    1.17328   1.21312    0.091
 6001.00    1.16297   1.21054    0.090
 6002.00    1.15671   1.20751    0.090
 6003.00    1.15313   1.20359    0.090
 6004.00    1.15471   1.20061    0.090
 6005.00    1.15928   1.19793    0.090
 6006.00    1.15921   1.19589    0.090
 6007.00    1.15680   1.19585    0.088
 6008.00    1.15802   1.19645    0.088
 6009.00    1.16084   1.19612    0.089
 6010.00    1.15864   1.19555    0.089
 6011.00    1.15456   1.19586    0.088
 6012.00    1.15406   1.19590    0.088
 6013.00    1.15470   1.19351    0.089
 6014.00    1.15439   1.19048    0.089
 6015.00    1.15383   1.18994    0.089
 6016.00    1.14493   1.18944    0.089
 6017.00    1.13422   1.18724    0.089
 6018.00    1.12828   1.18723    0.089
 6019.00    1.12317   1.19059    0.090
 6020.00    1.12787   1.19391    0.090
 6021.00    1.13385   1.19714    0.090
 6022.00    1.14544   1.20389    0.091
 6023.00    1.15754   1.21217    0.091
 6024.00    1.16294   1.21865    0.091
 6025.00    1.16797   1.22575    0.090
 6026.00    1.17676   1.23454    0.090
 6027.00    1.18561   1.24154    0.090
 6028.00    1.19244   1.24648    0.090
 6029.00    1.19914   1.25217    0.090
 6030.00    1.20261   1.25731    0.090
 6031.00    1.20660   1.26015    0.090
 6032.00    1.21724   1.26226    0.089
 6033.00    1.22719   1.26413    0.089
 6034.00    1.23126   1.26484    0.090
 6035.00    1.23414   1.26466    0.090
 6036.00    1.22946   1.26399    0.090
 6037.00    1.22426   1.26344    0.089
 6038.00    1.21643   1.26350    0.090
 6039.00    1.20886   1.26365    0.090
 6040.00    1.20227   1.26462    0.089
 6041.00    1.19792   1.26708    0.089
 6042.00    1.20109   1.26955    0.089
 6043.00    1.20325   1.27158    0.089
 6044.00    1.20255   1.27429    0.088
 6045.00    1.20350   1.27623    0.088
 6046.00    1.20844   1.27592    0.089
 6047.00    1.21420   1.27492    0.089
 6048.00    1.22168   1.27335    0.090
 6049.00    1.22462   1.26963    0.090
 6050.00    1.21932   1.26435    0.089
 6051.00    1.21170   1.25954    0.089
 6052.00    1.20041   1.25493    0.090
 6053.00    1.19350   1.24982    0.091
 6054.00    1.19270   1.24581    0.091
 6055.00    1.19189   1.24346    0.091
 6056.00    1.19104   1.24143    0.091
 6057.00    1.19114   1.23958    0.091
 6058.00    1.19225   1.23819    0.091
 6059.00    1.19317   1.23584    0.091
 6060.00    1.19391   1.23357    0.091
 6061.00    1.19051   1.23297    0.091
 6062.00    1.18362   1.23222    0.090
 6063.00    1.18071   1.23295    0.090
 6064.00    1.18073   1.23800    0.089
 6065.00    1.18388   1.24483    0.089
 6066.00    1.18908   1.25166    0.090
 6067.00    1.19247   1.25998    0.089
 6068.00    1.19483   1.26855    0.088
 6069.00    1.20164   1.27424    0.088
 6070.00    1.21064   1.27725    0.088
 6071.00    1.21428   1.27826    0.088
 6072.00    1.21561   1.27575    0.088
 6073.00    1.21398   1.27029    0.088
 6074.00    1.21125   1.26385    0.089
 6075.00    1.20443   1.25526    0.089
 6076.00    1.19634   1.24507    0.088
 6077.00    1.18763   1.23718    0.088
 6078.00    1.17876   1.23043    0.088
 6079.00    1.17170   1.22256    0.088
 6080.00    1.16501   1.21752    0.088
 6081.00    1.16573   1.21613    0.088
 6082.00    1.16768   1.21414    0.088
 6083.00    1.17548   1.21201    0.089
 6084.00    1.18401   1.21197    0.089
 6085.00    1.18530   1.21248    0.089
 6086.00    1.18596   1.21165    0.090
 6087.00    1.17600   1.21011    0.089
 6088.00    1.16548   1.21000    0.088
 6089.00    1.16341   1.21137    0.089
 6090.00    1.16136   1.21179    0.089
 6091.00    1.14950   1.21260    0.089
 6092.00    1.13841   1.21612    0.088
 6093.00    1.14363   1.21890    0.088
 6094.00    1.14928   1.21944    0.089
 6095.00    1.16016   1.21987    0.088
 6096.00    1.16946   1.21768    0.088
 6097.00    1.16570   1.21236    0.088
 6098.00    1.16179   1.20804    0.087
 6099.00    1.15691   1.20232    0.088
 6100.00    1.15189   1.19529    0.088
 6101.00    1.14613   1.19314    0.088
 6102.00    1.14076   1.19402    0.088
 6103.00    1.13699   1.19543    0.087
 6104.00    1.13616   1.20054    0.086
 6105.00    1.14502   1.20783    0.087
 6106.00    1.15551   1.21436    0.088
 6107.00    1.17053   1.22113    0.088
 6108.00    1.17986   1.22714    0.088
 6109.00    1.17563   1.23108    0.088
 6110.00    1.17196   1.23401    0.088
 6111.00    1.16945   1.23559    0.088
 6112.00    1.17212   1.23495    0.089
 6113.00    1.18408   1.23169    0.089
 6114.00    1.19116   1.22685    0.089
 6115.00    1.19061   1.22092    0.089
 6116.00    1.18300   1.21178    0.089
 6117.00    1.16570   1.20218    0.088
 6118.00    1.15007   1.19543    0.088
 6119.00    1.13646   1.18817    0.088
 6120.00    1.13048   1.18221    0.088
 6121.00    1.13265   1.18199    0.088
 6122.00    1.13783   1.18328    0.088
 6123.00    1.14583   1.18456    0.087
 6124.00    1.15052   1.18970    0.087
 6125.00    1.15247   1.19533    0.088
 6126.00    1.15391   1.19809    0.088
 6127.00    1.15498   1.20101    0.088
 6128.00    1.15557   1.20271    0.087
 6129.00    1.15587   1.20016    0.087
 6130.00    1.15508   1.19451    0.086
 6131.00    1.15369   1.18597    0.086
 6132.00    1.14191   1.17556    0.087
 6133.00    1.12506   1.16536    0.087
 6134.00    1.11201   1.15564    0.088
 6135.00    1.10057   1.14862    0.088
 6136.00    1.10248   1.14773    0.089
 6137.00    1.10921   1.15214    0.089
 6138.00    1.11826   1.15899    0.089
 6139.00    1.12800   1.16867    0.090
 6140.00    1.13546   1.18125    0.090
 6141.00    1.14233   1.19262    0.089
 6142.00    1.14015   1.20049    0.089
 6143.00    1.13609   1.20668    0.089
 6144.00    1.13262   1.21111    0.088
 6145.00    1.12926   1.21152    0.087
 6146.00    1.12992   1.20933    0.087
 6147.00    1.13108   1.20709    0.088
 6148.00    1.12579   1.20357    0.087
 6149.00    1.11997   1.19896    0.087
 6150.00    1.11672   1.19549    0.087
 6151.00    1.11360   1.19111    0.087
 6152.00    1.11549   1.18432    0.087
 6153.00    1.11741   1.17739    0.087
 6154.00    1.11652   1.16865    0.087
 6155.00    1.11569   1.15489    0.087
 6156.00    1.11572   1.13926    0.087
 6157.00    1.11483   1.12399    0.087
 6158.00    1.10317   1.10705    0.088
 6159.00    1.09094   1.09066    0.088
 6160.00    1.07410   1.07885    0.088
 6161.00    1.05804   1.07222    0.087
 6162.00    1.04673   1.06967    0.086
 6163.00    1.03714   1.06999    0.085
 6164.00    1.03572   1.07409    0.086
 6165.00    1.03475   1.08194    0.086
 6166.00    1.03554   1.08870    0.085
 6167.00    1.03869   1.09357    0.085
 6168.00    1.04946   1.10167    0.086
 6169.00    1.05851   1.11095    0.087
 6170.00    1.06288   1.11688    0.087
 6171.00    1.06344   1.12364    0.087
 6172.00    1.05510   1.13370    0.088
 6173.00    1.04861   1.14163    0.089
 6174.00    1.04590   1.14665    0.090
 6175.00    1.04201   1.15362    0.090
 6176.00    1.03605   1.16085    0.089
 6177.00    1.03711   1.16418    0.089
 6178.00    1.04898   1.16687    0.087
 6179.00    1.06174   1.17049    0.087
 6180.00    1.07567   1.17066    0.086
 6181.00    1.08403   1.16770    0.086
 6182.00    1.08572   1.16419    0.086
 6183.00    1.08642   1.15841    0.086
 6184.00    1.08607   1.15001    0.086
 6185.00    1.08258   1.14046    0.086
 6186.00    1.07618   1.13141    0.087
 6187.00    1.06960   1.12461    0.087
 6188.00    1.06287   1.11880    0.088
 6189.00    1.05642   1.11513    0.087
 6190.00    1.05016   1.11714    0.086
 6191.00    1.04540   1.12189    0.086
 6192.00    1.04159   1.12656    0.085
 6193.00    1.04252   1.13338    0.086
 6194.00    1.04605   1.14095    0.087
 6195.00    1.05033   1.14629    0.090
 6196.00    1.05495   1.15026   -2.000
 6197.00    1.05124   1.15355   -2.000
 6198.00    1.04407   1.15649   -2.000
 6199.00    1.04143   1.15965   -2.000
 6200.00    1.04039   1.16262   -2.000
 6201.00    1.04561   1.16571   -2.000
 6202.00    1.05270   1.16912   -2.000
 6203.00    1.06500   1.17162   -2.000
 6204.00    1.07859   1.17194   -2.000
 6205.00    1.08160   1.17013   -2.000
 6206.00    1.08248   1.16644   -2.000
 6207.00    1.08010   1.15965   -2.000
 6208.00    1.07720   1.14983    0.089
 6209.00    1.07046   1.13907    0.088
 6210.00    1.06327   1.12708    0.087
 6211.00    1.05887   1.11432    0.086
 6212.00    1.05468   1.10366    0.085
 6213.00    1.04774   1.09489    0.084
 6214.00    1.04068   1.08778    0.084
 6215.00    1.03572   1.08428    0.083
 6216.00    1.03095   1.08330    0.083
 6217.00    1.03438   1.08347    0.084
 6218.00    1.03799   1.08561    0.084
 6219.00    1.04484   1.08909    0.085
 6220.00    1.05106   1.09242    0.085
 6221.00    1.05036   1.09488    0.085
 6222.00    1.04871   1.09681    0.084
 6223.00    1.03974   1.09791    0.084
 6224.00    1.03237   1.09599    0.084
 6225.00    1.03435   1.09230    0.085
 6226.00    1.03562   1.08934    0.085
 6227.00    1.03352   1.08503    0.085
 6228.00    1.03023   1.08082    0.085
 6229.00    1.02239   1.08092    0.086
 6230.00    1.01804   1.08285    0.086
 6231.00    1.02474   1.08516    0.085
 6232.00    1.03136   1.09066    0.085
 6233.00    1.03779   1.09629    0.085
 6234.00    1.04223   1.09807    0.085
 6235.00    1.04209   1.09863    0.085
 6236.00    1.04165   1.09771    0.084
 6237.00    1.04063   1.09183    0.084
 6238.00    1.03935   1.08498    0.084
 6239.00    1.03762   1.08041    0.084
 6240.00    1.03631   1.07430    0.085
 6241.00    1.03565   1.06940    0.085
 6242.00    1.03192   1.07007    0.084
 6243.00    1.02408   1.07110    0.084
 6244.00    1.02095   1.07206    0.084
 6245.00    1.02336   1.07661    0.083
 6246.00    1.02636   1.07958    0.083
 6247.00    1.02997   1.07890    0.084
 6248.00    1.02927   1.07798    0.084
 6249.00    1.02462   1.07419    0.084
 6250.00    1.02063   1.06658    0.084
 6251.00    1.01719   1.05915    0.085
 6252.00    1.01244   1.05170    0.085
 6253.00    1.00675   1.04425    0.085
 6254.00    1.00179   1.04033    0.085
 6255.00    0.99729   1.03951    0.085
 6256.00    0.99637   1.04095    0.085
 6257.00    0.99741   1.04722    0.085
 6258.00    1.00518   1.05645    0.086
 6259.00    1.01615   1.06532    0.088
 6260.00    1.02589   1.07595    0.092
 6261.00    1.03513   1.08728    0.097
 6262.00    1.04025   1.09486    0.100
 6263.00    1.04393   1.10067    0.103
 6264.00    1.04754   1.10687    0.101
 6265.00    1.05113   1.11050    0.098
 6266.00    1.05609   1.11213    0.094
 6267.00    1.06140   1.11497    0.090
 6268.00    1.05830   1.11767    0.088
 6269.00    1.05354   1.11919    0.085
 6270.00    1.05923   1.12142    0.085
 6271.00    1.06651   1.12341    0.084
 6272.00    1.07661   1.12406    0.084
 6273.00    1.08702   1.12462    0.084
 6274.00    1.08541   1.12406    0.084
 6275.00    1.08290   1.12219    0.083
 6276.00    1.07913   1.12091    0.083
 6277.00    1.07531   1.11940    0.083
 6278.00    1.07304   1.11809    0.084
 6279.00    1.07086   1.11892    0.085
 6280.00    1.07178   1.12090    0.000
 6281.00    1.07270   1.12405    0.000
 6282.00    1.07369   1.12883    0.000
 6283.00    1.07486   1.13381    0.000
 6284.00    1.07800   1.13862    0.000
 6285.00    1.08152   1.14263    0.000
 6286.00    1.08792   1.14502    0.000
 6287.00    1.09391   1.14561    0.000
 6288.00    1.09761   1.14399    0.000
 6289.00    1.10068   1.14099    0.000
 6290.00    1.10094   1.13646    0.000
 6291.00    1.10070   1.13023    0.000
 6292.00    1.09863   1.12420    0.000
 6293.00    1.09487   1.11809    0.000
 6294.00    1.08590   1.11143    0.000
 6295.00    1.07711   1.10595    0.000
 6296.00    1.06878   1.10160    0.000
 6297.00    1.06363   1.09827    0.000
 6298.00    1.06566   1.09679    0.000
 6299.00    1.06762   1.09685    0.000
 6300.00    1.06946   1.09883    0.000
 6301.00    1.07329   1.10319    0.000
 6302.00    1.08052   1.10840    0.000
 6303.00    1.08644   1.11383    0.000
 6304.00    1.09039   1.12008    0.000
 6305.00    1.09011   1.12535    0.000
 6306.00    1.08428   1.12784    0.000
 6307.00    1.08103   1.12872    0.000
 6308.00    1.08078   1.12782    0.000
 6309.00    1.08053   1.12335    0.000
 6310.00    1.08029   1.11754    0.000
 6311.00    1.07597   1.11211    0.000
 6312.00    1.06796   1.10469    0.000
 6313.00    1.05834   1.09762    0.000
 6314.00    1.04744   1.09428    0.000
 6315.00    1.04268   1.09130    0.000
 6316.00    1.04222   1.08927    0.000
 6317.00    1.04567   1.09218    0.000
 6318.00    1.05152   1.09701    0.000
 6319.00    1.05401   1.10182    0.000
 6320.00    1.05468   1.10915    0.000
 6321.00    1.05908   1.11761    0.084
 6322.00    1.06522   1.12454    0.083
 6323.00    1.07090   1.13105    0.083
 6324.00    1.07641   1.13694    0.084
 6325.00    1.08072   1.14050    0.084
 6326.00    1.08462   1.14292    0.083
 6327.00    1.09136   1.14392    0.083
 6328.00    1.09892   1.14249    0.083
 6329.00    1.09942   1.14012    0.083
 6330.00    1.09825   1.13626    0.084
 6331.00    1.09009   1.13108    0.084
 6332.00    1.08059   1.12612    0.083
 6333.00    1.07635   1.12060    0.083
 6334.00    1.07290   1.11609    0.084
 6335.00    1.07047   1.11401    0.084
 6336.00    1.06816   1.11225    0.084
 6337.00    1.06582   1.11164    0.084
 6338.00    1.06348   1.11315    0.084
 6339.00    1.06182   1.11445    0.084
 6340.00    1.06018   1.11575    0.084
 6341.00    1.05523   1.11765    0.084
 6342.00    1.05047   1.11967    0.084
 6343.00    1.05277   1.12267    0.084
 6344.00    1.05530   1.12580    0.084
 6345.00    1.06158   1.12890    0.083
 6346.00    1.06755   1.13273    0.083
 6347.00    1.07039   1.13538    0.083
 6348.00    1.07353   1.13606    0.083
 6349.00    1.07879   1.13519    0.082
 6350.00    1.08370   1.13207    0.082
 6351.00    1.08663   1.12674    0.083
 6352.00    1.08854   1.11901    0.084
 6353.00    1.08593   1.10964    0.084
 6354.00    1.08120   1.10031    0.084
 6355.00    1.06879   1.09024    0.084
 6356.00    1.05634   1.07989    0.083
 6357.00    1.04382   1.07212    0.083
 6358.00    1.03370   1.06658    0.083
 6359.00    1.02980   1.06268    0.083
 6360.00    1.02695   1.06258    0.084
 6361.00    1.02643   1.06631    0.084
 6362.00    1.03004   1.07253    0.085
 6363.00    1.04163   1.08138    0.086
 6364.00    1.05126   1.09202    0.086
 6365.00    1.05761   1.10342    0.086
 6366.00    1.06277   1.11495    0.086
 6367.00    1.06616   1.12545    0.086
 6368.00    1.07287   1.13463    0.086
 6369.00    1.08388   1.14248    0.086
 6370.00    1.09139   1.14844    0.086
 6371.00    1.09489   1.15260    0.086
 6372.00    1.09554   1.15487    0.085
 6373.00    1.09331   1.15544    0.085
 6374.00    1.08904   1.15506    0.084
 6375.00    1.08297   1.15329    0.083
 6376.00    1.07746   1.15057    0.083
 6377.00    1.07240   1.14868    0.083
 6378.00    1.06803   1.14687    0.083
 6379.00    1.06415   1.14500    0.082
 6380.00    1.06086   1.14493    0.082
 6381.00    1.05792   1.14555    0.082
 6382.00    1.06097   1.14583    0.082
 6383.00    1.06717   1.14696    0.082
 6384.00    1.07351   1.14792    0.083
 6385.00    1.07992   1.14739    0.083
 6386.00    1.07939   1.14620    0.084
 6387.00    1.07612   1.14391    0.084
 6388.00    1.07762   1.13985    0.084
 6389.00    1.08071   1.13577    0.084
 6390.00    1.08290   1.13161    0.084
 6391.00    1.08483   1.12680    0.084
 6392.00    1.08314   1.12379    0.085
 6393.00    1.08061   1.12239    0.085
 6394.00    1.07966   1.12015    0.086
 6395.00    1.07900   1.11926    0.086
 6396.00    1.07473   1.12079    0.086
 6397.00    1.06995   1.12102    0.087
 6398.00    1.06521   1.12162    0.086
 6399.00    1.06047   1.12534    0.085
 6400.00    1.06243   1.12804    0.085
 6401.00    1.06483   1.12998    0.085
 6402.00    1.07527   1.13303    0.085
 6403.00    1.08598   1.13415    0.084
 6404.00    1.08715   1.13411    0.084
 6405.00    1.08807   1.13310    0.083
 6406.00    1.08122   1.13034    0.083
 6407.00    1.07472   1.12885    0.083
 6408.00    1.07334   1.12713    0.083
 6409.00    1.07164   1.12448    0.083
 6410.00    1.06679   1.12460    0.083
 6411.00    1.06210   1.12511    0.083
 6412.00    1.05857   1.12409    0.084
 6413.00    1.05662   1.12459    0.084
 6414.00    1.06319   1.12504    0.084
 6415.00    1.06854   1.12370    0.084
 6416.00    1.06863   1.12301    0.085
 6417.00    1.06822   1.12324    0.085
 6418.00    1.06604   1.12357    0.085
 6419.00    1.06442   1.12509    0.085
 6420.00    1.06444   1.12856    0.085
 6421.00    1.06395   1.13283    0.085
 6422.00    1.06211   1.13663    0.084
 6423.00    1.06436   1.14030    0.083
 6424.00    1.07555   1.14299    0.084
 6425.00    1.08217   1.14293    0.084
 6426.00    1.08010   1.14147    0.085
 6427.00    1.07723   1.13951    0.085
 6428.00    1.07302   1.13604    0.085
 6429.00    1.07006   1.13313    0.085
 6430.00    1.06891   1.13173    0.085
 6431.00    1.06827   1.13049    0.084
 6432.00    1.06825   1.13067    0.084
 6433.00    1.06873   1.13151    0.084
 6434.00    1.06977   1.13228    0.083
 6435.00    1.07285   1.13448    0.083
 6436.00    1.07798   1.13650    0.083
 6437.00    1.07706   1.13888    0.083
 6438.00    1.07086   1.14336    0.084
 6439.00    1.06851   1.14737    0.085
 6440.00    1.06914   1.15081    0.085
 6441.00    1.07288   1.15393    0.086
 6442.00    1.07873   1.15453    0.086
 6443.00    1.08019   1.15252    0.086
 6444.00    1.07902   1.14749    0.086
 6445.00    1.07215   1.14042    0.086
 6446.00    1.06232   1.13308    0.085
 6447.00    1.05142   1.12465    0.085
 6448.00    1.04003   1.11835    0.086
 6449.00    1.03950   1.11600    0.088
 6450.00    1.04318   1.11473    0.091
 6451.00    1.05019   1.11659    0.091
 6452.00    1.05831   1.12174    0.090
 6453.00    1.06192   1.12635    0.089
 6454.00    1.06429   1.13087    0.089
 6455.00    1.06393   1.13571    0.086
 6456.00    1.06295   1.13846    0.083
 6457.00    1.06514   1.13867    0.083
 6458.00    1.06791   1.13864    0.084
 6459.00    1.06909   1.13796    0.083
 6460.00    1.07006   1.13548    0.083
 6461.00    1.07005   1.13451    0.084
 6462.00    1.06995   1.13541    0.084
 6463.00    1.07417   1.13572    0.084
 6464.00    1.07866   1.13742    0.085
 6465.00    1.08005   1.14061    0.085
 6466.00    1.08134   1.14231    0.084
 6467.00    1.07736   1.14358    0.085
 6468.00    1.07340   1.14551    0.085
 6469.00    1.06977   1.14579    0.085
 6470.00    1.06624   1.14537    0.086
 6471.00    1.06416   1.14606    0.085
 6472.00    1.06275   1.14584    0.085
 6473.00    1.06749   1.14451    0.085
 6474.00    1.07183   1.14378    0.086
 6475.00    1.07341   1.14226    0.085
 6476.00    1.07526   1.13890    0.084
 6477.00    1.07857   1.13547    0.084
 6478.00    1.08060   1.13215    0.084
 6479.00    1.07728   1.12814    0.084
 6480.00    1.07172   1.12486    0.083
 6481.00    1.05832   1.12306    0.082
 6482.00    1.04833   1.12163    0.082
 6483.00    1.04833   1.12054    0.082
 6484.00    1.05200   1.11942    0.082
 6485.00    1.06488   1.11645    0.082
 6486.00    1.07428   1.11084    0.082
 6487.00    1.07621   1.10261    0.083
 6488.00    1.07121   1.09074    0.083
 6489.00    1.05328   1.07553    0.082
 6490.00    1.03703   1.05962    0.083
 6491.00    1.02353   1.04333    0.084
 6492.00    1.01097   1.02825    0.084
 6493.00    0.99978   1.01806    0.084
 6494.00    0.99175   1.01207    0.084
 6495.00    0.98772   1.01156    0.084
 6496.00    0.98560   1.01749    0.084
 6497.00    0.98561   1.02686    0.084
 6498.00    0.99556   1.04014    0.084
 6499.00    1.01526   1.05554    0.084
 6500.00    1.03107   1.07023    0.084
 6501.00    1.04352   1.08482    0.084
 6502.00    1.05066   1.09756    0.083
 6503.00    1.05375   1.10750    0.083
 6504.00    1.05488   1.11558    0.083
 6505.00    1.05469   1.12149    0.083
 6506.00    1.05528   1.12527    0.083
 6507.00    1.05631   1.12737    0.083
 6508.00    1.06023   1.12853    0.083
 6509.00    1.06562   1.12868    0.083
 6510.00    1.06614   1.12727    0.082
 6511.00    1.06449   1.12560    0.082
 6512.00    1.06552   1.12382    0.083
 6513.00    1.06756   1.12092    0.084
 6514.00    1.07226   1.11872    0.085
 6515.00    1.07781   1.11783    0.084
 6516.00    1.07558   1.11696    0.084
 6517.00    1.07125   1.11763    0.084
 6518.00    1.06732   1.11967    0.085
 6519.00    1.06349   1.12157    0.085
 6520.00    1.06711   1.12420    0.085
 6521.00    1.07205   1.12636    0.085
 6522.00    1.07089   1.12738    0.085
 6523.00    1.06891   1.12834    0.085
 6524.00    1.06985   1.12812    0.085
 6525.00    1.07106   1.12709    0.084
 6526.00    1.07495   1.12644    0.084
 6527.00    1.07899   1.12545    0.083
 6528.00    1.07868   1.12468    0.000
 6529.00    1.07832   1.12471    0.000
 6530.00    1.08527   1.12514    0.000
 6531.00    1.09200   1.12634    0.000
 6532.00    1.09358   1.12801    0.000
 6533.00    1.09501   1.13002    0.000
 6534.00    1.09451   1.13240    0.000
 6535.00    1.09403   1.13403    0.000
 6536.00    1.09383   1.13488    0.000
 6537.00    1.09294   1.13494    0.000
 6538.00    1.08755   1.13293    0.000
 6539.00    1.08231   1.12968    0.000
 6540.00    1.07782   1.12544    0.000
 6541.00    1.07448   1.11929    0.000
 6542.00    1.07587   1.11341    0.000
 6543.00    1.07875   1.10783    0.000
 6544.00    1.08669   1.10179    0.000
 6545.00    1.09335   1.09739    0.000
 6546.00    1.09634   1.09335    0.000
 6547.00    1.09899   1.08918    0.000
 6548.00    1.10080   1.08570    0.000
 6549.00    1.09847   1.08125    0.000
 6550.00    1.08735   1.07589    0.000
 6551.00    1.07598   1.06979    0.000
 6552.00    1.06417   1.06232    0.000
 6553.00    1.05331   1.05372    0.000
 6554.00    1.04399   1.04280    0.000
 6555.00    1.03361   1.03026    0.000
 6556.00    1.02175   1.01786    0.000
 6557.00    1.01512   1.00278    0.000
 6558.00    1.01501   0.98739    0.000
 6559.00    1.01710   0.97726    0.000
 6560.00    1.02163   0.96866    0.000
 6561.00    1.02241   0.96384    0.000
 6562.00    1.01959   0.96825    0.000
 6563.00    1.01345   0.97623    0.000
 6564.00    1.00448   0.98671    0.000
 6565.00    1.00201   1.00154    0.000
 6566.00    1.00439   1.01518    0.000
 6567.00    1.00930   1.02621    0.000
 6568.00    1.01586   1.03635    0.000
 6569.00    1.01828   1.04351    0.000
 6570.00    1.01831   1.04794    0.000
 6571.00    1.02215   1.05257    0.000
 6572.00    1.02790   1.05663    0.000
 6573.00    1.03472   1.06020    0.000
 6574.00    1.04200   1.06545    0.000
 6575.00    1.04331   1.07062    0.000
 6576.00    1.04238   1.07509    0.000
 6577.00    1.05514   1.08024    0.000
 6578.00    1.07224   1.08425    0.000
 6579.00    1.09663   1.08722    0.000
 6580.00    1.12294   1.09049    0.000
 6581.00    1.14361   1.09238    0.000
 6582.00    1.16305   1.09383    0.000
 6583.00    1.17274   1.09550    0.000
 6584.00    1.18076   1.09504    0.000
 6585.00    1.17314   1.09369    0.000
 6586.00    1.16349   1.09193    0.000
 6587.00    1.13882   1.08773    0.000
 6588.00    1.11279   1.08215    0.000
 6589.00    1.08940   1.07706    0.000
 6590.00    1.06616   1.07189    0.000
 6591.00    1.04893   1.06698    0.000
 6592.00    1.03188   1.06478    0.000
 6593.00    1.02123   1.06465    0.000
 6594.00    1.01127   1.06580    0.000
 6595.00    1.01734   1.06962    0.000
 6596.00    1.02369   1.07414    0.000
 6597.00    1.03363   1.07827    0.000
 6598.00    1.04280   1.08273    0.000
 6599.00    1.04547   1.08560    0.000
 6600.00    1.04689   1.08648    0.000
 6601.00    1.04034   1.08614    0.000
 6602.00    1.03605   1.08431    0.000
 6603.00    1.04295   1.08144    0.000
 6604.00    1.04938   1.07814    0.000
 6605.00    1.05386   1.07561    0.000
 6606.00    1.05545   1.07451    0.000
 6607.00    1.04734   1.07460    0.000
 6608.00    1.04221   1.07635    0.000
 6609.00    1.04553   1.07958    0.085
 6610.00    1.04746   1.08419    0.085
 6611.00    1.04603   1.08911    0.085
 6612.00    1.04507   1.09340    0.086
 6613.00    1.04507   1.09784    0.086
 6614.00    1.04653   1.10136    0.087
 6615.00    1.05063   1.10336    0.087
 6616.00    1.05280   1.10435    0.087
 6617.00    1.05190   1.10401    0.085
 6618.00    1.05086   1.10260    0.084
 6619.00    1.04962   1.09978    0.085
 6620.00    1.04989   1.09585    0.085
 6621.00    1.05202   1.09225    0.084
 6622.00    1.05238   1.08783    0.084
 6623.00    1.05083   1.08309    0.084
 6624.00    1.04588   1.07949    0.084
 6625.00    1.03768   1.07537    0.084
 6626.00    1.02965   1.07149    0.084
 6627.00    1.02178   1.06840    0.084
 6628.00    1.01545   1.06455    0.084
 6629.00    1.01027   1.06129    0.083
 6630.00    1.00801   1.05938    0.084
 6631.00    1.00766   1.05760    0.085
 6632.00    1.00692   1.05688    0.085
 6633.00    1.00597   1.05794    0.086
 6634.00    1.00798   1.05934    0.086
 6635.00    1.01146   1.06081    0.087
 6636.00    1.01731   1.06337    0.087
 6637.00    1.02417   1.06543    0.087
 6638.00    1.02583   1.06572    0.087
 6639.00    1.02558   1.06649    0.087
 6640.00    1.02298   1.06736    0.086
 6641.00    1.01965   1.06689    0.086
 6642.00    1.01374   1.06683    0.084
 6643.00    1.00716   1.06736    0.083
 6644.00    1.00955   1.06792    0.083
 6645.00    1.01384   1.06886    0.084
 6646.00    1.01661   1.06961    0.084
 6647.00    1.01913   1.07039    0.084
 6648.00    1.01886   1.07127    0.085
 6649.00    1.01824   1.07140    0.085
 6650.00    1.01872   1.07142    0.085
 6651.00    1.01930   1.07111    0.085
 6652.00    1.01397   1.06990    0.085
 6653.00    1.00833   1.06879    0.084
 6654.00    1.01076   1.06694    0.085
 6655.00    1.01335   1.06379    0.086
 6656.00    1.01678   1.06072    0.086
 6657.00    1.01986   1.05714    0.087
 6658.00    1.01571   1.05208    0.086
 6659.00    1.01047   1.04780    0.086
 6660.00    0.99203   1.04461    0.086
 6661.00    0.97609   1.04107    0.086
 6662.00    0.98085   1.03927    0.086
 6663.00    0.98498   1.03946    0.086
 6664.00    0.98518   1.04053    0.085
 6665.00    0.98519   1.04341    0.085
 6666.00    0.98426   1.04702    0.085
 6667.00    0.98524   1.05062    0.085
 6668.00    0.99373   1.05444    0.085
 6669.00    1.00167   1.05703    0.084
 6670.00    1.00780   1.05799    0.084
 6671.00    1.01163   1.05809    0.084
 6672.00    1.00906   1.05600    0.084
 6673.00    1.00471   1.05178    0.084
 6674.00    0.99610   1.04876    0.084
 6675.00    0.98749   1.04577    0.084
 6676.00    0.97889   1.04182    0.085
 6677.00    0.97480   1.04072    0.085
 6678.00    0.97878   1.04129    0.086
 6679.00    0.98286   1.04231    0.087
 6680.00    0.98711   1.04517    0.088
 6681.00    0.99028   1.04835    0.088
 6682.00    0.99197   1.05162    0.088
 6683.00    0.99173   1.05468    0.087
 6684.00    0.98915   1.05697    0.087
 6685.00    0.98875   1.05873    0.087
 6686.00    0.99068   1.05944    0.086
 6687.00    0.99528   1.05947    0.086
 6688.00    1.00240   1.05857    0.086
 6689.00    1.00354   1.05702    0.086
 6690.00    0.99975   1.05486    0.084
 6691.00    0.99784   1.05151    0.084
 6692.00    0.99730   1.04874    0.084
 6693.00    0.99590   1.04601    0.084
 6694.00    0.99394   1.04304    0.084
 6695.00    0.98949   1.04167    0.085
 6696.00    0.98364   1.04055    0.000
 6697.00    0.98034   1.03991    0.000
 6698.00    0.97828   1.04028    0.000
 6699.00    0.97622   1.04006    0.000
 6700.00    0.97416   1.04024    0.000
 6701.00    0.97791   1.04061    0.000
 6702.00    0.98375   1.03978    0.000
 6703.00    0.99025   1.03914    0.000
 6704.00    0.99696   1.03875    0.000
 6705.00    0.98717   1.03693    0.000
 6706.00    0.97320   1.03509    0.000
 6707.00    0.97420   1.03327    0.000
 6708.00    0.97827   1.02962    0.000
 6709.00    0.98490   1.02588    0.000
 6710.00    0.99194   1.02186    0.000
 6711.00    0.99132   1.01694    0.000
 6712.00    0.98977   1.01258    0.000
 6713.00    1.00535   1.00888    0.000
 6714.00    1.02236   1.00685    0.000
 6715.00    1.02808   1.00615    0.000
 6716.00    1.03326   1.00655    0.000
 6717.00    1.02038   1.00904    0.000
 6718.00    1.00720   1.01265    0.000
 6719.00    0.99198   1.01674    0.000
 6720.00    0.97727   1.02069    0.000
 6721.00    0.97242   1.02426    0.000
 6722.00    0.96788   1.02803    0.000
 6723.00    0.96697   1.03087    0.000
 6724.00    0.96730   1.03267    0.000
 6725.00    0.97757   1.03466    0.000
 6726.00    0.98610   1.03630    0.000
 6727.00    0.98420   1.03726    0.000
 6728.00    0.98482   1.03794    0.000
 6729.00    0.99735   1.03821    0.000
 6730.00    1.00827   1.03804    0.000
 6731.00    1.01297   1.03745    0.000
 6732.00    1.01380   1.03597    0.000
 6733.00    1.00217   1.03395    0.000
 6734.00    0.99356   1.03191    0.000
 6735.00    0.99315   1.02947    0.000
 6736.00    0.98870   1.02702    0.000
 6737.00    0.97478   1.02454    0.000
 6738.00    0.96560   1.02204    0.000
 6739.00    0.96603   1.02049    0.000
 6740.00    0.96648   1.01889    0.000
 6741.00    0.96696   1.01692    0.000
 6742.00    0.96430   1.01567    0.000
 6743.00    0.95681   1.01446    0.000
 6744.00    0.95376   1.01312    0.000
 6745.00    0.95671   1.01162    0.000
 6746.00    0.96378   1.01079    0.000
 6747.00    0.97575   1.01060    0.000
 6748.00    0.97745   1.00998    0.000
 6749.00    0.96836   1.01125    0.000
 6750.00    0.95621   1.01331    0.000
 6751.00    0.94124   1.01534    0.000
 6752.00    0.93393   1.01948    0.000
 6753.00    0.93288   1.02361    0.095
 6754.00    0.92664   1.02766    0.096
 6755.00    0.91669   1.03248    0.097
 6756.00    0.91070   1.03614    0.097
 6757.00    0.90721   1.03882    0.098
 6758.00    0.92727   1.04096    0.099
 6759.00    0.96030   1.04149    0.101
 6760.00    1.00613   1.04064    0.102
 6761.00    1.05808   1.03896    0.103
 6762.00    1.09721   1.03612    0.105
 6763.00    1.13103   1.03290    0.107
 6764.00    1.13401   1.03002    0.107
 6765.00    1.12607   1.02700    0.107
 6766.00    1.11800   1.02462    0.106
 6767.00    1.10989   1.02409    0.106
 6768.00    1.11200   1.02464    0.105
 6769.00    1.11665   1.02598    0.103
 6770.00    1.09845   1.02868    0.102
 6771.00    1.07566   1.03228    0.101
 6772.00    1.06144   1.03587    0.100
 6773.00    1.04857   1.03909    0.100
 6774.00    1.03736   1.04171    0.099
 6775.00    1.02635   1.04284    0.097
 6776.00    1.00289   1.04249    0.097
 6777.00    0.97846   1.04070    0.096
 6778.00    0.99260   1.03715    0.098
 6779.00    1.00843   1.03270    0.100
 6780.00    1.00503   1.02795    0.100
 6781.00    1.00143   1.02304    0.101
 6782.00    0.99757   1.01898    0.100
 6783.00    0.99375   1.01655    0.100
 6784.00    0.99093   1.01492    0.099
 6785.00    0.98913   1.01446    0.098
 6786.00    0.99858   1.01557    0.098
 6787.00    1.00681   1.01666    0.099
 6788.00    1.00561   1.01753    0.098
 6789.00    1.00530   1.01868    0.098
 6790.00    1.01020   1.01966    0.099
 6791.00    1.01275   1.01979    0.099
 6792.00    1.00442   1.02012    0.098
 6793.00    1.00084   1.02075    0.098
 6794.00    1.01526   1.02103    0.100
 6795.00    1.02340   1.02225    0.101
 6796.00    1.01173   1.02337    0.099
 6797.00    1.00485   1.02434    0.098
 6798.00    1.01078   1.02583    0.099
 6799.00    1.01175   1.02634    0.099
 6800.00    1.00133   1.02705    0.099
 6801.00    0.99393   1.02741    0.099
 6802.00    0.99253   1.02645    0.099
 6803.00    0.99266   1.02638    0.099
 6804.00    0.99542   1.02583    0.098
 6805.00    0.99403   1.02432    0.097
 6806.00    0.98635   1.02409    0.097
 6807.00    0.98171   1.02354    0.096
 6808.00    0.98113   1.02261    0.096
 6809.00    0.98316   1.02271    0.095
 6810.00    0.98825   1.02236    0.095
 6811.00    0.98578   1.02259    0.096
 6812.00    0.97549   1.02345    0.099
 6813.00    0.97221   1.02354    0.101
 6814.00    0.97534   1.02464    0.101
 6815.00    0.97416   1.02613    0.101
 6816.00    0.96950   1.02725    0.100
 6817.00    0.97052   1.02882    0.099
 6818.00    0.97556   1.03006    0.098
 6819.00    0.97625   1.03129    0.098
 6820.00    0.97426   1.03269    0.098
 6821.00    0.98203   1.03336    0.098
 6822.00    0.99511   1.03353    0.098
 6823.00    1.00158   1.03312    0.098
 6824.00    1.00494   1.03246    0.097
 6825.00    1.00396   1.03196    0.098
 6826.00    1.00121   1.03081    0.098
 6827.00    0.99356   1.02992    0.098
 6828.00    0.98421   1.02954    0.098
 6829.00    0.99184   1.02907    0.098
 6830.00    1.00444   1.02858    0.098
 6831.00    1.01625   1.02716    0.099
 6832.00    1.02788   1.02517    0.100
 6833.00    1.01854   1.02289    0.100
 6834.00    1.00510   1.01900    0.098
 6835.00    0.99184   1.01439    0.099
 6836.00    0.97861   1.00967    0.101
 6837.00    0.99288   1.00482    0.103
 6838.00    1.01024   1.00131    0.105
 6839.00    0.98711   0.99884    0.106
 6840.00    0.96095   0.99789    0.107
 6841.00    0.96665   0.99903    0.106
 6842.00    0.97361   1.00137    0.104
 6843.00    0.96641   1.00491    0.102
 6844.00    0.95944   1.00846    0.101
 6845.00    0.96542   1.01147    0.100
 6846.00    0.97076   1.01426    0.099
 6847.00    0.96537   1.01560    0.098
 6848.00    0.96252   1.01551    0.098
 6849.00    0.98618   1.01433    0.099
 6850.00    1.00605   1.01153    0.100
 6851.00    0.99778   1.00853    0.100
 6852.00    0.98889   1.00520    0.099
 6853.00    0.97645   1.00086    0.098
 6854.00    0.96520   0.99790    0.098
 6855.00    0.95932   0.99573    0.098
 6856.00    0.94971   0.99350    0.098
 6857.00    0.92628   0.99289    0.099
 6858.00    0.91292   0.99296    0.099
 6859.00    0.93075   0.99322    0.100
 6860.00    0.94084   0.99417    0.102
 6861.00    0.93057   0.99547    0.102
 6862.00    0.92561   0.99659    0.103
 6863.00    0.93266   0.99696    0.102
 6864.00    0.93830   0.99705    0.102
 6865.00    0.94119   0.99687    0.103
 6866.00    0.94530   0.99612    0.104
 6867.00    0.95149   0.99561    0.106
 6868.00    0.95532   0.99570    0.106
 6869.00    0.95565   0.99573    0.106
 6870.00    0.95563   0.99575    0.104
 6871.00    0.95515   0.99637    0.103
 6872.00    0.95656   0.99767    0.101
 6873.00    0.96013   0.99903    0.099
 6874.00    0.95329   1.00005    0.099
 6875.00    0.93582   1.00092    0.099
 6876.00    0.93001   1.00168    0.099
 6877.00    0.93469   1.00207    0.098
 6878.00    0.94422   1.00217    0.098
 6879.00    0.95761   1.00241    0.099
 6880.00    0.95840   1.00292    0.099
 6881.00    0.95041   1.00386    0.100
 6882.00    0.94599   1.00601    0.101
 6883.00    0.94374   1.00890    0.103
 6884.00    0.95106   1.01182    0.103
 6885.00    0.96348   1.01528    0.104
 6886.00    0.96388   1.01916    0.104
 6887.00    0.95869   1.02243    0.104
 6888.00    0.95676   1.02506    0.104
 6889.00    0.95614   1.02722    0.104
 6890.00    0.95914   1.02827    0.104
 6891.00    0.96338   1.02864    0.103
 6892.00    0.96232   1.02884    0.101
 6893.00    0.95972   1.02855    0.100
 6894.00    0.95584   1.02806    0.101
 6895.00    0.95165   1.02769    0.102
 6896.00    0.94697   1.02775    0.101
 6897.00    0.94221   1.02828    0.100
 6898.00    0.93992   1.02855    0.100
 6899.00    0.93801   1.02913    0.100
 6900.00    0.93591   1.03049    0.100
 6901.00    0.93380   1.03160    0.100
 6902.00    0.94773   1.03262    0.101
 6903.00    0.96280   1.03322    0.102
 6904.00    0.95837   1.03343    0.103
 6905.00    0.95323   1.03390    0.103
 6906.00    0.96185   1.03311    0.104
 6907.00    0.96966   1.03139    0.106
 6908.00    0.94822   1.02968    0.105
 6909.00    0.92801   1.02706    0.105
 6910.00    0.92735   1.02443    0.104
 6911.00    0.92681   1.02228    0.103
 6912.00    0.92748   1.01961    0.103
 6913.00    0.92937   1.01848    0.103
 6914.00    0.94001   1.01831    0.104
 6915.00    0.94745   1.01772    0.106
 6916.00    0.93729   1.01851    0.103
 6917.00    0.92903   1.01891    0.102
 6918.00    0.92914   1.01906    0.102
 6919.00    0.93071   1.01907    0.102
 6920.00    0.93758   1.01796    0.101
 6921.00    0.94178   1.01687    0.101
 6922.00    0.93788   1.01520    0.101
 6923.00    0.93630   1.01347    0.101
 6924.00    0.94072   1.01252    0.102
 6925.00    0.94266   1.01219    0.103
 6926.00    0.93908   1.01222    0.104
 6927.00    0.93497   1.01249    0.105
 6928.00    0.92981   1.01305    0.105
 6929.00    0.92443   1.01407    0.105
 6930.00    0.91868   1.01538    0.104
 6931.00    0.91668   1.01609    0.104
 6932.00    0.92017   1.01721    0.105
 6933.00    0.91883   1.01882    0.106
 6934.00    0.91121   1.01991    0.104
 6935.00    0.90735   1.02068    0.103
 6936.00    0.90777   1.02104    0.102
 6937.00    0.91303   1.02097    0.102
 6938.00    0.92314   1.02042    0.103
 6939.00    0.92696   1.01927    0.102
 6940.00    0.92519   1.01729    0.101
 6941.00    0.92544   1.01518    0.100
 6942.00    0.92727   1.01347    0.101
 6943.00    0.92396   1.01147    0.101
 6944.00    0.91711   1.01039    0.102
 6945.00    0.90901   1.01023    0.102
 6946.00    0.90014   1.00958    0.102
 6947.00    0.90383   1.00950    0.104
 6948.00    0.91411   1.00969    0.106
 6949.00    0.92011   1.00944    0.107
 6950.00    0.92415   1.00997    0.106
 6951.00    0.92124   1.01086    0.107
 6952.00    0.91560   1.01167    0.108
 6953.00    0.92741   1.01332    0.108
 6954.00    0.94506   1.01556    0.109
 6955.00    0.94529   1.01792    0.108
 6956.00    0.94064   1.02054    0.108
 6957.00    0.93788   1.02324    0.106
 6958.00    0.93555   1.02559    0.104
 6959.00    0.93328   1.02792    0.103
 6960.00    0.93101   1.02990    0.102
 6961.00    0.93412   1.03123    0.103
 6962.00    0.93800   1.03265    0.104
 6963.00    0.93339   1.03353    0.103
 6964.00    0.92790   1.03347    0.102
 6965.00    0.92571   1.03366    0.103
 6966.00    0.92374   1.03355    0.104
 6967.00    0.94189   1.03230    0.104
 6968.00    0.96068   1.03027    0.105
 6969.00    0.93999   1.02655    0.106
 6970.00    0.91988   1.02245    0.107
 6971.00    0.91770   1.01808    0.107
 6972.00    0.91587   1.01210    0.108
 6973.00    0.91919   1.00612    0.108
 6974.00    0.91984   1.00070    0.108
 6975.00    0.89483   0.99692    0.108
 6976.00    0.87475   0.99460    0.108
 6977.00    0.88896   0.99392    0.107
 6978.00    0.90187   0.99667    0.107
 6979.00    0.90772   1.00106    0.108
 6980.00    0.91177   1.00623    0.108
 6981.00    0.90807   1.01212    0.106
 6982.00    0.90592   1.01728    0.105
 6983.00    0.90927   1.02217    0.104
 6984.00    0.91256   1.02605    0.104
 6985.00    0.91564   1.02844    0.104
 6986.00    0.91667   1.03021    0.104
 6987.00    0.91250   1.03071    0.104
 6988.00    0.91283   1.03075    0.104
 6989.00    0.92301   1.03102    0.105
 6990.00    0.93440   1.03093    0.106
 6991.00    0.94808   1.03066    0.108
 6992.00    0.95071   1.02941    0.109
 6993.00    0.93502   1.02759    0.109
 6994.00    0.92210   1.02610    0.109
 6995.00    0.91320   1.02402    0.109
 6996.00    0.91392   1.02164    0.109
 6997.00    0.92694   1.01856    0.110
 6998.00    0.93081   1.01532    0.110
 6999.00    0.92438   1.01343    0.110
 7000.00    0.91962   1.01208    0.109
 7001.00    0.91652   1.01087    0.109
 7002.00    0.91028   1.00978    0.109
 7003.00    0.90130   1.00907    0.109
 7004.00    0.90566   1.00926    0.108
 7005.00    0.92029   1.00978    0.107
 7006.00    0.92006   1.00987    0.109
 7007.00    0.90975   1.00985    0.113
 7008.00    0.89718   1.00926    0.114
 7009.00    0.88328   1.00749    0.112
 7010.00    0.89209   1.00581    0.113
 7011.00    0.91268   1.00424    0.114
 7012.00    0.89936   1.00273    0.115
 7013.00    0.87082   1.00125    0.115
 7014.00    0.87205   0.99950    0.114
 7015.00    0.88477   0.99923    0.114
 7016.00    0.89203   1.00090    0.115
 7017.00    0.89749   1.00241    0.116
 7018.00    0.90898   1.00345    0.117
 7019.00    0.92214   1.00457    0.118
 7020.00    0.91312   1.00556    0.117
 7021.00    0.89907   1.00644    0.116
 7022.00    0.90241   1.00705    0.115
 7023.00    0.90888   1.00782    0.115
 7024.00    0.90441   1.00956    0.115
 7025.00    0.89842   1.01110    0.114
 7026.00    0.89691   1.01259    0.113
 7027.00    0.89585   1.01440    0.112
 7028.00    0.90043   1.01616    0.112
 7029.00    0.90536   1.01821    0.113
 7030.00    0.90071   1.01935    0.113
 7031.00    0.89579   1.01971    0.114
 7032.00    0.89277   1.02050    0.115
 7033.00    0.89029   1.02136    0.116
 7034.00    0.90264   1.02317    0.117
 7035.00    0.91489   1.02539    0.117
 7036.00    0.92581   1.02705    0.119
 7037.00    0.93464   1.03026    0.120
 7038.00    0.92418   1.03496    0.119
 7039.00    0.91466   1.03989    0.118
 7040.00    0.91149   1.04438    0.118
 7041.00    0.91424   1.04793    0.117
 7042.00    0.94796   1.05069    0.119
 7043.00    0.97329   1.05230    0.120
 7044.00    0.96327   1.05306    0.118
 7045.00    0.95297   1.05186    0.116
 7046.00    0.94164   1.04859    0.115
 7047.00    0.93171   1.04374    0.115
 7048.00    0.92590   1.03655    0.117
 7049.00    0.92154   1.02885    0.118
 7050.00    0.92082   1.01987   -2.000
 7051.00    0.92048   1.00997   -2.000
 7052.00    0.92094   1.00089   -2.000
 7053.00    0.92160   0.99202   -2.000
 7054.00    0.92261   0.98480   -2.000
 7055.00    0.92822   0.97873   -2.000
 7056.00    0.94132   0.97315   -2.000
 7057.00    0.94755   0.96878   -2.000
 7058.00    0.94395   0.96497   -2.000
 7059.00    0.94945   0.96221   -2.000
 7060.00    0.96641   0.96043   -2.000
 7061.00    0.97675   0.95826   -2.000
 7062.00    0.97977   0.95677   -2.000
 7063.00    0.98945   0.95616   -2.000
 7064.00    1.00565   0.95563   -2.000
 7065.00    0.99819   0.95590   -2.000
 7066.00    0.97033   0.95678   -2.000
 7067.00    0.95069   0.95872   -2.000
 7068.00    0.93730   0.96239   -2.000
 7069.00    0.94238   0.96631   -2.000
 7070.00    0.95979   0.96976   -2.000
 7071.00    0.98237   0.97349   -2.000
 7072.00    1.00797   0.97684   -2.000
 7073.00    1.02783   0.97966   -2.000
 7074.00    1.04475   0.98165   -2.000
 7075.00    1.02382   0.98169   -2.000
 7076.00    0.98617   0.98063   -2.000
 7077.00    0.98452   0.97771   -2.000
 7078.00    0.99653   0.97312   -2.000
 7079.00    1.00837   0.96811   -2.000
 7080.00    1.02016   0.96101   -2.000
 7081.00    1.01560   0.95295   -2.000
 7082.00    1.00665   0.94457   -2.000
 7083.00    0.98219   0.93596   -2.000
 7084.00    0.95432   0.92962   -2.000
 7085.00    0.94132   0.92364   -2.000
 7086.00    0.93093   0.91773   -2.000
 7087.00    0.92133   0.91400   -2.000
 7088.00    0.91185   0.91086   -2.000
 7089.00    0.89889   0.90951   -2.000
 7090.00    0.88561   0.90970   -2.000
 7091.00    0.88521   0.90939   -2.000
 7092.00    0.88557   0.91093   -2.000
 7093.00    0.88655   0.91266   -2.000
 7094.00    0.88757   0.91462   -2.000
 7095.00    0.89038   0.91727   -2.000
 7096.00    0.89281   0.91922   -2.000
 7097.00    0.88577   0.92192   -2.000
 7098.00    0.87650   0.92401   -2.000
 7099.00    0.83781   0.92528   -2.000
 7100.00    0.80295   0.92594   -2.000
 7101.00    0.80212   0.92606   -2.000
 7102.00    0.80259   0.92656   -2.000
 7103.00    0.81158   0.92641   -2.000
 7104.00    0.82022   0.92523   -2.000
 7105.00    0.82705   0.92367   -2.000
 7106.00    0.82995   0.92248   -2.000
 7107.00    0.81665   0.92211   -2.000
 7108.00    0.80385   0.92144   -2.000
 7109.00    0.79277   0.92072   -2.000
 7110.00    0.79280   0.92056   -2.000
 7111.00    0.82472   0.92131   -2.000
 7112.00    0.84544   0.92263   -2.000
 7113.00    0.83869   0.92322   -2.000
 7114.00    0.83856   0.92391   -2.000
 7115.00    0.85244   0.92393   -2.000
 7116.00    0.85582   0.92375   -2.000
 7117.00    0.83989   0.92346   -2.000
 7118.00    0.84716   0.92151   -2.000
 7119.00    0.89170   0.91945   -2.000
 7120.00    0.92362   0.91637   -2.000
 7121.00    0.93775   0.91328   -2.000
 7122.00    0.92957   0.91059   -2.000
 7123.00    0.89373   0.90627   -2.000
 7124.00    0.87003   0.90211   -2.000
 7125.00    0.85958   0.89863   -2.000
 7126.00    0.84427   0.89614   -2.000
 7127.00    0.82427   0.89470   -2.000
 7128.00    0.81811   0.89314   -2.000
 7129.00    0.82373   0.89244   -2.000
 7130.00    0.82346   0.89417   -2.000
 7131.00    0.81879   0.89671   -2.000
 7132.00    0.82077   0.89949   -2.000
 7133.00    0.82713   0.90241   -2.000
 7134.00    0.83576   0.90498   -2.000
 7135.00    0.84568   0.90813   -2.000
 7136.00    0.86875   0.91035   -2.000
 7137.00    0.89842   0.91132   -2.000
 7138.00    0.88535   0.91180   -2.000
 7139.00    0.85373   0.91222   -2.000
 7140.00    0.85859   0.91188   -2.000
 7141.00    0.87705   0.91012   -2.000
 7142.00    0.86324   0.90856   -2.000
 7143.00    0.83924   0.90695   -2.000
 7144.00    0.82303   0.90574   -2.000
 7145.00    0.80886   0.90513   -2.000
 7146.00    0.81086   0.90405   -2.000
 7147.00    0.81634   0.90483   -2.000
 7148.00    0.81943   0.90681   -2.000
 7149.00    0.82211   0.90896   -2.000
 7150.00    0.83606   0.91254   -2.000
 7151.00    0.85148   0.91569   -2.000
 7152.00    0.83238   0.91843   -2.000
 7153.00    0.81015   0.92060   -2.000
 7154.00    0.82533   0.92174   -2.000
 7155.00    0.84256   0.92340   -2.000
 7156.00    0.84758   0.92330   -2.000
 7157.00    0.85213   0.92131   -2.000
 7158.00    0.83574   0.91886   -2.000
 7159.00    0.82090   0.91656   -2.000
 7160.00    0.84134   0.91550   -2.000
 7161.00    0.86015   0.91416   -2.000
 7162.00    0.85850   0.91248   -2.000
 7163.00    0.85990   0.91178   -2.000
 7164.00    0.88736   0.91339   -2.000
 7165.00    0.90889   0.91668   -2.000
 7166.00    0.89275   0.92009   -2.000
 7167.00    0.88276   0.92300   -2.000
 7168.00    0.90325   0.92549   -2.000
 7169.00    0.91310   0.92806   -2.000
 7170.00    0.88006   0.93056   -2.000
 7171.00    0.85769   0.93197   -2.000
 7172.00    0.87101   0.93155   -2.000
 7173.00    0.87723   0.93001   -2.000
 7174.00    0.86345   0.92752   -2.000
 7175.00    0.85913   0.92533   -2.000
 7176.00    0.87760   0.92394   -2.000
 7177.00    0.88584   0.92145   -2.000
 7178.00    0.87280   0.91843   -2.000
 7179.00    0.86524   0.91567   -2.000
 7180.00    0.86761   0.91348   -2.000
 7181.00    0.85652   0.91277   -2.000
 7182.00    0.82414   0.91132   -2.000
 7183.00    0.81040   0.90892   -2.000
 7184.00    0.82256   0.90698   -2.000
 7185.00    0.82651   0.90456   -2.000
 7186.00    0.82041   0.90291   -2.000
 7187.00    0.81442   0.90223   -2.000
 7188.00    0.80855   0.90172   -2.000
 7189.00    0.81442   0.90237   -2.000
 7190.00    0.83145   0.90266   -2.000
 7191.00    0.84161   0.90339   -2.000
 7192.00    0.84598   0.90528   -2.000
 7193.00    0.83592   0.90743   -2.000
 7194.00    0.81518   0.90957   -2.000
 7195.00    0.81204   0.91055   -2.000
 7196.00    0.82030   0.91187   -2.000
 7197.00    0.82282   0.91346   -2.000
 7198.00    0.82208   0.91434   -2.000
 7199.00    0.79275   0.91456   -2.000
 7200.00    0.74930   0.91332   -2.000
 7201.00    0.75394   0.91265   -2.000
 7202.00    0.77913   0.91227   -2.000
 7203.00    0.79929   0.91101   -2.000
 7204.00    0.81762   0.90996   -2.000
 7205.00    0.82567   0.90799   -2.000
 7206.00    0.83055   0.90760   -2.000
 7207.00    0.82083   0.90889   -2.000
 7208.00    0.80735   0.91033   -2.000
 7209.00    0.79690   0.91286   -2.000
 7210.00    0.78709   0.91480   -2.000
 7211.00    0.77390   0.91697   -2.000
 7212.00    0.76014   0.91953   -2.000
 7213.00    0.81299   0.92191   -2.000
 7214.00    0.87417   0.92427   -2.000
 7215.00    0.88149   0.92626   -2.000
 7216.00    0.88415   0.92800   -2.000
 7217.00    0.89273   0.92923   -2.000
 7218.00    0.90161   0.93058   -2.000
