###################################################################
## OUTPUT of StarlightChains_v04.for    [Cid@UFSC - 01/Apr/2007] ##
###################################################################

## Some input info
KUG0210-078._32_32.txt                   [arq_obs]
Base.CB07.vall.4m                        [arq_base]
Masks.EmLines.NEW.gm                     [arq_masks]
StCv04.C11.config                        [arq_config]
   66                                    [N_base]
    0                                    [N_YAV_components = # of components with extra extinction!]
    0                                    [i_FitPowerLaw (1/0 = Yes/No)]
-9.99                                    [alpha_PowerLaw]
CCM                                      [red_law_option]
 1.458241                                [q_norm = A(l_norm)/A(V)]

## (Re)Sampling Parameters
 3741.00                                 [l_ini (A)]
 7218.00                                 [l_fin (A)]
    1.00                                 [dl    (A)]     (OBS: dl_cushion =    50.00 A)

## Normalization info
 4020.00                                 [l_norm (A) - for base]
 4010.00                                 [llow_norm (A) - window for f_obs]
 4060.00                                 [lupp_norm (A) - window for f_obs]
1.039421E-16                             [fobs_norm (in input units)]

## S/N
 3691.00                                 [llow_SN (A) - window for S/N]
 7268.00                                 [lupp_SN (A) - window for S/N]
   4.997                                 [S/N in S/N window]
   4.030                                 [S/N in norm. window]
   0.221                                 [S/N_err in S/N window]
   0.179                                 [S/N_err in norm. window]
  1.0000                                 [fscale_chi2]

## etc...
    -2007480                             [idum_orig]
  2432                                   [NOl_eff]
  2358                                   [Nl_eff]
    74    NSIGMA                         [Ntot_cliped & clip_method]
 15611190                                [Nglobal_steps]
   7                                     [N_chains]
   9                                     [NEX0s_base = N_base in EX0s-fits]
 0   0   1       74   2.0   3.827E+04    [Clip-Bug, RC-Crash & Burn-In warning-flags, n_censored_weights, wei_nsig_threshold & wei_limit]
   441    438.475    435.537      2.938  [idt_all, wdt_TotTime, wdt_UsrTime & wdt_SysTime (sec)]

## Synthesis Results - Best model ##

 8.56782E-05                             [chi2/Nl_eff]
     2.72059                             [adev (%)]

   111.68864                             [sum-of-x (%)]
 7.43994E-17                             [Flux_tot (units of input spectrum!)]
 7.64908E-12                             [Mini_tot (???)]
 3.82773E-12                             [Mcor_tot (???)]

 -19.74                                  [v0_min  (km/s)]
 246.71                                  [vd_min  (km/s)]
-0.3313                                  [AV_min  (mag)]
 0.0000                                  [YAV_min (mag)]

# j     x_j(%)      Mini_j(%)     Mcor_j(%)     age_j(yr)     Z_j      (L/M)_j    YAV?  Mstars   component_j        a/Fe...       SSP_chi2r SSP_adev(%)   SSP_AV   SSP_x(%)
  1      0.0000     0.0000E+00    0.0000E+00    1.000000E+06  0.00400  1.094E-02    0   1.0000   age020_m42            0.0000     1.0156E-03    10.3293   3.7014    90.8711
  2      0.0000     0.0000E+00    0.0000E+00    3.160000E+06  0.00400  4.007E-02    0   0.9999   age045_m42            0.0000     7.9624E-04     9.1898   2.9690    97.3932
  3      0.0000     0.0000E+00    0.0000E+00    5.010000E+06  0.00400  2.539E-02    0   0.9488   age055_m42            0.0000     8.9150E-04     9.7136   3.2920    94.8853
  4      0.0000     0.0000E+00    0.0000E+00    6.610000E+06  0.00400  2.620E-02    0   0.9220   age061_m42            0.0000     7.9931E-04     9.1753   2.8959    97.5933
  5      0.0000     0.0000E+00    0.0000E+00    1.000000E+07  0.00400  1.322E-02    0   0.8862   age070_m42            0.0000     9.3511E-04    10.3297   2.6246    99.2493
  6      0.0000     0.0000E+00    0.0000E+00    1.445000E+07  0.00400  7.883E-03    0   0.8571   age078_m42            0.0000     9.7964E-04    10.5186   2.9512    96.7317
  7      0.0000     0.0000E+00    0.0000E+00    2.512000E+07  0.00400  5.251E-03    0   0.8174   age090_m42            0.0000     9.5236E-04    10.5293   2.4958    99.7628
  8      0.0000     0.0000E+00    0.0000E+00    4.000000E+07  0.00400  3.649E-03    0   0.7851   age104_m42            0.0000     8.8906E-04    10.1415   2.2660   100.7175
  9      0.0000     0.0000E+00    0.0000E+00    5.500000E+07  0.00400  3.098E-03    0   0.7629   age110_m42            0.0000     8.0454E-04     9.3760   2.4140   100.9397
 10      0.0000     0.0000E+00    0.0000E+00    1.015200E+08  0.00400  2.228E-03    0   0.7207   age116_m42            0.0000     7.5349E-04     8.8683   2.4301   101.2925
 11      0.0000     0.0000E+00    0.0000E+00    2.861200E+08  0.00400  1.093E-03    0   0.6648   age125_m42            0.0000     7.6453E-04     9.1507   1.8595   104.3192
 12      0.0000     0.0000E+00    0.0000E+00    5.088000E+08  0.00400  6.597E-04    0   0.6365   age130_m42            0.0000     6.5774E-04     8.2209   1.8440   105.4641
 13      0.0000     0.0000E+00    0.0000E+00    1.434000E+09  0.00400  2.132E-04    0   0.5798   age139_m42            0.0000     4.3574E-04     6.5978   0.8720   107.7443
 14      0.0000     0.0000E+00    0.0000E+00    4.250000E+09  0.00400  5.895E-05    0   0.5377   age158_m42            0.0000     3.1280E-04     5.5717   0.4223   104.0300
 15      0.0000     0.0000E+00    0.0000E+00    7.500000E+09  0.00400  3.510E-05    0   0.5212   age171_m42            0.0000     2.7016E-04     5.0982   0.2292   103.5483
 16      0.0000     0.0000E+00    0.0000E+00    1.300000E+10  0.00400  2.005E-05    0   0.5034   age193_m42            0.0000     2.4705E-04     4.7948   0.0590   103.1721
 17      0.0000     0.0000E+00    0.0000E+00    1.800000E+10  0.00400  1.525E-05    0   0.4967   age213_m42            0.0000     2.5719E-04     4.8895   0.0376   102.6618
 18      0.0000     0.0000E+00    0.0000E+00    1.000000E+06  0.00800  1.238E-02    0   1.0000   age020_m52            0.0000     1.0147E-03    10.3147   3.6967    91.0834
 19      0.0000     0.0000E+00    0.0000E+00    3.160000E+06  0.00800  3.074E-02    0   0.9966   age045_m52            0.0000     9.8976E-04    10.1705   3.6186    91.9628
 20      0.0000     0.0000E+00    0.0000E+00    5.010000E+06  0.00800  2.668E-02    0   0.9443   age055_m52            0.0000     9.1855E-04     9.8248   3.3747    94.0400
 21      0.0000     0.0000E+00    0.0000E+00    6.610000E+06  0.00800  2.136E-02    0   0.9177   age061_m52            0.0000     8.4292E-04     9.8807   2.1258   100.4432
 22      0.0000     0.0000E+00    0.0000E+00    1.000000E+07  0.00800  1.215E-02    0   0.8827   age070_m52            0.0000     1.0180E-03    10.8993   2.8055    98.9307
 23      0.0000     0.0000E+00    0.0000E+00    1.445000E+07  0.00800  8.717E-03    0   0.8552   age078_m52            0.0000     9.5715E-04    10.3937   2.9165    98.1062
 24      0.0000     0.0000E+00    0.0000E+00    2.512000E+07  0.00800  5.592E-03    0   0.8162   age090_m52            0.0000     9.4630E-04    10.4940   2.5588   100.9804
 25      0.0000     0.0000E+00    0.0000E+00    4.000000E+07  0.00800  3.896E-03    0   0.7841   age104_m52            0.0000     8.7241E-04     9.9914   2.4670   101.9274
 26      0.0000     0.0000E+00    0.0000E+00    1.015200E+08  0.00800  2.148E-03    0   0.7226   age116_m52            0.0000     7.6579E-04     9.1080   2.3999   102.0199
 27      0.0000     0.0000E+00    0.0000E+00    2.861200E+08  0.00800  9.925E-04    0   0.6683   age125_m52            0.0000     6.4513E-04     8.1084   1.9070   106.5081
 28      0.0000     0.0000E+00    0.0000E+00    9.047900E+08  0.00800  3.141E-04    0   0.6138   age135_m52            0.0000     3.7896E-04     6.0607   1.0981   111.5023
 29      0.0000     0.0000E+00    0.0000E+00    1.434000E+09  0.00800  1.719E-04    0   0.5853   age139_m52            0.0000     3.1532E-04     5.5941   0.5178   109.2997
 30      0.0000     0.0000E+00    0.0000E+00    2.500000E+09  0.00800  7.872E-05    0   0.5600   age150_m52            0.0000     2.1375E-04     4.4551   0.2411   106.8204
 31      0.0000     0.0000E+00    0.0000E+00    4.250000E+09  0.00800  4.336E-05    0   0.5426   age158_m52            0.0000     2.1517E-04     4.5060   0.2257   105.8319
 32      0.0000     0.0000E+00    0.0000E+00    6.250000E+09  0.00800  3.159E-05    0   0.5319   age166_m52            0.0000     1.6987E-04     3.9105   0.0153   106.1898
 33      0.0000     0.0000E+00    0.0000E+00    1.300000E+10  0.00800  1.361E-05    0   0.5073   age193_m52            0.0000     1.3014E-04     3.3057  -0.4633   105.9468
 34      0.0000     0.0000E+00    0.0000E+00    1.800000E+10  0.00800  9.886E-06    0   0.4990   age213_m52            0.0000     1.2260E-04     3.3005  -0.5809   105.8374
 35      0.0000     0.0000E+00    0.0000E+00    1.000000E+06  0.02000  1.544E-02    0   1.0000   age020_m62            0.0000     1.0215E-03    10.3465   3.6938    91.2663
 36      0.0000     0.0000E+00    0.0000E+00    3.160000E+06  0.02000  3.762E-02    0   0.9858   age045_m62            0.0000     1.0133E-03    10.2910   3.6316    92.1143
 37      0.0000     0.0000E+00    0.0000E+00    5.010000E+06  0.02000  3.296E-02    0   0.9342   age055_m62            0.0000     8.3851E-04     9.2956   3.2477    96.2335
 38      0.0000     0.0000E+00    0.0000E+00    8.710000E+06  0.02000  1.154E-02    0   0.8861   age067_m62            0.0000     1.5495E-03    14.4973   2.2734   100.9151
 39      0.0000     0.0000E+00    0.0000E+00    1.445000E+07  0.02000  7.663E-03    0   0.8472   age078_m62            0.0000     1.1245E-03    11.8318   2.4560   101.0020
 40      0.0000     0.0000E+00    0.0000E+00    2.512000E+07  0.02000  4.532E-03    0   0.8099   age090_m62            0.0000     1.1520E-03    12.0149   2.4479   100.7224
 41      0.0000     0.0000E+00    0.0000E+00    5.500000E+07  0.02000  2.733E-03    0   0.7595   age110_m62            0.0000     8.7745E-04    10.0091   2.4515   101.1563
 42      0.0000     0.0000E+00    0.0000E+00    1.609000E+08  0.02000  1.369E-03    0   0.6985   age120_m62            0.0000     7.3014E-04     8.7236   2.2779   104.4543
 43      0.0000     0.0000E+00    0.0000E+00    2.861200E+08  0.02000  9.013E-04    0   0.6714   age125_m62            0.0000     6.4255E-04     8.0382   2.0207   107.7840
 44      0.0000     0.0000E+00    0.0000E+00    5.088000E+08  0.02000  5.028E-04    0   0.6449   age130_m62            0.0000     4.6639E-04     6.6643   1.6334   111.1243
 45      0.0000     0.0000E+00    0.0000E+00    9.047900E+08  0.02000  2.428E-04    0   0.6179   age135_m62            0.0000     2.8376E-04     5.1631   1.0391   110.8997
 46      0.0000     0.0000E+00    0.0000E+00    1.434000E+09  0.02000  1.263E-04    0   0.5908   age139_m62            0.0000     2.1730E-04     4.4794   0.5914   109.4820
 47      0.0000     0.0000E+00    0.0000E+00    2.500000E+09  0.02000  5.985E-05    0   0.5673   age150_m62            0.0000     1.5668E-04     3.7572   0.2163   108.4401
 48      0.0000     0.0000E+00    0.0000E+00    4.250000E+09  0.02000  3.271E-05    0   0.5468   age158_m62            0.0000     1.1561E-04     3.1640  -0.1005   108.0278
 49      4.0777     2.6111E+00    2.6961E+00    1.000000E+10  0.02000  1.360E-05    0   0.5167   age181_m62            0.0000     1.0637E-04     3.2043  -0.4659   108.3466
 50     26.4375     3.2318E+01    3.2375E+01    1.800000E+10  0.02000  7.124E-06    0   0.5013   age213_m62            0.0000     1.3631E-04     3.9193  -0.6900   108.0817
 51      0.0000     0.0000E+00    0.0000E+00    1.000000E+06  0.05000  2.592E-02    0   0.9998   age020_m72            0.0000     1.0475E-03    10.4707   3.6861    91.2687
 52      0.0000     0.0000E+00    0.0000E+00    3.160000E+06  0.05000  4.845E-02    0   0.9577   age045_m72            0.0000     9.3557E-04     9.8518   3.5108    93.4989
 53      0.0000     0.0000E+00    0.0000E+00    5.010000E+06  0.05000  3.072E-02    0   0.9147   age055_m72            0.0000     1.0923E-03    11.2142   3.0338    97.3904
 54      0.0000     0.0000E+00    0.0000E+00    6.610000E+06  0.05000  1.455E-02    0   0.8877   age061_m72            0.0000     2.0608E-03    17.1649   2.3112   101.7092
 55      0.0000     0.0000E+00    0.0000E+00    1.000000E+07  0.05000  9.074E-03    0   0.8524   age070_m72            0.0000     1.2041E-03    11.7372   3.2059    97.2763
 56      0.0000     0.0000E+00    0.0000E+00    2.512000E+07  0.05000  4.250E-03    0   0.7902   age090_m72            0.0000     1.0653E-03    11.1122   2.9092    99.1591
 57      0.0000     0.0000E+00    0.0000E+00    4.000000E+07  0.05000  3.087E-03    0   0.7618   age104_m72            0.0000     1.0606E-03    11.1711   2.6822   100.8059
 58      0.0000     0.0000E+00    0.0000E+00    1.015200E+08  0.05000  1.700E-03    0   0.7096   age116_m72            0.0000     8.1562E-04     9.3515   2.4227   103.8665
 59      0.0000     0.0000E+00    0.0000E+00    2.861200E+08  0.05000  7.384E-04    0   0.6633   age125_m72            0.0000     5.4046E-04     7.2503   1.8818   109.5888
 60     21.7076     4.9501E-01    6.3031E-01    5.088000E+08  0.05000  3.819E-04    0   0.6372   age130_m72            0.0000     3.3266E-04     5.5377   1.3799   111.9118
 61     20.5749     1.0691E+00    1.3053E+00    9.047900E+08  0.05000  1.676E-04    0   0.6110   age135_m72            0.0000     1.6761E-04     3.9036   0.6715   110.6147
 62      0.0000     0.0000E+00    0.0000E+00    1.434000E+09  0.05000  8.837E-05    0   0.5874   age139_m72            0.0000     1.3830E-04     3.4269   0.2100   110.2784
 63      3.7257     7.6650E-01    8.5746E-01    2.500000E+09  0.05000  4.233E-05    0   0.5598   age150_m72            0.0000     1.0065E-04     3.0563  -0.1086   109.3149
 64      3.7269     2.2617E+00    2.3724E+00    6.250000E+09  0.05000  1.435E-05    0   0.5249   age166_m72            0.0000     1.1045E-04     3.3168  -0.5688   108.1630
 65      0.0000     0.0000E+00    0.0000E+00    1.300000E+10  0.05000  6.513E-06    0   0.5036   age193_m72            0.0000     1.6746E-04     4.4831  -0.8646   109.8446
 66     31.4383     6.0478E+01    5.9763E+01    1.800000E+10  0.05000  4.527E-06    0   0.4945   age213_m72            0.0000     2.2699E-04     5.2525  -1.0000   108.7259


## Synthesis Results - Average & Chains ##

# j      x_j: min, <> & last-chain-values for 1 ...  7 chains
  1      0.0000      0.4308      0.0214      0.0426      0.0182      0.0126      0.0165      0.0000      0.0215
  2      0.0000      0.3084      0.0400      0.0429      0.0394      0.0337      0.0143      0.0000      0.0122
  3      0.0000      0.3191      0.0164      0.0235      0.0000      0.0255      0.0506      0.0196      0.0372
  4      0.0000      0.2849      0.0084      0.0277      0.0281      0.0117      0.0136      0.0034      0.0000
  5      0.0000      0.2676      0.0223      0.0000      0.0581      0.0000      0.0403      0.0075      0.0253
  6      0.0000      0.2867      0.0000      0.0869      0.0491      0.0000      0.0000      0.0292      0.0292
  7      0.0000      0.3418      0.0009      0.0126      0.0364      0.0127      0.0212      0.0000      0.0080
  8      0.0000      0.3506      0.0192      0.0171      0.0136      0.0540      0.0321      0.0306      0.0232
  9      0.0000      0.3326      0.0147      0.0076      0.0132      0.0383      0.0107      0.0000      0.0525
 10      0.0000      0.2720      0.0128      0.0087      0.1211      0.0243      0.0424      0.0712      0.0342
 11      0.0000      0.3016      0.0298      0.0680      0.0109      0.0864      0.0093      0.0239      0.0142
 12      0.0000      0.2861      0.0000      0.0201      0.0000      0.0370      0.0050      0.0215      0.0272
 13      0.0000      0.4058      0.0000      0.0818      0.0321      0.1434      0.0142      0.0399      0.0522
 14      0.0000      0.3360      0.0637      0.0796      0.0159      0.0000      0.0165      0.0225      0.1477
 15      0.0000      0.2994      0.0320      0.0179      0.0525      0.0788      0.0233      0.0000      0.0451
 16      0.0000      0.3232      0.0094      0.0422      0.0384      0.0182      0.0682      0.0089      0.0263
 17      0.0000      0.2756      0.1157      0.0123      0.0758      0.0000      0.0389      0.0006      0.0294
 18      0.0000      0.3375      0.0601      0.0023      0.1016      0.0135      0.0539      0.0131      0.0639
 19      0.0000      0.3492      0.0146      0.0117      0.0010      0.0632      0.0424      0.0000      0.0306
 20      0.0000      0.3211      0.0150      0.0893      0.0004      0.0832      0.0313      0.0420      0.0035
 21      0.0000      0.3132      0.0000      0.0430      0.0086      0.0443      0.0177      0.0099      0.0281
 22      0.0000      0.3615      0.0451      0.0039      0.0057      0.0134      0.0187      0.0000      0.0706
 23      0.0000      0.3448      0.0278      0.0231      0.0212      0.0000      0.0434      0.0366      0.0300
 24      0.0000      0.3791      0.0418      0.0074      0.0276      0.0629      0.1376      0.0197      0.0615
 25      0.0000      0.2559      0.0060      0.0358      0.0390      0.0120      0.0000      0.0100      0.1066
 26      0.0000      0.3372      0.0232      0.0192      0.0006      0.0895      0.0344      0.0006      0.0244
 27      0.0000      0.3929      0.0856      0.1094      0.0526      0.0771      0.0079      0.0000      0.0288
 28      0.0000      0.3749      0.0134      0.0719      0.0462      0.0195      0.0556      0.0405      0.0106
 29      0.0000      0.3421      0.0162      0.0587      0.0776      0.0493      0.0000      0.0000      0.0436
 30      0.0000      0.3450      0.0189      0.0336      0.0140      0.0357      0.0438      0.0197      0.0258
 31      0.0000      0.2891      0.0552      0.0534      0.0000      0.0574      0.0235      0.0014      0.0140
 32      0.0000      0.4234      0.0000      0.0498      0.0661      0.0297      0.0543      0.0644      0.0273
 33      0.0000      0.3482      0.0098      0.0424      0.0000      0.0600      0.0469      0.0074      0.0378
 34      0.0000      0.4191      0.0071      0.0000      0.1200      0.0336      0.0350      0.0634      0.0056
 35      0.0000      0.2951      0.0050      0.0193      0.0354      0.0057      0.0209      0.0000      0.0389
 36      0.0000      0.3698      0.0019      0.0611      0.0333      0.0530      0.0420      0.0754      0.0298
 37      0.0000      0.3692      0.1413      0.1333      0.1529      0.0784      0.0958      0.1254      0.1504
 38      0.0000      0.2818      0.0183      0.0345      0.0230      0.0435      0.0208      0.0094      0.0000
 39      0.0000      0.2500      0.0000      0.0000      0.0351      0.0512      0.0251      0.0000      0.0040
 40      0.0000      0.2805      0.0000      0.0193      0.0173      0.0635      0.0288      0.0000      0.0289
 41      0.0000      0.3213      0.0427      0.0180      0.0335      0.0257      0.0606      0.0587      0.0292
 42      0.0000      0.3129      0.0180      0.1065      0.0365      0.0000      0.0543      0.0160      0.0000
 43      0.0000      0.2948      0.0319      0.0684      0.0519      0.0701      0.0072      0.0000      0.0234
 44      0.0000      0.3051      0.0066      0.0115      0.0993      0.0062      0.0409      0.0233      0.0469
 45      0.0000      0.3844      0.0860      0.0269      0.0036      0.0409      0.0615      0.0438      0.0325
 46      0.0000      0.3468      0.0497      0.0013      0.0650      0.0428      0.0071      0.0171      0.1009
 47      0.0000      0.3556      0.0000      0.0314      0.0880      0.0177      0.0000      0.0000      0.0449
 48      0.0000      3.6558      4.2181      3.4454      3.4047      3.4602      3.4412      8.7313      3.4188
 49      4.0777      2.4709      2.2782      2.2975      2.2345      2.2572      2.2072      5.4652      2.2347
 50     26.4375      1.4395      1.3465      1.3007      1.2769      1.3009      1.2978      2.7884      1.2716
 51      0.0000      0.2675      0.0053      0.0000      0.0023      0.0065      0.0204      0.0212      0.0116
 52      0.0000      0.3688      0.0000      0.0244      0.0000      0.0272      0.0509      0.0230      0.0142
 53      0.0000      0.3244      0.0246      0.0000      0.0796      0.0028      0.0631      0.0000      0.0415
 54      0.0000      0.3459      0.0238      0.0167      0.0000      0.0104      0.0069      0.0329      0.0238
 55      0.0000      0.3786      0.0127      0.0360      0.0099      0.0156      0.0380      0.0078      0.0098
 56      0.0000      0.3014      0.0000      0.0384      0.0080      0.0243      0.0379      0.0000      0.0046
 57      0.0000      0.4042      0.1275      0.0272      0.0135      0.0944      0.0411      0.0000      0.0318
 58      0.0000      0.3354      0.0324      0.0167      0.0000      0.0000      0.0498      0.0370      0.0255
 59      0.0000      0.2873      0.0215      0.0299      0.0139      0.0072      0.0380      0.0000      0.0240
 60     21.7076      1.9016      2.6138      2.5723      2.6450      2.6204      2.6148      0.3609      2.6147
 61     20.5749     38.1757      8.7789     60.1216     60.8860     61.2752     60.3756     61.1208     61.2214
 62      0.0000      2.4633      2.0666      2.0499      1.9848      2.0195      2.0557      7.0569      2.0503
 63      3.7257     38.0186     84.4248     33.4682     32.7068     32.3859     33.3048     18.6574     32.4975
 64      3.7269      1.4162      1.1703      1.1577      1.1987      1.1253      1.1528      2.8078      1.1694
 65      0.0000      0.6521      0.4409      0.4769      0.5074      0.4340      0.4453      1.2124      0.4506
 66     31.4383      0.7046      0.4700      0.4367      0.4718      0.4187      0.5241      0.9777      0.4727

# j      m_j: min, <> & last-chain-values for 1 ...  7 chains
  1  0.0000E+00  3.3340E-03  1.2609E-04  3.7095E-04  1.5830E-04  1.1132E-04  1.4323E-04  0.0000E+00  1.8890E-04
  2  0.0000E+00  6.5164E-04  6.4205E-05  1.0193E-04  9.3560E-05  8.1257E-05  3.3955E-05  0.0000E+00  2.9232E-05
  3  0.0000E+00  1.0098E-03  3.9415E-05  8.3771E-05  0.0000E+00  9.2311E-05  1.7937E-04  5.3273E-05  1.3380E-04
  4  0.0000E+00  8.4892E-04  1.8975E-05  9.2991E-05  9.4086E-05  3.9670E-05  4.5255E-05  8.6787E-06  0.0000E+00
  5  0.0000E+00  1.5190E-03  9.6007E-05  0.0000E+00  3.7024E-04  0.0000E+00  2.5634E-04  3.6399E-05  1.6285E-04
  6  0.0000E+00  2.6392E-03  0.0000E+00  9.0026E-04  5.0784E-04  0.0000E+00  0.0000E+00  2.3083E-04  3.0495E-04
  7  0.0000E+00  4.5059E-03  8.8318E-06  1.8702E-04  5.3800E-04  1.9065E-04  3.1342E-04  0.0000E+00  1.1986E-04
  8  0.0000E+00  6.3870E-03  2.6545E-04  3.5058E-04  2.7802E-04  1.1240E-03  6.5508E-04  4.7930E-04  4.8090E-04
  9  0.0000E+00  6.9355E-03  2.3235E-04  1.7882E-04  3.0928E-04  9.1205E-04  2.5013E-04  0.0000E+00  1.2445E-03
 10  0.0000E+00  7.4502E-03  2.6578E-04  2.6784E-04  3.7252E-03  7.6002E-04  1.3013E-03  1.6739E-03  1.0634E-03
 11  0.0000E+00  1.5533E-02  1.1668E-03  3.9392E-03  6.2799E-04  5.0847E-03  5.3500E-04  1.0544E-03  8.3208E-04
 12  0.0000E+00  2.3372E-02  0.0000E+00  1.8468E-03  0.0000E+00  3.4538E-03  4.5994E-04  1.5048E-03  2.5294E-03
 13  0.0000E+00  9.3440E-02  0.0000E+00  2.1186E-02  8.3023E-03  3.7730E-02  3.6679E-03  7.8810E-03  1.3654E-02
 14  0.0000E+00  2.5948E-01  3.7406E-02  6.9178E-02  1.3819E-02  0.0000E+00  1.4237E-02  1.4918E-02  1.2959E-01
 15  0.0000E+00  3.7648E-01  3.0590E-02  2.5251E-02  7.4057E-02  1.1326E-01  3.2748E-02  0.0000E+00  6.4436E-02
 16  0.0000E+00  6.8702E-01  1.5118E-02  1.0084E-01  9.1554E-02  4.4316E-02  1.6253E-01  1.6230E-02  6.3471E-02
 17  0.0000E+00  7.5998E-01  2.4242E-01  3.8124E-02  2.3459E-01  0.0000E+00  1.2013E-01  1.5267E-03  9.2113E-02
 18  0.0000E+00  2.3085E-03  3.1252E-04  1.8001E-05  7.7977E-04  1.0568E-04  4.1301E-04  7.7094E-05  4.9695E-04
 19  0.0000E+00  9.5852E-04  3.0442E-05  3.6022E-05  2.9497E-06  1.9830E-04  1.3031E-04  0.0000E+00  9.5306E-05
 20  0.0000E+00  9.6239E-04  3.4175E-05  3.0104E-04  1.4791E-06  2.8479E-04  1.0507E-04  1.0809E-04  1.1807E-05
 21  0.0000E+00  1.1395E-03  0.0000E+00  1.7579E-04  3.5016E-05  1.8426E-04  7.2117E-05  3.0768E-05  1.1633E-04
 22  0.0000E+00  2.2240E-03  2.1062E-04  2.7295E-05  3.9467E-05  9.4156E-05  1.2900E-04  0.0000E+00  4.9315E-04
 23  0.0000E+00  2.8642E-03  1.7539E-04  2.1567E-04  1.9756E-04  0.0000E+00  4.0405E-04  2.6124E-04  2.8288E-04
 24  0.0000E+00  4.6854E-03  3.9282E-04  1.0217E-04  3.8335E-04  8.8833E-04  1.9052E-03  2.0909E-04  8.6304E-04
 25  0.0000E+00  4.3606E-03  7.7178E-05  6.8566E-04  7.4698E-04  2.3445E-04  0.0000E+00  1.4580E-04  2.0631E-03
 26  0.0000E+00  9.6052E-03  5.0269E-04  6.1655E-04  1.8136E-05  2.9121E-03  1.0971E-03  1.3608E-05  7.9078E-04
 27  0.0000E+00  2.2404E-02  3.7078E-03  7.0120E-03  3.3638E-03  5.0263E-03  5.0226E-04  0.0000E+00  1.8628E-03
 28  0.0000E+00  6.2031E-02  1.6819E-03  1.3377E-02  8.5811E-03  3.6901E-03  1.0300E-02  5.7456E-03  1.9961E-03
 29  0.0000E+00  9.8620E-02  3.5546E-03  1.9036E-02  2.5110E-02  1.6253E-02  0.0000E+00  0.0000E+00  1.4288E-02
 30  0.0000E+00  2.0779E-01  8.6647E-03  2.2768E-02  9.4420E-03  2.4552E-02  2.9537E-02  1.0171E-02  1.7648E-02
 31  0.0000E+00  3.0635E-01  4.4419E-02  6.3629E-02  0.0000E+00  6.9497E-02  2.7891E-02  1.2503E-03  1.6811E-02
 32  0.0000E+00  6.0361E-01  0.0000E+00  7.9837E-02  1.0573E-01  4.8324E-02  8.6699E-02  7.8830E-02  4.4171E-02
 33  0.0000E+00  1.0989E+00  2.3393E-02  1.5066E-01  0.0000E+00  2.1629E-01  1.6582E-01  2.0179E-02  1.3552E-01
 34  0.0000E+00  1.7912E+00  2.3097E-02  0.0000E+00  5.7557E-01  1.6434E-01  1.6736E-01  2.3251E-01  2.7224E-02
 35  0.0000E+00  1.6182E-03  2.0734E-05  1.1890E-04  2.1811E-04  3.5561E-05  1.2862E-04  0.0000E+00  2.4241E-04
 36  0.0000E+00  8.2041E-04  3.1661E-06  1.5257E-04  8.2892E-05  1.3443E-04  1.0446E-04  1.4365E-04  7.5200E-05
 37  0.0000E+00  8.8600E-04  2.5766E-04  3.5988E-04  4.1191E-04  2.1492E-04  2.5744E-04  2.5839E-04  4.1005E-04
 38  0.0000E+00  1.8319E-03  9.0225E-05  2.5219E-04  1.6754E-04  3.2307E-04  1.5161E-04  5.2198E-05  0.0000E+00
 39  0.0000E+00  2.3400E-03  1.9309E-07  0.0000E+00  3.6917E-04  5.4738E-04  2.6366E-04  0.0000E+00  4.2751E-05
 40  0.0000E+00  4.2439E-03  0.0000E+00  3.2875E-04  2.9342E-04  1.0979E-03  4.8902E-04  0.0000E+00  4.9767E-04
 41  0.0000E+00  7.5601E-03  7.6431E-04  4.7700E-04  8.8532E-04  6.9196E-04  1.5970E-03  1.1865E-03  7.8173E-04
 42  0.0000E+00  1.3517E-02  5.9248E-04  5.1770E-03  1.7720E-03  0.0000E+00  2.6282E-03  5.9244E-04  0.0000E+00
 43  0.0000E+00  1.8595E-02  1.5287E-03  4.8529E-03  3.6762E-03  5.0503E-03  5.0969E-04  0.0000E+00  1.6747E-03
 44  0.0000E+00  3.3133E-02  5.4873E-04  1.4091E-03  1.2111E-02  7.7337E-04  4.9732E-03  2.1722E-03  5.7892E-03
 45  0.0000E+00  8.2827E-02  1.4078E-02  6.5111E-03  8.8019E-04  1.0080E-02  1.4854E-02  8.1099E-03  7.9680E-03
 46  0.0000E+00  1.3735E-01  1.4964E-02  5.8943E-04  2.8892E-02  1.9385E-02  3.1702E-03  5.8295E-03  4.5424E-02
 47  0.0000E+00  2.8544E-01  0.0000E+00  2.8326E-02  7.9285E-02  1.6276E-02  0.0000E+00  0.0000E+00  4.0955E-02
 48  0.0000E+00  5.1746E+00  4.5374E+00  5.4846E+00  5.4103E+00  5.5967E+00  5.4564E+00  1.0609E+01  5.4981E+00
 49  2.6961E+00  7.9488E+00  5.5696E+00  8.3123E+00  8.0701E+00  8.2974E+00  7.9541E+00  1.5092E+01  8.1678E+00
 50  3.2375E+01  8.5772E+00  6.0972E+00  8.7157E+00  8.5414E+00  8.8573E+00  8.6623E+00  1.4262E+01  8.6083E+00
 51  0.0000E+00  8.7375E-04  1.3105E-05  0.0000E+00  8.5848E-06  2.4193E-05  7.4817E-05  5.9542E-05  4.3068E-05
 52  0.0000E+00  6.1731E-04  0.0000E+00  4.5911E-05  4.8837E-09  5.2063E-05  9.5427E-05  3.2979E-05  2.6926E-05
 53  0.0000E+00  8.1779E-04  4.7080E-05  0.0000E+00  2.2542E-04  7.9738E-06  1.7810E-04  0.0000E+00  1.1876E-04
 54  0.0000E+00  1.7871E-03  9.3617E-05  9.7025E-05  0.0000E+00  6.1528E-05  3.9683E-05  1.4592E-04  1.3979E-04
 55  0.0000E+00  3.0113E-03  7.7022E-05  3.2172E-04  8.8384E-05  1.4165E-04  3.3880E-04  5.3034E-05  8.8304E-05
 56  0.0000E+00  4.7452E-03  0.0000E+00  6.8025E-04  1.4065E-04  4.3764E-04  6.6833E-04  0.0000E+00  8.3076E-05
 57  0.0000E+00  8.4464E-03  2.0248E-03  6.3965E-04  3.1594E-04  2.2544E-03  9.6310E-04  0.0000E+00  7.5523E-04
 58  0.0000E+00  1.1854E-02  8.7012E-04  6.6300E-04  0.0000E+00  0.0000E+00  1.9707E-03  1.1223E-03  1.0247E-03
 59  0.0000E+00  2.1851E-02  1.2408E-03  2.5588E-03  1.1871E-03  6.2750E-04  3.2415E-03  0.0000E+00  2.0736E-03
 60  6.3031E-01  2.6865E-01  2.8064E-01  4.0871E-01  4.1951E-01  4.2303E-01  4.1382E-01  4.3772E-02  4.1971E-01
 61  1.3053E+00  1.1784E+01  2.0594E+00  2.0872E+01  2.1100E+01  2.1614E+01  2.0877E+01  1.6195E+01  2.1472E+01
 62  0.0000E+00  1.3864E+00  8.8396E-01  1.2976E+00  1.2542E+00  1.2988E+00  1.2961E+00  3.4094E+00  1.3111E+00
 63  8.5746E-01  4.2573E+01  7.1844E+01  4.2148E+01  4.1117E+01  4.1440E+01  4.1777E+01  1.7934E+01  4.1346E+01
 64  2.3724E+00  4.3864E+00  2.7546E+00  4.0325E+00  4.1680E+00  3.9826E+00  3.9997E+00  7.4650E+00  4.1150E+00
 65  0.0000E+00  4.2697E+00  2.1939E+00  3.5116E+00  3.7295E+00  3.2467E+00  3.2661E+00  6.8135E+00  3.3516E+00
 66  5.9763E+01  6.5167E+00  3.3036E+00  4.5424E+00  4.8996E+00  4.4254E+00  5.4302E+00  7.7624E+00  4.9675E+00

# AV, chi2 & Mass for <> & i_chain = 1 ...  7 solutions
AV      -0.3313      0.2844     -0.0379      0.3208      0.3257      0.3311      0.3232      0.2344      0.3295
chi2 8.5678E-05  2.0500E-04  1.0250E-04  1.3088E-04  1.3118E-04  1.3202E-04  1.3125E-04  1.2335E-04  1.3165E-04
Mass 3.8277E-12  1.7987E-12  1.5352E-12  1.6793E-12  1.6934E-12  1.6759E-12  1.6915E-12  1.9593E-12  1.6818E-12
 -19.74                                  [v0_min (km/s) before EX0s...]
 246.71                                  [vd_min (km/s) before EX0s...]


## Synthetic spectrum (Best Model) ##l_obs f_obs f_syn wei
 3478    [Nl_obs]
 3741.00    0.38812   0.46400    0.000
 3742.00    0.37911   0.45944    0.000
 3743.00    0.36813   0.44507    0.000
 3744.00    0.35122   0.42492    0.000
 3745.00    0.33085   0.40445    0.282
 3746.00    0.36069   0.38831    0.284
 3747.00    0.41603   0.38018    0.286
 3748.00    0.44678   0.38165    0.295
 3749.00    0.46673   0.39209    0.307
 3750.00    0.47568   0.41269    0.302
 3751.00    0.48049   0.44273    0.292
 3752.00    0.47039   0.47521    0.285
 3753.00    0.45553   0.50147    0.280
 3754.00    0.49538   0.51872    0.284
 3755.00    0.54988   0.52887    0.289
 3756.00    0.54585   0.53143    0.282
 3757.00    0.52897   0.52506    0.273
 3758.00    0.50399   0.51261    0.268
 3759.00    0.47760   0.50130    0.264
 3760.00    0.47638   0.49671    0.266
 3761.00    0.47851   0.49707    0.269
 3762.00    0.48340   0.49733    0.268
 3763.00    0.48854   0.49664    0.267
 3764.00    0.49185   0.49746    0.267
 3765.00    0.49506   0.50131    0.266
 3766.00    0.50733   0.50673    0.266
 3767.00    0.51984   0.51210    0.266
 3768.00    0.53735   0.52065    0.264
 3769.00    0.55488   0.53483    0.262
 3770.00    0.57307   0.55078    0.264
 3771.00    0.58988   0.56542    0.265
 3772.00    0.58863   0.58115    0.270
 3773.00    0.58716   0.59860    0.275
 3774.00    0.58374   0.61471    0.274
 3775.00    0.58209   0.62887    0.274
 3776.00    0.59186   0.64326    0.273
 3777.00    0.60219   0.65851    0.273
 3778.00    0.61539   0.67294    0.280
 3779.00    0.62657   0.68527    0.286
 3780.00    0.62950   0.69542    0.290
 3781.00    0.63468   0.69992    0.294
 3782.00    0.64748   0.69483    0.296
 3783.00    0.65295   0.68200    0.300
 3784.00    0.63743   0.66442    0.309
 3785.00    0.62072   0.64249    0.310
 3786.00    0.60108   0.61598    0.297
 3787.00    0.58093   0.58883    0.285
 3788.00    0.55970   0.56647    0.275
 3789.00    0.53005   0.54842    0.268
 3790.00    0.48501   0.53256    0.264
 3791.00    0.45574   0.51936    0.261
 3792.00    0.45175   0.50834    0.262
 3793.00    0.44886   0.49550    0.260
 3794.00    0.44753   0.47996    0.253
 3795.00    0.44413   0.46679    0.250
 3796.00    0.43815   0.46072    0.250
 3797.00    0.43911   0.46209    0.254
 3798.00    0.44762   0.46895    0.261
 3799.00    0.46513   0.48263    0.265
 3800.00    0.49127   0.50488    0.267
 3801.00    0.51719   0.53218    0.269
 3802.00    0.54292   0.55781    0.271
 3803.00    0.56476   0.57901    0.272
 3804.00    0.58370   0.59706    0.273
 3805.00    0.60093   0.61130    0.270
 3806.00    0.61703   0.62036    0.266
 3807.00    0.61985   0.62440    0.263
 3808.00    0.61504   0.62540    0.261
 3809.00    0.59232   0.62470    0.260
 3810.00    0.56063   0.62030    0.261
 3811.00    0.53120   0.61007    0.263
 3812.00    0.50275   0.59479    0.268
 3813.00    0.48072   0.57682    0.262
 3814.00    0.46107   0.55802    0.252
 3815.00    0.43434   0.53995    0.249
 3816.00    0.40538   0.52350    0.248
 3817.00    0.42288   0.51093    0.251
 3818.00    0.45256   0.50312    0.255
 3819.00    0.45199   0.49512    0.254
 3820.00    0.44493   0.48313    0.252
 3821.00    0.42487   0.47012    0.249
 3822.00    0.40261   0.46036    0.245
 3823.00    0.42208   0.45253    0.250
 3824.00    0.44692   0.44193    0.257
 3825.00    0.39898   0.42887    0.256
 3826.00    0.34452   0.41806    0.254
 3827.00    0.35868   0.41023    0.251
 3828.00    0.37653   0.40235    0.248
 3829.00    0.37484   0.39327    0.247
 3830.00    0.37270   0.38416    0.246
 3831.00    0.36606   0.37586    0.249
 3832.00    0.36037   0.36770    0.252
 3833.00    0.37570   0.35973    0.249
 3834.00    0.38819   0.35446    0.245
 3835.00    0.36557   0.35385    0.240
 3836.00    0.34451   0.35815    0.236
 3837.00    0.33659   0.36702    0.235
 3838.00    0.33366   0.38029    0.234
 3839.00    0.36210   0.39779    0.237
 3840.00    0.38647   0.41912    0.240
 3841.00    0.39071   0.44281    0.246
 3842.00    0.40123   0.46801    0.253
 3843.00    0.43682   0.49349    0.260
 3844.00    0.46632   0.51523    0.264
 3845.00    0.47555   0.53070    0.258
 3846.00    0.48264   0.54082    0.255
 3847.00    0.48373   0.54867    0.000
 3848.00    0.48327   0.55549    0.000
 3849.00    0.47908   0.55874    0.000
 3850.00    0.47254   0.55779    0.000
 3851.00    0.46111   0.55628    0.000
 3852.00    0.45682   0.55611    0.000
 3853.00    0.46541   0.55443    0.000
 3854.00    0.48039   0.54876    0.000
 3855.00    0.50543   0.54087    0.000
 3856.00    0.50943   0.53353    0.000
 3857.00    0.48432   0.52924    0.000
 3858.00    0.46859   0.52960    0.000
 3859.00    0.46430   0.53263    0.000
 3860.00    0.47260   0.53766    0.000
 3861.00    0.49443   0.54678    0.000
 3862.00    0.51377   0.55926    0.000
 3863.00    0.53076   0.57096    0.000
 3864.00    0.54387   0.57832    0.000
 3865.00    0.55374   0.58103    0.000
 3866.00    0.56861   0.58018    0.000
 3867.00    0.58715   0.57659    0.000
 3868.00    0.58173   0.57079    0.000
 3869.00    0.56081   0.56411    0.000
 3870.00    0.53959   0.55877    0.000
 3871.00    0.51821   0.55560    0.000
 3872.00    0.51506   0.55384    0.000
 3873.00    0.52090   0.55242    0.000
 3874.00    0.51227   0.55187    0.000
 3875.00    0.49751   0.55276    0.000
 3876.00    0.48608   0.55260    0.000
 3877.00    0.47587   0.54773    0.000
 3878.00    0.47610   0.53835    0.000
 3879.00    0.47955   0.52964    0.000
 3880.00    0.48069   0.52565    0.000
 3881.00    0.48124   0.52137    0.241
 3882.00    0.51694   0.51158    0.244
 3883.00    0.55999   0.50143    0.247
 3884.00    0.54616   0.49654    0.248
 3885.00    0.52296   0.49352    0.249
 3886.00    0.52268   0.48926    0.252
 3887.00    0.52524   0.48990    0.256
 3888.00    0.51724   0.50079    0.252
 3889.00    0.50834   0.51817    0.248
 3890.00    0.54017   0.53773    0.251
 3891.00    0.57402   0.55919    0.255
 3892.00    0.58982   0.58143    0.255
 3893.00    0.60537   0.60152    0.255
 3894.00    0.62351   0.61620    0.263
 3895.00    0.64130   0.62495    0.271
 3896.00    0.65213   0.63103    0.265
 3897.00    0.66357   0.63850    0.259
 3898.00    0.68216   0.64555    0.257
 3899.00    0.69830   0.64816    0.254
 3900.00    0.69446   0.64940    0.252
 3901.00    0.68743   0.65329    0.250
 3902.00    0.66101   0.65818    0.245
 3903.00    0.63687   0.66137    0.240
 3904.00    0.62374   0.66663    0.235
 3905.00    0.61653   0.67716    0.232
 3906.00    0.63252   0.68982    0.233
 3907.00    0.64883   0.70490    0.235
 3908.00    0.66620   0.72458    0.240
 3909.00    0.68584   0.74460    0.243
 3910.00    0.71174   0.75964    0.244
 3911.00    0.72565   0.76920    0.245
 3912.00    0.71126   0.77410    0.248
 3913.00    0.70332   0.77281    0.251
 3914.00    0.70855   0.76470    0.254
 3915.00    0.71116   0.75177    0.257
 3916.00    0.70912   0.73540    0.261
 3917.00    0.69310   0.71602    0.263
 3918.00    0.65537   0.69674    0.261
 3919.00    0.61759   0.67914    0.256
 3920.00    0.57977   0.66237    0.247
 3921.00    0.56151   0.64643    0.244
 3922.00    0.56674   0.63151    0.247
 3923.00    0.56971   0.61604    0.250
 3924.00    0.57027   0.59720    0.252
 3925.00    0.54878   0.57319    0.249
 3926.00    0.50669   0.54266    0.242
 3927.00    0.47904   0.50658    0.242
 3928.00    0.46328   0.46729    0.249
 3929.00    0.42845   0.42724    0.248
 3930.00    0.37980   0.39010    0.242
 3931.00    0.34523   0.35965    0.237
 3932.00    0.31962   0.33919    0.235
 3933.00    0.30084   0.33067    0.231
 3934.00    0.28587   0.33478    0.226
 3935.00    0.29614   0.35136    0.226
 3936.00    0.31864   0.37853    0.227
 3937.00    0.36039   0.41247    0.232
 3938.00    0.41018   0.44877    0.239
 3939.00    0.47183   0.48425    0.245
 3940.00    0.53772   0.51674    0.250
 3941.00    0.53937   0.54561    0.246
 3942.00    0.52159   0.57229    0.240
 3943.00    0.54401   0.59700    0.244
 3944.00    0.57653   0.61802    0.250
 3945.00    0.60033   0.63807    0.252
 3946.00    0.62237   0.66195    0.254
 3947.00    0.64657   0.68622    0.258
 3948.00    0.67111   0.70371    0.263
 3949.00    0.68640   0.71628    0.261
 3950.00    0.70057   0.73058    0.259
 3951.00    0.73211   0.74441    0.261
 3952.00    0.76507   0.74955    0.264
 3953.00    0.75694   0.74614    0.263
 3954.00    0.74693   0.74210    0.262
 3955.00    0.72581   0.73744    0.262
 3956.00    0.70423   0.72355    0.262
 3957.00    0.66573   0.69887    0.257
 3958.00    0.62921   0.67015    0.252
 3959.00    0.63029   0.64016    0.254
 3960.00    0.62654   0.60509    0.000
 3961.00    0.56851   0.56235    0.000
 3962.00    0.51469   0.51583    0.000
 3963.00    0.49402   0.47161    0.000
 3964.00    0.47100   0.43117    0.000
 3965.00    0.43402   0.39354    0.000
 3966.00    0.39481   0.36106    0.000
 3967.00    0.34511   0.33839    0.000
 3968.00    0.31414   0.32835    0.000
 3969.00    0.35495   0.33135    0.000
 3970.00    0.39585   0.34749    0.000
 3971.00    0.43700   0.37673    0.000
 3972.00    0.47336   0.41686    0.000
 3973.00    0.49671   0.46367    0.000
 3974.00    0.53286   0.51414    0.000
 3975.00    0.59869   0.56683    0.000
 3976.00    0.65818   0.61892    0.000
 3977.00    0.70489   0.66617    0.000
 3978.00    0.74286   0.70683    0.000
 3979.00    0.76552   0.74189    0.000
 3980.00    0.79842   0.77203    0.000
 3981.00    0.84701   0.79656    0.268
 3982.00    0.88376   0.81523    0.271
 3983.00    0.90459   0.83061    0.275
 3984.00    0.90770   0.84647    0.275
 3985.00    0.88983   0.86292    0.270
 3986.00    0.88754   0.87693    0.268
 3987.00    0.90151   0.88857    0.269
 3988.00    0.91614   0.90112    0.272
 3989.00    0.93137   0.91340    0.277
 3990.00    0.93995   0.92078    0.274
 3991.00    0.94313   0.92467    0.265
 3992.00    0.95382   0.92895    0.262
 3993.00    0.96990   0.93198    0.263
 3994.00    0.96953   0.93188    0.265
 3995.00    0.95885   0.93216    0.267
 3996.00    0.96085   0.93662    0.270
 3997.00    0.96981   0.94249    0.274
 3998.00    0.96113   0.94780    0.271
 3999.00    0.94405   0.95635    0.266
 4000.00    0.93913   0.96731    0.266
 4001.00    0.93920   0.97170    0.268
 4002.00    0.95504   0.96808    0.274
 4003.00    0.97642   0.96586    0.281
 4004.00    0.99033   0.96667    0.280
 4005.00    1.00203   0.96409    0.277
 4006.00    0.98356   0.96119    0.273
 4007.00    0.95768   0.96759    0.270
 4008.00    0.96672   0.98188    0.271
 4009.00    0.98270   0.99573    0.273
 4010.00    1.01310   1.00782    0.273
 4011.00    1.04575   1.02103    0.273
 4012.00    1.05681   1.03464    0.276
 4013.00    1.06539   1.04478    0.279
 4014.00    1.05517   1.05093    0.275
 4015.00    1.04349   1.05692    0.272
 4016.00    1.05376   1.06397    0.270
 4017.00    1.06495   1.06716    0.268
 4018.00    1.06334   1.06608    0.266
 4019.00    1.06138   1.06668    0.265
 4020.00    1.04916   1.06821    0.267
 4021.00    1.03763   1.06500    0.268
 4022.00    1.03822   1.05974    0.268
 4023.00    1.04123   1.05732    0.268
 4024.00    1.07018   1.05480    0.270
 4025.00    1.09041   1.04843    0.272
 4026.00    1.04440   1.03840    0.275
 4027.00    1.00046   1.02411    0.279
 4028.00    0.96847   1.00589    0.283
 4029.00    0.93982   0.98561    0.287
 4030.00    0.92644   0.96324    0.290
 4031.00    0.90414   0.94295    0.288
 4032.00    0.84840   0.93354    0.269
 4033.00    0.81997   0.93741    0.259
 4034.00    0.87717   0.95004    0.274
 4035.00    0.93442   0.96928    0.289
 4036.00    0.99182   0.99273    0.299
 4037.00    1.02823   1.01450    0.301
 4038.00    1.01671   1.02936    0.282
 4039.00    1.01645   1.03532    0.272
 4040.00    1.03844   1.02977    0.276
 4041.00    1.04799   1.01163    0.278
 4042.00    1.03611   0.98744    0.274
 4043.00    1.01569   0.96688    0.272
 4044.00    0.98240   0.95178    0.272
 4045.00    0.95125   0.93934    0.272
 4046.00    0.92294   0.93470    0.272
 4047.00    0.91821   0.94543    0.271
 4048.00    0.94101   0.96613    0.267
 4049.00    0.96823   0.98423    0.267
 4050.00    1.00000   0.99697    0.271
 4051.00    0.99782   1.00632    0.272
 4052.00    0.96482   1.00998    0.271
 4053.00    0.95965   1.00633    0.275
 4054.00    0.97674   0.99636    0.285
 4055.00    0.96752   0.98328    0.284
 4056.00    0.93978   0.97224    0.275
 4057.00    0.91539   0.96432    0.271
 4058.00    0.89307   0.95480    0.270
 4059.00    0.89516   0.94224    0.270
 4060.00    0.91044   0.93082    0.273
 4061.00    0.90240   0.92427    0.273
 4062.00    0.88343   0.92037    0.274
 4063.00    0.86129   0.91329    0.269
 4064.00    0.83786   0.90735    0.262
 4065.00    0.86507   0.91360    0.265
 4066.00    0.90973   0.92842    0.270
 4067.00    0.91396   0.93641    0.270
 4068.00    0.90644   0.93758    0.269
 4069.00    0.92061   0.94372    0.268
 4070.00    0.93999   0.95249    0.267
 4071.00    0.92567   0.95096    0.264
 4072.00    0.90482   0.94091    0.262
 4073.00    0.93183   0.93420    0.262
 4074.00    0.96606   0.93244    0.263
 4075.00    0.93480   0.93029    0.259
 4076.00    0.89630   0.92920    0.254
 4077.00    0.92319   0.93419    0.257
 4078.00    0.95487   0.94636    0.259
 4079.00    0.96230   0.96280    0.264
 4080.00    0.96881   0.98090    0.269
 4081.00    0.97623   0.99998    0.268
 4082.00    0.98463   1.01778    0.267
 4083.00    1.02999   1.03205    0.265
 4084.00    1.07202   1.04499    0.262
 4085.00    1.05922   1.05810    0.265
 4086.00    1.04860   1.06908    0.268
 4087.00    1.06054   1.07747    0.269
 4088.00    1.07009   1.08370    0.270
 4089.00    1.06217   1.08491    0.268
 4090.00    1.05454   1.08003    0.267
 4091.00    1.04853   1.06915    0.272
 4092.00    1.03753   1.04995    0.000
 4093.00    1.00418   1.02432    0.000
 4094.00    0.96921   0.99724    0.000
 4095.00    0.92827   0.96818    0.000
 4096.00    0.89248   0.93545    0.000
 4097.00    0.87252   0.90292    0.000
 4098.00    0.86240   0.87503    0.000
 4099.00    0.87799   0.85476    0.000
 4100.00    0.88852   0.84232    0.000
 4101.00    0.88770   0.83596    0.000
 4102.00    0.89008   0.83860    0.000
 4103.00    0.89871   0.85309    0.000
 4104.00    0.91241   0.87312    0.000
 4105.00    0.93468   0.89299    0.000
 4106.00    0.95446   0.91335    0.000
 4107.00    0.97054   0.93275    0.000
 4108.00    0.97005   0.94754    0.000
 4109.00    0.94791   0.95907    0.000
 4110.00    0.95773   0.97002    0.000
 4111.00    1.00434   0.97961    0.000
 4112.00    1.02521   0.98798    0.000
 4113.00    1.01994   0.99763    0.274
 4114.00    1.00789   1.00678    0.270
 4115.00    0.98977   1.01036    0.260
 4116.00    0.97997   1.01061    0.257
 4117.00    0.97674   1.01253    0.257
 4118.00    0.98305   1.01191    0.260
 4119.00    0.99599   1.00595    0.263
 4120.00    0.98333   1.00192    0.261
 4121.00    0.95509   1.00383    0.258
 4122.00    0.97498   1.00532    0.263
 4123.00    1.02043   1.00302    0.274
 4124.00    1.01219   1.00062    0.272
 4125.00    0.97919   0.99839    0.264
 4126.00    0.97574   0.99285    0.263
 4127.00    0.98402   0.98275    0.266
 4128.00    0.97117   0.97020    0.268
 4129.00    0.95117   0.95756    0.270
 4130.00    0.93287   0.94816    0.268
 4131.00    0.91504   0.94276    0.265
 4132.00    0.90480   0.94268    0.264
 4133.00    0.89633   0.94904    0.262
 4134.00    0.92531   0.95985    0.263
 4135.00    0.96136   0.97369    0.263
 4136.00    0.96968   0.98860    0.262
 4137.00    0.97395   0.99985    0.261
 4138.00    0.96908   1.00387    0.264
 4139.00    0.96323   1.00002    0.268
 4140.00    0.97402   0.98883    0.273
 4141.00    0.98595   0.97564    0.277
 4142.00    0.92125   0.96426    0.269
 4143.00    0.85391   0.95179    0.261
 4144.00    0.91198   0.94155    0.261
 4145.00    0.96797   0.94024    0.261
 4146.00    0.94716   0.94349    0.262
 4147.00    0.92684   0.94515    0.264
 4148.00    0.91425   0.94724    0.263
 4149.00    0.90363   0.94941    0.263
 4150.00    0.91249   0.94822    0.260
 4151.00    0.91867   0.94497    0.258
 4152.00    0.90583   0.94366    0.260
 4153.00    0.90028   0.94328    0.262
 4154.00    0.93453   0.94404    0.268
 4155.00    0.96287   0.94988    0.271
 4156.00    0.96540   0.96079    0.266
 4157.00    0.96095   0.97267    0.261
 4158.00    0.93138   0.98540    0.256
 4159.00    0.90670   1.00223    0.253
 4160.00    0.89678   1.01774    0.250
 4161.00    0.90207   1.02615    0.249
 4162.00    0.94640   1.03172    0.252
 4163.00    0.97156   1.03599    0.254
 4164.00    0.95440   1.03298    0.255
 4165.00    0.93821   1.02447    0.257
 4166.00    0.92391   1.01661    0.258
 4167.00    0.92322   1.00646    0.261
 4168.00    0.94532   0.99103    0.265
 4169.00    0.94697   0.97433    0.267
 4170.00    0.91867   0.95962    0.265
 4171.00    0.89640   0.94561    0.261
 4172.00    0.88187   0.93167    0.254
 4173.00    0.86343   0.92006    0.329
 4174.00    0.84055   0.91324    0.988
 4175.00    0.84201   0.91148   -1.000
 4176.00    0.86783   0.91412   -1.000
 4177.00    0.88017   0.91990   -1.000
 4178.00    0.88059   0.92667   -1.000
 4179.00    0.86853   0.93496   -1.000
 4180.00    0.84677   0.94542   -1.000
 4181.00    0.85619   0.95542   -1.000
 4182.00    0.88694   0.96469   -1.000
 4183.00    0.90117   0.97225   -1.000
 4184.00    0.90550   0.97623   -1.000
 4185.00    0.90522   0.98111   -1.000
 4186.00    0.90253   0.98908   -1.000
 4187.00    0.97902   0.99303    0.735
 4188.00    1.09143   0.99263    0.300
 4189.00    1.11111   0.99772    0.258
 4190.00    1.09461   1.00620    0.259
 4191.00    1.07094   1.00668    0.257
 4192.00    1.04490   1.00039    0.254
 4193.00    1.05089   0.99526    0.255
 4194.00    1.06581   0.98808    0.257
 4195.00    1.03560   0.97192    0.255
 4196.00    0.99504   0.95400    0.251
 4197.00    0.99623   0.94273    0.255
 4198.00    1.00509   0.93291    0.260
 4199.00    1.02263   0.92400    0.260
 4200.00    1.04139   0.92545    0.258
 4201.00    1.03957   0.93525    0.255
 4202.00    1.03566   0.94561    0.252
 4203.00    1.02512   0.96032    0.252
 4204.00    1.01415   0.98132    0.253
 4205.00    1.04515   1.00140    0.256
 4206.00    1.07743   1.01748    0.258
 4207.00    1.10223   1.03146    0.260
 4208.00    1.12647   1.04282    0.263
 4209.00    1.13404   1.04935    0.262
 4210.00    1.14164   1.05043    0.261
 4211.00    1.14963   1.04837    0.261
 4212.00    1.15611   1.04498    0.261
 4213.00    1.14825   1.04289    0.261
 4214.00    1.13868   1.04558    0.261
 4215.00    1.11727   1.05043    0.258
 4216.00    1.09982   1.05466    0.256
 4217.00    1.10340   1.06236    0.256
 4218.00    1.10567   1.07099    0.256
 4219.00    1.10238   1.06852    0.256
 4220.00    1.10322   1.05418    0.257
 4221.00    1.11868   1.03399    0.260
 4222.00    1.11715   1.00571    0.261
 4223.00    1.06531   0.96797    0.256
 4224.00    1.01584   0.93258    0.252
 4225.00    0.97237   0.91087    0.252
 4226.00    0.94688   0.89932    0.250
 4227.00    0.96047   0.89688    0.248
 4228.00    0.96324   0.91122    0.246
 4229.00    0.94560   0.93630    0.243
 4230.00    0.95487   0.95871    0.242
 4231.00    1.00846   0.98058    0.241
 4232.00    1.03982   1.00128    0.242
 4233.00    1.03910   1.01111    0.245
 4234.00    1.04474   1.01627    0.247
 4235.00    1.05848   1.02484    0.250
 4236.00    1.06506   1.03043    0.250
 4237.00    1.06364   1.03621    0.247
 4238.00    1.05838   1.05189    0.244
 4239.00    1.04933   1.06952    0.241
 4240.00    1.06977   1.08374    0.242
 4241.00    1.11588   1.10211    0.246
 4242.00    1.15716   1.12005    0.249
 4243.00    1.19473   1.12669    0.250
 4244.00    1.20271   1.12511    0.250
 4245.00    1.19073   1.12151    0.250
 4246.00    1.17913   1.11039    0.254
 4247.00    1.16774   1.08843    0.263
 4248.00    1.13328   1.06608    0.266
 4249.00    1.08696   1.05055    0.266
 4250.00    1.05763   1.03577    0.261
 4251.00    1.03589   1.01999    0.254
 4252.00    1.05156   1.01325    0.254
 4253.00    1.08157   1.01657    0.258
 4254.00    1.11110   1.01883    0.253
 4255.00    1.14048   1.01905    0.245
 4256.00    1.09504   1.02470    0.243
 4257.00    1.02919   1.03304    0.242
 4258.00    1.06251   1.03910    0.245
 4259.00    1.11805   1.04795    0.249
 4260.00    1.15165   1.06279    0.250
 4261.00    1.18133   1.07820    0.251
 4262.00    1.16458   1.09424    0.250
 4263.00    1.14148   1.11247    0.250
 4264.00    1.11807   1.12300    0.247
 4265.00    1.09463   1.12117    0.243
 4266.00    1.07039   1.11277    0.243
 4267.00    1.04611   1.09501    0.242
 4268.00    1.04572   1.06259    0.243
 4269.00    1.04603   1.02727    0.244
 4270.00    1.05596   1.00024    0.245
 4271.00    1.06411   0.97572    0.246
 4272.00    1.02505   0.95690    0.245
 4273.00    0.98880   0.95682    0.244
 4274.00    0.99118   0.97045    0.244
 4275.00    0.99804   0.98712    0.245
 4276.00    1.04556   1.00907    0.249
 4277.00    1.09003   1.03471    0.252
 4278.00    1.11423   1.05573    0.250
 4279.00    1.13790   1.06958    0.248
 4280.00    1.15893   1.07675    0.250
 4281.00    1.17347   1.07808    0.250
 4282.00    1.16089   1.07404   -2.000
 4283.00    1.14660   1.06352   -2.000
 4284.00    1.12642   1.05044   -2.000
 4285.00    1.11172   1.03719   -2.000
 4286.00    1.11293   1.01963   -2.000
 4287.00    1.10941   1.00206   -2.000
 4288.00    1.09417   0.99014   -2.000
 4289.00    1.08482   0.98110   -2.000
 4290.00    1.08808   0.97364   -2.000
 4291.00    1.08990   0.96949   -2.000
 4292.00    1.08905   0.96929   -2.000
 4293.00    1.07692   0.96797   -2.000
 4294.00    1.04649   0.96073   -2.000
 4295.00    1.03915   0.94858   -2.000
 4296.00    1.06466   0.93191   -2.000
 4297.00    1.07015   0.90999   -2.000
 4298.00    1.05059   0.88628    0.251
 4299.00    1.00581   0.86271    0.248
 4300.00    0.93322   0.83947    0.244
 4301.00    0.89802   0.82260    0.242
 4302.00    0.89919   0.81117    0.242
 4303.00    0.88514   0.79976    0.243
 4304.00    0.85804   0.79288    0.245
 4305.00    0.85334   0.79179    0.243
 4306.00    0.86555   0.79277    0.240
 4307.00    0.86698   0.79991    0.239
 4308.00    0.86126   0.81522    0.239
 4309.00    0.88389   0.83816    0.242
 4310.00    0.92300   0.87280    0.247
 4311.00    0.95919   0.91556    0.246
 4312.00    0.99390   0.96278    0.243
 4313.00    1.04707   1.01745    0.242
 4314.00    1.10834   1.07233    0.241
 4315.00    1.15444   1.11828    0.243
 4316.00    1.19484   1.15825    0.246
 4317.00    1.20411   1.18865    0.247
 4318.00    1.20344   1.19934    0.247
 4319.00    1.21498   1.19492    0.249
 4320.00    1.22979   1.18106    0.252
 4321.00    1.23050   1.15539    0.252
 4322.00    1.22812   1.12373    0.251
 4323.00    1.19539   1.09581    0.255
 4324.00    1.15738   1.07540    0.259
 4325.00    1.12317   1.06649    0.255
 4326.00    1.08945   1.07085    0.250
 4327.00    1.10652   1.08516    0.249
 4328.00    1.12834   1.10883    0.249
 4329.00    1.18149   1.13731    0.249
 4330.00    1.23644   1.16058    0.000
 4331.00    1.27516   1.17516    0.000
 4332.00    1.31294   1.18376    0.000
 4333.00    1.28755   1.18134    0.000
 4334.00    1.26301   1.16044    0.000
 4335.00    1.25890   1.13143    0.000
 4336.00    1.25242   1.10341    0.000
 4337.00    1.21527   1.06865    0.000
 4338.00    1.17817   1.03357    0.000
 4339.00    1.14155   1.01626    0.000
 4340.00    1.11326   1.01073    0.000
 4341.00    1.13878   1.00921    0.000
 4342.00    1.16299   1.02550    0.000
 4343.00    1.18067   1.05603    0.000
 4344.00    1.18613   1.08170    0.000
 4345.00    1.14175   1.10573    0.000
 4346.00    1.11257   1.13383    0.000
 4347.00    1.13484   1.15240    0.000
 4348.00    1.16762   1.15656    0.000
 4349.00    1.23039   1.15784    0.000
 4350.00    1.24938   1.15971    0.000
 4351.00    1.16164   1.15646    0.299
 4352.00    1.11084   1.15101    0.286
 4353.00    1.13772   1.15414    0.263
 4354.00    1.16685   1.16573    0.249
 4355.00    1.20006   1.17654    0.244
 4356.00    1.22270   1.18824    0.241
 4357.00    1.22844   1.20706    0.241
 4358.00    1.25233   1.22791    0.242
 4359.00    1.30166   1.24419    0.242
 4360.00    1.34180   1.25856    0.243
 4361.00    1.37060   1.27456    0.243
 4362.00    1.37397   1.28832    0.244
 4363.00    1.34969   1.29498    0.245
 4364.00    1.33191   1.29573    0.244
 4365.00    1.32036   1.29405    0.243
 4366.00    1.32642   1.28806    0.244
 4367.00    1.34737   1.27436    0.249
 4368.00    1.33192   1.25725    0.250
 4369.00    1.28935   1.24213    0.248
 4370.00    1.25248   1.22674    0.245
 4371.00    1.21934   1.20930    0.241
 4372.00    1.21838   1.19477    0.241
 4373.00    1.23585   1.18510    0.243
 4374.00    1.21098   1.17676    0.242
 4375.00    1.16498   1.16952    0.240
 4376.00    1.16410   1.16311    0.240
 4377.00    1.18268   1.15384    0.241
 4378.00    1.17246   1.14032    0.243
 4379.00    1.15158   1.12173    0.244
 4380.00    1.14208   1.09629    0.245
 4381.00    1.13614   1.06768    0.246
 4382.00    1.10878   1.04333    0.242
 4383.00    1.07581   1.02453    0.237
 4384.00    1.07919   1.01148    0.236
 4385.00    1.09032   1.01066    0.235
 4386.00    1.11251   1.02315    0.238
 4387.00    1.13656   1.04073    0.240
 4388.00    1.16151   1.06003    0.239
 4389.00    1.18657   1.08374    0.237
 4390.00    1.21354   1.10883    0.236
 4391.00    1.24068   1.12915    0.235
 4392.00    1.22757   1.14658    0.237
 4393.00    1.21232   1.16532    0.239
 4394.00    1.23028   1.18162    0.239
 4395.00    1.24898   1.19191    0.238
 4396.00    1.27561   1.20015    0.239
 4397.00    1.29933   1.20519    0.239
 4398.00    1.25892   1.20029    0.242
 4399.00    1.22249   1.19007    0.244
 4400.00    1.23522   1.17879    0.244
 4401.00    1.24419   1.15935    0.243
 4402.00    1.22141   1.13743    0.242
 4403.00    1.19964   1.12493    0.241
 4404.00    1.18415   1.11513    0.239
 4405.00    1.17567   1.10636    0.239
 4406.00    1.20170   1.11214    0.244
 4407.00    1.21820   1.12987    0.248
 4408.00    1.19667   1.14562    0.247
 4409.00    1.19044   1.16280    0.245
 4410.00    1.23496   1.18689    0.241
 4411.00    1.27742   1.20474    0.239
 4412.00    1.31409   1.21086    0.241
 4413.00    1.33301   1.21785    0.243
 4414.00    1.30940   1.22506    0.243
 4415.00    1.29245   1.22459    0.244
 4416.00    1.28925   1.22600    0.245
 4417.00    1.27812   1.23456    0.244
 4418.00    1.25270   1.24078    0.241
 4419.00    1.24231   1.24453    0.238
 4420.00    1.25555   1.25057    0.237
 4421.00    1.28074   1.25475    0.238
 4422.00    1.32242   1.25468    0.241
 4423.00    1.34010   1.25316    0.242
 4424.00    1.32860   1.25150    0.242
 4425.00    1.31991   1.24991    0.242
 4426.00    1.31423   1.24808    0.242
 4427.00    1.28665   1.24436    0.241
 4428.00    1.23835   1.24009    0.240
 4429.00    1.23069   1.23750    0.240
 4430.00    1.25693   1.23255    0.240
 4431.00    1.27393   1.22517    0.241
 4432.00    1.28415   1.22203    0.241
 4433.00    1.28401   1.22193    0.242
 4434.00    1.27717   1.22260    0.243
 4435.00    1.28808   1.22749    0.245
 4436.00    1.30898   1.23633    0.248
 4437.00    1.32453   1.24625    0.252
 4438.00    1.33746   1.25490    0.256
 4439.00    1.31156   1.26219    0.254
 4440.00    1.26919   1.26874    0.251
 4441.00    1.27359   1.27270    0.247
 4442.00    1.29499   1.27712    0.244
 4443.00    1.33397   1.28502    0.246
 4444.00    1.37836   1.29196    0.250
 4445.00    1.37519   1.30000    0.248
 4446.00    1.35984   1.31135    0.244
 4447.00    1.37230   1.31649    0.243
 4448.00    1.39056   1.31487    0.243
 4449.00    1.37224   1.31205    0.243
 4450.00    1.34791   1.30123    0.244
 4451.00    1.33301   1.28134    0.242
 4452.00    1.31928   1.25975    0.239
 4453.00    1.29578   1.23622    0.237
 4454.00    1.27146   1.21164    0.236
 4455.00    1.24014   1.18886    0.236
 4456.00    1.20849   1.16922    0.235
 4457.00    1.21194   1.15717    0.233
 4458.00    1.21550   1.15093    0.232
 4459.00    1.19087   1.14681    0.232
 4460.00    1.16965   1.15140    0.231
 4461.00    1.21744   1.16363    0.000
 4462.00    1.26374   1.17431    0.000
 4463.00    1.29250   1.18757    0.000
 4464.00    1.31822   1.20628    0.000
 4465.00    1.31935   1.22176    0.000
 4466.00    1.31605   1.23424    0.000
 4467.00    1.28576   1.24962    0.000
 4468.00    1.26817   1.26594    0.000
 4469.00    1.31149   1.28062    0.000
 4470.00    1.35458   1.29720    0.000
 4471.00    1.39679   1.31761    0.000
 4472.00    1.42879   1.33670    0.000
 4473.00    1.42761   1.35255    0.000
 4474.00    1.41953   1.36752    0.000
 4475.00    1.39247   1.37756    0.000
 4476.00    1.36637   1.37920    0.000
 4477.00    1.34258   1.37644    0.000
 4478.00    1.33145   1.37098    0.000
 4479.00    1.34611   1.36165    0.000
 4480.00    1.35853   1.35302    0.000
 4481.00    1.36694   1.34922    0.000
 4482.00    1.36981   1.34795    0.235
 4483.00    1.36408   1.34935    0.236
 4484.00    1.36300   1.35429    0.235
 4485.00    1.36826   1.35774    0.232
 4486.00    1.37377   1.35788    0.230
 4487.00    1.37960   1.35609    0.229
 4488.00    1.38535   1.35036    0.228
 4489.00    1.39104   1.34168    0.229
 4490.00    1.39092   1.33351    0.229
 4491.00    1.38541   1.32552    0.228
 4492.00    1.37470   1.31916    0.227
 4493.00    1.35972   1.31772    0.228
 4494.00    1.35473   1.31975    0.228
 4495.00    1.35699   1.32505    0.229
 4496.00    1.36243   1.33625    0.230
 4497.00    1.36991   1.35227    0.231
 4498.00    1.39719   1.37027    0.231
 4499.00    1.43548   1.39004    0.231
 4500.00    1.42361   1.41293    0.228
 4501.00    1.38752   1.43521    0.225
 4502.00    1.38552   1.45323    0.226
 4503.00    1.39774   1.47048    0.228
 4504.00    1.43206   1.48499    0.229
 4505.00    1.47427   1.49236    0.229
 4506.00    1.48229   1.49577    0.229
 4507.00    1.48000   1.49600    0.229
 4508.00    1.47832   1.49126    0.228
 4509.00    1.47679   1.48270    0.227
 4510.00    1.45239   1.47249    0.226
 4511.00    1.42335   1.46139    0.225
 4512.00    1.41484   1.44860    0.226
 4513.00    1.40960   1.43697    0.227
 4514.00    1.40496   1.42824    0.228
 4515.00    1.40039   1.42002    0.230
 4516.00    1.39884   1.41466    0.229
 4517.00    1.39754   1.41199    0.229
 4518.00    1.38219   1.40831    0.226
 4519.00    1.36621   1.40415    0.222
 4520.00    1.39081   1.39650    0.224
 4521.00    1.41532   1.38438    0.226
 4522.00    1.40964   1.36874    0.226
 4523.00    1.40324   1.34622    0.226
 4524.00    1.38310   1.32125    0.222
 4525.00    1.36274   1.29683    0.219
 4526.00    1.34004   1.27108    0.220
 4527.00    1.31831   1.25009    0.220
 4528.00    1.30432   1.23532    0.218
 4529.00    1.28783   1.22527    0.217
 4530.00    1.25654   1.22327    0.216
 4531.00    1.23348   1.22748    0.217
 4532.00    1.24889   1.23638    0.220
 4533.00    1.26810   1.25031    0.223
 4534.00    1.30184   1.26785    0.221
 4535.00    1.32542   1.28724    0.220
 4536.00    1.31659   1.30558    0.222
 4537.00    1.31564   1.32404    0.223
 4538.00    1.33596   1.34053    0.221
 4539.00    1.35401   1.35063    0.220
 4540.00    1.36681   1.35850    0.220
 4541.00    1.37681   1.36339    0.220
 4542.00    1.38118   1.36222    0.220
 4543.00    1.38079   1.35992    0.221
 4544.00    1.37205   1.35648    0.223
 4545.00    1.35932   1.35055    0.225
 4546.00    1.34048   1.34463    0.224
 4547.00    1.33126   1.33840    0.223
 4548.00    1.33498   1.33383    0.221
 4549.00    1.33610   1.33037    0.219
 4550.00    1.33413   1.32671    0.000
 4551.00    1.33215   1.32828    0.000
 4552.00    1.33017   1.33277    0.000
 4553.00    1.33408   1.33801    0.000
 4554.00    1.34339   1.34944    0.000
 4555.00    1.35912   1.36357    0.000
 4556.00    1.38006   1.37746    0.000
 4557.00    1.39404   1.39332    0.000
 4558.00    1.40307   1.40674    0.000
 4559.00    1.41934   1.41641    0.000
 4560.00    1.44014   1.42308    0.000
 4561.00    1.44866   1.42480    0.000
 4562.00    1.45048   1.42449    0.000
 4563.00    1.44867   1.42274    0.000
 4564.00    1.44514   1.42067    0.000
 4565.00    1.43484   1.42146    0.000
 4566.00    1.42176   1.42185    0.000
 4567.00    1.41892   1.42452    0.000
 4568.00    1.41965   1.43001    0.000
 4569.00    1.42937   1.43108    0.000
 4570.00    1.44175   1.43358    0.000
 4571.00    1.44092   1.43774    0.000
 4572.00    1.43685   1.43520    0.000
 4573.00    1.42268   1.43304    0.000
 4574.00    1.40651   1.43142    0.000
 4575.00    1.39641   1.42298    0.000
 4576.00    1.38725   1.41345    0.000
 4577.00    1.37622   1.40358    0.000
 4578.00    1.36497   1.38986    0.000
 4579.00    1.35348   1.37759    0.000
 4580.00    1.34197   1.36797    0.000
 4581.00    1.35889   1.35946    0.000
 4582.00    1.37700   1.35618    0.000
 4583.00    1.38235   1.35737    0.000
 4584.00    1.38759   1.36037    0.000
 4585.00    1.39263   1.36747    0.000
 4586.00    1.39757   1.37555    0.000
 4587.00    1.40092   1.38188    0.000
 4588.00    1.40475   1.38784    0.000
 4589.00    1.41382   1.39006    0.000
 4590.00    1.42222   1.38840    0.000
 4591.00    1.42553   1.38547    0.000
 4592.00    1.42073   1.37897    0.000
 4593.00    1.36933   1.37159    0.000
 4594.00    1.32666   1.36665    0.000
 4595.00    1.32393   1.36066    0.000
 4596.00    1.32487   1.35711    0.000
 4597.00    1.33958   1.35766    0.000
 4598.00    1.35060   1.35695    0.000
 4599.00    1.35009   1.35946    0.000
 4600.00    1.35279   1.36504    0.000
 4601.00    1.36402   1.36968    0.000
 4602.00    1.37197   1.37818    0.000
 4603.00    1.37244   1.38935    0.000
 4604.00    1.38216   1.40160    0.000
 4605.00    1.41017   1.41649    0.000
 4606.00    1.43250   1.43251    0.000
 4607.00    1.44508   1.44849    0.000
 4608.00    1.45238   1.46186    0.000
 4609.00    1.45174   1.47363    0.000
 4610.00    1.44452   1.48311    0.000
 4611.00    1.42862   1.48673    0.000
 4612.00    1.41929   1.49048    0.000
 4613.00    1.41761   1.49333    0.000
 4614.00    1.42864   1.49138    0.000
 4615.00    1.45273   1.49331    0.000
 4616.00    1.45924   1.49562    0.000
 4617.00    1.44983   1.49350    0.000
 4618.00    1.43625   1.49594    0.000
 4619.00    1.41935   1.49843    0.000
 4620.00    1.42894   1.49618    0.000
 4621.00    1.45717   1.49706    0.000
 4622.00    1.47213   1.49792    0.000
 4623.00    1.47892   1.49478    0.000
 4624.00    1.46846   1.49272    0.000
 4625.00    1.44869   1.49118    0.000
 4626.00    1.44497   1.48766    0.000
 4627.00    1.44875   1.48334    0.000
 4628.00    1.45552   1.47955    0.000
 4629.00    1.46351   1.47509    0.000
 4630.00    1.45458   1.46807    0.000
 4631.00    1.43982   1.46050    0.000
 4632.00    1.43060   1.45181    0.000
 4633.00    1.42297   1.44083    0.000
 4634.00    1.41014   1.42968    0.000
 4635.00    1.39606   1.41752    0.000
 4636.00    1.37983   1.40634    0.000
 4637.00    1.36318   1.39649    0.000
 4638.00    1.33734   1.38567    0.000
 4639.00    1.31012   1.37805    0.000
 4640.00    1.31642   1.37079    0.000
 4641.00    1.32641   1.36073    0.000
 4642.00    1.32961   1.35328    0.000
 4643.00    1.33232   1.34501    0.000
 4644.00    1.32262   1.33478    0.000
 4645.00    1.31245   1.32909    0.000
 4646.00    1.30236   1.32515    0.000
 4647.00    1.29289   1.32376    0.000
 4648.00    1.30629   1.32907    0.000
 4649.00    1.32112   1.33612    0.000
 4650.00    1.35917   1.34599    0.000
 4651.00    1.39423   1.35912    0.000
 4652.00    1.39865   1.37025    0.000
 4653.00    1.40166   1.38259    0.000
 4654.00    1.39443   1.39511    0.000
 4655.00    1.38817   1.40514    0.000
 4656.00    1.38727   1.41624    0.000
 4657.00    1.38657   1.42534    0.000
 4658.00    1.38681   1.42997    0.000
 4659.00    1.39246   1.43141    0.000
 4660.00    1.41794   1.42701    0.000
 4661.00    1.43373   1.41496    0.000
 4662.00    1.41980   1.39771    0.000
 4663.00    1.40310   1.37753    0.000
 4664.00    1.37916   1.35476    0.000
 4665.00    1.35355   1.33362    0.000
 4666.00    1.32420   1.31850    0.000
 4667.00    1.30295   1.30894    0.000
 4668.00    1.29746   1.30683    0.000
 4669.00    1.29742   1.31275    0.000
 4670.00    1.30661   1.32282    0.000
 4671.00    1.31397   1.33689    0.000
 4672.00    1.31863   1.35212    0.000
 4673.00    1.33988   1.36435    0.000
 4674.00    1.38277   1.37513    0.000
 4675.00    1.40118   1.38215    0.000
 4676.00    1.39148   1.38397    0.000
 4677.00    1.36762   1.38400    0.000
 4678.00    1.32942   1.38232    0.000
 4679.00    1.31540   1.37868    0.000
 4680.00    1.32297   1.37589    0.000
 4681.00    1.33663   1.37536    0.000
 4682.00    1.35507   1.37487    0.000
 4683.00    1.36629   1.37557    0.000
 4684.00    1.37249   1.37875    0.000
 4685.00    1.37218   1.38022    0.000
 4686.00    1.36791   1.38121    0.000
 4687.00    1.36389   1.38367    0.000
 4688.00    1.36001   1.38404    0.000
 4689.00    1.35296   1.38410    0.000
 4690.00    1.34444   1.38586    0.000
 4691.00    1.33347   1.38665    0.000
 4692.00    1.32153   1.38721    0.000
 4693.00    1.33148   1.38738    0.000
 4694.00    1.34882   1.38556    0.000
 4695.00    1.34193   1.38231    0.000
 4696.00    1.32816   1.37613    0.000
 4697.00    1.33039   1.36763    0.000
 4698.00    1.33637   1.35825    0.000
 4699.00    1.33622   1.34835    0.000
 4700.00    1.33492   1.33956    0.000
 4701.00    1.30716   1.33159    0.000
 4702.00    1.27554   1.32615    0.000
 4703.00    1.30703   1.32425    0.000
 4704.00    1.34519   1.32308    0.000
 4705.00    1.33938   1.32421    0.000
 4706.00    1.33054   1.32841    0.000
 4707.00    1.30944   1.33237    0.000
 4708.00    1.28792   1.33821    0.000
 4709.00    1.32245   1.34562    0.000
 4710.00    1.35539   1.35276    0.000
 4711.00    1.33357   1.36339    0.000
 4712.00    1.31385   1.37407    0.000
 4713.00    1.32624   1.38498    0.000
 4714.00    1.33962   1.40046    0.000
 4715.00    1.36270   1.41528    0.000
 4716.00    1.38387   1.43038    0.000
 4717.00    1.39148   1.44685    0.000
 4718.00    1.39953   1.46045    0.000
 4719.00    1.40994   1.47232    0.000
 4720.00    1.41978   1.48029    0.000
 4721.00    1.42719   1.48240    0.000
 4722.00    1.43103   1.47965    0.000
 4723.00    1.42206   1.47144    0.000
 4724.00    1.41344   1.45913    0.000
 4725.00    1.40588   1.44260    0.000
 4726.00    1.39956   1.42406    0.000
 4727.00    1.39645   1.40771    0.000
 4728.00    1.38807   1.39224    0.000
 4729.00    1.36810   1.38015    0.000
 4730.00    1.35136   1.37559    0.000
 4731.00    1.34081   1.37349    0.000
 4732.00    1.33884   1.37526    0.000
 4733.00    1.35117   1.38454    0.000
 4734.00    1.36788   1.39242    0.000
 4735.00    1.39099   1.40054    0.000
 4736.00    1.40778   1.41258    0.000
 4737.00    1.41644   1.42127    0.000
 4738.00    1.42165   1.43008    0.000
 4739.00    1.42296   1.43934    0.000
 4740.00    1.42502   1.44511    0.000
 4741.00    1.42784   1.45346    0.000
 4742.00    1.43987   1.46109    0.000
 4743.00    1.46002   1.46494    0.000
 4744.00    1.46907   1.47124    0.000
 4745.00    1.46949   1.47669    0.000
 4746.00    1.46338   1.47857    0.000
 4747.00    1.45282   1.47978    0.000
 4748.00    1.45749   1.47905    0.000
 4749.00    1.47127   1.47556    0.000
 4750.00    1.47546   1.47039    0.000
 4751.00    1.47464   1.46342    0.000
 4752.00    1.46123   1.45539    0.000
 4753.00    1.44212   1.44790    0.000
 4754.00    1.43228   1.44037    0.000
 4755.00    1.42606   1.43366    0.000
 4756.00    1.42332   1.42748    0.000
 4757.00    1.42172   1.42043    0.000
 4758.00    1.43446   1.41431    0.000
 4759.00    1.45118   1.40656    0.000
 4760.00    1.44027   1.39634    0.000
 4761.00    1.42303   1.38695    0.207
 4762.00    1.38847   1.37781    0.206
 4763.00    1.35074   1.36931    0.206
 4764.00    1.36168   1.36417    0.204
 4765.00    1.37948   1.36318    0.201
 4766.00    1.38475   1.36542    0.203
 4767.00    1.38874   1.37237    0.206
 4768.00    1.38037   1.38317    0.204
 4769.00    1.37120   1.39546    0.202
 4770.00    1.37404   1.40982    0.202
 4771.00    1.37730   1.42360    0.202
 4772.00    1.40697   1.43756    0.204
 4773.00    1.43545   1.45069    0.206
 4774.00    1.42931   1.45927    0.205
 4775.00    1.42244   1.46703    0.204
 4776.00    1.40494   1.47224    0.205
 4777.00    1.39012   1.47229    0.205
 4778.00    1.40049   1.46913    0.203
 4779.00    1.40960   1.46365    0.200
 4780.00    1.41016   1.45653    0.198
 4781.00    1.40838   1.44543    0.197
 4782.00    1.39422   1.43510    0.198
 4783.00    1.38154   1.42761    0.199
 4784.00    1.37514   1.41812    0.199
 4785.00    1.36709   1.41330    0.199
 4786.00    1.35330   1.41273    0.198
 4787.00    1.34383   1.41291    0.198
 4788.00    1.34708   1.41952    0.198
 4789.00    1.35131   1.42844    0.199
 4790.00    1.35800   1.43843    0.200
 4791.00    1.37852   1.45220    0.201
 4792.00    1.42903   1.46454    0.202
 4793.00    1.46158   1.47481    0.203
 4794.00    1.46032   1.48356    0.203
 4795.00    1.46110   1.48851    0.203
 4796.00    1.46523   1.49032    0.202
 4797.00    1.46725   1.48998    0.203
 4798.00    1.46623   1.48750    0.207
 4799.00    1.45565   1.48397    0.207
 4800.00    1.43294   1.48037    0.204
 4801.00    1.42128   1.47734    0.203
 4802.00    1.42194   1.47315    0.205
 4803.00    1.43448   1.46790    0.205
 4804.00    1.45873   1.46495    0.206
 4805.00    1.45908   1.46102    0.205
 4806.00    1.43868   1.45641    0.203
 4807.00    1.42311   1.45481    0.203
 4808.00    1.41123   1.45401    0.204
 4809.00    1.40885   1.45539    0.204
 4810.00    1.41286   1.45907    0.202
 4811.00    1.42227   1.46370    0.202
 4812.00    1.43486   1.47114    0.202
 4813.00    1.44648   1.47906    0.203
 4814.00    1.45761   1.48689    0.204
 4815.00    1.47157   1.49435    0.205
 4816.00    1.48677   1.49968    0.206
 4817.00    1.47321   1.50367    0.206
 4818.00    1.44864   1.50298    0.206
 4819.00    1.44806   1.49956    0.206
 4820.00    1.45527   1.49549    0.206
 4821.00    1.45055   1.48596    0.207
 4822.00    1.44257   1.47651    0.207
 4823.00    1.44288   1.46885    0.207
 4824.00    1.44503   1.45988    0.206
 4825.00    1.41581   1.45383    0.205
 4826.00    1.38099   1.44786    0.204
 4827.00    1.40383   1.44229    0.205
 4828.00    1.43453   1.44165    0.207
 4829.00    1.41950   1.43953    0.207
 4830.00    1.40004   1.43633    0.206
 4831.00    1.39057   1.43649    0.205
 4832.00    1.38171   1.43665    0.203
 4833.00    1.42028   1.43630    0.204
 4834.00    1.45973   1.43513    0.205
 4835.00    1.43096   1.43342    0.205
 4836.00    1.40315   1.43233    0.204
 4837.00    1.40054   1.42969    0.205
 4838.00    1.39837   1.42518    0.206
 4839.00    1.40229   1.42233    0.207
 4840.00    1.40678   1.42098    0.208
 4841.00    1.41631   1.41808    0.206
 4842.00    1.42275   1.41687    0.204
 4843.00    1.40870   1.41728    0.201
 4844.00    1.39644   1.41727    0.199
 4845.00    1.39342   1.41797    0.202
 4846.00    1.39254   1.41520    0.204
 4847.00    1.40062   1.41123    0.206
 4848.00    1.40604   1.40864    0.000
 4849.00    1.40227   1.40016    0.000
 4850.00    1.40115   1.38795    0.000
 4851.00    1.40770   1.37545    0.000
 4852.00    1.40229   1.35850    0.000
 4853.00    1.36728   1.33764    0.000
 4854.00    1.33348   1.31512    0.000
 4855.00    1.30226   1.29113    0.000
 4856.00    1.28752   1.26585    0.000
 4857.00    1.30331   1.24165    0.000
 4858.00    1.29678   1.21902    0.000
 4859.00    1.25411   1.19910    0.000
 4860.00    1.23480   1.18866    0.000
 4861.00    1.24866   1.18493    0.000
 4862.00    1.26276   1.18460    0.000
 4863.00    1.27716   1.19243    0.000
 4864.00    1.27336   1.20433    0.000
 4865.00    1.24951   1.21759    0.000
 4866.00    1.25458   1.23130    0.000
 4867.00    1.28773   1.24329    0.000
 4868.00    1.30100   1.25356    0.000
 4869.00    1.29722   1.26038    0.000
 4870.00    1.29779   1.26677    0.000
 4871.00    1.30165   1.27515    0.000
 4872.00    1.30656   1.28496    0.000
 4873.00    1.31218   1.29564    0.000
 4874.00    1.32009   1.30869    0.000
 4875.00    1.32933   1.32425    0.203
 4876.00    1.33274   1.33884    0.202
 4877.00    1.33319   1.35399    0.202
 4878.00    1.35439   1.36528    0.202
 4879.00    1.38467   1.37031    0.203
 4880.00    1.38592   1.37337    0.203
 4881.00    1.37625   1.37158    0.201
 4882.00    1.35438   1.36610    0.200
 4883.00    1.32862   1.35786    0.198
 4884.00    1.31989   1.34612    0.199
 4885.00    1.31571   1.33705    0.201
 4886.00    1.28266   1.33021    0.203
 4887.00    1.24332   1.32644    0.204
 4888.00    1.24397   1.32709    0.205
 4889.00    1.25156   1.33069    0.206
 4890.00    1.25580   1.34502    0.205
 4891.00    1.25960   1.36475    0.204
 4892.00    1.29743   1.38558    0.203
 4893.00    1.33842   1.41078    0.201
 4894.00    1.34892   1.43284    0.200
 4895.00    1.35768   1.45350    0.199
 4896.00    1.39791   1.47257    0.204
 4897.00    1.43852   1.48222    0.210
 4898.00    1.44327   1.48669    0.209
 4899.00    1.44712   1.48969    0.208
 4900.00    1.42975   1.48767    0.204
 4901.00    1.41380   1.48317    0.200
 4902.00    1.41623   1.47815    0.201
 4903.00    1.41793   1.47265    0.201
 4904.00    1.41328   1.46907    0.201
 4905.00    1.40712   1.46359    0.201
 4906.00    1.39121   1.45641    0.201
 4907.00    1.38092   1.45021    0.201
 4908.00    1.39888   1.44349    0.202
 4909.00    1.40757   1.43777    0.203
 4910.00    1.37850   1.43237    0.202
 4911.00    1.36155   1.42601    0.202
 4912.00    1.38547   1.41944    0.201
 4913.00    1.40112   1.41140    0.200
 4914.00    1.39319   1.40097    0.199
 4915.00    1.38199   1.38820    0.198
 4916.00    1.36281   1.37169    0.198
 4917.00    1.34674   1.35362    0.197
 4918.00    1.33717   1.33753    0.196
 4919.00    1.32623   1.32556    0.195
 4920.00    1.31282   1.32035    0.195
 4921.00    1.29950   1.32113    0.195
 4922.00    1.28635   1.32777    0.194
 4923.00    1.29114   1.34181    0.193
 4924.00    1.32105   1.36384    0.193
 4925.00    1.34862   1.38771    0.194
 4926.00    1.37328   1.40983    0.196
 4927.00    1.40328   1.43102    0.197
 4928.00    1.43907   1.44608    0.198
 4929.00    1.44979   1.45711    0.197
 4930.00    1.43652   1.46290    0.195
 4931.00    1.42231   1.45781    0.193
 4932.00    1.40728   1.45016    0.191
 4933.00    1.39093   1.44186    0.191
 4934.00    1.37359   1.42979    0.191
 4935.00    1.36277   1.41875    0.191
 4936.00    1.35621   1.40865    0.191
 4937.00    1.35265   1.40268    0.191
 4938.00    1.35080   1.40646    0.193
 4939.00    1.36304   1.41447    0.194
 4940.00    1.38230   1.42357    0.000
 4941.00    1.39834   1.43756    0.000
 4942.00    1.41300   1.45452    0.000
 4943.00    1.41845   1.47088    0.000
 4944.00    1.42050   1.48651    0.000
 4945.00    1.43363   1.49983    0.000
 4946.00    1.45022   1.51001    0.000
 4947.00    1.46377   1.51693    0.000
 4948.00    1.47653   1.51893    0.000
 4949.00    1.47270   1.51742    0.000
 4950.00    1.46533   1.51117    0.000
 4951.00    1.45450   1.50021    0.000
 4952.00    1.44309   1.48588    0.000
 4953.00    1.43977   1.46956    0.000
 4954.00    1.43748   1.45356    0.000
 4955.00    1.40825   1.43342    0.000
 4956.00    1.37663   1.41841    0.000
 4957.00    1.38016   1.41274    0.000
 4958.00    1.38555   1.40866    0.000
 4959.00    1.39158   1.40827    0.000
 4960.00    1.39779   1.40807    0.000
 4961.00    1.41702   1.41143    0.000
 4962.00    1.43477   1.41860    0.000
 4963.00    1.42049   1.41996    0.000
 4964.00    1.40496   1.42005    0.000
 4965.00    1.37422   1.42090    0.000
 4966.00    1.34678   1.42072    0.000
 4967.00    1.34699   1.42317    0.000
 4968.00    1.35247   1.42454    0.000
 4969.00    1.39079   1.42789    0.000
 4970.00    1.41907   1.43484    0.000
 4971.00    1.39809   1.43868    0.000
 4972.00    1.38285   1.44274    0.000
 4973.00    1.39042   1.44347    0.000
 4974.00    1.39699   1.43915    0.000
 4975.00    1.40026   1.43213    0.000
 4976.00    1.39908   1.41791    0.000
 4977.00    1.38547   1.40099    0.000
 4978.00    1.36773   1.38293    0.000
 4979.00    1.34007   1.36261    0.000
 4980.00    1.32369   1.34303    0.000
 4981.00    1.33058   1.32622    0.000
 4982.00    1.32506   1.31650    0.000
 4983.00    1.29723   1.31263    0.000
 4984.00    1.29182   1.31314    0.000
 4985.00    1.32161   1.32006    0.000
 4986.00    1.33145   1.32932    0.000
 4987.00    1.31376   1.34154    0.000
 4988.00    1.30679   1.35503    0.000
 4989.00    1.31283   1.36481    0.000
 4990.00    1.32592   1.37647    0.000
 4991.00    1.34654   1.38421    0.000
 4992.00    1.36815   1.38573    0.000
 4993.00    1.39069   1.38838    0.000
 4994.00    1.38922   1.38599    0.000
 4995.00    1.36776   1.38111    0.000
 4996.00    1.35400   1.37507    0.000
 4997.00    1.34587   1.36243    0.000
 4998.00    1.34069   1.34993    0.000
 4999.00    1.33741   1.33695    0.000
 5000.00    1.33097   1.32220    0.000
 5001.00    1.32276   1.31020    0.000
 5002.00    1.32572   1.29815    0.000
 5003.00    1.33416   1.28704    0.000
 5004.00    1.33384   1.27897    0.000
 5005.00    1.32983   1.27406    0.000
 5006.00    1.34565   1.27337    0.000
 5007.00    1.36868   1.27160    0.000
 5008.00    1.35681   1.26868    0.000
 5009.00    1.33424   1.26619    0.000
 5010.00    1.33210   1.26155    0.000
 5011.00    1.33518   1.25826    0.000
 5012.00    1.29717   1.25322    0.000
 5013.00    1.25063   1.24827    0.000
 5014.00    1.24345   1.24688    0.000
 5015.00    1.24272   1.24371    0.000
 5016.00    1.23625   1.24338    0.000
 5017.00    1.22907   1.24757    0.000
 5018.00    1.23626   1.25351    0.000
 5019.00    1.24467   1.26211    0.000
 5020.00    1.26036   1.26835    0.000
 5021.00    1.27640   1.27651    0.000
 5022.00    1.28684   1.28893    0.000
 5023.00    1.29693   1.29904    0.000
 5024.00    1.29141   1.31048    0.000
 5025.00    1.28708   1.31927    0.000
 5026.00    1.30657   1.32928    0.000
 5027.00    1.32475   1.34382    0.000
 5028.00    1.32764   1.35322    0.000
 5029.00    1.32980   1.36151    0.192
 5030.00    1.32612   1.36848    0.190
 5031.00    1.32492   1.37172    0.189
 5032.00    1.33879   1.37300    0.187
 5033.00    1.34970   1.36606    0.185
 5034.00    1.34648   1.35290    0.187
 5035.00    1.34015   1.34231    0.188
 5036.00    1.32169   1.32905    0.188
 5037.00    1.30323   1.31344    0.188
 5038.00    1.28475   1.29988    0.188
 5039.00    1.26875   1.28794    0.188
 5040.00    1.25958   1.28799    0.185
 5041.00    1.25521   1.29446    0.183
 5042.00    1.26212   1.30062    0.183
 5043.00    1.27220   1.31180    0.183
 5044.00    1.28872   1.32335    0.181
 5045.00    1.29505   1.33541    0.181
 5046.00    1.28333   1.34565    0.183
 5047.00    1.28211   1.35082    0.184
 5048.00    1.29715   1.35575    0.183
 5049.00    1.30682   1.35956    0.183
 5050.00    1.30918   1.36218    0.184
 5051.00    1.30962   1.36681    0.185
 5052.00    1.30776   1.37344    0.185
 5053.00    1.31245   1.38357    0.186
 5054.00    1.32404   1.39484    0.186
 5055.00    1.33697   1.40566    0.187
 5056.00    1.35114   1.41746    0.189
 5057.00    1.36825   1.42598    0.189
 5058.00    1.38776   1.43146    0.187
 5059.00    1.38805   1.43471    0.187
 5060.00    1.37444   1.43238    0.188
 5061.00    1.36407   1.42675    0.188
 5062.00    1.35577   1.41584    0.188
 5063.00    1.34535   1.40263    0.188
 5064.00    1.33377   1.39282    0.188
 5065.00    1.33484   1.38075    0.189
 5066.00    1.34202   1.36914    0.191
 5067.00    1.33239   1.35954    0.191
 5068.00    1.31577   1.35267    0.191
 5069.00    1.30003   1.34968    0.189
 5070.00    1.28461   1.34513    0.188
 5071.00    1.28548   1.34178    0.189
 5072.00    1.29126   1.33861    0.191
 5073.00    1.29662   1.33373    0.191
 5074.00    1.30188   1.32780    0.191
 5075.00    1.30612   1.31979    0.191
 5076.00    1.31015   1.31166    0.192
 5077.00    1.28636   1.30092    0.191
 5078.00    1.25814   1.29091    0.189
 5079.00    1.25176   1.28539    0.189
 5080.00    1.24797   1.28321    0.189
 5081.00    1.25302   1.28354    0.189
 5082.00    1.25879   1.28613    0.190
 5083.00    1.26219   1.29396    0.186
 5084.00    1.26548   1.30641    0.182
 5085.00    1.27741   1.32032    0.186
 5086.00    1.28948   1.33403    0.191
 5087.00    1.30380   1.34770    0.187
 5088.00    1.31738   1.36068    0.183
 5089.00    1.31732   1.37071    0.184
 5090.00    1.31718   1.37786    0.184
 5091.00    1.31616   1.38189    0.185
 5092.00    1.31443   1.38154    0.186
 5093.00    1.30709   1.37767    0.187
 5094.00    1.30111   1.37054    0.188
 5095.00    1.30315   1.36135    0.189
 5096.00    1.30655   1.35135    0.190
 5097.00    1.31630   1.33994    0.190
 5098.00    1.32263   1.33187    0.190
 5099.00    1.31590   1.32648    0.188
 5100.00    1.30786   1.32160    0.186
 5101.00    1.29569   1.31792    0.184
 5102.00    1.28532   1.31468    0.183
 5103.00    1.27985   1.31357    0.182
 5104.00    1.27424   1.31401    0.183
 5105.00    1.26830   1.31243    0.185
 5106.00    1.26179   1.31066    0.186
 5107.00    1.25411   1.31145    0.185
 5108.00    1.25947   1.31236    0.184
 5109.00    1.28758   1.31727    0.183
 5110.00    1.30274   1.32472    0.183
 5111.00    1.29815   1.33206    0.184
 5112.00    1.29751   1.34289    0.185
 5113.00    1.30215   1.35254    0.185
 5114.00    1.31067   1.36122    0.186
 5115.00    1.32376   1.36986    0.186
 5116.00    1.33807   1.37262    0.187
 5117.00    1.35367   1.37150    0.189
 5118.00    1.34408   1.36633    0.188
 5119.00    1.31139   1.35572    0.185
 5120.00    1.30325   1.34362    0.184
 5121.00    1.31499   1.32772    0.186
 5122.00    1.31237   1.31080    0.185
 5123.00    1.29953   1.29673    0.183
 5124.00    1.27536   1.28432    0.182
 5125.00    1.24410   1.27522    0.183
 5126.00    1.23391   1.26940    0.182
 5127.00    1.23523   1.26720    0.180
 5128.00    1.24319   1.27029    0.181
 5129.00    1.25430   1.27638    0.182
 5130.00    1.26989   1.28287    0.183
 5131.00    1.28732   1.29001    0.183
 5132.00    1.28962   1.29570    0.184
 5133.00    1.28663   1.30211    0.184
 5134.00    1.28550   1.30589    0.184
 5135.00    1.28492   1.30443    0.185
 5136.00    1.28921   1.30266    0.184
 5137.00    1.29469   1.29733    0.183
 5138.00    1.28650   1.29320    0.183
 5139.00    1.27562   1.28914    0.184
 5140.00    1.25861   1.28003    0.183
 5141.00    1.24065   1.27404    0.182
 5142.00    1.23889   1.27022    0.183
 5143.00    1.23898   1.26617    0.185
 5144.00    1.22762   1.26352    0.185
 5145.00    1.21539   1.25942    0.185
 5146.00    1.24043   1.25699    0.186
 5147.00    1.26701   1.25820    0.187
 5148.00    1.25454   1.25845    0.185
 5149.00    1.24237   1.25908    0.183
 5150.00    1.25648   1.26207    0.186
 5151.00    1.26876   1.26692    0.188
 5152.00    1.24941   1.27403    0.189
 5153.00    1.23223   1.28292    0.189
 5154.00    1.23828   1.29210    0.188
 5155.00    1.24641   1.30103    0.187
 5156.00    1.27013   1.30865    0.189
 5157.00    1.28818   1.31166    0.190
 5158.00    1.27377   1.31062    0.189
 5159.00    1.26237   1.30393    0.189
 5160.00    1.26472   1.28818    0.190
 5161.00    1.26056   1.26686    0.190
 5162.00    1.23207   1.23889    0.189
 5163.00    1.20378   1.20471    0.188
 5164.00    1.17613   1.16791    0.186
 5165.00    1.13970   1.12896    0.185
 5166.00    1.07998   1.09543    0.184
 5167.00    1.03622   1.06914    0.184
 5168.00    1.02873   1.04895    0.183
 5169.00    1.01636   1.03455    0.182
 5170.00    0.99439   1.02637    0.181
 5171.00    0.99173   1.03003    0.181
 5172.00    1.02221   1.04504    0.184
 5173.00    1.04144   1.06514    0.185
 5174.00    1.04378   1.08387    0.182
 5175.00    1.06523   1.10088    0.181
 5176.00    1.11193   1.11722    0.182
 5177.00    1.14810   1.13101    0.182
 5178.00    1.17203   1.13974    0.181
 5179.00    1.17329   1.14109    0.180
 5180.00    1.15131   1.13820    0.181
 5181.00    1.12407   1.13304    0.180
 5182.00    1.09209   1.13003    0.177
 5183.00    1.07629   1.13429    0.176
 5184.00    1.07339   1.14134    0.175
 5185.00    1.08465   1.15167    0.175
 5186.00    1.10584   1.16375    0.175
 5187.00    1.14297   1.17850    0.177
 5188.00    1.18992   1.19749    0.179
 5189.00    1.20933   1.21215    0.179
 5190.00    1.21393   1.22314    0.000
 5191.00    1.21284   1.23358    0.000
 5192.00    1.20909   1.24332    0.000
 5193.00    1.22183   1.25159    0.000
 5194.00    1.24119   1.25856    0.000
 5195.00    1.25541   1.26544    0.000
 5196.00    1.26786   1.27269    0.000
 5197.00    1.27462   1.27949    0.000
 5198.00    1.27974   1.28229    0.000
 5199.00    1.28572   1.28175    0.000
 5200.00    1.29191   1.27721    0.000
 5201.00    1.28607   1.26828    0.000
 5202.00    1.27790   1.25607    0.000
 5203.00    1.26468   1.24100    0.000
 5204.00    1.25070   1.22670    0.000
 5205.00    1.22168   1.21612    0.000
 5206.00    1.19102   1.20760    0.000
 5207.00    1.17663   1.20503    0.000
 5208.00    1.16341   1.20915    0.000
 5209.00    1.19342   1.21878    0.000
 5210.00    1.22503   1.23492    0.000
 5211.00    1.24223   1.25161    0.181
 5212.00    1.25948   1.27027    0.182
 5213.00    1.28092   1.28826    0.182
 5214.00    1.30234   1.30471    0.182
 5215.00    1.32356   1.32037    0.183
 5216.00    1.34412   1.33225    0.183
 5217.00    1.35814   1.34071    0.184
 5218.00    1.36599   1.34349    0.185
 5219.00    1.32898   1.34310    0.186
 5220.00    1.30049   1.33901    0.186
 5221.00    1.31955   1.33115    0.186
 5222.00    1.33076   1.32057    0.186
 5223.00    1.30709   1.30745    0.185
 5224.00    1.28438   1.29569    0.185
 5225.00    1.26516   1.28545    0.184
 5226.00    1.25480   1.28092    0.185
 5227.00    1.27149   1.28134    0.187
 5228.00    1.27883   1.28349    0.188
 5229.00    1.26182   1.29074    0.187
 5230.00    1.25914   1.29989    0.187
 5231.00    1.28852   1.31183    0.189
 5232.00    1.31433   1.32742    0.190
 5233.00    1.33322   1.34181    0.190
 5234.00    1.35508   1.35747    0.189
 5235.00    1.38195   1.37184    0.187
 5236.00    1.39685   1.38405    0.186
 5237.00    1.39400   1.39617    0.186
 5238.00    1.40039   1.40558    0.186
 5239.00    1.41882   1.41397    0.187
 5240.00    1.42868   1.41910    0.187
 5241.00    1.42871   1.41982    0.186
 5242.00    1.42094   1.41795    0.185
 5243.00    1.40528   1.41240    0.184
 5244.00    1.39121   1.40392    0.184
 5245.00    1.37856   1.39266    0.184
 5246.00    1.36894   1.38161    0.184
 5247.00    1.36168   1.37254    0.183
 5248.00    1.35589   1.36308    0.184
 5249.00    1.35111   1.35625    0.184
 5250.00    1.34462   1.35270    0.184
 5251.00    1.33709   1.35206    0.183
 5252.00    1.34835   1.35478    0.183
 5253.00    1.36956   1.35722    0.182
 5254.00    1.36756   1.36245    0.182
 5255.00    1.35492   1.36736    0.182
 5256.00    1.34823   1.36781    0.181
 5257.00    1.34389   1.36415    0.180
 5258.00    1.36045   1.35378    0.181
 5259.00    1.38407   1.33842    0.182
 5260.00    1.37256   1.31683    0.182
 5261.00    1.35112   1.29069    0.181
 5262.00    1.30974   1.26283    0.181
 5263.00    1.26370   1.23485    0.182
 5264.00    1.22583   1.20814    0.181
 5265.00    1.18948   1.18629    0.181
 5266.00    1.18499   1.17031    0.183
 5267.00    1.18511   1.15964    0.184
 5268.00    1.18191   1.15773    0.185
 5269.00    1.17836   1.16553    0.186
 5270.00    1.19180   1.18103    0.189
 5271.00    1.20641   1.19960    0.192
 5272.00    1.22439   1.22143    0.188
 5273.00    1.24248   1.24573    0.184
 5274.00    1.25915   1.27170    0.184
 5275.00    1.27644   1.29836    0.184
 5276.00    1.31381   1.32146    0.186
 5277.00    1.35028   1.34127    0.187
 5278.00    1.37296   1.35632    0.187
 5279.00    1.39307   1.36835    0.188
 5280.00    1.38797   1.37963    0.188
 5281.00    1.38167   1.39017    0.188
 5282.00    1.36697   1.40056    0.186
 5283.00    1.35936   1.41230    0.185
 5284.00    1.39024   1.42457    0.184
 5285.00    1.41401   1.43691    0.184
 5286.00    1.40682   1.44903    0.184
 5287.00    1.40842   1.45981    0.184
 5288.00    1.44150   1.46932    0.186
 5289.00    1.46473   1.47458    0.187
 5290.00    1.45837   1.47538    0.187
 5291.00    1.45830   1.47102    0.187
 5292.00    1.47433   1.46214    0.189
 5293.00    1.47921   1.45017    0.190
 5294.00    1.45958   1.43564    0.190
 5295.00    1.44170   1.42153    0.190
 5296.00    1.42716   1.40902    0.188
 5297.00    1.40956   1.40102    0.187
 5298.00    1.38686   1.39757    0.186
 5299.00    1.36731   1.39786    0.185
 5300.00    1.35238   1.40372    0.184
 5301.00    1.35456   1.41419    0.183
 5302.00    1.37870   1.42869    0.181
 5303.00    1.40339   1.44462    0.182
 5304.00    1.42873   1.46032    0.183
 5305.00    1.44411   1.47519    0.183
 5306.00    1.44957   1.48796    0.182
 5307.00    1.46352   1.49867    0.182
 5308.00    1.48494   1.50618    0.184
 5309.00    1.49037   1.51012    0.184
 5310.00    1.48340   1.51083    0.183
 5311.00    1.47845   1.50875    0.182
 5312.00    1.47486   1.50457    0.181
 5313.00    1.47369   1.49877    0.181
 5314.00    1.47395   1.49138    0.182
 5315.00    1.47048   1.48244    0.182
 5316.00    1.46508   1.47298    0.180
 5317.00    1.46683   1.46191    0.179
 5318.00    1.47182   1.44965    0.178
 5319.00    1.45094   1.43549    0.178
 5320.00    1.42000   1.41942    0.178
 5321.00    1.40242   1.40266    0.178
 5322.00    1.38925   1.38372    0.178
 5323.00    1.38048   1.36536    0.178
 5324.00    1.37293   1.34698    0.178
 5325.00    1.34648   1.33101    0.177
 5326.00    1.31573   1.31843    0.176
 5327.00    1.30630   1.31224    0.177
 5328.00    1.30077   1.31348    0.177
 5329.00    1.31947   1.31905    0.177
 5330.00    1.34157   1.32964    0.177
 5331.00    1.34855   1.34262    0.178
 5332.00    1.35402   1.35859    0.178
 5333.00    1.36798   1.37448    0.177
 5334.00    1.38249   1.38858    0.175
 5335.00    1.39862   1.39995    0.176
 5336.00    1.41475   1.40643    0.177
 5337.00    1.40961   1.40974    0.179
 5338.00    1.40479   1.41018    0.182
 5339.00    1.40935   1.40943    0.182
 5340.00    1.41363   1.40936    0.182
 5341.00    1.41394   1.40830    0.182
 5342.00    1.41324   1.40766    0.182
 5343.00    1.40302   1.40852    0.181
 5344.00    1.39398   1.40998    0.181
 5345.00    1.39296   1.41437    0.180
 5346.00    1.39309   1.42002    0.179
 5347.00    1.39928   1.42813    0.181
 5348.00    1.40342   1.43837    0.183
 5349.00    1.39879   1.44971    0.184
 5350.00    1.39813   1.46343    0.184
 5351.00    1.41139   1.47738    0.183
 5352.00    1.42761   1.49209    0.183
 5353.00    1.45258   1.50671    0.183
 5354.00    1.47928   1.51878    0.183
 5355.00    1.51036   1.52883    0.184
 5356.00    1.52952   1.53513    0.184
 5357.00    1.52291   1.53723    0.182
 5358.00    1.51719   1.53476    0.182
 5359.00    1.51314   1.52820    0.183
 5360.00    1.51231   1.51808    0.183
 5361.00    1.51673   1.50459    0.183
 5362.00    1.50034   1.48953    0.182
 5363.00    1.45403   1.47225    0.181
 5364.00    1.42578   1.45545    0.181
 5365.00    1.42040   1.43840    0.181
 5366.00    1.41136   1.42252    0.180
 5367.00    1.39825   1.40911    0.178
 5368.00    1.38435   1.39885   -2.000
 5369.00    1.36967   1.39433   -2.000
 5370.00    1.35974   1.39365   -2.000
 5371.00    1.35392   1.39904   -2.000
 5372.00    1.35870   1.40702   -2.000
 5373.00    1.37156   1.41739   -2.000
 5374.00    1.38498   1.42978   -2.000
 5375.00    1.39877   1.44175   -2.000
 5376.00    1.42740   1.45374   -2.000
 5377.00    1.46476   1.46369   -2.000
 5378.00    1.47166   1.47153   -2.000
 5379.00    1.46294   1.47543   -2.000
 5380.00    1.45446   1.47694   -2.000
 5381.00    1.44609   1.47639   -2.000
 5382.00    1.45566   1.47374   -2.000
 5383.00    1.47209   1.47022    0.177
 5384.00    1.45336   1.46496    0.177
 5385.00    1.42323   1.45796    0.178
 5386.00    1.41536   1.44935    0.175
 5387.00    1.41354   1.43992    0.171
 5388.00    1.41269   1.42933    0.172
 5389.00    1.41207   1.41816    0.174
 5390.00    1.39093   1.40679    0.174
 5391.00    1.36614   1.39540    0.174
 5392.00    1.35902   1.38396    0.175
 5393.00    1.35429   1.37297    0.178
 5394.00    1.35383   1.36447    0.178
 5395.00    1.35377   1.35688    0.178
 5396.00    1.35521   1.35180    0.179
 5397.00    1.35674   1.34796    0.181
 5398.00    1.37049   1.34452    0.182
 5399.00    1.38433   1.34080    0.182
 5400.00    1.36002   1.33623    0.177
 5401.00    1.33666   1.33123    0.173
 5402.00    1.33775   1.32501    0.177
 5403.00    1.33683   1.32079    0.180
 5404.00    1.30876   1.31794    0.177
 5405.00    1.28424   1.31633    0.175
 5406.00    1.29174   1.31670    0.176
 5407.00    1.29872   1.32123    0.176
 5408.00    1.30228   1.32903    0.177
 5409.00    1.31110   1.34008    0.177
 5410.00    1.34692   1.35426    0.178
 5411.00    1.37733   1.37018    0.178
 5412.00    1.38528   1.38772    0.176
 5413.00    1.39282   1.40435    0.175
 5414.00    1.39897   1.41920    0.176
 5415.00    1.40834   1.43157    0.176
 5416.00    1.42699   1.44150    0.174
 5417.00    1.44114   1.44883    0.173
 5418.00    1.44419   1.45293    0.174
 5419.00    1.44400   1.45402    0.175
 5420.00    1.43691   1.45257    0.174
 5421.00    1.43301   1.45032    0.173
 5422.00    1.43498   1.44650    0.174
 5423.00    1.43258   1.44157    0.174
 5424.00    1.42310   1.43556    0.174
 5425.00    1.41404   1.42720    0.173
 5426.00    1.40558   1.41891    0.171
 5427.00    1.40348   1.41118    0.171
 5428.00    1.40929   1.40259    0.171
 5429.00    1.40886   1.39491    0.172
 5430.00    1.40155   1.38841    0.171
 5431.00    1.38768   1.38479    0.171
 5432.00    1.36746   1.38389    0.170
 5433.00    1.35662   1.38600    0.170
 5434.00    1.35380   1.39211    0.169
 5435.00    1.37285   1.40096    0.169
 5436.00    1.40838   1.41421    0.171
 5437.00    1.42674   1.42688    0.171
 5438.00    1.43373   1.43844    0.171
 5439.00    1.43291   1.44869    0.170
 5440.00    1.42757   1.45535    0.170
 5441.00    1.42667   1.45864    0.170
 5442.00    1.42800   1.45711    0.171
 5443.00    1.42949   1.45225    0.173
 5444.00    1.43105   1.44614    0.177
 5445.00    1.43757   1.43812    0.177
 5446.00    1.44596   1.43080    0.176
 5447.00    1.43277   1.42341    0.175
 5448.00    1.41271   1.41737    0.174
 5449.00    1.39565   1.41211    0.173
 5450.00    1.37939   1.40756    0.173
 5451.00    1.37699   1.40341    0.174
 5452.00    1.37761   1.40039    0.175
 5453.00    1.37297   1.40013    0.175
 5454.00    1.36742   1.39995    0.174
 5455.00    1.38225   1.40069    0.176
 5456.00    1.39974   1.40091    0.177
 5457.00    1.40480   1.40209    0.178
 5458.00    1.40870   1.40331    0.178
 5459.00    1.40347   1.40435    0.176
 5460.00    1.39772   1.40628    0.175
 5461.00    1.40826   1.40820    0.174
 5462.00    1.41898   1.41050    0.173
 5463.00    1.41044   1.41201    0.173
 5464.00    1.40171   1.41276    0.172
 5465.00    1.38845   1.41241    0.170
 5466.00    1.37758   1.41090    0.168
 5467.00    1.39750   1.40869    0.170
 5468.00    1.41451   1.40522    0.170
 5469.00    1.40633   1.39998    0.169
 5470.00    1.39917   1.39410    0.168
 5471.00    1.39865   1.38679    0.168
 5472.00    1.39869   1.37770    0.169
 5473.00    1.40156   1.36927    0.169
 5474.00    1.40033   1.36241    0.169
 5475.00    1.38243   1.35697    0.170
 5476.00    1.36634   1.35344    0.170
 5477.00    1.35631   1.35147    0.169
 5478.00    1.34764   1.35245   -2.000
 5479.00    1.34279   1.35553   -2.000
 5480.00    1.34691   1.36127   -2.000
 5481.00    1.37280   1.36817   -2.000
 5482.00    1.38889   1.37513   -2.000
 5483.00    1.38449   1.38274   -2.000
 5484.00    1.35582   1.38956   -2.000
 5485.00    1.28296   1.39626   -2.000
 5486.00    1.21208   1.40077   -2.000
 5487.00    1.14437   1.40548   -2.000
 5488.00    1.16069   1.40927   -2.000
 5489.00    1.29442   1.41165   -2.000
 5490.00    1.41502   1.41366   -2.000
 5491.00    1.51948   1.41504   -2.000
 5492.00    1.58039   1.41577   -2.000
 5493.00    1.59412   1.41535   -2.000
 5494.00    1.56521   1.41567   -2.000
 5495.00    1.49554   1.41577   -2.000
 5496.00    1.44359   1.41477   -2.000
 5497.00    1.40658   1.41283   -2.000
 5498.00    1.40164   1.40994   -2.000
 5499.00    1.42051   1.40697   -2.000
 5500.00    1.42352   1.40344   -2.000
 5501.00    1.41620   1.39970   -2.000
 5502.00    1.42225   1.39453    0.176
 5503.00    1.43594   1.39029    0.175
 5504.00    1.41866   1.38706    0.174
 5505.00    1.38599   1.38327    0.174
 5506.00    1.37844   1.37978    0.172
 5507.00    1.38169   1.37669    0.171
 5508.00    1.37892   1.37384    0.171
 5509.00    1.37392   1.37221    0.173
 5510.00    1.38095   1.37177    0.172
 5511.00    1.39173   1.37248    0.171
 5512.00    1.38568   1.37505    0.170
 5513.00    1.37524   1.37927    0.168
 5514.00    1.37090   1.38578    0.168
 5515.00    1.36786   1.39303    0.169
 5516.00    1.37779   1.40119    0.169
 5517.00    1.38991   1.40909    0.168
 5518.00    1.40480   1.41676    0.170
 5519.00    1.42004   1.42318    0.171
 5520.00    1.43213   1.42747    0.170
 5521.00    1.44393   1.42945    0.169
 5522.00    1.42768   1.42874    0.168
 5523.00    1.40996   1.42605    0.167
 5524.00    1.40519   1.42117    0.165
 5525.00    1.40069   1.41647    0.163
 5526.00    1.39785   1.41221    0.165
 5527.00    1.39530   1.40831    0.167
 5528.00    1.39885   1.40540    0.167
 5529.00    1.40196   1.40383    0.166
 5530.00    1.39959   1.40400    0.167
 5531.00    1.39840   1.40482    0.167
 5532.00    1.40699   1.40757    0.169
 5533.00    1.41424   1.41091    0.169
 5534.00    1.41312   1.41473    0.168
 5535.00    1.41419   1.41959    0.167
 5536.00    1.42594   1.42429    0.170
 5537.00    1.43407   1.42932    0.172
 5538.00    1.42780   1.43358    0.171
 5539.00    1.42320   1.43753    0.194
 5540.00    1.42414   1.44143    0.458
 5541.00    1.42537   1.44538   -1.000
 5542.00    1.42743   1.44883   -1.000
 5543.00    1.43242   1.45220   -1.000
 5544.00    1.44438   1.45609   -1.000
 5545.00    1.45431   1.45946   -1.000
 5546.00    1.46002   1.46261   -1.000
 5547.00    1.46262   1.46542    0.963
 5548.00    1.45963   1.46743    0.254
 5549.00    1.45881   1.46857    0.174
 5550.00    1.46139   1.46869    0.172
 5551.00    1.46385   1.46792    0.171
 5552.00    1.46612   1.46627    0.171
 5553.00    1.47156   1.46353    0.171
 5554.00    1.48082   1.45974    0.171
 5555.00    1.47746   1.45575    0.171
 5556.00    1.46063   1.45097    0.172
 5557.00    1.44803   1.44590    0.171
 5558.00    1.43941   1.44045    0.169
 5559.00    1.42687   1.43473    0.167
 5560.00    1.41106   1.42939    0.166
 5561.00    1.40405   1.42371    0.165
 5562.00    1.40346   1.41809    0.165
 5563.00    1.40250   1.41286    0.164
 5564.00    1.40131   1.40826    0.162
 5565.00    1.40149   1.40418    0.162
 5566.00    1.40244   1.40081    0.163
 5567.00    1.39758   1.39928    0.163
 5568.00    1.38988   1.39795    0.163
 5569.00    1.38486   1.39781    0.163
 5570.00    1.38099   1.39948    0.162
 5571.00    1.39297   1.40186    0.163
 5572.00    1.41069   1.40474    0.165
 5573.00    1.40923   1.40817    0.165
 5574.00    1.40191   1.41179    0.165
 5575.00    1.40364   1.41469    0.165
 5576.00    1.40769   1.41714    0.165
 5577.00    1.41039   1.41794    0.165
 5578.00    1.41283   1.41677    0.166
 5579.00    1.41872   1.41387    0.167
 5580.00    1.42517   1.40810    0.168
 5581.00    1.41052   1.40022    0.167
 5582.00    1.39330   1.39025    0.167
 5583.00    1.38153   1.37837    0.166
 5584.00    1.37023   1.36649    0.166
 5585.00    1.36362   1.35495    0.168
 5586.00    1.35725   1.34483    0.170
 5587.00    1.33579   1.33699    0.170
 5588.00    1.31460   1.33154    0.170
 5589.00    1.32220   1.32920    0.172
 5590.00    1.32930   1.32952    0.174
 5591.00    1.32614   1.33256    0.172
 5592.00    1.32519   1.33734    0.171
 5593.00    1.34992   1.34277    0.172
 5594.00    1.37181   1.34800    0.173
 5595.00    1.37089   1.35304    0.173
 5596.00    1.36965   1.35784    0.173
 5597.00    1.36650   1.36137    0.172
 5598.00    1.36273   1.36541    0.172
 5599.00    1.35598   1.36914    0.172
 5600.00    1.35037   1.37465    0.172
 5601.00    1.34916   1.38105    0.170
 5602.00    1.35290   1.38918    0.169
 5603.00    1.37264   1.39862    0.170
 5604.00    1.39155   1.40853    0.170
 5605.00    1.40820   1.41845    0.169
 5606.00    1.42477   1.42736    0.168
 5607.00    1.44119   1.43495    0.165
 5608.00    1.45340   1.43932    0.164
 5609.00    1.45706   1.44041    0.164
 5610.00    1.45841   1.43819    0.163
 5611.00    1.45569   1.43277    0.162
 5612.00    1.44248   1.42549    0.161
 5613.00    1.41306   1.41696    0.161
 5614.00    1.38672   1.40771    0.160
 5615.00    1.36453   1.39892    0.161
 5616.00    1.35804   1.39114    0.161
 5617.00    1.37030   1.38523    0.162
 5618.00    1.37366   1.38058    0.162
 5619.00    1.36766   1.37768    0.161
 5620.00    1.36969   1.37597    0.162
 5621.00    1.37918   1.37561    0.164
 5622.00    1.37702   1.37665    0.164
 5623.00    1.36530   1.37899    0.164
 5624.00    1.35955   1.38263    0.164
 5625.00    1.35810   1.38715    0.163
 5626.00    1.36661   1.39224    0.164
 5627.00    1.38143   1.39785    0.165
 5628.00    1.38287   1.40329    0.165
 5629.00    1.37689   1.40832    0.166
 5630.00    1.37517   1.41199    0.165
 5631.00    1.37549   1.41410    0.164
 5632.00    1.38355   1.41458    0.164
 5633.00    1.39483   1.41352    0.165
 5634.00    1.38805   1.41111    0.164
 5635.00    1.37484   1.40734    0.163
 5636.00    1.36333   1.40335    0.267
 5637.00    1.35234   1.39919    1.604
 5638.00    1.36548   1.39564   -1.000
 5639.00    1.38464   1.39320   -1.000
 5640.00    1.38020   1.39168   -1.000
 5641.00    1.37101   1.39169   -1.000
 5642.00    1.37588   1.39258   -1.000
 5643.00    1.38298   1.39461   -1.000
 5644.00    1.39511   1.39710   -1.000
 5645.00    1.40783   1.40011   -1.000
 5646.00    1.40642   1.40307   -1.000
 5647.00    1.40389   1.40563   -1.000
 5648.00    1.41315   1.40719   -1.000
 5649.00    1.42293   1.40754   -1.000
 5650.00    1.42280   1.40679    0.316
 5651.00    1.42240   1.40427    0.158
 5652.00    1.41467   1.40004    0.158
 5653.00    1.40748   1.39472    0.158
 5654.00    1.41029   1.38849    0.159
 5655.00    1.41195   1.38190    0.160
 5656.00    1.40082   1.37551    0.159
 5657.00    1.38934   1.36988    0.159
 5658.00    1.37518   1.36588    0.160
 5659.00    1.36304   1.36352    0.160
 5660.00    1.36273   1.36342    0.159
 5661.00    1.36338   1.36476    0.159
 5662.00    1.36848   1.36819    0.160
 5663.00    1.37219   1.37288    0.161
 5664.00    1.37060   1.37892    0.160
 5665.00    1.36784   1.38545    0.159
 5666.00    1.36134   1.39276    0.159
 5667.00    1.36105   1.40048    0.160
 5668.00    1.37742   1.40814    0.161
 5669.00    1.38878   1.41573    0.163
 5670.00    1.38861   1.42306    0.164
 5671.00    1.39481   1.43007    0.164
 5672.00    1.41374   1.43607    0.165
 5673.00    1.42524   1.44109    0.164
 5674.00    1.42384   1.44454    0.162
 5675.00    1.42390   1.44647    0.162
 5676.00    1.42619   1.44618    0.165
 5677.00    1.42813   1.44438    0.167
 5678.00    1.42959   1.44099    0.166
 5679.00    1.42735   1.43650    0.165
 5680.00    1.42074   1.43103    0.163
 5681.00    1.42534   1.42517    0.162
 5682.00    1.44160   1.41978    0.163
 5683.00    1.44017   1.41508    0.162
 5684.00    1.42254   1.41206    0.159
 5685.00    1.41060   1.41010    0.157
 5686.00    1.40327   1.41033    0.156
 5687.00    1.39664   1.41167    0.156
 5688.00    1.39050   1.41446    0.157
 5689.00    1.38855   1.41792    0.157
 5690.00    1.38921   1.42177    0.155
 5691.00    1.40032   1.42535    0.155
 5692.00    1.41712   1.42744    0.155
 5693.00    1.42538   1.42861    0.156
 5694.00    1.42959   1.42764    0.157
 5695.00    1.43108   1.42484    0.158
 5696.00    1.43145   1.42002    0.160
 5697.00    1.41758   1.41392    0.160
 5698.00    1.39873   1.40662    0.158
 5699.00    1.39337   1.39836    0.158
 5700.00    1.39197   1.38950    0.159
 5701.00    1.39853   1.38048    0.159
 5702.00    1.40702   1.37179    0.159
 5703.00    1.40472   1.36326    0.159
 5704.00    1.40030   1.35599    0.159
 5705.00    1.38949   1.34960    0.159
 5706.00    1.37770   1.34475    0.158
 5707.00    1.36582   1.34212    0.158
 5708.00    1.35393   1.34172    0.157
 5709.00    1.34835   1.34403    0.157
 5710.00    1.34326   1.34898    0.158
 5711.00    1.35369   1.35671    0.157
 5712.00    1.36475   1.36662    0.156
 5713.00    1.38825   1.37864    0.158
 5714.00    1.41135   1.39164    0.161
 5715.00    1.41389   1.40525    0.159
 5716.00    1.41692   1.41868    0.157
 5717.00    1.42835   1.43137    0.158
 5718.00    1.43970   1.44266    0.158
 5719.00    1.45024   1.45229    0.158
 5720.00    1.45924   1.46002    0.158
 5721.00    1.45679   1.46549    0.157
 5722.00    1.45568   1.46930    0.157
 5723.00    1.46224   1.47122    0.157
 5724.00    1.46785   1.47161    0.158
 5725.00    1.46908   1.47058    0.156
 5726.00    1.47032   1.46895    0.155
 5727.00    1.47158   1.46707    0.156
 5728.00    1.47162   1.46517    0.156
 5729.00    1.46786   1.46365    0.157
 5730.00    1.46494   1.46250    0.156
 5731.00    1.46421   1.46205    0.155
 5732.00    1.46610   1.46204    0.154
 5733.00    1.47394   1.46253    0.151
 5734.00    1.48002   1.46317    0.150
 5735.00    1.48262   1.46390    0.152
 5736.00    1.48381   1.46449    0.153
 5737.00    1.48260   1.46490    0.153
 5738.00    1.47976   1.46514    0.153
 5739.00    1.47449   1.46510    0.153
 5740.00    1.47391   1.46465    0.000
 5741.00    1.47949   1.46400    0.000
 5742.00    1.48282   1.46291    0.000
 5743.00    1.48356   1.46173    0.000
 5744.00    1.48818   1.45999    0.000
 5745.00    1.49678   1.45791    0.000
 5746.00    1.49801   1.45515    0.000
 5747.00    1.49257   1.45218    0.000
 5748.00    1.48961   1.44894    0.000
 5749.00    1.48862   1.44574    0.000
 5750.00    1.47827   1.44280    0.000
 5751.00    1.46135   1.44003    0.000
 5752.00    1.45808   1.43794    0.000
 5753.00    1.46319   1.43618    0.000
 5754.00    1.46508   1.43520    0.000
 5755.00    1.46523   1.43447    0.000
 5756.00    1.46566   1.43454    0.000
 5757.00    1.46621   1.43467    0.000
 5758.00    1.46258   1.43551    0.000
 5759.00    1.45728   1.43656    0.000
 5760.00    1.46225   1.43833    0.000
 5761.00    1.47074   1.44063    0.000
 5762.00    1.46926   1.44373    0.000
 5763.00    1.46490   1.44749    0.000
 5764.00    1.46919   1.45160    0.000
 5765.00    1.47553   1.45606    0.000
 5766.00    1.47382   1.45997    0.000
 5767.00    1.47058   1.46345    0.000
 5768.00    1.48246   1.46566    0.000
 5769.00    1.49660   1.46672    0.000
 5770.00    1.49412   1.46619    0.000
 5771.00    1.48982   1.46417    0.000
 5772.00    1.48749   1.46051    0.000
 5773.00    1.48529   1.45519    0.000
 5774.00    1.48524   1.44858    0.000
 5775.00    1.48526   1.44049    0.000
 5776.00    1.48468   1.43132    0.000
 5777.00    1.48393   1.42091    0.000
 5778.00    1.47744   1.41027    0.000
 5779.00    1.47009   1.39966    0.000
 5780.00    1.44875   1.38981    0.000
 5781.00    1.42833   1.38148    0.000
 5782.00    1.41724   1.37509    0.000
 5783.00    1.40613   1.37134    0.000
 5784.00    1.39488   1.37039    0.000
 5785.00    1.38622   1.37238    0.000
 5786.00    1.39199   1.37684    0.000
 5787.00    1.40014   1.38350    0.000
 5788.00    1.41889   1.39164    0.000
 5789.00    1.43384   1.40064    0.000
 5790.00    1.43497   1.41000    0.000
 5791.00    1.43551   1.41938   -2.000
 5792.00    1.43420   1.42828   -2.000
 5793.00    1.43408   1.43658   -2.000
 5794.00    1.43705   1.44402   -2.000
 5795.00    1.44088   1.45071   -2.000
 5796.00    1.44664   1.45636   -2.000
 5797.00    1.45730   1.46132   -2.000
 5798.00    1.47740   1.46531   -2.000
 5799.00    1.48883   1.46851   -2.000
 5800.00    1.48561   1.47070   -2.000
 5801.00    1.48910   1.47210   -2.000
 5802.00    1.50253   1.47265   -2.000
 5803.00    1.51089   1.47259   -2.000
 5804.00    1.51266   1.47200   -2.000
 5805.00    1.51633   1.47118   -2.000
 5806.00    1.52217   1.47020   -2.000
 5807.00    1.51899   1.46931   -2.000
 5808.00    1.50669   1.46853   -2.000
 5809.00    1.49688   1.46802   -2.000
 5810.00    1.48928   1.46773   -2.000
 5811.00    1.48869   1.46769    0.000
 5812.00    1.49361   1.46795    0.000
 5813.00    1.49111   1.46857    0.000
 5814.00    1.48351   1.46967    0.000
 5815.00    1.47352   1.47130    0.000
 5816.00    1.46210   1.47351    0.000
 5817.00    1.46341   1.47627    0.000
 5818.00    1.47144   1.47939    0.000
 5819.00    1.48157   1.48283    0.000
 5820.00    1.49265   1.48617    0.000
 5821.00    1.49725   1.48944    0.000
 5822.00    1.49930   1.49220    0.000
 5823.00    1.50083   1.49458    0.000
 5824.00    1.50218   1.49627    0.000
 5825.00    1.51146   1.49743    0.000
 5826.00    1.52298   1.49798    0.000
 5827.00    1.51700   1.49798    0.000
 5828.00    1.50693   1.49748    0.000
 5829.00    1.50276   1.49655    0.000
 5830.00    1.49968   1.49532    0.000
 5831.00    1.49127   1.49391    0.000
 5832.00    1.48210   1.49243    0.000
 5833.00    1.48663   1.49112    0.000
 5834.00    1.49259   1.49001    0.000
 5835.00    1.49581   1.48931    0.000
 5836.00    1.49884   1.48893    0.000
 5837.00    1.49902   1.48891    0.000
 5838.00    1.49909   1.48902    0.000
 5839.00    1.50140   1.48904    0.000
 5840.00    1.50392   1.48873    0.000
 5841.00    1.51310   1.48770    0.000
 5842.00    1.52122   1.48583    0.000
 5843.00    1.51306   1.48277    0.000
 5844.00    1.50462   1.47867    0.000
 5845.00    1.49342   1.47334    0.000
 5846.00    1.48251   1.46700    0.000
 5847.00    1.47368   1.45972    0.000
 5848.00    1.46547   1.45177    0.000
 5849.00    1.46067   1.44346    0.000
 5850.00    1.45602   1.43485    0.000
 5851.00    1.45204   1.42650    0.000
 5852.00    1.44850   1.41834    0.000
 5853.00    1.44655   1.41115    0.000
 5854.00    1.44349   1.40467    0.000
 5855.00    1.43710   1.39980    0.000
 5856.00    1.42772   1.39606    0.000
 5857.00    1.41073   1.39429    0.000
 5858.00    1.40034   1.39384    0.000
 5859.00    1.40442   1.39518    0.000
 5860.00    1.40655   1.39766    0.000
 5861.00    1.40497   1.40132    0.000
 5862.00    1.40804   1.40575    0.000
 5863.00    1.41884   1.41061    0.000
 5864.00    1.42687   1.41582    0.000
 5865.00    1.43088   1.42083    0.000
 5866.00    1.43225   1.42581    0.000
 5867.00    1.43027   1.43017    0.000
 5868.00    1.43122   1.43410    0.000
 5869.00    1.43548   1.43711    0.000
 5870.00    1.43937   1.43923    0.000
 5871.00    1.44288   1.44021    0.000
 5872.00    1.44411   1.43987    0.000
 5873.00    1.44333   1.43829    0.000
 5874.00    1.44493   1.43513    0.000
 5875.00    1.44837   1.43067    0.000
 5876.00    1.44716   1.42451    0.000
 5877.00    1.44280   1.41689    0.000
 5878.00    1.43148   1.40737    0.000
 5879.00    1.41602   1.39601    0.000
 5880.00    1.40534   1.38229    0.000
 5881.00    1.39713   1.36605    0.000
 5882.00    1.38068   1.34695    0.000
 5883.00    1.36052   1.32499    0.000
 5884.00    1.33920   1.30032    0.000
 5885.00    1.31743   1.27361    0.000
 5886.00    1.28276   1.24570    0.000
 5887.00    1.24383   1.21796    0.000
 5888.00    1.19921   1.19178    0.000
 5889.00    1.15300   1.16880    0.000
 5890.00    1.12389   1.15034    0.000
 5891.00    1.09867   1.13760    0.000
 5892.00    1.08988   1.13123    0.000
 5893.00    1.08409   1.13165    0.000
 5894.00    1.09841   1.13857    0.000
 5895.00    1.11554   1.15155    0.000
 5896.00    1.13966   1.16961    0.000
 5897.00    1.16448   1.19163    0.000
 5898.00    1.19463   1.21631    0.000
 5899.00    1.22511   1.24226    0.000
 5900.00    1.25170   1.26825    0.000
 5901.00    1.27819   1.29305    0.139
 5902.00    1.30671   1.31580    0.139
 5903.00    1.33491   1.33581    0.140
 5904.00    1.35432   1.35272    0.139
 5905.00    1.37364   1.36649    0.138
 5906.00    1.39165   1.37712    0.139
 5907.00    1.40768   1.38500    0.140
 5908.00    1.40530   1.39032    0.140
 5909.00    1.40319   1.39369    0.139
 5910.00    1.40288   1.39534    0.138
 5911.00    1.40236   1.39596    0.138
 5912.00    1.40073   1.39579    0.138
 5913.00    1.39910   1.39544    0.138
 5914.00    1.39747   1.39518    0.138
 5915.00    1.39594   1.39533    0.137
 5916.00    1.39477   1.39611    0.137
 5917.00    1.39598   1.39743    0.138
 5918.00    1.40417   1.39942    0.141
 5919.00    1.41242   1.40168    0.143
 5920.00    1.42081   1.40422    0.144
 5921.00    1.42274   1.40656    0.144
 5922.00    1.41072   1.40868    0.144
 5923.00    1.40324   1.41027    0.144
 5924.00    1.40428   1.41131    0.145
 5925.00    1.40771   1.41180    0.145
 5926.00    1.41508   1.41175    0.143
 5927.00    1.42025   1.41137    0.141
 5928.00    1.42226   1.41072    0.140
 5929.00    1.41946   1.41008    0.140
 5930.00    1.41058   1.40950    0.141
 5931.00    1.40782   1.40917    0.141
 5932.00    1.41185   1.40914    0.140
 5933.00    1.41335   1.40939    0.139
 5934.00    1.41234   1.40995    0.139
 5935.00    1.41465   1.41069    0.139
 5936.00    1.41981   1.41159    0.140
 5937.00    1.42660   1.41250    0.139
 5938.00    1.43462   1.41337    0.139
 5939.00    1.44038   1.41415    0.139
 5940.00    1.44462   1.41475    0.139
 5941.00    1.44214   1.41515    0.140
 5942.00    1.43571   1.41530    0.141
 5943.00    1.42805   1.41515    0.139
 5944.00    1.41977   1.41466    0.137
 5945.00    1.41716   1.41383    0.136
 5946.00    1.41707   1.41265    0.135
 5947.00    1.41541   1.41116    0.137
 5948.00    1.41313   1.40950    0.139
 5949.00    1.40508   1.40773    0.139
 5950.00    1.39516   1.40612    0.138
 5951.00    1.39541   1.40475    0.138
 5952.00    1.39842   1.40392    0.138
 5953.00    1.40067   1.40368    0.138
 5954.00    1.40275   1.40425    0.138
 5955.00    1.40502   1.40557    0.138
 5956.00    1.40732   1.40775    0.139
 5957.00    1.41461   1.41059    0.140
 5958.00    1.42257   1.41406    0.141
 5959.00    1.43002   1.41790    0.141
 5960.00    1.43742   1.42198    0.142
 5961.00    1.42974   1.42608    0.141
 5962.00    1.42117   1.43001    0.140
 5963.00    1.42063   1.43369    0.138
 5964.00    1.42035   1.43693    0.136
 5965.00    1.42716   1.43975    0.138
 5966.00    1.43366   1.44194    0.139
 5967.00    1.43196   1.44355    0.138
 5968.00    1.43094   1.44432    0.137
 5969.00    1.43887   1.44433    0.137
 5970.00    1.44706   1.44335    0.136
 5971.00    1.45759   1.44147    0.137
 5972.00    1.46620   1.43864    0.137
 5973.00    1.46212   1.43505    0.137
 5974.00    1.45685   1.43083    0.137
 5975.00    1.44547   1.42624    0.136
 5976.00    1.43329   1.42152    0.135
 5977.00    1.41787   1.41687    0.134
 5978.00    1.40587   1.41253    0.134
 5979.00    1.40556   1.40863    0.134
 5980.00    1.40490   1.40534    0.134
 5981.00    1.40325   1.40271    0.134
 5982.00    1.40232   1.40089    0.135
 5983.00    1.40316   1.39990    0.135
 5984.00    1.40187   1.39982    0.135
 5985.00    1.39608   1.40057    0.135
 5986.00    1.39100   1.40213    0.136
 5987.00    1.38724   1.40428    0.136
 5988.00    1.39065   1.40686    0.136
 5989.00    1.40561   1.40954    0.137
 5990.00    1.41884   1.41207    0.138
 5991.00    1.42964   1.41417    0.139
 5992.00    1.43697   1.41563    0.139
 5993.00    1.44001   1.41634    0.139
 5994.00    1.44113   1.41620    0.138
 5995.00    1.44014   1.41530    0.138
 5996.00    1.43530   1.41369    0.137
 5997.00    1.42675   1.41152    0.136
 5998.00    1.41931   1.40894    0.136
 5999.00    1.41282   1.40608    0.136
 6000.00    1.41678   1.40308    0.136
 6001.00    1.42858   1.40005    0.136
 6002.00    1.43086   1.39708    0.135
 6003.00    1.42684   1.39426    0.135
 6004.00    1.42172   1.39164    0.135
 6005.00    1.41596   1.38931    0.135
 6006.00    1.41010   1.38726    0.134
 6007.00    1.40419   1.38556    0.134
 6008.00    1.39790   1.38414    0.133
 6009.00    1.39145   1.38300    0.133
 6010.00    1.38962   1.38200    0.134
 6011.00    1.38952   1.38110    0.135
 6012.00    1.39201   1.38022    0.136
 6013.00    1.39533   1.37937    0.136
 6014.00    1.39777   1.37852    0.136
 6015.00    1.39998   1.37784    0.136
 6016.00    1.39643   1.37735    0.137
 6017.00    1.39164   1.37739    0.137
 6018.00    1.38697   1.37793    0.137
 6019.00    1.38232   1.37935    0.137
 6020.00    1.37840   1.38155    0.137
 6021.00    1.37458   1.38480    0.136
 6022.00    1.37953   1.38890    0.137
 6023.00    1.38529   1.39395    0.138
 6024.00    1.39495   1.39966    0.138
 6025.00    1.40482   1.40591    0.138
 6026.00    1.41577   1.41246    0.138
 6027.00    1.42671   1.41903    0.138
 6028.00    1.43335   1.42550    0.137
 6029.00    1.43971   1.43147    0.136
 6030.00    1.43981   1.43702    0.136
 6031.00    1.44048   1.44177    0.136
 6032.00    1.44862   1.44589    0.134
 6033.00    1.45640   1.44916    0.133
 6034.00    1.46110   1.45178    0.134
 6035.00    1.46493   1.45371    0.135
 6036.00    1.46316   1.45516    0.134
 6037.00    1.46160   1.45625    0.133
 6038.00    1.46107   1.45711    0.133
 6039.00    1.45896   1.45798    0.132
 6040.00    1.45048   1.45884    0.133
 6041.00    1.44542   1.45988    0.134
 6042.00    1.45184   1.46097    0.134
 6043.00    1.45820   1.46214    0.134
 6044.00    1.46445   1.46317    0.134
 6045.00    1.46828   1.46394    0.134
 6046.00    1.46626   1.46429    0.134
 6047.00    1.46692   1.46400    0.134
 6048.00    1.47318   1.46309    0.135
 6049.00    1.47791   1.46138    0.135
 6050.00    1.47985   1.45910    0.136
 6051.00    1.47918   1.45616    0.136
 6052.00    1.47437   1.45291    0.137
 6053.00    1.46823   1.44942    0.137
 6054.00    1.46023   1.44594    0.137
 6055.00    1.45371   1.44262    0.138
 6056.00    1.44902   1.43956    0.138
 6057.00    1.44448   1.43692    0.137
 6058.00    1.44011   1.43466    0.136
 6059.00    1.43486   1.43295    0.136
 6060.00    1.42879   1.43178    0.136
 6061.00    1.42694   1.43131    0.136
 6062.00    1.42863   1.43163    0.136
 6063.00    1.43558   1.43284    0.136
 6064.00    1.44644   1.43501    0.136
 6065.00    1.45103   1.43808    0.135
 6066.00    1.45153   1.44195    0.134
 6067.00    1.45537   1.44627    0.133
 6068.00    1.46110   1.45074    0.132
 6069.00    1.46833   1.45487    0.132
 6070.00    1.47631   1.45821    0.133
 6071.00    1.48171   1.46039    0.133
 6072.00    1.48601   1.46109    0.133
 6073.00    1.48153   1.46019    0.133
 6074.00    1.47383   1.45768    0.134
 6075.00    1.46433   1.45377    0.134
 6076.00    1.45427   1.44870    0.133
 6077.00    1.45093   1.44289    0.134
 6078.00    1.44933   1.43674    0.134
 6079.00    1.44561   1.43062    0.134
 6080.00    1.44145   1.42489    0.133
 6081.00    1.43299   1.41976    0.135
 6082.00    1.42383   1.41544    0.137
 6083.00    1.42230   1.41193    0.137
 6084.00    1.42175   1.40925    0.137
 6085.00    1.42603   1.40731    0.137
 6086.00    1.43073   1.40603    0.136
 6087.00    1.43652   1.40532    0.136
 6088.00    1.44237   1.40506    0.136
 6089.00    1.43859   1.40521    0.136
 6090.00    1.43450   1.40563    0.135
 6091.00    1.42141   1.40628    0.134
 6092.00    1.40898   1.40691    0.133
 6093.00    1.41051   1.40752    0.133
 6094.00    1.41277   1.40772    0.132
 6095.00    1.42381   1.40758    0.132
 6096.00    1.43371   1.40675    0.133
 6097.00    1.43421   1.40547    0.133
 6098.00    1.43368   1.40361    0.134
 6099.00    1.42678   1.40159    0.133
 6100.00    1.41887   1.39956    0.132
 6101.00    1.40607   1.39796    0.132
 6102.00    1.39610   1.39710    0.132
 6103.00    1.39734   1.39715    0.131
 6104.00    1.40094   1.39837    0.131
 6105.00    1.41233   1.40050    0.131
 6106.00    1.42306   1.40363    0.132
 6107.00    1.43195   1.40716    0.131
 6108.00    1.43999   1.41098    0.131
 6109.00    1.44599   1.41446    0.132
 6110.00    1.44985   1.41739    0.133
 6111.00    1.44931   1.41931    0.135
 6112.00    1.44862   1.42008    0.136
 6113.00    1.44763   1.41949    0.135
 6114.00    1.44449   1.41757    0.135
 6115.00    1.43797   1.41440    0.134
 6116.00    1.43191   1.41023    0.134
 6117.00    1.42647   1.40540    0.134
 6118.00    1.41941   1.40026    0.134
 6119.00    1.41037   1.39534    0.134
 6120.00    1.40347   1.39092    0.134
 6121.00    1.39887   1.38747    0.134
 6122.00    1.39717   1.38506    0.133
 6123.00    1.39821   1.38381    0.132
 6124.00    1.40381   1.38350    0.131
 6125.00    1.41320   1.38391    0.130
 6126.00    1.41894   1.38458    0.130
 6127.00    1.42202   1.38509    0.131
 6128.00    1.42261   1.38499    0.131
 6129.00    1.42160   1.38395    0.130
 6130.00    1.42333   1.38174    0.130
 6131.00    1.42659   1.37845    0.130
 6132.00    1.42007   1.37422    0.130
 6133.00    1.40877   1.36960    0.130
 6134.00    1.39928   1.36503    0.131
 6135.00    1.39056   1.36121    0.133
 6136.00    1.38346   1.35869    0.134
 6137.00    1.37694   1.35787    0.135
 6138.00    1.37736   1.35901    0.135
 6139.00    1.37990   1.36195    0.134
 6140.00    1.38690   1.36648    0.134
 6141.00    1.39504   1.37203    0.135
 6142.00    1.40738   1.37805    0.135
 6143.00    1.42058   1.38391    0.136
 6144.00    1.42936   1.38903    0.135
 6145.00    1.43741   1.39304    0.134
 6146.00    1.43097   1.39565    0.133
 6147.00    1.42276   1.39677    0.132
 6148.00    1.41579   1.39637    0.132
 6149.00    1.40892   1.39452    0.133
 6150.00    1.41226   1.39126    0.132
 6151.00    1.41608   1.38670    0.132
 6152.00    1.41768   1.38076    0.131
 6153.00    1.41907   1.37358    0.131
 6154.00    1.41003   1.36503    0.130
 6155.00    1.40089   1.35536    0.130
 6156.00    1.38987   1.34461    0.130
 6157.00    1.37779   1.33323    0.130
 6158.00    1.35364   1.32161    0.130
 6159.00    1.33001   1.31034    0.130
 6160.00    1.31058   1.30001    0.129
 6161.00    1.29411   1.29117    0.128
 6162.00    1.29548   1.28430    0.129
 6163.00    1.29748   1.27968    0.129
 6164.00    1.30248   1.27737    0.129
 6165.00    1.30603   1.27737    0.130
 6166.00    1.30399   1.27935    0.130
 6167.00    1.30182   1.28311    0.131
 6168.00    1.29922   1.28819    0.131
 6169.00    1.30147   1.29434    0.131
 6170.00    1.31698   1.30119    0.131
 6171.00    1.33124   1.30844    0.132
 6172.00    1.34262   1.31595    0.133
 6173.00    1.34718   1.32333    0.134
 6174.00    1.33795   1.33058    0.132
 6175.00    1.32881   1.33728    0.131
 6176.00    1.31981   1.34345    0.130
 6177.00    1.31534   1.34864    0.129
 6178.00    1.31787   1.35289    0.130
 6179.00    1.32220   1.35585    0.131
 6180.00    1.32900   1.35748    0.130
 6181.00    1.33495   1.35768    0.129
 6182.00    1.33992   1.35638    0.127
 6183.00    1.34173   1.35382    0.127
 6184.00    1.34023   1.35002    0.127
 6185.00    1.33825   1.34552    0.127
 6186.00    1.33582   1.34051    0.128
 6187.00    1.32968   1.33567    0.129
 6188.00    1.32050   1.33132    0.129
 6189.00    1.31136   1.32797    0.129
 6190.00    1.30224   1.32589    0.129
 6191.00    1.30005   1.32524    0.129
 6192.00    1.30223   1.32604    0.129
 6193.00    1.30668   1.32812    0.130
 6194.00    1.31238   1.33121    0.131
 6195.00    1.30712   1.33509    0.137
 6196.00    1.29660   1.33926   -2.000
 6197.00    1.27890   1.34367   -2.000
 6198.00    1.25824   1.34784   -2.000
 6199.00    1.25918   1.35185   -2.000
 6200.00    1.26779   1.35531   -2.000
 6201.00    1.31759   1.35831   -2.000
 6202.00    1.37971   1.36051   -2.000
 6203.00    1.41664   1.36189   -2.000
 6204.00    1.44732   1.36211   -2.000
 6205.00    1.44455   1.36110   -2.000
 6206.00    1.43505   1.35862   -2.000
 6207.00    1.41426   1.35463   -2.000
 6208.00    1.39169   1.34918    0.134
 6209.00    1.37681   1.34238    0.133
 6210.00    1.36283   1.33463    0.131
 6211.00    1.34596   1.32621    0.129
 6212.00    1.32887   1.31772    0.127
 6213.00    1.31711   1.30949    0.126
 6214.00    1.30558   1.30211    0.126
 6215.00    1.29903   1.29581    0.125
 6216.00    1.29268   1.29090    0.124
 6217.00    1.29334   1.28738    0.125
 6218.00    1.29414   1.28520    0.125
 6219.00    1.29771   1.28421    0.126
 6220.00    1.30105   1.28400    0.126
 6221.00    1.30193   1.28441    0.127
 6222.00    1.30288   1.28489    0.127
 6223.00    1.30426   1.28541    0.128
 6224.00    1.30529   1.28547    0.128
 6225.00    1.30421   1.28534    0.129
 6226.00    1.30437   1.28470    0.130
 6227.00    1.31021   1.28399    0.132
 6228.00    1.31422   1.28318    0.133
 6229.00    1.31126   1.28259    0.133
 6230.00    1.30846   1.28239    0.133
 6231.00    1.30621   1.28245    0.133
 6232.00    1.30490   1.28307    0.132
 6233.00    1.30612   1.28359    0.130
 6234.00    1.30646   1.28436    0.128
 6235.00    1.30475   1.28447    0.127
 6236.00    1.30292   1.28435    0.127
 6237.00    1.30088   1.28334    0.126
 6238.00    1.30129   1.28187    0.126
 6239.00    1.30596   1.27977    0.126
 6240.00    1.30758   1.27750    0.126
 6241.00    1.30455   1.27515    0.126
 6242.00    1.29968   1.27312    0.125
 6243.00    1.29234   1.27138    0.124
 6244.00    1.28680   1.27015    0.124
 6245.00    1.28338   1.26910    0.125
 6246.00    1.28160   1.26829    0.125
 6247.00    1.28151   1.26721    0.124
 6248.00    1.28602   1.26581    0.125
 6249.00    1.29473   1.26384    0.127
 6250.00    1.29775   1.26123    0.128
 6251.00    1.29618   1.25828    0.128
 6252.00    1.29180   1.25494    0.128
 6253.00    1.28542   1.25203    0.129
 6254.00    1.28069   1.24945    0.129
 6255.00    1.27698   1.24822    0.130
 6256.00    1.26703   1.24807    0.130
 6257.00    1.25369   1.24974    0.130
 6258.00    1.24736   1.25287    0.132
 6259.00    1.24435   1.25752    0.134
 6260.00    1.24867   1.26342    0.139
 6261.00    1.25598   1.26998    0.147
 6262.00    1.27445   1.27719    0.151
 6263.00    1.29680   1.28411    0.154
 6264.00    1.31762   1.29101    0.151
 6265.00    1.33799   1.29706    0.147
 6266.00    1.34144   1.30269    0.139
 6267.00    1.34077   1.30734    0.132
 6268.00    1.34060   1.31146    0.128
 6269.00    1.34053   1.31478    0.124
 6270.00    1.34187   1.31758    0.124
 6271.00    1.34343   1.31982    0.125
 6272.00    1.34690   1.32158    0.124
 6273.00    1.35058   1.32298    0.124
 6274.00    1.35671   1.32393    0.125
 6275.00    1.36303   1.32477    0.127
 6276.00    1.36702   1.32529    0.128
 6277.00    1.37091   1.32602    0.129
 6278.00    1.36823   1.32668    0.129
 6279.00    1.36540   1.32785    0.130
 6280.00    1.35820   1.32921    0.000
 6281.00    1.35116   1.33115    0.000
 6282.00    1.34694   1.33338    0.000
 6283.00    1.34338   1.33588    0.000
 6284.00    1.34683   1.33847    0.000
 6285.00    1.35111   1.34075    0.000
 6286.00    1.36161   1.34271    0.000
 6287.00    1.37141   1.34376    0.000
 6288.00    1.37713   1.34410    0.000
 6289.00    1.38222   1.34321    0.000
 6290.00    1.38440   1.34147    0.000
 6291.00    1.38618   1.33861    0.000
 6292.00    1.38644   1.33510    0.000
 6293.00    1.38452   1.33093    0.000
 6294.00    1.37586   1.32662    0.000
 6295.00    1.36708   1.32228    0.000
 6296.00    1.35796   1.31836    0.000
 6297.00    1.34970   1.31506    0.000
 6298.00    1.34340   1.31264    0.000
 6299.00    1.33924   1.31122    0.000
 6300.00    1.33928   1.31087    0.000
 6301.00    1.34000   1.31154    0.000
 6302.00    1.34186   1.31311    0.000
 6303.00    1.34493   1.31529    0.000
 6304.00    1.34979   1.31781    0.000
 6305.00    1.35257   1.32033    0.000
 6306.00    1.35263   1.32239    0.000
 6307.00    1.35263   1.32385    0.000
 6308.00    1.35255   1.32428    0.000
 6309.00    1.35258   1.32379    0.000
 6310.00    1.35272   1.32217    0.000
 6311.00    1.35230   1.31981    0.000
 6312.00    1.35137   1.31676    0.000
 6313.00    1.34734   1.31359    0.000
 6314.00    1.34083   1.31054    0.000
 6315.00    1.33067   1.30815    0.000
 6316.00    1.31795   1.30658    0.000
 6317.00    1.31569   1.30633    0.000
 6318.00    1.31984   1.30721    0.000
 6319.00    1.32641   1.30957    0.000
 6320.00    1.33428   1.31287    0.000
 6321.00    1.33763   1.31723    0.124
 6322.00    1.33888   1.32208    0.124
 6323.00    1.34335   1.32712    0.124
 6324.00    1.34909   1.33207    0.125
 6325.00    1.35948   1.33629    0.125
 6326.00    1.37146   1.33992    0.124
 6327.00    1.37736   1.34230    0.125
 6328.00    1.38150   1.34369    0.126
 6329.00    1.37696   1.34379    0.127
 6330.00    1.37036   1.34288    0.127
 6331.00    1.36696   1.34105    0.127
 6332.00    1.36419   1.33846    0.127
 6333.00    1.36017   1.33551    0.127
 6334.00    1.35598   1.33243    0.128
 6335.00    1.35428   1.32944    0.128
 6336.00    1.35284   1.32693    0.128
 6337.00    1.34668   1.32478    0.128
 6338.00    1.34018   1.32354    0.129
 6339.00    1.34187   1.32272    0.128
 6340.00    1.34385   1.32285    0.127
 6341.00    1.34410   1.32333    0.127
 6342.00    1.34448   1.32454    0.127
 6343.00    1.34969   1.32603    0.126
 6344.00    1.35479   1.32774    0.125
 6345.00    1.35825   1.32951    0.125
 6346.00    1.36134   1.33100    0.126
 6347.00    1.36068   1.33221    0.124
 6348.00    1.36055   1.33260    0.124
 6349.00    1.36425   1.33213    0.123
 6350.00    1.36710   1.33048    0.123
 6351.00    1.36530   1.32769    0.124
 6352.00    1.36234   1.32365    0.124
 6353.00    1.35424   1.31852    0.125
 6354.00    1.34723   1.31256    0.125
 6355.00    1.34415   1.30609    0.125
 6356.00    1.34030   1.29953    0.125
 6357.00    1.33412   1.29336    0.127
 6358.00    1.32605   1.28803    0.128
 6359.00    1.31305   1.28410    0.128
 6360.00    1.30152   1.28179    0.128
 6361.00    1.29321   1.28147    0.128
 6362.00    1.29008   1.28309    0.128
 6363.00    1.29695   1.28675    0.128
 6364.00    1.30420   1.29214    0.129
 6365.00    1.31210   1.29900    0.129
 6366.00    1.32175   1.30687    0.130
 6367.00    1.33397   1.31524    0.130
 6368.00    1.34442   1.32383    0.129
 6369.00    1.35257   1.33198    0.128
 6370.00    1.35959   1.33955    0.127
 6371.00    1.36530   1.34604    0.126
 6372.00    1.37184   1.35151    0.125
 6373.00    1.37921   1.35568    0.126
 6374.00    1.38467   1.35871    0.126
 6375.00    1.38842   1.36064    0.126
 6376.00    1.38638   1.36165    0.125
 6377.00    1.37979   1.36199    0.125
 6378.00    1.37187   1.36179    0.125
 6379.00    1.36304   1.36136    0.124
 6380.00    1.35722   1.36080    0.124
 6381.00    1.35322   1.36022    0.124
 6382.00    1.35464   1.35960    0.125
 6383.00    1.35892   1.35899    0.127
 6384.00    1.36861   1.35833    0.127
 6385.00    1.38078   1.35753    0.127
 6386.00    1.38783   1.35637    0.127
 6387.00    1.39285   1.35489    0.128
 6388.00    1.39113   1.35307    0.127
 6389.00    1.38714   1.35080    0.125
 6390.00    1.37774   1.34846    0.125
 6391.00    1.36681   1.34586    0.126
 6392.00    1.36489   1.34348    0.127
 6393.00    1.36507   1.34108    0.129
 6394.00    1.36595   1.33938    0.130
 6395.00    1.36697   1.33794    0.131
 6396.00    1.36629   1.33717    0.130
 6397.00    1.36537   1.33695    0.129
 6398.00    1.36594   1.33727    0.129
 6399.00    1.36666   1.33822    0.129
 6400.00    1.36274   1.33914    0.127
 6401.00    1.35851   1.34052    0.125
 6402.00    1.35931   1.34167    0.126
 6403.00    1.36028   1.34301    0.127
 6404.00    1.36279   1.34381    0.127
 6405.00    1.36524   1.34428    0.127
 6406.00    1.36586   1.34431    0.126
 6407.00    1.36611   1.34398    0.125
 6408.00    1.36071   1.34332    0.126
 6409.00    1.35544   1.34258    0.127
 6410.00    1.35137   1.34182    0.127
 6411.00    1.34768   1.34093    0.127
 6412.00    1.34672   1.34013    0.127
 6413.00    1.34615   1.33947    0.127
 6414.00    1.34771   1.33904    0.126
 6415.00    1.34907   1.33886    0.126
 6416.00    1.34957   1.33916    0.127
 6417.00    1.35010   1.33966    0.128
 6418.00    1.35070   1.34077    0.127
 6419.00    1.35185   1.34189    0.127
 6420.00    1.35462   1.34349    0.127
 6421.00    1.35576   1.34539    0.126
 6422.00    1.35273   1.34737    0.126
 6423.00    1.35106   1.34936    0.126
 6424.00    1.35239   1.35099    0.125
 6425.00    1.35385   1.35249    0.125
 6426.00    1.35557   1.35323    0.126
 6427.00    1.35602   1.35371    0.127
 6428.00    1.35435   1.35353    0.127
 6429.00    1.35380   1.35322    0.127
 6430.00    1.35486   1.35267    0.128
 6431.00    1.35863   1.35208    0.128
 6432.00    1.36586   1.35173    0.128
 6433.00    1.36951   1.35152    0.127
 6434.00    1.36914   1.35196    0.127
 6435.00    1.36775   1.35277    0.127
 6436.00    1.36536   1.35412    0.127
 6437.00    1.36302   1.35574    0.127
 6438.00    1.36072   1.35763    0.127
 6439.00    1.36045   1.35947    0.128
 6440.00    1.36175   1.36108    0.129
 6441.00    1.36397   1.36212    0.129
 6442.00    1.36680   1.36249    0.128
 6443.00    1.37428   1.36191    0.128
 6444.00    1.38452   1.36043    0.129
 6445.00    1.37936   1.35799    0.128
 6446.00    1.36621   1.35505    0.127
 6447.00    1.35562   1.35176    0.127
 6448.00    1.34617   1.34840    0.128
 6449.00    1.34166   1.34553    0.129
 6450.00    1.33906   1.34304    0.129
 6451.00    1.34103   1.34164    0.128
 6452.00    1.34451   1.34094    0.126
 6453.00    1.34866   1.34144    0.126
 6454.00    1.35299   1.34235    0.126
 6455.00    1.35437   1.34418    0.127
 6456.00    1.35508   1.34595    0.128
 6457.00    1.35527   1.34828    0.128
 6458.00    1.35537   1.35023    0.128
 6459.00    1.36077   1.35210    0.128
 6460.00    1.36691   1.35342    0.128
 6461.00    1.36464   1.35451    0.127
 6462.00    1.36152   1.35539    0.126
 6463.00    1.36315   1.35636    0.126
 6464.00    1.36508   1.35757    0.126
 6465.00    1.37641   1.35848    0.127
 6466.00    1.38796   1.35984    0.128
 6467.00    1.38512   1.36062    0.128
 6468.00    1.38233   1.36195    0.128
 6469.00    1.38096   1.36247    0.128
 6470.00    1.37988   1.36361    0.127
 6471.00    1.38288   1.36392    0.129
 6472.00    1.38624   1.36397    0.130
 6473.00    1.39281   1.36340    0.130
 6474.00    1.39852   1.36232    0.129
 6475.00    1.39831   1.36101    0.129
 6476.00    1.39825   1.35902    0.129
 6477.00    1.39901   1.35705    0.129
 6478.00    1.39926   1.35441    0.129
 6479.00    1.39738   1.35201    0.128
 6480.00    1.39359   1.34901    0.127
 6481.00    1.38311   1.34581    0.126
 6482.00    1.37396   1.34229    0.126
 6483.00    1.36869   1.33845    0.126
 6484.00    1.36618   1.33389    0.126
 6485.00    1.37057   1.32816    0.125
 6486.00    1.37273   1.32169    0.125
 6487.00    1.37006   1.31397    0.125
 6488.00    1.36287   1.30520    0.126
 6489.00    1.34722   1.29570    0.126
 6490.00    1.33149   1.28554    0.127
 6491.00    1.31566   1.27552    0.127
 6492.00    1.30230   1.26575    0.127
 6493.00    1.29249   1.25747    0.128
 6494.00    1.28311   1.25083    0.128
 6495.00    1.27428   1.24680    0.128
 6496.00    1.26830   1.24543    0.127
 6497.00    1.26547   1.24695    0.127
 6498.00    1.27026   1.25153    0.127
 6499.00    1.28251   1.25797    0.128
 6500.00    1.29189   1.26671    0.128
 6501.00    1.29878   1.27628    0.127
 6502.00    1.31356   1.28736    0.126
 6503.00    1.33434   1.29774    0.126
 6504.00    1.34955   1.30789    0.126
 6505.00    1.36105   1.31667    0.127
 6506.00    1.36482   1.32410    0.127
 6507.00    1.36408   1.33031    0.127
 6508.00    1.36605   1.33484    0.127
 6509.00    1.36941   1.33807    0.127
 6510.00    1.36896   1.34001    0.126
 6511.00    1.36682   1.34120    0.125
 6512.00    1.37068   1.34148    0.126
 6513.00    1.37682   1.34145    0.127
 6514.00    1.38427   1.34081    0.126
 6515.00    1.39213   1.34049    0.126
 6516.00    1.39523   1.34015    0.127
 6517.00    1.39704   1.34019    0.129
 6518.00    1.39443   1.34018    0.129
 6519.00    1.39085   1.34064    0.128
 6520.00    1.39062   1.34133    0.128
 6521.00    1.39097   1.34213    0.128
 6522.00    1.38674   1.34302    0.129
 6523.00    1.38189   1.34379    0.129
 6524.00    1.38215   1.34455    0.130
 6525.00    1.38289   1.34491    0.131
 6526.00    1.38227   1.34549    0.130
 6527.00    1.38157   1.34567    0.129
 6528.00    1.38312   1.34573    0.000
 6529.00    1.38469   1.34569    0.000
 6530.00    1.38063   1.34582    0.000
 6531.00    1.37675   1.34610    0.000
 6532.00    1.37735   1.34641    0.000
 6533.00    1.37842   1.34678    0.000
 6534.00    1.38566   1.34717    0.000
 6535.00    1.39202   1.34753    0.000
 6536.00    1.39063   1.34732    0.000
 6537.00    1.38996   1.34658    0.000
 6538.00    1.39402   1.34525    0.000
 6539.00    1.39817   1.34320    0.000
 6540.00    1.40273   1.34067    0.000
 6541.00    1.40730   1.33733    0.000
 6542.00    1.41192   1.33330    0.000
 6543.00    1.41497   1.32863    0.000
 6544.00    1.41262   1.32340    0.000
 6545.00    1.41193   1.31808    0.000
 6546.00    1.41598   1.31213    0.000
 6547.00    1.41919   1.30609    0.000
 6548.00    1.42033   1.29941    0.000
 6549.00    1.41854   1.29267    0.000
 6550.00    1.41054   1.28522    0.000
 6551.00    1.40131   1.27723    0.000
 6552.00    1.38981   1.26833    0.000
 6553.00    1.37764   1.25818    0.000
 6554.00    1.36439   1.24729    0.000
 6555.00    1.34937   1.23539    0.000
 6556.00    1.33185   1.22292    0.000
 6557.00    1.32154   1.21128    0.000
 6558.00    1.32021   1.20005    0.000
 6559.00    1.32204   1.19042    0.000
 6560.00    1.32733   1.18225    0.000
 6561.00    1.32990   1.17683    0.000
 6562.00    1.32985   1.17396    0.000
 6563.00    1.32719   1.17411    0.000
 6564.00    1.32231   1.17725    0.000
 6565.00    1.32247   1.18247    0.000
 6566.00    1.32641   1.18993    0.000
 6567.00    1.32643   1.19857    0.000
 6568.00    1.32386   1.20889    0.000
 6569.00    1.32335   1.21950    0.000
 6570.00    1.32403   1.23048    0.000
 6571.00    1.31955   1.24088    0.000
 6572.00    1.31249   1.24969    0.000
 6573.00    1.31322   1.25761    0.000
 6574.00    1.31734   1.26476    0.000
 6575.00    1.32161   1.27135    0.000
 6576.00    1.32593   1.27754    0.000
 6577.00    1.34921   1.28308    0.000
 6578.00    1.37850   1.28837    0.000
 6579.00    1.41353   1.29272    0.000
 6580.00    1.45008   1.29708    0.000
 6581.00    1.48394   1.30065    0.000
 6582.00    1.51723   1.30360    0.000
 6583.00    1.53426   1.30563    0.000
 6584.00    1.54850   1.30658    0.000
 6585.00    1.53700   1.30663    0.000
 6586.00    1.52215   1.30567    0.000
 6587.00    1.49191   1.30453    0.000
 6588.00    1.46027   1.30283    0.000
 6589.00    1.43007   1.30082    0.000
 6590.00    1.39996   1.29843    0.000
 6591.00    1.38157   1.29606    0.000
 6592.00    1.36346   1.29429    0.000
 6593.00    1.34877   1.29288    0.000
 6594.00    1.33442   1.29247    0.000
 6595.00    1.32771   1.29238    0.000
 6596.00    1.32144   1.29296    0.000
 6597.00    1.32076   1.29394    0.000
 6598.00    1.32110   1.29536    0.000
 6599.00    1.33023   1.29722    0.000
 6600.00    1.33872   1.29870    0.000
 6601.00    1.34319   1.30011    0.000
 6602.00    1.34690   1.30058    0.000
 6603.00    1.34686   1.30099    0.000
 6604.00    1.34673   1.30129    0.000
 6605.00    1.34625   1.30141    0.000
 6606.00    1.34513   1.30154    0.000
 6607.00    1.34183   1.30165    0.000
 6608.00    1.33683   1.30264    0.000
 6609.00    1.32706   1.30366    0.129
 6610.00    1.32296   1.30559    0.130
 6611.00    1.33257   1.30767    0.130
 6612.00    1.34054   1.31047    0.131
 6613.00    1.34509   1.31318    0.130
 6614.00    1.35250   1.31602    0.131
 6615.00    1.36509   1.31865    0.133
 6616.00    1.37291   1.32044    0.134
 6617.00    1.37315   1.32157    0.133
 6618.00    1.37075   1.32150    0.132
 6619.00    1.36466   1.32132    0.131
 6620.00    1.35942   1.31996    0.131
 6621.00    1.35522   1.31803    0.131
 6622.00    1.35373   1.31534    0.131
 6623.00    1.35515   1.31224    0.132
 6624.00    1.35533   1.30882    0.132
 6625.00    1.35430   1.30509    0.130
 6626.00    1.34845   1.30132    0.129
 6627.00    1.33856   1.29730    0.129
 6628.00    1.32415   1.29406    0.129
 6629.00    1.30640   1.29090    0.128
 6630.00    1.29473   1.28870    0.128
 6631.00    1.28701   1.28676    0.127
 6632.00    1.28361   1.28524    0.127
 6633.00    1.28267   1.28427    0.128
 6634.00    1.28626   1.28386    0.128
 6635.00    1.29211   1.28399    0.129
 6636.00    1.30109   1.28400    0.130
 6637.00    1.31142   1.28452    0.132
 6638.00    1.32081   1.28541    0.133
 6639.00    1.32987   1.28662    0.135
 6640.00    1.33240   1.28768    0.136
 6641.00    1.33292   1.28867    0.137
 6642.00    1.32651   1.28962    0.136
 6643.00    1.31831   1.29032    0.135
 6644.00    1.31992   1.29083    0.135
 6645.00    1.32361   1.29147    0.135
 6646.00    1.31972   1.29208    0.134
 6647.00    1.31456   1.29231    0.133
 6648.00    1.31370   1.29273    0.131
 6649.00    1.31337   1.29304    0.130
 6650.00    1.31533   1.29313    0.130
 6651.00    1.31749   1.29292    0.130
 6652.00    1.32045   1.29232    0.129
 6653.00    1.32344   1.29138    0.129
 6654.00    1.32829   1.28993    0.129
 6655.00    1.33307   1.28818    0.129
 6656.00    1.33012   1.28557    0.130
 6657.00    1.32741   1.28319    0.132
 6658.00    1.32996   1.28049    0.133
 6659.00    1.33179   1.27789    0.134
 6660.00    1.32495   1.27531    0.133
 6661.00    1.31733   1.27287    0.133
 6662.00    1.30330   1.27127    0.134
 6663.00    1.29095   1.26998    0.134
 6664.00    1.28903   1.26947    0.134
 6665.00    1.28704   1.26933    0.134
 6666.00    1.28478   1.26994    0.134
 6667.00    1.28437   1.27070    0.135
 6668.00    1.29125   1.27192    0.136
 6669.00    1.29925   1.27342    0.136
 6670.00    1.31093   1.27422    0.135
 6671.00    1.31886   1.27443    0.133
 6672.00    1.31634   1.27470    0.132
 6673.00    1.31152   1.27456    0.131
 6674.00    1.30121   1.27414    0.131
 6675.00    1.29597   1.27350    0.131
 6676.00    1.30113   1.27259    0.132
 6677.00    1.30365   1.27208    0.132
 6678.00    1.30147   1.27162    0.132
 6679.00    1.29982   1.27191    0.133
 6680.00    1.29901   1.27236    0.134
 6681.00    1.29968   1.27319    0.135
 6682.00    1.30241   1.27432    0.135
 6683.00    1.30547   1.27612    0.136
 6684.00    1.30891   1.27849    0.136
 6685.00    1.31186   1.28000    0.136
 6686.00    1.31428   1.28144    0.136
 6687.00    1.31234   1.28231    0.136
 6688.00    1.30628   1.28266    0.137
 6689.00    1.30451   1.28229    0.137
 6690.00    1.30628   1.28146    0.136
 6691.00    1.30424   1.28024    0.136
 6692.00    1.29941   1.27864    0.136
 6693.00    1.29714   1.27726    0.136
 6694.00    1.29650   1.27557    0.136
 6695.00    1.28605   1.27418    0.135
 6696.00    1.27010   1.27250    0.000
 6697.00    1.26606   1.27120    0.000
 6698.00    1.26781   1.26998    0.000
 6699.00    1.27271   1.26914    0.000
 6700.00    1.27894   1.26829    0.000
 6701.00    1.27980   1.26772    0.000
 6702.00    1.27872   1.26758    0.000
 6703.00    1.27657   1.26676    0.000
 6704.00    1.27408   1.26632    0.000
 6705.00    1.27587   1.26503    0.000
 6706.00    1.27873   1.26335    0.000
 6707.00    1.28143   1.26131    0.000
 6708.00    1.28409   1.25857    0.000
 6709.00    1.28762   1.25592    0.000
 6710.00    1.29128   1.25278    0.000
 6711.00    1.30169   1.24970    0.000
 6712.00    1.31291   1.24664    0.000
 6713.00    1.31874   1.24385    0.000
 6714.00    1.32413   1.24170    0.000
 6715.00    1.32856   1.23974    0.000
 6716.00    1.33295   1.23916    0.000
 6717.00    1.33632   1.23868    0.000
 6718.00    1.33930   1.23936    0.000
 6719.00    1.32109   1.24055    0.000
 6720.00    1.30321   1.24232    0.000
 6721.00    1.29167   1.24468    0.000
 6722.00    1.28039   1.24723    0.000
 6723.00    1.27226   1.25075    0.000
 6724.00    1.26643   1.25350    0.000
 6725.00    1.27901   1.25616    0.000
 6726.00    1.29173   1.25803    0.000
 6727.00    1.30530   1.26008    0.000
 6728.00    1.31873   1.26140    0.000
 6729.00    1.33155   1.26243    0.000
 6730.00    1.34253   1.26263    0.000
 6731.00    1.34641   1.26274    0.000
 6732.00    1.34788   1.26242    0.000
 6733.00    1.34163   1.26145    0.000
 6734.00    1.33838   1.26040    0.000
 6735.00    1.34328   1.25874    0.000
 6736.00    1.33875   1.25702    0.000
 6737.00    1.31218   1.25478    0.000
 6738.00    1.29250   1.25276    0.000
 6739.00    1.28676   1.25066    0.000
 6740.00    1.27858   1.24888    0.000
 6741.00    1.26612   1.24670    0.000
 6742.00    1.25991   1.24480    0.000
 6743.00    1.26329   1.24292    0.000
 6744.00    1.26166   1.24191    0.000
 6745.00    1.25322   1.24094    0.000
 6746.00    1.24958   1.24015    0.000
 6747.00    1.25164   1.23996    0.000
 6748.00    1.24862   1.23983    0.000
 6749.00    1.24027   1.24121    0.000
 6750.00    1.23322   1.24204    0.000
 6751.00    1.22738   1.24409    0.000
 6752.00    1.23030   1.24618    0.000
 6753.00    1.24036   1.24900    0.148
 6754.00    1.24458   1.25193    0.150
 6755.00    1.24460   1.25479    0.152
 6756.00    1.24259   1.25818    0.154
 6757.00    1.23928   1.26021    0.157
 6758.00    1.25981   1.26293    0.160
 6759.00    1.29348   1.26466    0.162
 6760.00    1.33855   1.26571    0.164
 6761.00    1.38907   1.26616    0.167
 6762.00    1.43031   1.26599    0.169
 6763.00    1.46770   1.26535    0.172
 6764.00    1.47750   1.26445    0.173
 6765.00    1.47754   1.26347    0.174
 6766.00    1.47114   1.26222    0.171
 6767.00    1.46281   1.26170    0.167
 6768.00    1.45562   1.26154    0.164
 6769.00    1.44872   1.26191    0.160
 6770.00    1.43606   1.26232    0.159
 6771.00    1.42225   1.26336    0.158
 6772.00    1.39187   1.26462    0.155
 6773.00    1.35888   1.26631    0.153
 6774.00    1.34236   1.26784    0.152
 6775.00    1.32776   1.26847    0.151
 6776.00    1.30501   1.26904    0.151
 6777.00    1.28161   1.26874    0.150
 6778.00    1.31119   1.26799    0.153
 6779.00    1.34307   1.26612    0.157
 6780.00    1.34692   1.26415    0.159
 6781.00    1.35022   1.26181    0.161
 6782.00    1.34108   1.25920    0.160
 6783.00    1.33253   1.25721    0.159
 6784.00    1.33468   1.25477    0.159
 6785.00    1.33682   1.25286    0.159
 6786.00    1.33892   1.25116    0.159
 6787.00    1.33984   1.25009    0.159
 6788.00    1.33159   1.24932    0.157
 6789.00    1.32616   1.24922    0.155
 6790.00    1.33717   1.24986    0.155
 6791.00    1.34581   1.25026    0.155
 6792.00    1.34346   1.25134    0.155
 6793.00    1.34435   1.25195    0.154
 6794.00    1.35747   1.25267    0.155
 6795.00    1.36309   1.25361    0.155
 6796.00    1.34508   1.25446    0.153
 6797.00    1.33550   1.25527    0.152
 6798.00    1.34853   1.25588    0.153
 6799.00    1.34971   1.25678    0.153
 6800.00    1.32370   1.25741    0.153
 6801.00    1.30630   1.25813    0.153
 6802.00    1.30601   1.25837    0.155
 6803.00    1.30772   1.25866    0.156
 6804.00    1.31289   1.25874    0.156
 6805.00    1.31423   1.25856    0.155
 6806.00    1.30979   1.25846    0.154
 6807.00    1.30650   1.25815    0.152
 6808.00    1.30473   1.25784    0.151
 6809.00    1.30831   1.25758    0.151
 6810.00    1.31815   1.25751    0.153
 6811.00    1.31799   1.25757    0.154
 6812.00    1.30748   1.25807    0.154
 6813.00    1.30987   1.25864    0.155
 6814.00    1.32401   1.25903    0.156
 6815.00    1.32527   1.25972    0.156
 6816.00    1.31616   1.26088    0.153
 6817.00    1.31394   1.26195    0.152
 6818.00    1.31662   1.26324    0.151
 6819.00    1.31717   1.26432    0.150
 6820.00    1.31641   1.26553    0.148
 6821.00    1.32968   1.26676    0.149
 6822.00    1.35057   1.26730    0.152
 6823.00    1.35141   1.26751    0.153
 6824.00    1.34279   1.26767    0.153
 6825.00    1.33381   1.26797    0.153
 6826.00    1.32469   1.26816    0.152
 6827.00    1.31487   1.26780    0.153
 6828.00    1.30481   1.26702    0.155
 6829.00    1.31457   1.26607    0.157
 6830.00    1.33012   1.26492    0.159
 6831.00    1.33660   1.26340    0.158
 6832.00    1.34088   1.26126    0.155
 6833.00    1.33726   1.25927    0.154
 6834.00    1.33210   1.25680    0.153
 6835.00    1.32557   1.25426    0.153
 6836.00    1.31885   1.25124    0.153
 6837.00    1.31143   1.24846    0.154
 6838.00    1.30393   1.24619    0.155
 6839.00    1.30499   1.24447    0.156
 6840.00    1.30669   1.24322    0.156
 6841.00    1.29606   1.24200    0.154
 6842.00    1.28494   1.24170    0.152
 6843.00    1.26812   1.24178    0.149
 6844.00    1.25202   1.24235    0.146
 6845.00    1.26586   1.24325    0.146
 6846.00    1.27989   1.24440    0.147
 6847.00    1.29719   1.24556    0.150
 6848.00    1.31476   1.24644    0.154
 6849.00    1.33521   1.24661    0.156
 6850.00    1.35118   1.24568    0.157
 6851.00    1.33379   1.24474    0.156
 6852.00    1.31789   1.24360    0.155
 6853.00    1.31037   1.24187    0.153
 6854.00    1.30137   1.24018    0.152
 6855.00    1.28564   1.23828    0.151
 6856.00    1.26960   1.23623    0.151
 6857.00    1.25233   1.23442    0.150
 6858.00    1.24002   1.23344    0.149
 6859.00    1.24307   1.23273    0.149
 6860.00    1.24594   1.23215    0.148
 6861.00    1.24833   1.23223    0.147
 6862.00    1.25183   1.23180    0.147
 6863.00    1.25780   1.23152    0.147
 6864.00    1.26287   1.23179    0.147
 6865.00    1.26619   1.23228    0.149
 6866.00    1.26893   1.23267    0.152
 6867.00    1.27070   1.23300    0.154
 6868.00    1.27527   1.23358    0.156
 6869.00    1.28403   1.23392    0.156
 6870.00    1.28658   1.23418    0.157
 6871.00    1.28096   1.23461    0.157
 6872.00    1.28145   1.23553    0.157
 6873.00    1.28902   1.23688    0.155
 6874.00    1.28576   1.23813    0.154
 6875.00    1.27148   1.23931    0.154
 6876.00    1.26322   1.24011    0.153
 6877.00    1.26040   1.24115    0.152
 6878.00    1.25581   1.24238    0.151
 6879.00    1.24981   1.24411    0.149
 6880.00    1.24992   1.24596    0.148
 6881.00    1.25428   1.24742    0.147
 6882.00    1.26635   1.24963    0.147
 6883.00    1.28314   1.25162    0.149
 6884.00    1.28667   1.25385    0.149
 6885.00    1.28313   1.25614    0.148
 6886.00    1.28013   1.25882    0.149
 6887.00    1.27740   1.26145    0.150
 6888.00    1.27094   1.26379    0.150
 6889.00    1.26298   1.26663    0.149
 6890.00    1.26209   1.26834    0.150
 6891.00    1.26361   1.27009    0.151
 6892.00    1.26673   1.27177    0.153
 6893.00    1.27031   1.27319    0.155
 6894.00    1.27383   1.27410    0.155
 6895.00    1.27734   1.27454    0.155
 6896.00    1.27732   1.27531    0.155
 6897.00    1.27662   1.27590    0.154
 6898.00    1.27639   1.27653    0.153
 6899.00    1.27622   1.27699    0.152
 6900.00    1.27813   1.27744    0.152
 6901.00    1.28026   1.27804    0.153
 6902.00    1.29144   1.27879    0.153
 6903.00    1.30326   1.27901    0.152
 6904.00    1.30132   1.27936    0.151
 6905.00    1.29890   1.27937    0.150
 6906.00    1.29907   1.27925    0.149
 6907.00    1.29884   1.27856    0.148
 6908.00    1.28425   1.27762    0.148
 6909.00    1.26994   1.27635    0.148
 6910.00    1.26004   1.27516    0.149
 6911.00    1.25174   1.27425    0.150
 6912.00    1.25940   1.27251    0.150
 6913.00    1.26486   1.27143    0.151
 6914.00    1.25442   1.27011    0.153
 6915.00    1.24614   1.26927    0.155
 6916.00    1.24972   1.26819    0.155
 6917.00    1.25560   1.26749    0.155
 6918.00    1.27163   1.26694    0.156
 6919.00    1.28214   1.26559    0.156
 6920.00    1.27269   1.26509    0.155
 6921.00    1.26591   1.26397    0.154
 6922.00    1.26726   1.26371    0.152
 6923.00    1.26789   1.26330    0.151
 6924.00    1.26665   1.26269    0.151
 6925.00    1.26373   1.26234    0.151
 6926.00    1.25706   1.26151    0.151
 6927.00    1.25297   1.26135    0.151
 6928.00    1.25386   1.26059    0.151
 6929.00    1.26111   1.26105    0.152
 6930.00    1.27903   1.26196    0.153
 6931.00    1.28749   1.26272    0.153
 6932.00    1.28200   1.26368    0.153
 6933.00    1.27065   1.26408    0.154
 6934.00    1.25173   1.26501    0.155
 6935.00    1.24716   1.26545    0.156
 6936.00    1.25895   1.26618    0.157
 6937.00    1.27006   1.26646    0.158
 6938.00    1.28048   1.26636    0.160
 6939.00    1.27714   1.26616    0.160
 6940.00    1.26157   1.26507    0.158
 6941.00    1.26234   1.26440    0.157
 6942.00    1.27588   1.26379    0.157
 6943.00    1.28258   1.26306    0.156
 6944.00    1.28459   1.26232    0.154
 6945.00    1.28323   1.26146    0.154
 6946.00    1.27984   1.26022    0.156
 6947.00    1.27783   1.25930    0.155
 6948.00    1.27655   1.25887    0.153
 6949.00    1.27610   1.25887    0.153
 6950.00    1.27603   1.25939    0.153
 6951.00    1.27132   1.26044    0.153
 6952.00    1.26478   1.26170    0.151
 6953.00    1.26255   1.26247    0.152
 6954.00    1.26176   1.26402    0.155
 6955.00    1.26189   1.26544    0.156
 6956.00    1.26229   1.26745    0.156
 6957.00    1.26831   1.26978    0.158
 6958.00    1.27562   1.27207    0.160
 6959.00    1.28367   1.27452    0.160
 6960.00    1.29185   1.27638    0.160
 6961.00    1.27933   1.27815    0.158
 6962.00    1.26385   1.27957    0.156
 6963.00    1.25510   1.28106    0.156
 6964.00    1.24704   1.28193    0.155
 6965.00    1.25314   1.28227    0.155
 6966.00    1.26019   1.28167    0.155
 6967.00    1.26507   1.28073    0.155
 6968.00    1.26988   1.27953    0.156
 6969.00    1.27343   1.27753    0.156
 6970.00    1.27633   1.27504    0.156
 6971.00    1.25902   1.27201    0.157
 6972.00    1.24255   1.26881    0.158
 6973.00    1.23840   1.26460    0.157
 6974.00    1.23333   1.26078    0.157
 6975.00    1.21947   1.25848    0.156
 6976.00    1.20788   1.25645    0.155
 6977.00    1.21206   1.25545    0.156
 6978.00    1.21561   1.25517    0.158
 6979.00    1.21572   1.25554    0.158
 6980.00    1.21714   1.25665    0.158
 6981.00    1.22421   1.25849    0.157
 6982.00    1.23014   1.26149    0.157
 6983.00    1.23204   1.26481    0.158
 6984.00    1.23585   1.26837    0.158
 6985.00    1.24534   1.27190    0.158
 6986.00    1.24951   1.27481    0.157
 6987.00    1.24018   1.27725    0.157
 6988.00    1.23646   1.27922    0.156
 6989.00    1.24502   1.28032    0.157
 6990.00    1.25169   1.28108    0.157
 6991.00    1.25478   1.28131    0.157
 6992.00    1.25561   1.28101    0.157
 6993.00    1.25272   1.28045    0.157
 6994.00    1.24931   1.27903    0.157
 6995.00    1.24516   1.27748    0.157
 6996.00    1.24484   1.27577    0.158
 6997.00    1.24943   1.27403    0.158
 6998.00    1.25458   1.27241    0.159
 6999.00    1.26036   1.27027    0.159
 7000.00    1.25630   1.26860    0.159
 7001.00    1.24249   1.26671    0.157
 7002.00    1.09995   1.26517    0.147
 7003.00    0.84479   1.26405    0.131
 7004.00    0.83349   1.26309    0.176
 7005.00    1.01015   1.26255    0.611
 7006.00    1.08477   1.26161   -1.000
 7007.00    1.09025   1.26105   -1.000
 7008.00    1.08585   1.26031   -1.000
 7009.00    1.07558   1.25977   -1.000
 7010.00    1.07189   1.25903   -1.000
 7011.00    1.07160   1.25760   -1.000
 7012.00    1.07176   1.25664   -1.000
 7013.00    1.07212   1.25600   -1.000
 7014.00    1.07391   1.25568   -1.000
 7015.00    1.07626   1.25571   -1.000
 7016.00    1.07696   1.25576   -1.000
 7017.00    1.07712   1.25578   -1.000
 7018.00    1.07586   1.25523   -1.000
 7019.00    1.07420   1.25519   -1.000
 7020.00    1.07598   1.25605   -1.000
 7021.00    1.07854   1.25748   -1.000
 7022.00    1.08594   1.25920   -1.000
 7023.00    1.09420   1.26090   -1.000
 7024.00    1.09735   1.26234   -1.000
 7025.00    1.09978   1.26350   -1.000
 7026.00    1.09586   1.26475   -1.000
 7027.00    1.09130   1.26622   -1.000
 7028.00    1.09390   1.26828   -1.000
 7029.00    1.09696   1.27042   -1.000
 7030.00    1.08896   1.27260   -1.000
 7031.00    1.08070   1.27500   -1.000
 7032.00    1.08395   1.27694   -1.000
 7033.00    1.08684   1.27843   -1.000
 7034.00    1.08019   1.28037   -1.000
 7035.00    1.07417   1.28285   -1.000
 7036.00    1.07713   1.28586   -1.000
 7037.00    1.08085   1.28924   -1.000
 7038.00    1.09160   1.29269   -1.000
 7039.00    1.10094   1.29571   -1.000
 7040.00    1.10085   1.29751   -1.000
 7041.00    1.10187   1.29985   -1.000
 7042.00    1.10865   1.30205   -1.000
 7043.00    1.11609   1.30394   -1.000
 7044.00    1.12625   1.30545   -1.000
 7045.00    1.13322   1.30520   -1.000
 7046.00    1.12909   1.30384   -1.000
 7047.00    1.12610   1.30005   -1.000
 7048.00    1.12644   1.29563   -1.000
 7049.00    1.12858   1.29040   -1.000
 7050.00    1.13523   1.28421   -2.000
 7051.00    1.13775   1.27818   -2.000
 7052.00    1.13138   1.27104   -2.000
 7053.00    1.12608   1.26388   -2.000
 7054.00    1.12275   1.25583   -2.000
 7055.00    1.12972   1.24764   -2.000
 7056.00    1.15348   1.24045   -2.000
 7057.00    1.16367   1.23375   -2.000
 7058.00    1.15446   1.22841   -2.000
 7059.00    1.15166   1.22413   -2.000
 7060.00    1.15693   1.22026   -2.000
 7061.00    1.16565   1.21665   -2.000
 7062.00    1.17816   1.21340   -2.000
 7063.00    1.19334   1.21076   -2.000
 7064.00    1.21113   1.20944   -2.000
 7065.00    1.20019   1.20905   -2.000
 7066.00    1.16449   1.20989   -2.000
 7067.00    1.13999   1.21107   -2.000
 7068.00    1.12401   1.21233   -2.000
 7069.00    1.13540   1.21389   -2.000
 7070.00    1.16508   1.21539   -2.000
 7071.00    1.19290   1.21754   -2.000
 7072.00    1.21964   1.21987   -2.000
 7073.00    1.23536   1.22220   -2.000
 7074.00    1.24547   1.22364   -2.000
 7075.00    1.22778   1.22444   -2.000
 7076.00    1.19781   1.22445   -2.000
 7077.00    1.19464   1.22307   -2.000
 7078.00    1.20162   1.22088   -2.000
 7079.00    1.20630   1.21723   -2.000
 7080.00    1.21023   1.21284   -2.000
 7081.00    1.20624   1.20789   -2.000
 7082.00    1.20010   1.20224   -2.000
 7083.00    1.18984   1.19658   -2.000
 7084.00    1.17866   1.19035   -2.000
 7085.00    1.15818   1.18367   -2.000
 7086.00    1.13608   1.17742   -2.000
 7087.00    1.12553   1.17185   -2.000
 7088.00    1.11654   1.16736   -2.000
 7089.00    1.10176   1.16419   -2.000
 7090.00    1.08642   1.16103   -2.000
 7091.00    1.08336   1.15924   -2.000
 7092.00    1.08103   1.15777   -2.000
 7093.00    1.09160   1.15696   -2.000
 7094.00    1.10232   1.15803   -2.000
 7095.00    1.08977   1.15839   -2.000
 7096.00    1.07767   1.16032   -2.000
 7097.00    1.07696   1.16130   -2.000
 7098.00    1.07444   1.16255   -2.000
 7099.00    1.04778   1.16426   -2.000
 7100.00    1.02271   1.16526   -2.000
 7101.00    1.01164   1.16702   -2.000
 7102.00    1.00389   1.16757   -2.000
 7103.00    1.01780   1.16820   -2.000
 7104.00    1.02946   1.16824   -2.000
 7105.00    1.02970   1.16787   -2.000
 7106.00    1.02716   1.16783   -2.000
 7107.00    1.01320   1.16755   -2.000
 7108.00    0.99842   1.16713   -2.000
 7109.00    0.98085   1.16668   -2.000
 7110.00    0.97029   1.16618   -2.000
 7111.00    0.97986   1.16629   -2.000
 7112.00    0.98609   1.16572   -2.000
 7113.00    0.98412   1.16538   -2.000
 7114.00    0.98549   1.16525   -2.000
 7115.00    0.99395   1.16466   -2.000
 7116.00    1.00626   1.16454   -2.000
 7117.00    1.02563   1.16325   -2.000
 7118.00    1.04262   1.16273   -2.000
 7119.00    1.05579   1.16127   -2.000
 7120.00    1.07093   1.15915   -2.000
 7121.00    1.08886   1.15743   -2.000
 7122.00    1.09895   1.15471   -2.000
 7123.00    1.09932   1.15275   -2.000
 7124.00    1.09588   1.15002   -2.000
 7125.00    1.08828   1.14778   -2.000
 7126.00    1.07486   1.14591   -2.000
 7127.00    1.05582   1.14379   -2.000
 7128.00    1.05456   1.14235   -2.000
 7129.00    1.06843   1.14170   -2.000
 7130.00    1.06047   1.14185   -2.000
 7131.00    1.03617   1.14243   -2.000
 7132.00    1.02342   1.14334   -2.000
 7133.00    1.01826   1.14424   -2.000
 7134.00    1.01092   1.14604   -2.000
 7135.00    1.00233   1.14767   -2.000
 7136.00    1.01791   1.14976   -2.000
 7137.00    1.04561   1.15159   -2.000
 7138.00    1.05520   1.15281   -2.000
 7139.00    1.05691   1.15430   -2.000
 7140.00    1.06111   1.15477   -2.000
 7141.00    1.06624   1.15527   -2.000
 7142.00    1.05399   1.15551   -2.000
 7143.00    1.03624   1.15557   -2.000
 7144.00    1.02441   1.15585   -2.000
 7145.00    1.01414   1.15520   -2.000
 7146.00    1.00949   1.15558   -2.000
 7147.00    1.00606   1.15648   -2.000
 7148.00    1.01608   1.15711   -2.000
 7149.00    1.02839   1.15842   -2.000
 7150.00    1.02674   1.15891   -2.000
 7151.00    1.02328   1.16040   -2.000
 7152.00    1.01495   1.16228   -2.000
 7153.00    1.00618   1.16345   -2.000
 7154.00    1.01098   1.16560   -2.000
 7155.00    1.01651   1.16645   -2.000
 7156.00    1.02933   1.16722   -2.000
 7157.00    1.04229   1.16754   -2.000
 7158.00    1.05496   1.16761   -2.000
 7159.00    1.06841   1.16856   -2.000
 7160.00    1.09958   1.16796   -2.000
 7161.00    1.12746   1.16767   -2.000
 7162.00    1.11387   1.16760   -2.000
 7163.00    1.10178   1.16832   -2.000
 7164.00    1.10255   1.16973   -2.000
 7165.00    1.10118   1.17081   -2.000
 7166.00    1.08624   1.17193   -2.000
 7167.00    1.07698   1.17295   -2.000
 7168.00    1.09589   1.17515   -2.000
 7169.00    1.10848   1.17759   -2.000
 7170.00    1.09562   1.17966   -2.000
 7171.00    1.07916   1.18076   -2.000
 7172.00    1.05066   1.18130   -2.000
 7173.00    1.02731   1.18187   -2.000
 7174.00    1.01850   1.18197   -2.000
 7175.00    1.02239   1.18209   -2.000
 7176.00    1.05692   1.18092   -2.000
 7177.00    1.07878   1.17875   -2.000
 7178.00    1.07425   1.17638   -2.000
 7179.00    1.06353   1.17436   -2.000
 7180.00    1.04160   1.17347   -2.000
 7181.00    1.02431   1.17181   -2.000
 7182.00    1.01436   1.16878   -2.000
 7183.00    1.00080   1.16593   -2.000
 7184.00    0.98222   1.16334   -2.000
 7185.00    0.97345   1.16220   -2.000
 7186.00    0.97668   1.16173   -2.000
 7187.00    0.97994   1.16063   -2.000
 7188.00    0.98323   1.16031   -2.000
 7189.00    0.99081   1.15892   -2.000
 7190.00    1.00247   1.15842   -2.000
 7191.00    0.99776   1.15924   -2.000
 7192.00    0.97932   1.16019   -2.000
 7193.00    0.96730   1.16233   -2.000
 7194.00    0.96002   1.16306   -2.000
 7195.00    0.95843   1.16428   -2.000
 7196.00    0.96052   1.16560   -2.000
 7197.00    0.96461   1.16630   -2.000
 7198.00    0.96982   1.16782   -2.000
 7199.00    0.98545   1.16813   -2.000
 7200.00    1.00622   1.16932   -2.000
 7201.00    1.01503   1.17037   -2.000
 7202.00    1.01874   1.16985   -2.000
 7203.00    1.00561   1.16971   -2.000
 7204.00    0.98632   1.16837   -2.000
 7205.00    0.97016   1.16852   -2.000
 7206.00    0.95497   1.16941   -2.000
 7207.00    0.94128   1.16990   -2.000
 7208.00    0.92798   1.17117   -2.000
 7209.00    0.93081   1.17060   -2.000
 7210.00    0.93704   1.17120   -2.000
 7211.00    0.94196   1.17256   -2.000
 7212.00    0.94668   1.17462   -2.000
 7213.00    0.94997   1.17772   -2.000
 7214.00    0.95310   1.17974   -2.000
 7215.00    0.94491   1.18204   -2.000
 7216.00    0.93574   1.18349   -2.000
 7217.00    0.95222   1.18576   -2.000
 7218.00    0.97001   1.18815   -2.000
