###################################################################
## OUTPUT of StarlightChains_v04.for    [Cid@UFSC - 01/Apr/2007] ##
###################################################################

## Some input info
KUG0210-078._27_36.txt                   [arq_obs]
Base.CB07.vall.4m                        [arq_base]
Masks.EmLines.NEW.gm                     [arq_masks]
StCv04.C11.config                        [arq_config]
   66                                    [N_base]
    0                                    [N_YAV_components = # of components with extra extinction!]
    0                                    [i_FitPowerLaw (1/0 = Yes/No)]
-9.99                                    [alpha_PowerLaw]
CCM                                      [red_law_option]
 1.458241                                [q_norm = A(l_norm)/A(V)]

## (Re)Sampling Parameters
 3741.00                                 [l_ini (A)]
 7218.00                                 [l_fin (A)]
    1.00                                 [dl    (A)]     (OBS: dl_cushion =    50.00 A)

## Normalization info
 4020.00                                 [l_norm (A) - for base]
 4010.00                                 [llow_norm (A) - window for f_obs]
 4060.00                                 [lupp_norm (A) - window for f_obs]
7.304383E-17                             [fobs_norm (in input units)]

## S/N
 3691.00                                 [llow_SN (A) - window for S/N]
 7268.00                                 [lupp_SN (A) - window for S/N]
   5.548                                 [S/N in S/N window]
   3.895                                 [S/N in norm. window]
   0.161                                 [S/N_err in S/N window]
   0.113                                 [S/N_err in norm. window]
  1.0000                                 [fscale_chi2]

## etc...
    -2007356                             [idum_orig]
  2432                                   [NOl_eff]
  2428                                   [Nl_eff]
     4    NSIGMA                         [Ntot_cliped & clip_method]
  4154640                                [Nglobal_steps]
   7                                     [N_chains]
  42                                     [NEX0s_base = N_base in EX0s-fits]
 0   0   1        4   2.0   5.947E+03    [Clip-Bug, RC-Crash & Burn-In warning-flags, n_censored_weights, wei_nsig_threshold & wei_limit]
   107    107.133    106.624      0.509  [idt_all, wdt_TotTime, wdt_UsrTime & wdt_SysTime (sec)]

## Synthesis Results - Best model ##

 2.60399E-04                             [chi2/Nl_eff]
     7.06778                             [adev (%)]

   124.16702                             [sum-of-x (%)]
 1.93095E-16                             [Flux_tot (units of input spectrum!)]
 2.62597E-12                             [Mini_tot (???)]
 1.43303E-12                             [Mcor_tot (???)]

 111.84                                  [v0_min  (km/s)]
 187.64                                  [vd_min  (km/s)]
 0.5626                                  [AV_min  (mag)]
 0.0000                                  [YAV_min (mag)]

# j     x_j(%)      Mini_j(%)     Mcor_j(%)     age_j(yr)     Z_j      (L/M)_j    YAV?  Mstars   component_j        a/Fe...       SSP_chi2r SSP_adev(%)   SSP_AV   SSP_x(%)
  1      0.0000     0.0000E+00    0.0000E+00    1.000000E+06  0.00400  1.094E-02    0   1.0000   age020_m42            0.0000     4.3942E-04     8.8027   3.7191   104.0133
  2      0.0000     0.0000E+00    0.0000E+00    3.160000E+06  0.00400  4.007E-02    0   0.9999   age045_m42            0.0000     3.5786E-04     7.9843   2.9845   111.4920
  3      0.0000     0.0000E+00    0.0000E+00    5.010000E+06  0.00400  2.539E-02    0   0.9488   age055_m42            0.0000     3.9304E-04     8.3395   3.3089   108.5878
  4      0.3691     8.3438E-04    1.4097E-03    6.610000E+06  0.00400  2.620E-02    0   0.9220   age061_m42            0.0000     3.6658E-04     8.0820   2.9128   111.6309
  5      0.0000     0.0000E+00    0.0000E+00    1.000000E+07  0.00400  1.322E-02    0   0.8862   age070_m42            0.0000     4.3581E-04     8.9799   2.6475   113.1819
  6      0.0000     0.0000E+00    0.0000E+00    1.445000E+07  0.00400  7.883E-03    0   0.8571   age078_m42            0.0000     4.4026E-04     8.9072   2.9727   110.3906
  7      0.0000     0.0000E+00    0.0000E+00    2.512000E+07  0.00400  5.251E-03    0   0.8174   age090_m42            0.0000     4.4934E-04     9.2078   2.5204   113.6886
  8      2.7946     4.5354E-02    6.5249E-02    4.000000E+07  0.00400  3.649E-03    0   0.7851   age104_m42            0.0000     4.2899E-04     9.0563   2.2889   114.8538
  9      0.0000     0.0000E+00    0.0000E+00    5.500000E+07  0.00400  3.098E-03    0   0.7629   age110_m42            0.0000     3.9420E-04     8.5514   2.4346   115.2231
 10      0.0000     0.0000E+00    0.0000E+00    1.015200E+08  0.00400  2.228E-03    0   0.7207   age116_m42            0.0000     3.8141E-04     8.3212   2.4501   115.6575
 11      0.0000     0.0000E+00    0.0000E+00    2.861200E+08  0.00400  1.093E-03    0   0.6648   age125_m42            0.0000     3.9609E-04     8.3070   1.8773   119.0266
 12      0.0000     0.0000E+00    0.0000E+00    5.088000E+08  0.00400  6.597E-04    0   0.6365   age130_m42            0.0000     3.7071E-04     7.9849   1.8604   120.4514
 13      3.2364     8.9899E-01    9.5515E-01    1.434000E+09  0.00400  2.132E-04    0   0.5798   age139_m42            0.0000     3.1650E-04     7.8027   0.8861   123.2709
 14      0.0000     0.0000E+00    0.0000E+00    4.250000E+09  0.00400  5.895E-05    0   0.5377   age158_m42            0.0000     2.6940E-04     7.2538   0.4347   119.2150
 15      9.3052     1.5700E+01    1.4995E+01    7.500000E+09  0.00400  3.510E-05    0   0.5212   age171_m42            0.0000     2.7252E-04     7.0514   0.2402   118.7119
 16      0.5698     1.6829E+00    1.5524E+00    1.300000E+10  0.00400  2.005E-05    0   0.5034   age193_m42            0.0000     2.8423E-04     6.9252   0.0702   118.2617
 17      6.7030     2.6030E+01    2.3692E+01    1.800000E+10  0.00400  1.525E-05    0   0.4967   age213_m42            0.0000     2.8166E-04     6.9765   0.0490   117.6794
 18      0.0000     0.0000E+00    0.0000E+00    1.000000E+06  0.00800  1.238E-02    0   1.0000   age020_m52            0.0000     4.3993E-04     8.8101   3.7154   104.2197
 19      1.0330     1.9901E-03    3.6343E-03    3.160000E+06  0.00800  3.074E-02    0   0.9966   age045_m52            0.0000     4.3205E-04     8.7645   3.6375   105.2196
 20      0.0000     0.0000E+00    0.0000E+00    5.010000E+06  0.00800  2.668E-02    0   0.9443   age055_m52            0.0000     4.0553E-04     8.4994   3.3939   107.5343
 21      0.0000     0.0000E+00    0.0000E+00    6.610000E+06  0.00800  2.136E-02    0   0.9177   age061_m52            0.0000     4.0751E-04     8.9360   2.1478   114.6417
 22      0.0000     0.0000E+00    0.0000E+00    1.000000E+07  0.00800  1.215E-02    0   0.8827   age070_m52            0.0000     4.6550E-04     9.2119   2.8293   112.7201
 23      0.0000     0.0000E+00    0.0000E+00    1.445000E+07  0.00800  8.717E-03    0   0.8552   age078_m52            0.0000     4.3648E-04     8.9495   2.9394   111.8851
 24      0.0000     0.0000E+00    0.0000E+00    2.512000E+07  0.00800  5.592E-03    0   0.8162   age090_m52            0.0000     4.4894E-04     9.1916   2.5817   115.0833
 25      0.0000     0.0000E+00    0.0000E+00    4.000000E+07  0.00800  3.896E-03    0   0.7841   age104_m52            0.0000     4.1808E-04     8.8401   2.4885   116.2143
 26      0.0000     0.0000E+00    0.0000E+00    1.015200E+08  0.00800  2.148E-03    0   0.7226   age116_m52            0.0000     3.8154E-04     8.3992   2.4199   116.4241
 27      0.0000     0.0000E+00    0.0000E+00    2.861200E+08  0.00800  9.925E-04    0   0.6683   age125_m52            0.0000     3.7613E-04     8.1112   1.9253   121.5552
 28      0.0000     0.0000E+00    0.0000E+00    9.047900E+08  0.00800  3.141E-04    0   0.6138   age135_m52            0.0000     3.1301E-04     7.4026   1.1094   127.5940
 29     22.4194     7.7237E+00    8.2840E+00    1.434000E+09  0.00800  1.719E-04    0   0.5853   age139_m52            0.0000     2.7275E-04     7.1698   0.5279   125.1258
 30      0.0000     0.0000E+00    0.0000E+00    2.500000E+09  0.00800  7.872E-05    0   0.5600   age150_m52            0.0000     2.6467E-04     6.9229   0.2511   122.4172
 31      5.2971     7.2348E+00    7.1936E+00    4.250000E+09  0.00800  4.336E-05    0   0.5426   age158_m52            0.0000     2.6795E-04     6.8609   0.2363   121.2763
 32      1.5307     2.8695E+00    2.7969E+00    6.250000E+09  0.00800  3.159E-05    0   0.5319   age166_m52            0.0000     2.8640E-04     6.9089   0.0255   121.6968
 33      0.0000     0.0000E+00    0.0000E+00    1.300000E+10  0.00800  1.361E-05    0   0.5073   age193_m52            0.0000     3.3346E-04     7.4056  -0.4523   121.3994
 34      0.0000     0.0000E+00    0.0000E+00    1.800000E+10  0.00800  9.886E-06    0   0.4990   age213_m52            0.0000     3.6820E-04     7.7397  -0.5712   121.3016
 35      0.0000     0.0000E+00    0.0000E+00    1.000000E+06  0.02000  1.544E-02    0   1.0000   age020_m62            0.0000     4.4385E-04     8.8450   3.7118   104.4542
 36      5.6807     8.9425E-03    1.6154E-02    3.160000E+06  0.02000  3.762E-02    0   0.9858   age045_m62            0.0000     4.4217E-04     8.8484   3.6499   105.4142
 37      0.0000     0.0000E+00    0.0000E+00    5.010000E+06  0.02000  3.296E-02    0   0.9342   age055_m62            0.0000     3.7936E-04     8.2252   3.2668   110.0347
 38      0.0000     0.0000E+00    0.0000E+00    8.710000E+06  0.02000  1.154E-02    0   0.8861   age067_m62            0.0000     7.4961E-04    12.1633   2.3022   114.4614
 39      0.0000     0.0000E+00    0.0000E+00    1.445000E+07  0.02000  7.663E-03    0   0.8472   age078_m62            0.0000     5.1984E-04     9.8276   2.4775   115.0082
 40      0.0000     0.0000E+00    0.0000E+00    2.512000E+07  0.02000  4.532E-03    0   0.8099   age090_m62            0.0000     5.3589E-04     9.9468   2.4702   114.5941
 41      0.3223     6.9846E-03    9.7208E-03    5.500000E+07  0.02000  2.733E-03    0   0.7595   age110_m62            0.0000     4.2312E-04     8.8898   2.4730   115.3210
 42      0.0000     0.0000E+00    0.0000E+00    1.609000E+08  0.02000  1.369E-03    0   0.6985   age120_m62            0.0000     3.9583E-04     8.4651   2.2994   119.0878
 43      0.0000     0.0000E+00    0.0000E+00    2.861200E+08  0.02000  9.013E-04    0   0.6714   age125_m62            0.0000     4.0122E-04     8.4608   2.0422   122.8948
 44      0.0000     0.0000E+00    0.0000E+00    5.088000E+08  0.02000  5.028E-04    0   0.6449   age130_m62            0.0000     3.5891E-04     7.8112   1.6484   127.0538
 45      0.0000     0.0000E+00    0.0000E+00    9.047900E+08  0.02000  2.428E-04    0   0.6179   age135_m62            0.0000     2.8333E-04     7.1581   1.0504   126.9949
 46      0.9719     4.5572E-01    4.9337E-01    1.434000E+09  0.02000  1.263E-04    0   0.5908   age139_m62            0.0000     2.7089E-04     7.0306   0.6038   125.3586
 47     10.2614     1.0154E+01    1.0555E+01    2.500000E+09  0.02000  5.985E-05    0   0.5673   age150_m62            0.0000     2.8263E-04     6.9743   0.2269   124.2474
 48      0.0000     0.0000E+00    0.0000E+00    4.250000E+09  0.02000  3.271E-05    0   0.5468   age158_m62            0.0000     3.2366E-04     7.4247  -0.0902   123.8107
 49      0.0000     0.0000E+00    0.0000E+00    1.000000E+10  0.02000  1.360E-05    0   0.5167   age181_m62            0.0000     3.9915E-04     8.1472  -0.4560   124.1249
 50      0.0000     0.0000E+00    0.0000E+00    1.800000E+10  0.02000  7.124E-06    0   0.5013   age213_m62            0.0000     4.6688E-04     8.8025  -0.6812   123.8213
 51      0.0000     0.0000E+00    0.0000E+00    1.000000E+06  0.05000  2.592E-02    0   0.9998   age020_m72            0.0000     4.5660E-04     8.9707   3.7044   104.4470
 52      0.0000     0.0000E+00    0.0000E+00    3.160000E+06  0.05000  4.845E-02    0   0.9577   age045_m72            0.0000     4.1147E-04     8.5513   3.5300   106.9440
 53      0.0000     0.0000E+00    0.0000E+00    5.010000E+06  0.05000  3.072E-02    0   0.9147   age055_m72            0.0000     4.6576E-04     8.7598   3.0510   111.0845
 54      0.0000     0.0000E+00    0.0000E+00    6.610000E+06  0.05000  1.455E-02    0   0.8877   age061_m72            0.0000     9.6826E-04    13.9047   2.3259   115.2179
 55      0.0000     0.0000E+00    0.0000E+00    1.000000E+07  0.05000  9.074E-03    0   0.8524   age070_m72            0.0000     4.8688E-04     8.4260   3.2125   111.0637
 56      0.0000     0.0000E+00    0.0000E+00    2.512000E+07  0.05000  4.250E-03    0   0.7902   age090_m72            0.0000     4.5680E-04     8.5893   2.9238   113.0521
 57      0.0000     0.0000E+00    0.0000E+00    4.000000E+07  0.05000  3.087E-03    0   0.7618   age104_m72            0.0000     4.7284E-04     8.9151   2.6986   114.8229
 58      0.0000     0.0000E+00    0.0000E+00    1.015200E+08  0.05000  1.700E-03    0   0.7096   age116_m72            0.0000     4.1905E-04     8.6155   2.4428   118.3975
 59      0.7792     6.2494E-02    7.5960E-02    2.861200E+08  0.05000  7.384E-04    0   0.6633   age125_m72            0.0000     3.7185E-04     8.0968   1.9002   125.1271
 60      0.0000     0.0000E+00    0.0000E+00    5.088000E+08  0.05000  3.819E-04    0   0.6372   age130_m72            0.0000     3.0691E-04     7.5076   1.3940   128.0699
 61     44.8270     1.5840E+01    1.7735E+01    9.047900E+08  0.05000  1.676E-04    0   0.6110   age135_m72            0.0000     2.7724E-04     7.0941   0.6828   126.7692
 62      0.0000     0.0000E+00    0.0000E+00    1.434000E+09  0.05000  8.837E-05    0   0.5874   age139_m72            0.0000     2.9299E-04     7.1142   0.2201   126.3574
 63      8.0660     1.1285E+01    1.1576E+01    2.500000E+09  0.05000  4.233E-05    0   0.5598   age150_m72            0.0000     3.3835E-04     7.6346  -0.0988   125.2699
 64      0.0000     0.0000E+00    0.0000E+00    6.250000E+09  0.05000  1.435E-05    0   0.5249   age166_m72            0.0000     4.1015E-04     8.4773  -0.5616   124.0283
 65      0.0000     0.0000E+00    0.0000E+00    1.300000E+10  0.05000  6.513E-06    0   0.5036   age193_m72            0.0000     5.1229E-04     9.4044  -0.8572   125.8639
 66      0.0000     0.0000E+00    0.0000E+00    1.800000E+10  0.05000  4.527E-06    0   0.4945   age213_m72            0.0000     5.7881E-04     9.9803  -1.0000   124.9342


## Synthesis Results - Average & Chains ##

# j      x_j: min, <> & last-chain-values for 1 ...  7 chains
  1      0.0000      1.2442      1.1206      1.1986      2.6657      0.0000      1.2077      3.7804      1.1704
  2      0.0000      1.0544      0.1922      0.0026      1.5100      0.4563      0.0893      0.0000      0.0178
  3      0.0000      1.0541      4.4631      0.0273      0.0000      0.1424      0.0000      0.9272      0.0045
  4      0.3691      1.2781      0.5126      0.0455      0.0000      0.6275      0.0690      1.5127      0.0000
  5      0.0000      1.2994      0.0000      0.1548      0.0000      0.0000      0.1739      0.2549      0.1464
  6      0.0000      1.6096      3.8296      0.0000      3.9095      0.2453      0.0000      0.0000      0.0309
  7      0.0000      1.2272      3.3879      0.1914      1.5152      0.0000      0.1891      0.0000      0.2309
  8      2.7946      1.1786      0.0000      1.2937      0.0000      1.4388      1.3220      1.7578      1.2580
  9      0.0000      1.2804      0.5654      0.1912      0.0000      0.0000      0.2793      4.9948      0.1639
 10      0.0000      1.1089      1.1191      0.0941      0.8119      1.3970      0.0999      0.0000      0.1873
 11      0.0000      1.3937      0.0000      0.0446      0.5382      0.0000      0.0000      0.0000      0.0000
 12      0.0000      1.3556      0.0000      0.0363      0.1824      0.3824      0.0812      3.8150      0.0451
 13      3.2364      1.9807      4.4349      2.1360      0.0000      0.8082      2.1329      2.2162      2.0174
 14      0.0000      1.2572      0.7929      0.0000      0.9764      1.3745      0.0000      0.1793      0.0458
 15      9.3052      1.1076      2.8489      0.1070      2.0973      0.0000      0.0000      5.4931      0.0000
 16      0.5698      1.4154      0.1419      0.0000      0.0000      1.0269      0.0000      8.1986      0.0000
 17      6.7030      1.9418      5.7522      0.0000      3.6014      0.0000      0.0000      1.5332      0.0000
 18      0.0000      1.4587      0.6972      1.5509      0.0000      1.3253      1.3895      0.4510      1.4627
 19      1.0330      1.4130      0.0000      1.8053      4.8856      1.7732      1.7042      3.3155      1.8885
 20      0.0000      1.1359      0.0000      0.0373      0.0000      0.2385      0.0510      1.9704      0.2776
 21      0.0000      1.0418      1.1905      0.0726      4.2715      0.0726      0.1179      1.7268      0.0741
 22      0.0000      1.3152      0.6224      0.0274      0.0000      0.0000      0.0297      2.5045      0.0111
 23      0.0000      0.9997      0.4163      0.2076      0.2998      0.0000      0.2986      1.5409      0.3236
 24      0.0000      1.4326      0.0000      0.3522      3.5145      1.3500      1.2295      0.0000      0.0000
 25      0.0000      1.4393      4.8787      3.5717      0.0000      2.4819      2.5729      0.1664      2.7890
 26      0.0000      1.0488      9.7771      2.1325      0.0000      1.3582      2.3677      0.8831      2.0160
 27      0.0000      1.5181      0.0882      0.4035      4.0765      0.7389      0.4811      0.4494      0.4009
 28      0.0000      1.1659      3.9304      0.0000      2.8909      0.8394      0.0639      0.3875      0.0506
 29     22.4194      1.5095      1.1287      0.0172      3.5331      0.0000      0.0000      5.7926      0.0000
 30      0.0000      1.3295      8.1363      0.8603      1.7697      2.0345      0.1684      0.0000      1.7747
 31      5.2971      1.2282      3.5343      0.0501      1.2171      0.0000      0.5620      1.6517      0.0000
 32      1.5307      1.9002      0.6500      0.0000      0.0295      0.3601      0.0840      0.8838      0.0000
 33      0.0000      1.6247      0.0000      1.5096      3.2412      4.2118      1.9886      8.7236      1.5055
 34      0.0000      1.9918      0.0000      2.6257      3.4435      2.6678      3.1853      3.7256      2.6704
 35      0.0000      1.0180      1.2227      0.2470      1.2719      0.0000      0.3433      1.7966      0.1979
 36      5.6807      1.0518      0.0000      0.7685      2.2977      0.2888      0.7552      1.2256      0.8318
 37      0.0000      1.4628      0.3656      0.1020      0.0000      1.1995      0.0558      1.5641      0.0000
 38      0.0000      1.1362      0.0000      0.0000      0.5594      0.0239      0.0430      0.3228      0.0088
 39      0.0000      1.0651      0.4544      0.0000      0.0000      0.1684      0.0206      0.6613      0.0677
 40      0.0000      2.0865      0.3085      3.3207      0.0000      3.0944      3.4682      0.0000      3.1323
 41      0.3223      1.1063      0.0000      0.2726      0.0000      0.6290      0.2642      1.5654      0.2456
 42      0.0000      1.2709      0.6968      0.2116      0.1340      0.4595      0.2116      0.0000      0.1805
 43      0.0000      1.3708      3.9523      0.0604      0.5968      0.0000      0.0000      0.0000      0.0727
 44      0.0000      1.1160      4.1446      0.1388      4.1206      1.3773      0.2557      0.0000      0.2427
 45      0.0000      1.2795      0.0000      0.1413      0.0000      0.0849      0.0036      2.9187      0.0576
 46      0.9719      1.5947      2.4832      3.0110      0.3668      4.7662      2.7451      1.9855      2.6395
 47     10.2614      2.4497      0.5417      3.4245      2.3800      2.2422      3.5084      1.8614      3.4052
 48      0.0000      1.9365      0.0000      3.9464      0.0899      4.7929      3.4967      9.5861      4.1108
 49      0.0000      2.8929      0.0000      7.9246      2.4416      7.0882      8.1895      0.0766      8.1903
 50      0.0000      2.3770      3.2852      4.7046      1.8531      5.5670      4.0040      2.7664      4.6217
 51      0.0000      1.7356      1.5473      0.2028      0.7513      0.0000      0.0000      2.0871      0.0886
 52      0.0000      0.9459      0.0000      0.0000      1.5112      0.3357      0.0846      0.3831      0.0265
 53      0.0000      1.2107      0.9403      0.0679      7.1242      0.5643      0.0725      0.0414      0.1253
 54      0.0000      0.9509      3.4376      0.0502      1.0723      0.5879      0.0127      0.0000      0.0000
 55      0.0000      1.4013      1.0046      0.0354      0.0000      0.0297      0.0471      0.5398      0.0000
 56      0.0000      1.8840      0.3390      5.0127      0.0000      4.2153      4.9551      0.0000      5.3361
 57      0.0000      1.8234      1.8803      4.0640      2.3633      2.8893      4.5109      0.0000      4.3705
 58      0.0000      1.7890      0.0000      0.0447      0.0000      0.0000      0.0000      0.0000      0.0000
 59      0.7792      1.0849      0.0000      0.1962      0.0000      0.0363      0.1658      0.4326      0.0000
 60      0.0000      1.3469      0.7176      1.7217      2.1389      0.4709      1.7153      0.6603      1.6139
 61     44.8270      1.5702      0.0000      1.4328      0.3926      1.5409      1.2761      0.4253      1.3859
 62      0.0000      2.8925      1.8452      8.2340      4.2173      6.5393      7.6085      4.4829      8.1285
 63      8.0660      4.2002      1.5672     12.9108      2.4025     12.9650     12.5876      1.1302     12.9155
 64      0.0000      2.1419      0.0000      2.2541      2.1216      2.5375      2.2745      0.1622      2.3564
 65      0.0000      3.3837      9.6993      9.7215      7.7139      7.3883      8.6975      2.7672     10.0213
 66      0.0000      2.6680      4.8968      6.4987      4.6831      3.1653      8.1349      0.4976      5.9596

# j      m_j: min, <> & last-chain-values for 1 ...  7 chains
  1  0.0000E+00  7.9636E-03  5.2260E-03  4.0114E-03  1.2125E-02  0.0000E+00  3.9109E-03  2.1118E-02  3.9485E-03
  2  0.0000E+00  1.8424E-03  2.4475E-04  2.3867E-06  1.8751E-03  4.7887E-04  7.8938E-05  0.0000E+00  1.6429E-05
  3  0.0000E+00  2.7583E-03  8.5090E-03  3.7374E-05  0.0000E+00  2.2375E-04  0.0000E+00  2.1175E-03  6.2098E-06
  4  1.4097E-03  3.1496E-03  9.2023E-04  5.8642E-05  0.0000E+00  9.2872E-04  8.5965E-05  3.2532E-03  0.0000E+00
  5  0.0000E+00  6.0996E-03  0.0000E+00  3.8004E-04  0.0000E+00  0.0000E+00  4.1287E-04  1.0444E-03  3.6217E-04
  6  0.0000E+00  1.2255E-02  2.1244E-02  0.0000E+00  2.1153E-02  1.1215E-03  0.0000E+00  0.0000E+00  1.2410E-04
  7  0.0000E+00  1.3377E-02  2.6907E-02  1.0910E-03  1.1737E-02  0.0000E+00  1.0426E-03  0.0000E+00  1.3267E-03
  8  6.5249E-02  1.7757E-02  0.0000E+00  1.0191E-02  0.0000E+00  1.3018E-02  1.0076E-02  2.3113E-02  9.9892E-03
  9  0.0000E+00  2.2079E-02  7.1041E-03  1.7240E-03  0.0000E+00  0.0000E+00  2.4366E-03  7.5167E-02  1.4900E-03
 10  0.0000E+00  2.5118E-02  1.8470E-02  1.1146E-03  1.3068E-02  1.9005E-02  1.1442E-03  0.0000E+00  2.2366E-03
 11  0.0000E+00  5.9358E-02  0.0000E+00  9.9342E-04  1.6290E-02  0.0000E+00  0.0000E+00  0.0000E+00  0.0000E+00
 12  0.0000E+00  9.1589E-02  0.0000E+00  1.2811E-03  8.7580E-03  1.5514E-02  2.7771E-03  2.2494E-01  1.6051E-03
 13  9.5515E-01  3.7718E-01  6.1533E-01  2.1268E-01  0.0000E+00  9.2435E-02  2.0549E-01  3.6832E-01  2.0248E-01
 14  0.0000E+00  8.0297E-01  3.6897E-01  0.0000E+00  4.4319E-01  5.2725E-01  0.0000E+00  9.9929E-02  1.5408E-02
 15  1.4995E+01  1.1516E+00  2.1583E+00  5.8148E-02  1.5497E+00  0.0000E+00  0.0000E+00  4.9847E+00  0.0000E+00
 16  1.5524E+00  2.4884E+00  1.8171E-01  0.0000E+00  0.0000E+00  1.0843E+00  0.0000E+00  1.2580E+01  0.0000E+00
 17  2.3692E+01  4.4287E+00  9.5585E+00  0.0000E+00  5.8371E+00  0.0000E+00  0.0000E+00  3.0517E+00  0.0000E+00
 18  0.0000E+00  8.2509E-03  2.8733E-03  4.5865E-03  0.0000E+00  4.5022E-03  3.9762E-03  2.2261E-03  4.3603E-03
 19  3.6343E-03  3.2077E-03  0.0000E+00  2.1429E-03  7.8820E-03  2.4177E-03  1.9573E-03  6.5689E-03  2.2596E-03
 20  0.0000E+00  2.8152E-03  0.0000E+00  4.8395E-05  0.0000E+00  3.5498E-04  6.3899E-05  4.2619E-03  3.6262E-04
 21  0.0000E+00  3.1342E-03  2.6096E-03  1.1413E-04  9.1322E-03  1.3118E-04  1.7950E-04  4.5339E-03  1.1748E-04
 22  0.0000E+00  6.6907E-03  2.3071E-03  7.2770E-05  0.0000E+00  0.0000E+00  7.6457E-05  1.1120E-02  2.9654E-05
 23  0.0000E+00  6.8677E-03  2.0839E-03  7.4584E-04  1.4639E-03  0.0000E+00  1.0376E-03  9.2385E-03  1.1716E-03
 24  0.0000E+00  1.4642E-02  0.0000E+00  1.8823E-03  2.5526E-02  8.2864E-03  6.3573E-03  0.0000E+00  0.0000E+00
 25  0.0000E+00  2.0283E-02  5.0094E-02  2.6318E-02  0.0000E+00  2.1006E-02  1.8344E-02  2.0466E-03  2.0716E-02
 26  0.0000E+00  2.4705E-02  1.6781E-01  2.6265E-02  0.0000E+00  1.9215E-02  2.8217E-02  1.8155E-02  2.5030E-02
 27  0.0000E+00  7.1581E-02  3.0302E-03  9.9476E-03  1.3659E-01  2.0925E-02  1.1476E-02  1.8493E-02  9.9636E-03
 28  0.0000E+00  1.5954E-01  3.9186E-01  0.0000E+00  2.8112E-01  6.8986E-02  4.4241E-03  4.6276E-02  3.6476E-03
 29  8.2840E+00  3.5991E-01  1.9607E-01  2.1464E-03  5.9864E-01  0.0000E+00  0.0000E+00  1.2053E+00  0.0000E+00
 30  0.0000E+00  6.6229E-01  2.9530E+00  2.2407E-01  6.2647E-01  6.0868E-01  4.2434E-02  0.0000E+00  4.6594E-01
 31  7.1936E+00  1.0762E+00  2.2565E+00  2.2958E-02  7.5793E-01  0.0000E+00  2.4914E-01  1.2632E+00  0.0000E+00
 32  2.7969E+00  2.2403E+00  5.5840E-01  0.0000E+00  2.4758E-02  2.5496E-01  5.0115E-02  9.0947E-01  0.0000E+00
 33  0.0000E+00  4.2405E+00  0.0000E+00  2.0601E+00  6.0118E+00  6.6022E+00  2.6258E+00  1.9871E+01  2.0711E+00
 34  0.0000E+00  7.0400E+00  0.0000E+00  4.8523E+00  8.6492E+00  5.6630E+00  5.6957E+00  1.1492E+01  4.9747E+00
 35  0.0000E+00  4.6166E-03  4.0403E-03  5.8565E-04  4.0994E-03  0.0000E+00  7.8772E-04  7.1109E-03  4.7294E-04
 36  1.6154E-02  1.9300E-03  0.0000E+00  7.3730E-04  2.9962E-03  3.1824E-04  7.0109E-04  1.9627E-03  8.0444E-04
 37  0.0000E+00  2.9032E-03  5.2867E-04  1.0585E-04  0.0000E+00  1.4297E-03  5.5997E-05  2.7091E-03  0.0000E+00
 38  0.0000E+00  6.1091E-03  0.0000E+00  0.0000E+00  2.1374E-03  7.7140E-05  1.1685E-04  1.5148E-03  2.4973E-05
 39  0.0000E+00  8.2456E-03  2.5630E-03  0.0000E+00  0.0000E+00  7.8301E-04  8.0494E-05  4.4681E-03  2.7609E-04
 40  0.0000E+00  2.6110E-02  2.8124E-03  2.1727E-02  0.0000E+00  2.3256E-02  2.1957E-02  0.0000E+00  2.0659E-02
 41  9.7208E-03  2.1527E-02  0.0000E+00  2.7733E-03  0.0000E+00  7.3508E-03  2.6014E-03  2.6586E-02  2.5186E-03
 42  0.0000E+00  4.5405E-02  1.8137E-02  3.9524E-03  3.4035E-03  9.8591E-03  3.8242E-03  0.0000E+00  3.3994E-03
 43  0.0000E+00  7.1506E-02  1.5021E-01  1.6469E-03  2.2124E-02  0.0000E+00  0.0000E+00  0.0000E+00  2.0000E-03
 44  0.0000E+00  1.0023E-01  2.7122E-01  6.5195E-03  2.6300E-01  7.4292E-02  1.1619E-02  0.0000E+00  1.1487E-02
 45  0.0000E+00  2.2801E-01  0.0000E+00  1.3165E-02  0.0000E+00  9.0902E-03  3.2405E-04  4.5393E-01  5.4063E-03
 46  4.9337E-01  5.2236E-01  5.9262E-01  5.1568E-01  8.5390E-02  9.3761E-01  4.5490E-01  5.6759E-01  4.5567E-01
 47  1.0555E+01  1.6259E+00  2.6196E-01  1.1884E+00  1.1226E+00  8.9379E-01  1.1781E+00  1.0783E+00  1.1912E+00
 48  0.0000E+00  2.2668E+00  0.0000E+00  2.4154E+00  7.4824E-02  3.3695E+00  2.0707E+00  9.7931E+00  2.5362E+00
 49  0.0000E+00  7.6963E+00  0.0000E+00  1.1023E+01  4.6161E+00  1.1325E+01  1.1022E+01  1.7778E-01  1.1484E+01
 50  0.0000E+00  1.1713E+01  1.1794E+01  1.2121E+01  6.4887E+00  1.6475E+01  9.9812E+00  1.1896E+01  1.2003E+01
 51  0.0000E+00  4.6878E-03  3.0450E-03  2.8638E-04  1.4420E-03  0.0000E+00  0.0000E+00  4.9197E-03  1.2607E-04
 52  0.0000E+00  1.3093E-03  0.0000E+00  0.0000E+00  1.4865E-03  2.7905E-04  5.9236E-05  4.6273E-04  1.9313E-05
 53  0.0000E+00  2.5242E-03  1.4284E-03  7.3971E-05  1.0556E-02  7.0658E-04  7.6509E-05  7.5299E-05  1.3766E-04
 54  0.0000E+00  4.0623E-03  1.0700E-02  1.1223E-04  3.2555E-03  1.5085E-03  2.7442E-05  0.0000E+00  0.0000E+00
 55  0.0000E+00  9.2179E-03  4.8145E-03  1.2172E-04  0.0000E+00  1.1738E-04  1.5673E-04  3.0988E-03  0.0000E+00
 56  0.0000E+00  2.4529E-02  3.2158E-03  3.4123E-02  0.0000E+00  3.2960E-02  3.2638E-02  0.0000E+00  3.6616E-02
 57  0.0000E+00  3.1510E-02  2.3673E-02  3.6719E-02  2.9022E-02  2.9986E-02  3.9435E-02  0.0000E+00  3.9805E-02
 58  0.0000E+00  5.2289E-02  0.0000E+00  6.8339E-04  0.0000E+00  0.0000E+00  0.0000E+00  0.0000E+00  0.0000E+00
 59  7.5960E-02  6.8243E-02  0.0000E+00  6.4528E-03  0.0000E+00  1.3714E-03  5.2769E-03  2.3749E-02  0.0000E+00
 60  0.0000E+00  1.5736E-01  6.1089E-02  1.0517E-01  1.7759E-01  3.3045E-02  1.0139E-01  6.7324E-02  9.9384E-02
 61  1.7735E+01  4.0084E-01  0.0000E+00  1.9124E-01  7.1219E-02  2.3624E-01  1.6481E-01  9.4763E-02  1.8647E-01
 62  0.0000E+00  1.3463E+00  6.2575E-01  2.0039E+00  1.3949E+00  1.8280E+00  1.7916E+00  1.8210E+00  1.9941E+00
 63  1.1576E+01  3.8896E+00  1.0574E+00  6.2513E+00  1.5811E+00  7.2106E+00  5.8972E+00  9.1338E-01  6.3037E+00
 64  0.0000E+00  5.4861E+00  0.0000E+00  3.0187E+00  3.8619E+00  3.9034E+00  2.9474E+00  3.6269E-01  3.1811E+00
 65  0.0000E+00  1.8321E+01  3.8263E+01  2.7521E+01  2.9681E+01  2.4025E+01  2.3824E+01  1.3076E+01  2.8598E+01
 66  0.0000E+00  2.0407E+01  2.7290E+01  2.5990E+01  2.5456E+01  1.4541E+01  3.1480E+01  3.3215E+00  2.4026E+01

# AV, chi2 & Mass for <> & i_chain = 1 ...  7 solutions
AV       0.5626      0.6703      1.0154      0.6263      1.0519      0.6654      0.6183      0.8840      0.6272
chi2 2.6040E-04  1.7933E-03  4.5590E-04  6.5415E-04  6.0219E-04  6.1419E-04  6.5526E-04  4.3152E-04  6.7190E-04
Mass 1.4330E-12  2.5665E-12  5.5991E-12  4.6268E-12  6.0293E-12  4.2451E-12  4.7308E-12  3.9184E-12  4.5954E-12
 111.84                                  [v0_min (km/s) before EX0s...]
 187.64                                  [vd_min (km/s) before EX0s...]


## Synthetic spectrum (Best Model) ##l_obs f_obs f_syn wei
 3478    [Nl_obs]
 3741.00    0.62541   0.66929    0.000
 3742.00    0.66520   0.69098    0.000
 3743.00    0.69050   0.69580    0.000
 3744.00    0.68982   0.68477    0.000
 3745.00    0.67398   0.66154    0.229
 3746.00    0.67618   0.63057    0.223
 3747.00    0.68753   0.59635    0.213
 3748.00    0.68114   0.56370    0.216
 3749.00    0.66695   0.53850    0.224
 3750.00    0.68286   0.52720    0.221
 3751.00    0.71015   0.53482    0.215
 3752.00    0.71454   0.56219    0.214
 3753.00    0.71160   0.60461    0.216
 3754.00    0.72388   0.65270    0.215
 3755.00    0.74022   0.69537    0.213
 3756.00    0.73803   0.72361    0.210
 3757.00    0.73176   0.73363    0.207
 3758.00    0.71668   0.72803    0.205
 3759.00    0.70007   0.71441    0.203
 3760.00    0.74289   0.70174    0.209
 3761.00    0.79361   0.69610    0.216
 3762.00    0.74087   0.69859    0.214
 3763.00    0.67840   0.70597    0.211
 3764.00    0.65304   0.71315    0.208
 3765.00    0.62983   0.71567    0.204
 3766.00    0.67248   0.71113    0.199
 3767.00    0.71614   0.69951    0.195
 3768.00    0.69238   0.68311    0.194
 3769.00    0.66705   0.66597    0.192
 3770.00    0.60331   0.65291    0.189
 3771.00    0.54503   0.64826    0.187
 3772.00    0.55838   0.65447    0.190
 3773.00    0.56799   0.67110    0.192
 3774.00    0.54488   0.69518    0.188
 3775.00    0.52441   0.72280    0.185
 3776.00    0.52113   0.75095    0.181
 3777.00    0.52155   0.77850    0.179
 3778.00    0.54068   0.80557    0.183
 3779.00    0.57291   0.83218    0.188
 3780.00    0.65871   0.85737    0.195
 3781.00    0.72542   0.87921    0.202
 3782.00    0.72740   0.89540    0.208
 3783.00    0.73187   0.90382    0.213
 3784.00    0.74347   0.90286    0.217
 3785.00    0.76683   0.89173    0.220
 3786.00    0.81897   0.87120    0.222
 3787.00    0.85153   0.84416    0.222
 3788.00    0.84284   0.81527    0.219
 3789.00    0.82566   0.78929    0.215
 3790.00    0.79295   0.76899    0.208
 3791.00    0.76762   0.75390    0.205
 3792.00    0.75413   0.74069    0.206
 3793.00    0.75150   0.72502    0.206
 3794.00    0.76413   0.70365    0.203
 3795.00    0.78014   0.67606    0.204
 3796.00    0.80032   0.64491    0.210
 3797.00    0.79719   0.61557    0.213
 3798.00    0.76867   0.59488    0.214
 3799.00    0.74203   0.58931    0.213
 3800.00    0.71720   0.60263    0.210
 3801.00    0.68474   0.63409    0.207
 3802.00    0.64582   0.67814    0.203
 3803.00    0.62991   0.72619    0.200
 3804.00    0.63117   0.76972    0.199
 3805.00    0.67680   0.80314    0.201
 3806.00    0.75153   0.82539    0.205
 3807.00    0.77215   0.83957    0.204
 3808.00    0.76171   0.85054    0.200
 3809.00    0.75114   0.86178    0.196
 3810.00    0.74051   0.87301    0.192
 3811.00    0.75082   0.88040    0.200
 3812.00    0.77019   0.87927    0.215
 3813.00    0.78967   0.86754    0.215
 3814.00    0.80920   0.84761    0.209
 3815.00    0.78605   0.82538    0.206
 3816.00    0.74949   0.80698    0.202
 3817.00    0.71662   0.79550    0.200
 3818.00    0.68473   0.78986    0.198
 3819.00    0.68757   0.78648    0.198
 3820.00    0.69784   0.78214    0.199
 3821.00    0.68779   0.77576    0.197
 3822.00    0.67429   0.76773    0.195
 3823.00    0.62032   0.75818    0.195
 3824.00    0.56116   0.74621    0.195
 3825.00    0.57504   0.73096    0.200
 3826.00    0.59547   0.71309    0.205
 3827.00    0.63936   0.69474    0.205
 3828.00    0.68451   0.67787    0.204
 3829.00    0.64224   0.66256    0.202
 3830.00    0.59873   0.64674    0.199
 3831.00    0.59882   0.62748    0.202
 3832.00    0.60008   0.60308    0.205
 3833.00    0.62726   0.57458    0.198
 3834.00    0.65125   0.54588    0.192
 3835.00    0.63552   0.52233    0.194
 3836.00    0.62920   0.50855    0.195
 3837.00    0.70233   0.50691    0.201
 3838.00    0.77231   0.51729    0.206
 3839.00    0.82243   0.53817    0.209
 3840.00    0.85697   0.56769    0.211
 3841.00    0.81459   0.60408    0.212
 3842.00    0.76685   0.64516    0.211
 3843.00    0.69765   0.68788    0.204
 3844.00    0.65943   0.72855    0.199
 3845.00    0.72419   0.76395    0.202
 3846.00    0.76705   0.79227    0.205
 3847.00    0.74841   0.81332    0.000
 3848.00    0.74375   0.82804    0.000
 3849.00    0.77266   0.83798    0.000
 3850.00    0.77001   0.84504    0.000
 3851.00    0.70189   0.85101    0.000
 3852.00    0.65283   0.85688    0.000
 3853.00    0.63816   0.86219    0.000
 3854.00    0.64310   0.86520    0.000
 3855.00    0.67897   0.86413    0.000
 3856.00    0.71299   0.85834    0.000
 3857.00    0.74446   0.84890    0.000
 3858.00    0.75185   0.83831    0.000
 3859.00    0.72990   0.82997    0.000
 3860.00    0.70498   0.82730    0.000
 3861.00    0.67686   0.83254    0.000
 3862.00    0.66492   0.84552    0.000
 3863.00    0.66831   0.86326    0.000
 3864.00    0.66799   0.88114    0.000
 3865.00    0.66459   0.89511    0.000
 3866.00    0.63376   0.90326    0.000
 3867.00    0.58275   0.90575    0.000
 3868.00    0.51443   0.90352    0.000
 3869.00    0.43493   0.89702    0.000
 3870.00    0.41096   0.88629    0.000
 3871.00    0.41838   0.87203    0.000
 3872.00    0.45166   0.85665    0.000
 3873.00    0.49767   0.84387    0.000
 3874.00    0.52736   0.83668    0.000
 3875.00    0.55011   0.83524    0.000
 3876.00    0.56483   0.83647    0.000
 3877.00    0.57661   0.83609    0.000
 3878.00    0.62856   0.83146    0.000
 3879.00    0.69290   0.82290    0.000
 3880.00    0.72869   0.81258    0.000
 3881.00    0.75716   0.80210    0.191
 3882.00    0.75832   0.79104    0.192
 3883.00    0.75376   0.77725    0.194
 3884.00    0.79797   0.75826    0.200
 3885.00    0.85022   0.73272    0.207
 3886.00    0.82024   0.70143    0.210
 3887.00    0.78007   0.66792    0.212
 3888.00    0.80257   0.63807    0.210
 3889.00    0.83044   0.61865    0.208
 3890.00    0.77503   0.61489    0.205
 3891.00    0.71547   0.62821    0.201
 3892.00    0.71608   0.65549    0.198
 3893.00    0.71730   0.69038    0.194
 3894.00    0.69449   0.72595    0.198
 3895.00    0.67252   0.75733    0.201
 3896.00    0.66750   0.78269    0.193
 3897.00    0.66183   0.80263    0.186
 3898.00    0.64839   0.81875    0.181
 3899.00    0.63203   0.83261    0.176
 3900.00    0.59184   0.84522    0.172
 3901.00    0.55347   0.85678    0.167
 3902.00    0.52623   0.86658    0.164
 3903.00    0.49364   0.87342    0.160
 3904.00    0.43527   0.87670    0.155
 3905.00    0.39170   0.87766    0.151
 3906.00    0.40609   0.87947    0.153
 3907.00    0.43789   0.88597    0.156
 3908.00    0.52643   0.89952    0.162
 3909.00    0.60997   0.91956    0.168
 3910.00    0.67976   0.94261    0.172
 3911.00    0.74272   0.96383    0.177
 3912.00    0.78955   0.97896    0.181
 3913.00    0.80790   0.98584    0.184
 3914.00    0.76811   0.98457    0.182
 3915.00    0.73953   0.97681    0.182
 3916.00    0.73088   0.96478    0.185
 3917.00    0.74352   0.95032    0.187
 3918.00    0.78922   0.93477    0.190
 3919.00    0.81136   0.91915    0.193
 3920.00    0.80134   0.90465    0.194
 3921.00    0.80150   0.89249    0.195
 3922.00    0.81389   0.88335    0.197
 3923.00    0.84377   0.87642    0.199
 3924.00    0.89217   0.86904    0.201
 3925.00    0.91623   0.85722    0.205
 3926.00    0.91756   0.83690    0.209
 3927.00    0.92695   0.80539    0.212
 3928.00    0.94300   0.76210    0.212
 3929.00    0.92447   0.70855    0.216
 3930.00    0.88087   0.64784    0.222
 3931.00    0.83792   0.58438    0.224
 3932.00    0.79537   0.52381    0.224
 3933.00    0.77287   0.47282    0.219
 3934.00    0.76151   0.43845    0.213
 3935.00    0.77738   0.42647    0.215
 3936.00    0.80642   0.43947    0.221
 3937.00    0.82066   0.47563    0.221
 3938.00    0.82872   0.52894    0.219
 3939.00    0.83953   0.59072    0.216
 3940.00    0.85132   0.65212    0.212
 3941.00    0.88383   0.70622    0.214
 3942.00    0.92261   0.74958    0.217
 3943.00    0.86330   0.78249    0.211
 3944.00    0.77935   0.80798    0.203
 3945.00    0.84742   0.82982    0.210
 3946.00    0.94649   0.85056    0.220
 3947.00    0.98830   0.87056    0.216
 3948.00    1.02094   0.88872    0.211
 3949.00    1.00020   0.90391    0.212
 3950.00    0.97310   0.91594    0.213
 3951.00    0.94360   0.92544    0.213
 3952.00    0.91391   0.93312    0.212
 3953.00    0.95647   0.93913    0.213
 3954.00    1.00234   0.94291    0.215
 3955.00    0.95544   0.94354    0.210
 3956.00    0.90800   0.94032    0.205
 3957.00    0.89415   0.93299    0.203
 3958.00    0.88111   0.92147    0.201
 3959.00    0.88350   0.90514    0.203
 3960.00    0.88693   0.88242    0.000
 3961.00    0.90221   0.85144    0.000
 3962.00    0.92337   0.81123    0.000
 3963.00    0.99082   0.76249    0.000
 3964.00    1.03699   0.70695    0.000
 3965.00    0.95688   0.64655    0.000
 3966.00    0.88651   0.58343    0.000
 3967.00    0.86187   0.52098    0.000
 3968.00    0.85355   0.46477    0.000
 3969.00    0.90779   0.42220    0.000
 3970.00    0.94755   0.40037    0.000
 3971.00    0.94101   0.40355    0.000
 3972.00    0.93731   0.43152    0.000
 3973.00    0.94127   0.47980    0.000
 3974.00    0.95377   0.54147    0.000
 3975.00    0.98612   0.60935    0.000
 3976.00    1.00130   0.67767    0.000
 3977.00    0.98199   0.74254    0.000
 3978.00    0.96770   0.80161    0.000
 3979.00    0.96220   0.85320    0.000
 3980.00    0.97273   0.89596    0.000
 3981.00    1.00779   0.92904    0.210
 3982.00    1.00716   0.95290    0.211
 3983.00    0.95853   0.96963    0.210
 3984.00    0.92946   0.98248    0.211
 3985.00    0.92355   0.99458    0.212
 3986.00    0.92936   1.00772    0.213
 3987.00    0.94742   1.02205    0.212
 3988.00    0.95448   1.03664    0.208
 3989.00    0.95140   1.05042    0.202
 3990.00    0.98577   1.06283    0.200
 3991.00    1.05056   1.07375    0.202
 3992.00    1.04859   1.08297    0.202
 3993.00    0.99892   1.08969    0.200
 3994.00    0.96568   1.09259    0.199
 3995.00    0.94273   1.09088    0.199
 3996.00    0.96008   1.08538    0.199
 3997.00    0.99950   1.07899    0.200
 3998.00    1.01659   1.07573    0.201
 3999.00    1.02304   1.07875    0.202
 4000.00    1.00564   1.08842    0.199
 4001.00    0.97845   1.10183    0.194
 4002.00    0.98171   1.11394    0.195
 4003.00    0.99566   1.11998    0.197
 4004.00    1.03102   1.11782    0.198
 4005.00    1.07273   1.10920    0.199
 4006.00    1.05922   1.09905    0.199
 4007.00    1.03215   1.09315    0.199
 4008.00    1.06090   1.09533    0.200
 4009.00    1.10076   1.10568    0.202
 4010.00    1.05130   1.12109    0.197
 4011.00    0.98796   1.13731    0.191
 4012.00    0.96594   1.15117    0.191
 4013.00    0.94868   1.16153    0.192
 4014.00    0.92818   1.16891    0.197
 4015.00    0.90743   1.17447    0.202
 4016.00    0.91321   1.17926    0.198
 4017.00    0.92011   1.18389    0.194
 4018.00    0.94340   1.18860    0.193
 4019.00    0.96581   1.19311    0.193
 4020.00    0.94362   1.19655    0.195
 4021.00    0.92641   1.19769    0.196
 4022.00    0.99686   1.19566    0.197
 4023.00    1.06677   1.19083    0.197
 4024.00    1.13078   1.18508    0.199
 4025.00    1.18209   1.18087    0.201
 4026.00    1.13703   1.17959    0.201
 4027.00    1.09186   1.18011    0.201
 4028.00    1.04609   1.17882    0.203
 4029.00    1.00531   1.17135    0.203
 4030.00    0.98743   1.15532    0.201
 4031.00    0.95780   1.13244    0.199
 4032.00    0.88407   1.10836    0.198
 4033.00    0.82691   1.09050    0.197
 4034.00    0.82165   1.08496    0.192
 4035.00    0.82659   1.09422    0.188
 4036.00    0.85870   1.11634    0.187
 4037.00    0.88266   1.14588    0.187
 4038.00    0.88800   1.17571    0.189
 4039.00    0.90958   1.19925    0.191
 4040.00    0.96326   1.21220    0.194
 4041.00    1.00000   1.21311    0.197
 4042.00    1.00753   1.20281    0.202
 4043.00    1.01303   1.18360    0.206
 4044.00    1.01545   1.15897    0.207
 4045.00    1.02863   1.13396    0.208
 4046.00    1.05608   1.11481    0.209
 4047.00    1.07626   1.10712    0.207
 4048.00    1.08796   1.11318    0.204
 4049.00    1.10065   1.13028    0.204
 4050.00    1.11434   1.15186    0.207
 4051.00    1.08837   1.17032    0.207
 4052.00    1.02638   1.18037    0.206
 4053.00    0.99471   1.18049    0.206
 4054.00    0.98732   1.17259    0.205
 4055.00    1.02471   1.16053    0.204
 4056.00    1.09364   1.14843    0.204
 4057.00    1.12324   1.13945    0.206
 4058.00    1.12854   1.13500    0.209
 4059.00    1.12272   1.13452    0.209
 4060.00    1.11090   1.13561    0.208
 4061.00    1.08730   1.13496    0.207
 4062.00    1.05819   1.13001    0.206
 4063.00    1.03171   1.12066    0.204
 4064.00    1.00631   1.10979    0.203
 4065.00    0.98905   1.10189    0.201
 4066.00    0.97459   1.10056    0.198
 4067.00    1.00201   1.10646    0.198
 4068.00    1.04159   1.11718    0.198
 4069.00    1.03666   1.12858    0.200
 4070.00    1.02103   1.13681    0.202
 4071.00    1.04180   1.13976    0.202
 4072.00    1.06962   1.13745    0.202
 4073.00    1.08456   1.13103    0.200
 4074.00    1.09756   1.12155    0.198
 4075.00    1.09413   1.10929    0.198
 4076.00    1.08888   1.09475    0.199
 4077.00    1.10062   1.08017    0.199
 4078.00    1.11360   1.06992    0.198
 4079.00    1.11120   1.06871    0.197
 4080.00    1.10821   1.07859    0.196
 4081.00    1.08286   1.09713    0.195
 4082.00    1.05869   1.11846    0.194
 4083.00    1.08330   1.13648    0.194
 4084.00    1.10621   1.14808    0.193
 4085.00    1.10100   1.15432    0.193
 4086.00    1.09921   1.15890    0.193
 4087.00    1.13257   1.16540    0.197
 4088.00    1.16080   1.17490    0.200
 4089.00    1.15141   1.18556    0.198
 4090.00    1.13630   1.19386    0.196
 4091.00    1.08918   1.19655    0.194
 4092.00    1.06338   1.19187    0.000
 4093.00    1.13301   1.17957    0.000
 4094.00    1.18047   1.16016    0.000
 4095.00    1.14651   1.13420    0.000
 4096.00    1.11268   1.10212    0.000
 4097.00    1.07926   1.06439    0.000
 4098.00    1.05466   1.02186    0.000
 4099.00    1.05310   0.97617    0.000
 4100.00    1.04596   0.93028    0.000
 4101.00    1.02629   0.88908    0.000
 4102.00    1.01572   0.85900    0.000
 4103.00    1.02286   0.84623    0.000
 4104.00    1.01665   0.85396    0.000
 4105.00    0.98778   0.88052    0.000
 4106.00    0.99085   0.91955    0.000
 4107.00    1.04138   0.96238    0.000
 4108.00    1.09311   1.00142    0.000
 4109.00    1.14640   1.03257    0.000
 4110.00    1.18194   1.05574    0.000
 4111.00    1.19705   1.07370    0.000
 4112.00    1.16475   1.09003    0.000
 4113.00    1.08431   1.10721    0.197
 4114.00    1.08844   1.12559    0.197
 4115.00    1.16827   1.14342    0.201
 4116.00    1.16389   1.15781    0.201
 4117.00    1.09307   1.16621    0.199
 4118.00    1.06632   1.16771    0.200
 4119.00    1.07014   1.16355    0.203
 4120.00    1.10366   1.15660    0.206
 4121.00    1.15524   1.15025    0.211
 4122.00    1.14652   1.14693    0.211
 4123.00    1.10577   1.14745    0.209
 4124.00    1.08316   1.15089    0.207
 4125.00    1.06891   1.15521    0.204
 4126.00    1.10960   1.15798    0.204
 4127.00    1.17211   1.15727    0.204
 4128.00    1.15373   1.15224    0.204
 4129.00    1.10797   1.14339    0.203
 4130.00    1.08361   1.13226    0.201
 4131.00    1.06532   1.12102    0.198
 4132.00    1.06086   1.11212    0.195
 4133.00    1.05965   1.10816    0.192
 4134.00    1.07222   1.11140    0.193
 4135.00    1.08739   1.12293    0.195
 4136.00    1.09504   1.14188    0.194
 4137.00    1.10159   1.16518    0.192
 4138.00    1.13837   1.18824    0.194
 4139.00    1.17836   1.20609    0.195
 4140.00    1.16050   1.21465    0.197
 4141.00    1.13863   1.21189    0.198
 4142.00    1.10288   1.19872    0.197
 4143.00    1.06665   1.17935    0.196
 4144.00    1.10139   1.16007    0.195
 4145.00    1.13342   1.14705    0.194
 4146.00    1.07138   1.14351    0.191
 4147.00    1.01429   1.14845    0.189
 4148.00    1.03361   1.15770    0.191
 4149.00    1.05877   1.16631    0.194
 4150.00    1.14147   1.17096    0.197
 4151.00    1.21377   1.17082    0.200
 4152.00    1.21222   1.16685    0.199
 4153.00    1.19997   1.16074    0.197
 4154.00    1.12925   1.15417    0.194
 4155.00    1.06526   1.14882    0.191
 4156.00    1.03068   1.14640    0.188
 4157.00    1.00014   1.14839    0.185
 4158.00    0.98413   1.15546    0.183
 4159.00    0.98314   1.16703    0.181
 4160.00    1.02746   1.18143    0.179
 4161.00    1.07587   1.19647    0.179
 4162.00    1.13480   1.21016    0.183
 4163.00    1.18615   1.22107    0.186
 4164.00    1.22076   1.22831    0.186
 4165.00    1.22487   1.23148    0.184
 4166.00    1.17056   1.23061    0.182
 4167.00    1.13157   1.22608    0.180
 4168.00    1.11817   1.21830    0.180
 4169.00    1.11629   1.20729    0.180
 4170.00    1.13126   1.19261    0.182
 4171.00    1.13395   1.17392    0.183
 4172.00    1.12081   1.15213    0.184
 4173.00    1.11359   1.12991    0.185
 4174.00    1.11309   1.11104    0.185
 4175.00    1.11720   1.09881    0.186
 4176.00    1.12592   1.09457    0.187
 4177.00    1.13716   1.09738    0.185
 4178.00    1.15064   1.10503    0.181
 4179.00    1.15404   1.11524    0.181
 4180.00    1.14960   1.12637    0.182
 4181.00    1.13719   1.13742    0.183
 4182.00    1.11932   1.14764    0.184
 4183.00    1.12236   1.15644    0.184
 4184.00    1.13794   1.16337    0.185
 4185.00    1.13784   1.16825    0.187
 4186.00    1.12954   1.17115    0.188
 4187.00    1.16730   1.17273    0.188
 4188.00    1.22595   1.17423    0.188
 4189.00    1.22280   1.17731    0.185
 4190.00    1.19552   1.18330    0.182
 4191.00    1.20459   1.19235    0.184
 4192.00    1.22574   1.20294    0.188
 4193.00    1.14556   1.21213    0.185
 4194.00    1.03715   1.21649    0.181
 4195.00    1.08611   1.21341    0.185
 4196.00    1.17118   1.20214    0.190
 4197.00    1.22401   1.18438    0.194
 4198.00    1.27091   1.16375    0.198
 4199.00    1.25644   1.14455    0.195
 4200.00    1.23329   1.13023    0.192
 4201.00    1.20092   1.12253    0.187
 4202.00    1.16762   1.12153    0.183
 4203.00    1.12878   1.12634    0.183
 4204.00    1.08957   1.13590    0.183
 4205.00    1.09961   1.14922    0.181
 4206.00    1.11116   1.16524    0.179
 4207.00    1.11512   1.18255    0.180
 4208.00    1.11900   1.19943    0.181
 4209.00    1.12040   1.21420    0.184
 4210.00    1.12622   1.22564    0.187
 4211.00    1.19653   1.23304    0.186
 4212.00    1.25530   1.23608    0.186
 4213.00    1.20505   1.23475    0.187
 4214.00    1.16036   1.22973    0.187
 4215.00    1.15387   1.22281    0.182
 4216.00    1.14709   1.21701    0.178
 4217.00    1.13883   1.21557    0.180
 4218.00    1.12884   1.22023    0.181
 4219.00    1.11147   1.22982    0.179
 4220.00    1.10457   1.24017    0.177
 4221.00    1.13458   1.24530    0.178
 4222.00    1.15563   1.23975    0.179
 4223.00    1.15014   1.22061    0.180
 4224.00    1.13551   1.18886    0.181
 4225.00    1.09785   1.14973    0.180
 4226.00    1.06206   1.11188    0.179
 4227.00    1.03037   1.08483    0.176
 4228.00    1.01443   1.07586    0.173
 4229.00    1.02821   1.08691    0.171
 4230.00    1.04391   1.11345    0.170
 4231.00    1.06275   1.14628    0.170
 4232.00    1.05501   1.17535    0.169
 4233.00    1.00888   1.19378    0.165
 4234.00    1.00448   1.19995    0.163
 4235.00    1.05304   1.19684    0.165
 4236.00    1.05997   1.18977    0.164
 4237.00    1.02034   1.18379    0.160
 4238.00    0.98659   1.18224    0.157
 4239.00    0.95863   1.18647    0.155
 4240.00    0.97952   1.19631    0.155
 4241.00    1.04291   1.21042    0.158
 4242.00    1.07055   1.22672    0.161
 4243.00    1.07079   1.24243    0.165
 4244.00    1.10204   1.25455    0.169
 4245.00    1.15419   1.26040    0.171
 4246.00    1.19045   1.25849    0.173
 4247.00    1.21731   1.24909    0.174
 4248.00    1.26288   1.23439    0.175
 4249.00    1.31808   1.21787    0.177
 4250.00    1.30944   1.20320    0.179
 4251.00    1.27232   1.19313    0.183
 4252.00    1.22179   1.18877    0.179
 4253.00    1.16612   1.18962    0.173
 4254.00    1.16621   1.19417    0.172
 4255.00    1.18446   1.20049    0.173
 4256.00    1.15528   1.20661    0.170
 4257.00    1.11315   1.21073    0.168
 4258.00    1.16636   1.21170    0.171
 4259.00    1.24094   1.20970    0.175
 4260.00    1.26620   1.20669    0.177
 4261.00    1.28264   1.20622    0.179
 4262.00    1.27215   1.21194    0.178
 4263.00    1.25798   1.22558    0.177
 4264.00    1.22958   1.24545    0.177
 4265.00    1.19980   1.26664    0.177
 4266.00    1.15381   1.28279    0.175
 4267.00    1.10684   1.28843    0.173
 4268.00    1.06530   1.28066    0.170
 4269.00    1.02389   1.25990    0.168
 4270.00    0.97869   1.22956    0.165
 4271.00    0.93703   1.19518    0.163
 4272.00    0.98885   1.16323    0.166
 4273.00    1.03742   1.13981    0.169
 4274.00    1.04150   1.12919    0.169
 4275.00    1.04918   1.13285    0.169
 4276.00    1.08956   1.14906    0.173
 4277.00    1.13161   1.17328    0.176
 4278.00    1.18483   1.19949    0.176
 4279.00    1.22788   1.22206    0.176
 4280.00    1.21834   1.23716    0.175
 4281.00    1.20492   1.24358    0.174
 4282.00    1.17533   1.24248   -2.000
 4283.00    1.15799   1.23636   -2.000
 4284.00    1.18292   1.22737   -2.000
 4285.00    1.19823   1.21643   -2.000
 4286.00    1.18556   1.20329   -2.000
 4287.00    1.19681   1.18740   -2.000
 4288.00    1.26737   1.16912   -2.000
 4289.00    1.29932   1.15040   -2.000
 4290.00    1.24878   1.13459   -2.000
 4291.00    1.23593   1.12511   -2.000
 4292.00    1.29308   1.12372   -2.000
 4293.00    1.31526   1.12939   -2.000
 4294.00    1.28069   1.13815   -2.000
 4295.00    1.27206   1.14447   -2.000
 4296.00    1.30034   1.14330   -2.000
 4297.00    1.32380   1.13191   -2.000
 4298.00    1.34125   1.11058    0.192
 4299.00    1.32529   1.08227    0.190
 4300.00    1.27248   1.05174    0.184
 4301.00    1.24117   1.02422    0.182
 4302.00    1.23079   1.00387    0.182
 4303.00    1.22208   0.99235    0.183
 4304.00    1.21480   0.98864    0.185
 4305.00    1.21284   0.98973    0.186
 4306.00    1.21490   0.99226    0.186
 4307.00    1.22738   0.99424    0.185
 4308.00    1.24677   0.99587    0.183
 4309.00    1.24376   0.99932    0.180
 4310.00    1.22771   1.00767    0.176
 4311.00    1.24494   1.02327    0.175
 4312.00    1.27905   1.04670    0.174
 4313.00    1.26796   1.07722    0.174
 4314.00    1.23704   1.11334    0.174
 4315.00    1.22183   1.15327    0.173
 4316.00    1.21252   1.19501    0.171
 4317.00    1.24947   1.23558    0.174
 4318.00    1.30120   1.27095    0.178
 4319.00    1.29877   1.29669    0.180
 4320.00    1.28186   1.30911    0.181
 4321.00    1.31639   1.30652    0.182
 4322.00    1.36217   1.28969    0.182
 4323.00    1.34388   1.26191    0.180
 4324.00    1.31446   1.22861    0.177
 4325.00    1.30301   1.19676    0.179
 4326.00    1.29394   1.17330    0.181
 4327.00    1.27819   1.16322    0.179
 4328.00    1.26182   1.16807    0.176
 4329.00    1.31209   1.18519    0.175
 4330.00    1.36617   1.20868    0.000
 4331.00    1.37117   1.23161    0.000
 4332.00    1.37491   1.24833    0.000
 4333.00    1.36578   1.25517    0.000
 4334.00    1.35717   1.24999    0.000
 4335.00    1.36111   1.23148    0.000
 4336.00    1.36335   1.19899    0.000
 4337.00    1.34330   1.15329    0.000
 4338.00    1.32842   1.09776    0.000
 4339.00    1.35857   1.03918    0.000
 4340.00    1.38434   0.98722    0.000
 4341.00    1.38183   0.95156    0.000
 4342.00    1.37474   0.93881    0.000
 4343.00    1.34457   0.95070    0.000
 4344.00    1.32885   0.98388    0.000
 4345.00    1.37207   1.03095    0.000
 4346.00    1.40557   1.08299    0.000
 4347.00    1.40619   1.13212    0.000
 4348.00    1.41233   1.17229    0.000
 4349.00    1.43427   1.19971    0.000
 4350.00    1.43599   1.21379    0.000
 4351.00    1.38841   1.21705    0.179
 4352.00    1.36434   1.21398    0.180
 4353.00    1.38971   1.21045    0.182
 4354.00    1.41249   1.21192    0.184
 4355.00    1.43057   1.22117    0.186
 4356.00    1.43774   1.23744    0.188
 4357.00    1.42747   1.25760    0.189
 4358.00    1.42555   1.27812    0.188
 4359.00    1.43536   1.29650    0.185
 4360.00    1.44566   1.31205    0.183
 4361.00    1.45656   1.32623    0.182
 4362.00    1.45911   1.34078    0.178
 4363.00    1.45257   1.35575    0.173
 4364.00    1.42717   1.36927    0.171
 4365.00    1.38368   1.37876    0.170
 4366.00    1.37204   1.38198    0.171
 4367.00    1.38735   1.37787    0.171
 4368.00    1.38845   1.36742    0.172
 4369.00    1.37898   1.35333    0.175
 4370.00    1.37831   1.33849    0.175
 4371.00    1.38340   1.32451    0.173
 4372.00    1.38668   1.31175    0.173
 4373.00    1.38891   1.30024    0.173
 4374.00    1.32697   1.29045    0.171
 4375.00    1.23301   1.28353    0.168
 4376.00    1.27156   1.28119    0.168
 4377.00    1.36730   1.28461    0.170
 4378.00    1.41497   1.29245    0.174
 4379.00    1.44487   1.30039    0.177
 4380.00    1.42908   1.30259    0.175
 4381.00    1.39897   1.29399    0.172
 4382.00    1.36358   1.27261    0.171
 4383.00    1.32682   1.24124    0.170
 4384.00    1.31356   1.20716    0.169
 4385.00    1.30533   1.17938    0.167
 4386.00    1.33876   1.16482    0.166
 4387.00    1.37923   1.16597    0.165
 4388.00    1.37671   1.18047    0.164
 4389.00    1.36871   1.20310    0.163
 4390.00    1.35861   1.22784    0.166
 4391.00    1.34833   1.24954    0.170
 4392.00    1.38032   1.26570    0.170
 4393.00    1.41456   1.27694    0.169
 4394.00    1.43133   1.28548    0.170
 4395.00    1.44777   1.29303    0.171
 4396.00    1.46549   1.30029    0.171
 4397.00    1.48324   1.30711    0.170
 4398.00    1.50177   1.31238    0.170
 4399.00    1.51715   1.31470    0.171
 4400.00    1.49379   1.31338    0.171
 4401.00    1.47068   1.30846    0.171
 4402.00    1.44964   1.30010    0.172
 4403.00    1.43519   1.28926    0.173
 4404.00    1.46207   1.27806    0.172
 4405.00    1.48573   1.26877    0.172
 4406.00    1.49360   1.26314    0.171
 4407.00    1.49769   1.26255    0.169
 4408.00    1.48672   1.26777    0.167
 4409.00    1.46827   1.27918    0.165
 4410.00    1.42502   1.29619    0.165
 4411.00    1.38947   1.31563    0.164
 4412.00    1.37550   1.33216    0.163
 4413.00    1.37604   1.34174    0.163
 4414.00    1.41134   1.34327    0.167
 4415.00    1.43888   1.33780    0.169
 4416.00    1.45038   1.32847    0.167
 4417.00    1.44932   1.32041    0.166
 4418.00    1.42568   1.31814    0.165
 4419.00    1.42050   1.32317    0.165
 4420.00    1.44438   1.33410    0.163
 4421.00    1.46756   1.34738    0.163
 4422.00    1.48980   1.35846    0.164
 4423.00    1.49486   1.36466    0.164
 4424.00    1.47903   1.36632    0.164
 4425.00    1.45896   1.36505    0.163
 4426.00    1.43436   1.36290    0.163
 4427.00    1.43917   1.36151    0.162
 4428.00    1.47182   1.36111    0.162
 4429.00    1.48744   1.36044    0.163
 4430.00    1.48886   1.35798    0.164
 4431.00    1.48615   1.35332    0.165
 4432.00    1.48041   1.34689    0.167
 4433.00    1.48018   1.33958    0.167
 4434.00    1.48350   1.33277    0.166
 4435.00    1.48456   1.32873    0.166
 4436.00    1.48435   1.33015    0.167
 4437.00    1.50281   1.33759    0.167
 4438.00    1.53043   1.34918    0.168
 4439.00    1.53846   1.36186    0.167
 4440.00    1.53817   1.37191    0.166
 4441.00    1.51935   1.37597    0.166
 4442.00    1.49378   1.37268    0.165
 4443.00    1.49785   1.36435    0.166
 4444.00    1.51103   1.35625    0.167
 4445.00    1.51018   1.35341    0.167
 4446.00    1.50573   1.35825    0.166
 4447.00    1.50131   1.36982    0.167
 4448.00    1.49689   1.38432    0.167
 4449.00    1.48908   1.39687    0.168
 4450.00    1.48071   1.40331    0.168
 4451.00    1.48245   1.40143    0.166
 4452.00    1.48543   1.39187    0.164
 4453.00    1.50279   1.37690    0.165
 4454.00    1.52138   1.35799    0.167
 4455.00    1.49453   1.33693    0.166
 4456.00    1.46544   1.31661    0.165
 4457.00    1.45703   1.29894    0.165
 4458.00    1.44914   1.28507    0.164
 4459.00    1.45358   1.27626    0.164
 4460.00    1.45834   1.27329    0.163
 4461.00    1.46989   1.27560    0.000
 4462.00    1.47888   1.28157    0.000
 4463.00    1.45779   1.29027    0.000
 4464.00    1.43557   1.30145    0.000
 4465.00    1.40416   1.31380    0.000
 4466.00    1.38620   1.32516    0.000
 4467.00    1.45014   1.33420    0.000
 4468.00    1.50581   1.34042    0.000
 4469.00    1.52183   1.34426    0.000
 4470.00    1.53143   1.34860    0.000
 4471.00    1.51598   1.35681    0.000
 4472.00    1.51675   1.37046    0.000
 4473.00    1.57028   1.38936    0.000
 4474.00    1.60186   1.41178    0.000
 4475.00    1.57302   1.43443    0.000
 4476.00    1.52505   1.45293    0.000
 4477.00    1.43199   1.46366    0.000
 4478.00    1.38095   1.46480    0.000
 4479.00    1.41548   1.45654    0.000
 4480.00    1.45416   1.44145    0.000
 4481.00    1.50018   1.42409    0.000
 4482.00    1.52381   1.40913    0.157
 4483.00    1.51271   1.40039    0.159
 4484.00    1.50956   1.40027    0.160
 4485.00    1.51720   1.40845    0.161
 4486.00    1.52007   1.42124    0.162
 4487.00    1.51721   1.43305    0.162
 4488.00    1.51367   1.43892    0.162
 4489.00    1.50942   1.43696    0.161
 4490.00    1.49717   1.42905    0.160
 4491.00    1.47748   1.41894    0.160
 4492.00    1.48073   1.40995    0.160
 4493.00    1.50284   1.40428    0.160
 4494.00    1.51966   1.40287    0.160
 4495.00    1.53267   1.40499    0.159
 4496.00    1.54587   1.40919    0.159
 4497.00    1.55920   1.41475    0.160
 4498.00    1.56338   1.42240    0.161
 4499.00    1.56247   1.43344    0.161
 4500.00    1.56055   1.44788    0.160
 4501.00    1.55813   1.46423    0.159
 4502.00    1.54931   1.48111    0.159
 4503.00    1.53781   1.49756    0.160
 4504.00    1.55742   1.51290    0.161
 4505.00    1.58813   1.52673    0.163
 4506.00    1.56895   1.53860    0.162
 4507.00    1.53473   1.54707    0.160
 4508.00    1.50771   1.55011    0.157
 4509.00    1.48249   1.54793    0.154
 4510.00    1.51835   1.54263    0.154
 4511.00    1.56663   1.53590    0.155
 4512.00    1.55671   1.52839    0.157
 4513.00    1.53751   1.51994    0.160
 4514.00    1.56153   1.51008    0.159
 4515.00    1.59069   1.49891    0.157
 4516.00    1.56812   1.48779    0.156
 4517.00    1.54137   1.47882    0.155
 4518.00    1.53531   1.47310    0.156
 4519.00    1.53020   1.47031    0.157
 4520.00    1.53433   1.46924    0.157
 4521.00    1.53873   1.46752    0.157
 4522.00    1.55172   1.46322    0.158
 4523.00    1.56245   1.45548    0.158
 4524.00    1.53089   1.44332    0.159
 4525.00    1.50389   1.42633    0.160
 4526.00    1.52809   1.40561    0.160
 4527.00    1.54606   1.38400    0.161
 4528.00    1.51526   1.36459    0.158
 4529.00    1.49300   1.34843    0.157
 4530.00    1.52127   1.33642    0.160
 4531.00    1.54772   1.32967    0.162
 4532.00    1.56570   1.32833    0.161
 4533.00    1.57859   1.33210    0.160
 4534.00    1.57200   1.34032    0.160
 4535.00    1.56801   1.35215    0.160
 4536.00    1.57230   1.36722    0.158
 4537.00    1.57700   1.38478    0.158
 4538.00    1.58280   1.40442    0.160
 4539.00    1.58076   1.42518    0.160
 4540.00    1.56053   1.44393    0.158
 4541.00    1.55057   1.45689    0.157
 4542.00    1.56120   1.46195    0.156
 4543.00    1.56900   1.46066    0.157
 4544.00    1.57188   1.45625    0.158
 4545.00    1.56592   1.45062    0.159
 4546.00    1.54644   1.44427    0.158
 4547.00    1.54533   1.43646    0.158
 4548.00    1.56887   1.42661    0.159
 4549.00    1.58247   1.41645    0.160
 4550.00    1.58432   1.40770    0.000
 4551.00    1.57947   1.40020    0.000
 4552.00    1.56764   1.39391    0.000
 4553.00    1.56817   1.39030    0.000
 4554.00    1.58008   1.39139    0.000
 4555.00    1.57209   1.39699    0.000
 4556.00    1.54800   1.40537    0.000
 4557.00    1.53920   1.41713    0.000
 4558.00    1.54132   1.43313    0.000
 4559.00    1.54338   1.45192    0.000
 4560.00    1.54540   1.47034    0.000
 4561.00    1.53818   1.48428    0.000
 4562.00    1.52590   1.49077    0.000
 4563.00    1.51472   1.49061    0.000
 4564.00    1.50406   1.48678    0.000
 4565.00    1.51649   1.48219    0.000
 4566.00    1.53840   1.47902    0.000
 4567.00    1.54217   1.47845    0.000
 4568.00    1.53959   1.48161    0.000
 4569.00    1.54893   1.48816    0.000
 4570.00    1.56178   1.49534    0.000
 4571.00    1.57008   1.50023    0.000
 4572.00    1.57727   1.50161    0.000
 4573.00    1.60038   1.50094    0.000
 4574.00    1.62665   1.50016    0.000
 4575.00    1.63609   1.49986    0.000
 4576.00    1.64292   1.50068    0.000
 4577.00    1.63516   1.50073    0.000
 4578.00    1.62573   1.49560    0.000
 4579.00    1.61533   1.48465    0.000
 4580.00    1.60486   1.47061    0.000
 4581.00    1.60163   1.45557    0.000
 4582.00    1.59871   1.44110    0.000
 4583.00    1.61643   1.42948    0.000
 4584.00    1.63360   1.42339    0.000
 4585.00    1.61976   1.42402    0.000
 4586.00    1.60595   1.43001    0.000
 4587.00    1.59267   1.43897    0.000
 4588.00    1.58305   1.44942    0.000
 4589.00    1.61250   1.45968    0.000
 4590.00    1.63302   1.46744    0.000
 4591.00    1.58604   1.47163    0.000
 4592.00    1.54824   1.47175    0.000
 4593.00    1.56323   1.46832    0.000
 4594.00    1.57591   1.46318    0.000
 4595.00    1.57807   1.45862    0.000
 4596.00    1.57833   1.45640    0.000
 4597.00    1.57149   1.45683    0.000
 4598.00    1.57258   1.45858    0.000
 4599.00    1.59844   1.46052    0.000
 4600.00    1.61786   1.46267    0.000
 4601.00    1.62020   1.46474    0.000
 4602.00    1.62555   1.46659    0.000
 4603.00    1.63779   1.46876    0.000
 4604.00    1.64863   1.47226    0.000
 4605.00    1.65673   1.47906    0.000
 4606.00    1.65666   1.48939    0.000
 4607.00    1.64252   1.50168    0.000
 4608.00    1.63633   1.51489    0.000
 4609.00    1.64212   1.52799    0.000
 4610.00    1.64677   1.53986    0.000
 4611.00    1.64992   1.54893    0.000
 4612.00    1.64708   1.55368    0.000
 4613.00    1.63726   1.55363    0.000
 4614.00    1.62888   1.55011    0.000
 4615.00    1.62196   1.54551    0.000
 4616.00    1.63366   1.54157    0.000
 4617.00    1.66223   1.53897    0.000
 4618.00    1.67114   1.53786    0.000
 4619.00    1.66435   1.53761    0.000
 4620.00    1.63433   1.53818    0.000
 4621.00    1.58798   1.54033    0.000
 4622.00    1.58145   1.54338    0.000
 4623.00    1.59947   1.54702    0.000
 4624.00    1.61580   1.55130    0.000
 4625.00    1.63122   1.55402    0.000
 4626.00    1.64250   1.55341    0.000
 4627.00    1.65186   1.55064    0.000
 4628.00    1.66069   1.54691    0.000
 4629.00    1.66931   1.54283    0.000
 4630.00    1.65301   1.53928    0.000
 4631.00    1.62813   1.53615    0.000
 4632.00    1.62252   1.53255    0.000
 4633.00    1.62249   1.52871    0.000
 4634.00    1.63520   1.52495    0.000
 4635.00    1.65096   1.51961    0.000
 4636.00    1.65236   1.51169    0.000
 4637.00    1.65098   1.50353    0.000
 4638.00    1.64285   1.49782    0.000
 4639.00    1.63370   1.49467    0.000
 4640.00    1.64371   1.49313    0.000
 4641.00    1.65582   1.49277    0.000
 4642.00    1.64804   1.49300    0.000
 4643.00    1.63881   1.49214    0.000
 4644.00    1.63889   1.48872    0.000
 4645.00    1.63932   1.48201    0.000
 4646.00    1.64194   1.47203    0.000
 4647.00    1.64549   1.46093    0.000
 4648.00    1.68291   1.45202    0.000
 4649.00    1.71762   1.44763    0.000
 4650.00    1.70797   1.44921    0.000
 4651.00    1.69657   1.45664    0.000
 4652.00    1.66738   1.46729    0.000
 4653.00    1.64121   1.47762    0.000
 4654.00    1.63704   1.48537    0.000
 4655.00    1.63474   1.49074    0.000
 4656.00    1.64289   1.49547    0.000
 4657.00    1.65176   1.50083    0.000
 4658.00    1.66389   1.50802    0.000
 4659.00    1.67038   1.51790    0.000
 4660.00    1.65617   1.52899    0.000
 4661.00    1.65133   1.53809    0.000
 4662.00    1.67523   1.54106    0.000
 4663.00    1.68861   1.53409    0.000
 4664.00    1.67454   1.51682    0.000
 4665.00    1.66151   1.49277    0.000
 4666.00    1.65079   1.46675    0.000
 4667.00    1.65093   1.44318    0.000
 4668.00    1.67213   1.42490    0.000
 4669.00    1.68283   1.41307    0.000
 4670.00    1.67574   1.40952    0.000
 4671.00    1.68322   1.41676    0.000
 4672.00    1.71235   1.43373    0.000
 4673.00    1.72163   1.45522    0.000
 4674.00    1.70503   1.47584    0.000
 4675.00    1.68597   1.49217    0.000
 4676.00    1.66408   1.50294    0.000
 4677.00    1.65786   1.50877    0.000
 4678.00    1.66749   1.51058    0.000
 4679.00    1.66212   1.50884    0.000
 4680.00    1.64334   1.50401    0.000
 4681.00    1.63344   1.49746    0.000
 4682.00    1.63054   1.49213    0.000
 4683.00    1.65022   1.49051    0.000
 4684.00    1.68557   1.49261    0.000
 4685.00    1.69524   1.49741    0.000
 4686.00    1.68932   1.50362    0.000
 4687.00    1.65262   1.50897    0.000
 4688.00    1.59958   1.51174    0.000
 4689.00    1.58691   1.51250    0.000
 4690.00    1.59282   1.51239    0.000
 4691.00    1.61549   1.51238    0.000
 4692.00    1.64481   1.51351    0.000
 4693.00    1.65585   1.51583    0.000
 4694.00    1.66071   1.51861    0.000
 4695.00    1.66892   1.52136    0.000
 4696.00    1.67808   1.52315    0.000
 4697.00    1.67598   1.52237    0.000
 4698.00    1.67124   1.51790    0.000
 4699.00    1.63082   1.50925    0.000
 4700.00    1.58370   1.49672    0.000
 4701.00    1.59782   1.48269    0.000
 4702.00    1.62085   1.47090    0.000
 4703.00    1.63532   1.46316    0.000
 4704.00    1.64889   1.45804    0.000
 4705.00    1.63982   1.45412    0.000
 4706.00    1.62919   1.45210    0.000
 4707.00    1.62219   1.45336    0.000
 4708.00    1.61531   1.45699    0.000
 4709.00    1.64487   1.46058    0.000
 4710.00    1.67291   1.46379    0.000
 4711.00    1.64928   1.46818    0.000
 4712.00    1.62637   1.47504    0.000
 4713.00    1.61451   1.48445    0.000
 4714.00    1.60455   1.49493    0.000
 4715.00    1.61323   1.50443    0.000
 4716.00    1.62330   1.51294    0.000
 4717.00    1.64318   1.52240    0.000
 4718.00    1.66145   1.53466    0.000
 4719.00    1.67091   1.54919    0.000
 4720.00    1.67759   1.56294    0.000
 4721.00    1.67210   1.57378    0.000
 4722.00    1.66481   1.58162    0.000
 4723.00    1.65104   1.58582    0.000
 4724.00    1.64458   1.58486    0.000
 4725.00    1.66014   1.57868    0.000
 4726.00    1.67037   1.56880    0.000
 4727.00    1.66696   1.55606    0.000
 4728.00    1.66457   1.54029    0.000
 4729.00    1.66444   1.52235    0.000
 4730.00    1.66140   1.50502    0.000
 4731.00    1.65278   1.49269    0.000
 4732.00    1.65602   1.48804    0.000
 4733.00    1.67906   1.48926    0.000
 4734.00    1.68008   1.49408    0.000
 4735.00    1.64891   1.50205    0.000
 4736.00    1.69529   1.51130    0.000
 4737.00    1.84136   1.51955    0.000
 4738.00    1.95729   1.52627    0.000
 4739.00    2.03908   1.53136    0.000
 4740.00    2.17620   1.53669    0.000
 4741.00    2.36862   1.54379    0.000
 4742.00    2.39577   1.55027    0.000
 4743.00    2.27729   1.55478    0.000
 4744.00    2.11361   1.55910    0.000
 4745.00    1.91483   1.56444    0.000
 4746.00    1.78390   1.57003    0.000
 4747.00    1.69929   1.57452    0.000
 4748.00    1.67530   1.57760    0.000
 4749.00    1.68757   1.57988    0.000
 4750.00    1.68542   1.58037    0.000
 4751.00    1.67573   1.57770    0.000
 4752.00    1.67904   1.57268    0.000
 4753.00    1.68823   1.56613    0.000
 4754.00    1.66542   1.55809    0.000
 4755.00    1.63015   1.54955    0.000
 4756.00    1.64898   1.54246    0.000
 4757.00    1.68573   1.53775    0.000
 4758.00    1.68364   1.53479    0.000
 4759.00    1.67075   1.53206    0.000
 4760.00    1.68924   1.52855    0.000
 4761.00    1.71491   1.52317    0.146
 4762.00    1.68315   1.51481    0.145
 4763.00    1.64088   1.50337    0.143
 4764.00    1.63146   1.48985    0.145
 4765.00    1.62666   1.47754    0.146
 4766.00    1.61900   1.47081    0.146
 4767.00    1.61104   1.47068    0.145
 4768.00    1.64385   1.47535    0.145
 4769.00    1.67928   1.48422    0.146
 4770.00    1.66488   1.49701    0.145
 4771.00    1.64897   1.51169    0.145
 4772.00    1.63391   1.52575    0.144
 4773.00    1.62040   1.53738    0.142
 4774.00    1.65198   1.54649    0.143
 4775.00    1.67863   1.55517    0.143
 4776.00    1.63402   1.56444    0.142
 4777.00    1.59109   1.57258    0.142
 4778.00    1.56400   1.57709    0.141
 4779.00    1.53049   1.57746    0.140
 4780.00    1.45300   1.57503    0.137
 4781.00    1.37369   1.57000    0.134
 4782.00    1.28474   1.56223    0.132
 4783.00    1.21683   1.55314    0.130
 4784.00    1.23849   1.54442    0.130
 4785.00    1.27122   1.53576    0.131
 4786.00    1.34283   1.52750    0.135
 4787.00    1.41185   1.52235    0.138
 4788.00    1.47323   1.52009    0.138
 4789.00    1.52495   1.51918    0.138
 4790.00    1.55234   1.52250    0.139
 4791.00    1.58059   1.53090    0.140
 4792.00    1.61068   1.54183    0.141
 4793.00    1.61408   1.55499    0.141
 4794.00    1.56722   1.56913    0.141
 4795.00    1.56131   1.58128    0.141
 4796.00    1.62265   1.59022    0.141
 4797.00    1.65430   1.59484    0.142
 4798.00    1.64314   1.59418    0.142
 4799.00    1.64390   1.58946    0.143
 4800.00    1.65976   1.58311    0.145
 4801.00    1.65352   1.57673    0.144
 4802.00    1.62259   1.57180    0.142
 4803.00    1.63351   1.56959    0.142
 4804.00    1.68566   1.56910    0.145
 4805.00    1.68782   1.56787    0.145
 4806.00    1.64656   1.56416    0.144
 4807.00    1.62711   1.55842    0.143
 4808.00    1.62437   1.55311    0.142
 4809.00    1.61876   1.55078    0.141
 4810.00    1.61122   1.55062    0.139
 4811.00    1.60327   1.55231    0.140
 4812.00    1.59508   1.55672    0.141
 4813.00    1.59949   1.56294    0.141
 4814.00    1.61039   1.56985    0.141
 4815.00    1.63172   1.57747    0.141
 4816.00    1.65771   1.58574    0.141
 4817.00    1.66669   1.59388    0.142
 4818.00    1.66917   1.60070    0.144
 4819.00    1.64810   1.60490    0.143
 4820.00    1.61936   1.60473    0.141
 4821.00    1.66638   1.59983    0.142
 4822.00    1.73404   1.59172    0.144
 4823.00    1.73007   1.58139    0.143
 4824.00    1.71009   1.56998    0.142
 4825.00    1.69446   1.55838    0.142
 4826.00    1.67960   1.54818    0.143
 4827.00    1.66776   1.54380    0.143
 4828.00    1.65633   1.54531    0.143
 4829.00    1.67479   1.54717    0.142
 4830.00    1.69614   1.54682    0.142
 4831.00    1.67615   1.54557    0.142
 4832.00    1.65365   1.54505    0.141
 4833.00    1.64583   1.54526    0.141
 4834.00    1.63845   1.54482    0.140
 4835.00    1.64063   1.54434    0.141
 4836.00    1.64266   1.54510    0.141
 4837.00    1.64103   1.54527    0.139
 4838.00    1.63726   1.54297    0.137
 4839.00    1.60427   1.53883    0.138
 4840.00    1.57575   1.53399    0.139
 4841.00    1.58767   1.52831    0.138
 4842.00    1.59973   1.52294    0.138
 4843.00    1.61270   1.52028    0.137
 4844.00    1.62796   1.52024    0.137
 4845.00    1.65504   1.51972    0.140
 4846.00    1.68019   1.51778    0.141
 4847.00    1.69724   1.51656    0.140
 4848.00    1.70391   1.51521    0.000
 4849.00    1.67480   1.51058    0.000
 4850.00    1.65507   1.50201    0.000
 4851.00    1.66251   1.49081    0.000
 4852.00    1.66854   1.47860    0.000
 4853.00    1.67105   1.46464    0.000
 4854.00    1.67019   1.44607    0.000
 4855.00    1.66214   1.42220    0.000
 4856.00    1.64652   1.39277    0.000
 4857.00    1.61688   1.35601    0.000
 4858.00    1.59915   1.31389    0.000
 4859.00    1.60071   1.27286    0.000
 4860.00    1.61031   1.23586    0.000
 4861.00    1.63135   1.20201    0.000
 4862.00    1.64281   1.17399    0.000
 4863.00    1.64229   1.15817    0.000
 4864.00    1.64611   1.16148    0.000
 4865.00    1.65472   1.18611    0.000
 4866.00    1.66357   1.22347    0.000
 4867.00    1.67263   1.26203    0.000
 4868.00    1.66378   1.29693    0.000
 4869.00    1.63958   1.32618    0.000
 4870.00    1.62314   1.34850    0.000
 4871.00    1.61255   1.36415    0.000
 4872.00    1.61324   1.37403    0.000
 4873.00    1.62141   1.37955    0.000
 4874.00    1.63644   1.38542    0.000
 4875.00    1.65544   1.39776    0.139
 4876.00    1.63616   1.41649    0.139
 4877.00    1.59750   1.43646    0.138
 4878.00    1.60002   1.45463    0.138
 4879.00    1.62056   1.47102    0.138
 4880.00    1.64406   1.48544    0.138
 4881.00    1.66867   1.49650    0.138
 4882.00    1.66804   1.50274    0.139
 4883.00    1.65935   1.50173    0.140
 4884.00    1.63984   1.49475    0.140
 4885.00    1.61745   1.48682    0.139
 4886.00    1.64231   1.47912    0.139
 4887.00    1.67748   1.46977    0.140
 4888.00    1.67622   1.45970    0.140
 4889.00    1.66865   1.45296    0.140
 4890.00    1.66766   1.45263    0.139
 4891.00    1.66754   1.45793    0.138
 4892.00    1.68931   1.46745    0.138
 4893.00    1.71311   1.48160    0.139
 4894.00    1.70495   1.50291    0.138
 4895.00    1.69498   1.53192    0.137
 4896.00    1.66441   1.56131    0.138
 4897.00    1.63374   1.58382    0.138
 4898.00    1.64348   1.59844    0.138
 4899.00    1.65223   1.60571    0.138
 4900.00    1.63768   1.60618    0.138
 4901.00    1.62377   1.60077    0.137
 4902.00    1.61795   1.59241    0.136
 4903.00    1.61332   1.58634    0.136
 4904.00    1.61908   1.58423    0.137
 4905.00    1.62357   1.58262    0.138
 4906.00    1.61984   1.58023    0.137
 4907.00    1.61907   1.57865    0.137
 4908.00    1.63317   1.57718    0.138
 4909.00    1.65143   1.57320    0.139
 4910.00    1.68659   1.56578    0.139
 4911.00    1.71236   1.55726    0.140
 4912.00    1.70647   1.55076    0.140
 4913.00    1.70083   1.54847    0.140
 4914.00    1.69590   1.55045    0.140
 4915.00    1.68656   1.55261    0.140
 4916.00    1.66649   1.54991    0.138
 4917.00    1.64919   1.54083    0.138
 4918.00    1.63771   1.52598    0.138
 4919.00    1.63569   1.50602    0.139
 4920.00    1.65091   1.48236    0.138
 4921.00    1.65758   1.45884    0.138
 4922.00    1.65062   1.44209    0.137
 4923.00    1.63516   1.43800    0.137
 4924.00    1.60781   1.44745    0.137
 4925.00    1.60272   1.46557    0.136
 4926.00    1.62504   1.48710    0.136
 4927.00    1.64841   1.51147    0.136
 4928.00    1.67291   1.53896    0.138
 4929.00    1.68823   1.56487    0.138
 4930.00    1.69478   1.58278    0.138
 4931.00    1.68666   1.59135    0.137
 4932.00    1.66615   1.59281    0.136
 4933.00    1.64366   1.58835    0.136
 4934.00    1.61969   1.57791    0.136
 4935.00    1.62080   1.56130    0.137
 4936.00    1.63829   1.54242    0.138
 4937.00    1.64905   1.52903    0.137
 4938.00    1.65597   1.52328    0.136
 4939.00    1.65402   1.52069    0.135
 4940.00    1.64766   1.52013    0.000
 4941.00    1.64634   1.52574    0.000
 4942.00    1.64717   1.54032    0.000
 4943.00    1.67136   1.56057    0.000
 4944.00    1.70416   1.57994    0.000
 4945.00    1.70918   1.59605    0.000
 4946.00    1.70552   1.60986    0.000
 4947.00    1.69562   1.62055    0.000
 4948.00    1.68408   1.62758    0.000
 4949.00    1.68098   1.63290    0.000
 4950.00    1.67967   1.63711    0.000
 4951.00    1.66816   1.63844    0.000
 4952.00    1.65493   1.63606    0.000
 4953.00    1.65432   1.62971    0.000
 4954.00    1.65531   1.61741    0.000
 4955.00    1.66118   1.59874    0.000
 4956.00    1.66748   1.57880    0.000
 4957.00    1.64156   1.56211    0.000
 4958.00    1.61394   1.54779    0.000
 4959.00    1.62950   1.53502    0.000
 4960.00    1.64560   1.52945    0.000
 4961.00    1.63935   1.53733    0.000
 4962.00    1.63384   1.55248    0.000
 4963.00    1.64465   1.56384    0.000
 4964.00    1.65519   1.56931    0.000
 4965.00    1.66245   1.57185    0.000
 4966.00    1.66777   1.57179    0.000
 4967.00    1.65679   1.56743    0.000
 4968.00    1.64503   1.56082    0.000
 4969.00    1.62836   1.55706    0.000
 4970.00    1.61559   1.55786    0.000
 4971.00    1.62198   1.56204    0.000
 4972.00    1.63197   1.56890    0.000
 4973.00    1.65628   1.57759    0.000
 4974.00    1.67759   1.58658    0.000
 4975.00    1.68895   1.59301    0.000
 4976.00    1.69519   1.59461    0.000
 4977.00    1.68708   1.59088    0.000
 4978.00    1.66970   1.58105    0.000
 4979.00    1.63013   1.56447    0.000
 4980.00    1.61067   1.54186    0.000
 4981.00    1.63277   1.51671    0.000
 4982.00    1.64419   1.49337    0.000
 4983.00    1.63645   1.47323    0.000
 4984.00    1.63741   1.45737    0.000
 4985.00    1.65206   1.44947    0.000
 4986.00    1.66237   1.45238    0.000
 4987.00    1.66670   1.46400    0.000
 4988.00    1.67004   1.47989    0.000
 4989.00    1.67220   1.49741    0.000
 4990.00    1.65781   1.51390    0.000
 4991.00    1.62570   1.52582    0.000
 4992.00    1.61463   1.53297    0.000
 4993.00    1.62342   1.53787    0.000
 4994.00    1.63484   1.54221    0.000
 4995.00    1.64844   1.54511    0.000
 4996.00    1.64456   1.54497    0.000
 4997.00    1.62788   1.54277    0.000
 4998.00    1.61858   1.53897    0.000
 4999.00    1.61404   1.53195    0.000
 5000.00    1.61144   1.52140    0.000
 5001.00    1.60994   1.50816    0.000
 5002.00    1.62599   1.49347    0.000
 5003.00    1.65063   1.47905    0.000
 5004.00    1.64294   1.46702    0.000
 5005.00    1.62157   1.45946    0.000
 5006.00    1.63049   1.45590    0.000
 5007.00    1.65041   1.45350    0.000
 5008.00    1.66168   1.45195    0.000
 5009.00    1.67031   1.45378    0.000
 5010.00    1.64165   1.45827    0.000
 5011.00    1.60348   1.46024    0.000
 5012.00    1.61098   1.45630    0.000
 5013.00    1.62797   1.44851    0.000
 5014.00    1.64269   1.43885    0.000
 5015.00    1.65703   1.42802    0.000
 5016.00    1.65173   1.41873    0.000
 5017.00    1.64403   1.41496    0.000
 5018.00    1.64324   1.41700    0.000
 5019.00    1.64303   1.42050    0.000
 5020.00    1.61596   1.42417    0.000
 5021.00    1.58758   1.43217    0.000
 5022.00    1.61496   1.44529    0.000
 5023.00    1.64264   1.45839    0.000
 5024.00    1.63552   1.46808    0.000
 5025.00    1.62944   1.47673    0.000
 5026.00    1.64428   1.48753    0.000
 5027.00    1.65870   1.49866    0.000
 5028.00    1.66817   1.50701    0.000
 5029.00    1.67425   1.51315    0.133
 5030.00    1.65301   1.52092    0.132
 5031.00    1.63552   1.53199    0.131
 5032.00    1.64076   1.54177    0.131
 5033.00    1.64373   1.54618    0.131
 5034.00    1.63587   1.54678    0.132
 5035.00    1.63134   1.54510    0.132
 5036.00    1.63981   1.53731    0.132
 5037.00    1.64314   1.51995    0.132
 5038.00    1.62982   1.49683    0.132
 5039.00    1.61752   1.47584    0.132
 5040.00    1.60801   1.46040    0.133
 5041.00    1.60700   1.44881    0.133
 5042.00    1.62595   1.44151    0.131
 5043.00    1.62716   1.44304    0.130
 5044.00    1.59229   1.45717    0.129
 5045.00    1.57867   1.47966    0.128
 5046.00    1.60262   1.50102    0.129
 5047.00    1.61791   1.51717    0.129
 5048.00    1.61981   1.52836    0.128
 5049.00    1.62098   1.53296    0.128
 5050.00    1.62115   1.52998    0.129
 5051.00    1.62423   1.52404    0.129
 5052.00    1.63080   1.52115    0.128
 5053.00    1.63327   1.52265    0.128
 5054.00    1.63142   1.52783    0.128
 5055.00    1.63246   1.53805    0.128
 5056.00    1.63619   1.55281    0.128
 5057.00    1.62725   1.56827    0.127
 5058.00    1.60791   1.58156    0.125
 5059.00    1.61100   1.59276    0.125
 5060.00    1.63028   1.60165    0.126
 5061.00    1.64529   1.60558    0.127
 5062.00    1.65758   1.60303    0.128
 5063.00    1.63792   1.59627    0.128
 5064.00    1.60053   1.58728    0.127
 5065.00    1.59290   1.57450    0.127
 5066.00    1.59961   1.55744    0.127
 5067.00    1.59213   1.54152    0.127
 5068.00    1.57874   1.53240    0.128
 5069.00    1.58223   1.52707    0.128
 5070.00    1.59173   1.52151    0.128
 5071.00    1.60557   1.51859    0.128
 5072.00    1.62073   1.52011    0.127
 5073.00    1.62496   1.52122    0.128
 5074.00    1.62646   1.51872    0.129
 5075.00    1.62114   1.51619    0.130
 5076.00    1.61444   1.51353    0.130
 5077.00    1.62742   1.50576    0.131
 5078.00    1.64354   1.49417    0.131
 5079.00    1.61365   1.48392    0.130
 5080.00    1.57831   1.47412    0.128
 5081.00    1.54708   1.46162    0.127
 5082.00    1.51617   1.45207    0.127
 5083.00    1.50301   1.45284    0.126
 5084.00    1.49065   1.46118    0.126
 5085.00    1.46512   1.47090    0.125
 5086.00    1.43996   1.48272    0.124
 5087.00    1.44113   1.49915    0.124
 5088.00    1.44324   1.51639    0.124
 5089.00    1.46271   1.53012    0.124
 5090.00    1.48098   1.54169    0.124
 5091.00    1.48583   1.55310    0.124
 5092.00    1.49529   1.56209    0.124
 5093.00    1.54068   1.56649    0.126
 5094.00    1.58307   1.56728    0.129
 5095.00    1.60777   1.56466    0.129
 5096.00    1.61896   1.55661    0.128
 5097.00    1.56708   1.54322    0.127
 5098.00    1.52470   1.52858    0.126
 5099.00    1.51853   1.51567    0.125
 5100.00    1.51270   1.50464    0.125
 5101.00    1.50791   1.49669    0.125
 5102.00    1.50932   1.49529    0.125
 5103.00    1.52742   1.49988    0.126
 5104.00    1.54291   1.50491    0.127
 5105.00    1.55238   1.50654    0.127
 5106.00    1.55959   1.50606    0.128
 5107.00    1.56229   1.50495    0.129
 5108.00    1.56072   1.50197    0.129
 5109.00    1.55171   1.49777    0.129
 5110.00    1.54085   1.49603    0.128
 5111.00    1.52717   1.49837    0.128
 5112.00    1.54388   1.50374    0.128
 5113.00    1.60132   1.51279    0.128
 5114.00    1.62912   1.52553    0.128
 5115.00    1.62195   1.53936    0.128
 5116.00    1.61404   1.55170    0.128
 5117.00    1.60537   1.56102    0.129
 5118.00    1.59424   1.56706    0.129
 5119.00    1.58087   1.56923    0.129
 5120.00    1.57822   1.56555    0.128
 5121.00    1.58426   1.55492    0.126
 5122.00    1.57764   1.53925    0.125
 5123.00    1.56202   1.52181    0.124
 5124.00    1.54995   1.50402    0.124
 5125.00    1.54009   1.48587    0.125
 5126.00    1.54949   1.47005    0.125
 5127.00    1.56942   1.46003    0.125
 5128.00    1.57022   1.45583    0.125
 5129.00    1.56194   1.45559    0.124
 5130.00    1.56558   1.45797    0.125
 5131.00    1.57411   1.46296    0.127
 5132.00    1.58003   1.47133    0.126
 5133.00    1.58503   1.48213    0.124
 5134.00    1.59875   1.49126    0.124
 5135.00    1.61504   1.49641    0.125
 5136.00    1.61875   1.49917    0.125
 5137.00    1.61938   1.50034    0.124
 5138.00    1.61981   1.49828    0.125
 5139.00    1.62019   1.49178    0.125
 5140.00    1.59473   1.48226    0.124
 5141.00    1.56529   1.47364    0.123
 5142.00    1.55102   1.47002    0.123
 5143.00    1.53849   1.46823    0.124
 5144.00    1.53053   1.46327    0.123
 5145.00    1.52291   1.45957    0.123
 5146.00    1.53174   1.46155    0.122
 5147.00    1.54123   1.46453    0.122
 5148.00    1.56348   1.46356    0.124
 5149.00    1.58504   1.46107    0.126
 5150.00    1.57319   1.46125    0.125
 5151.00    1.56286   1.46299    0.125
 5152.00    1.57891   1.46307    0.125
 5153.00    1.59443   1.46297    0.126
 5154.00    1.60430   1.46648    0.127
 5155.00    1.61368   1.47371    0.127
 5156.00    1.61929   1.48308    0.127
 5157.00    1.62306   1.49481    0.126
 5158.00    1.61634   1.50880    0.126
 5159.00    1.61159   1.52166    0.127
 5160.00    1.61585   1.52905    0.128
 5161.00    1.61588   1.53006    0.128
 5162.00    1.60015   1.52496    0.126
 5163.00    1.58720   1.51046    0.125
 5164.00    1.58297   1.48410    0.127
 5165.00    1.57785   1.44942    0.128
 5166.00    1.57041   1.41140    0.130
 5167.00    1.56814   1.37199    0.131
 5168.00    1.57763   1.33262    0.131
 5169.00    1.57971   1.29527    0.131
 5170.00    1.56722   1.26580    0.131
 5171.00    1.56447   1.25231    0.131
 5172.00    1.57845   1.25495    0.131
 5173.00    1.58059   1.26371    0.130
 5174.00    1.56493   1.27485    0.130
 5175.00    1.54977   1.29785    0.130
 5176.00    1.53525   1.33482    0.130
 5177.00    1.52846   1.37167    0.128
 5178.00    1.53065   1.39802    0.126
 5179.00    1.52426   1.41597    0.124
 5180.00    1.50905   1.42558    0.125
 5181.00    1.49087   1.42120    0.124
 5182.00    1.47000   1.40595    0.124
 5183.00    1.45015   1.38909    0.123
 5184.00    1.43113   1.37225    0.122
 5185.00    1.45296   1.35563    0.122
 5186.00    1.50347   1.34928    0.122
 5187.00    1.52809   1.36157    0.123
 5188.00    1.53678   1.38366    0.124
 5189.00    1.54380   1.40162    0.124
 5190.00    1.54991   1.41433    0.000
 5191.00    1.55773   1.42904    0.000
 5192.00    1.56636   1.44279    0.000
 5193.00    1.57194   1.44505    0.000
 5194.00    1.57630   1.44044    0.000
 5195.00    1.55744   1.44207    0.000
 5196.00    1.53062   1.44976    0.000
 5197.00    1.53774   1.45641    0.000
 5198.00    1.55466   1.46374    0.000
 5199.00    1.56411   1.47469    0.000
 5200.00    1.57176   1.48565    0.000
 5201.00    1.58578   1.49285    0.000
 5202.00    1.60102   1.49354    0.000
 5203.00    1.58389   1.48664    0.000
 5204.00    1.56192   1.47488    0.000
 5205.00    1.56992   1.46072    0.000
 5206.00    1.58120   1.44220    0.000
 5207.00    1.56879   1.42270    0.000
 5208.00    1.55467   1.41122    0.000
 5209.00    1.56137   1.40945    0.000
 5210.00    1.56884   1.41296    0.000
 5211.00    1.56908   1.42316    0.123
 5212.00    1.56925   1.44139    0.123
 5213.00    1.56819   1.46209    0.122
 5214.00    1.56826   1.48157    0.121
 5215.00    1.58667   1.49953    0.122
 5216.00    1.60190   1.51442    0.123
 5217.00    1.58468   1.52422    0.123
 5218.00    1.56884   1.53157    0.123
 5219.00    1.56310   1.53991    0.123
 5220.00    1.56106   1.54803    0.123
 5221.00    1.57961   1.55238    0.124
 5222.00    1.59830   1.55157    0.125
 5223.00    1.61755   1.54565    0.125
 5224.00    1.63031   1.53297    0.126
 5225.00    1.61930   1.51444    0.127
 5226.00    1.60700   1.49559    0.127
 5227.00    1.59070   1.47873    0.125
 5228.00    1.58130   1.46387    0.125
 5229.00    1.58983   1.45671    0.125
 5230.00    1.59293   1.46166    0.126
 5231.00    1.58391   1.47219    0.126
 5232.00    1.58040   1.48245    0.125
 5233.00    1.58757   1.49412    0.124
 5234.00    1.59648   1.50626    0.123
 5235.00    1.60831   1.51611    0.124
 5236.00    1.60760   1.52581    0.123
 5237.00    1.58829   1.53752    0.123
 5238.00    1.57035   1.55089    0.122
 5239.00    1.55417   1.56452    0.121
 5240.00    1.55294   1.57648    0.120
 5241.00    1.56884   1.58610    0.121
 5242.00    1.57027   1.59460    0.121
 5243.00    1.55706   1.60094    0.120
 5244.00    1.54465   1.60056    0.120
 5245.00    1.53295   1.59474    0.121
 5246.00    1.54056   1.58961    0.121
 5247.00    1.56334   1.58330    0.120
 5248.00    1.57255   1.56970    0.121
 5249.00    1.57237   1.55406    0.122
 5250.00    1.56083   1.54546    0.122
 5251.00    1.54239   1.54054    0.121
 5252.00    1.53468   1.53332    0.121
 5253.00    1.53267   1.52940    0.121
 5254.00    1.54355   1.53489    0.121
 5255.00    1.56036   1.54445    0.120
 5256.00    1.58150   1.55170    0.120
 5257.00    1.60435   1.55814    0.121
 5258.00    1.59586   1.56675    0.120
 5259.00    1.57681   1.57232    0.120
 5260.00    1.57069   1.56830    0.121
 5261.00    1.56824   1.55510    0.121
 5262.00    1.55807   1.53480    0.123
 5263.00    1.54609   1.50658    0.125
 5264.00    1.53445   1.47274    0.125
 5265.00    1.52287   1.44097    0.126
 5266.00    1.52522   1.41283    0.126
 5267.00    1.52959   1.38505    0.126
 5268.00    1.54296   1.36422    0.126
 5269.00    1.55728   1.35979    0.125
 5270.00    1.56761   1.36302    0.126
 5271.00    1.57768   1.36327    0.127
 5272.00    1.56862   1.37059    0.126
 5273.00    1.55893   1.39301    0.125
 5274.00    1.56727   1.41921    0.125
 5275.00    1.57566   1.44184    0.124
 5276.00    1.58529   1.46545    0.123
 5277.00    1.59416   1.48969    0.122
 5278.00    1.59147   1.51132    0.121
 5279.00    1.58807   1.53106    0.121
 5280.00    1.57769   1.54602    0.122
 5281.00    1.56716   1.55273    0.123
 5282.00    1.55554   1.55486    0.122
 5283.00    1.54417   1.55908    0.121
 5284.00    1.53421   1.56497    0.120
 5285.00    1.53225   1.56989    0.120
 5286.00    1.56501   1.57728    0.120
 5287.00    1.59223   1.59276    0.120
 5288.00    1.59962   1.61244    0.120
 5289.00    1.60566   1.62849    0.120
 5290.00    1.60766   1.63967    0.120
 5291.00    1.59920   1.64876    0.120
 5292.00    1.56397   1.65476    0.120
 5293.00    1.55061   1.65381    0.121
 5294.00    1.58535   1.64443    0.121
 5295.00    1.60384   1.62911    0.122
 5296.00    1.59130   1.61268    0.122
 5297.00    1.59506   1.59730    0.122
 5298.00    1.62597   1.58084    0.123
 5299.00    1.63363   1.56377    0.122
 5300.00    1.60738   1.55363    0.120
 5301.00    1.58831   1.55543    0.119
 5302.00    1.57845   1.56350    0.120
 5303.00    1.57158   1.57192    0.120
 5304.00    1.56810   1.58352    0.119
 5305.00    1.57054   1.60046    0.118
 5306.00    1.57887   1.61832    0.118
 5307.00    1.57909   1.63223    0.117
 5308.00    1.57216   1.64200    0.116
 5309.00    1.56902   1.64943    0.116
 5310.00    1.56879   1.65565    0.117
 5311.00    1.56171   1.65958    0.117
 5312.00    1.54996   1.66001    0.116
 5313.00    1.54325   1.65717    0.116
 5314.00    1.53956   1.65166    0.115
 5315.00    1.54280   1.64468    0.115
 5316.00    1.54965   1.63828    0.115
 5317.00    1.54776   1.63121    0.114
 5318.00    1.54192   1.62202    0.114
 5319.00    1.53966   1.61470    0.114
 5320.00    1.53878   1.61124    0.113
 5321.00    1.53307   1.60572    0.113
 5322.00    1.52576   1.59512    0.113
 5323.00    1.51662   1.58429    0.114
 5324.00    1.50696   1.57348    0.115
 5325.00    1.51613   1.55532    0.114
 5326.00    1.52959   1.53000    0.113
 5327.00    1.54051   1.51054    0.114
 5328.00    1.55096   1.49972    0.117
 5329.00    1.55324   1.48759    0.117
 5330.00    1.55437   1.47603    0.116
 5331.00    1.56227   1.48070    0.115
 5332.00    1.57086   1.50073    0.115
 5333.00    1.56737   1.52042    0.115
 5334.00    1.56311   1.53530    0.116
 5335.00    1.55848   1.55241    0.115
 5336.00    1.55383   1.57177    0.114
 5337.00    1.54588   1.58342    0.115
 5338.00    1.53853   1.58362    0.116
 5339.00    1.54850   1.58051    0.115
 5340.00    1.55849   1.58032    0.115
 5341.00    1.56879   1.57784    0.114
 5342.00    1.57765   1.57114    0.114
 5343.00    1.57309   1.56837    0.114
 5344.00    1.56670   1.57283    0.114
 5345.00    1.54776   1.57791    0.114
 5346.00    1.53348   1.57997    0.115
 5347.00    1.54384   1.58134    0.115
 5348.00    1.54933   1.58545    0.115
 5349.00    1.53419   1.59244    0.115
 5350.00    1.52374   1.59778    0.115
 5351.00    1.52978   1.60220    0.115
 5352.00    1.53981   1.61276    0.115
 5353.00    1.56164   1.62944    0.115
 5354.00    1.57776   1.64452    0.115
 5355.00    1.57953   1.65708    0.115
 5356.00    1.57925   1.67160    0.115
 5357.00    1.57452   1.68576    0.114
 5358.00    1.56978   1.69370    0.113
 5359.00    1.56500   1.69551    0.113
 5360.00    1.55911   1.69365    0.113
 5361.00    1.55138   1.68838    0.114
 5362.00    1.54616   1.67826    0.114
 5363.00    1.54457   1.66344    0.114
 5364.00    1.54020   1.64693    0.113
 5365.00    1.53232   1.63146    0.113
 5366.00    1.52211   1.61594    0.113
 5367.00    1.50933   1.59957    0.113
 5368.00    1.52114   1.58423   -2.000
 5369.00    1.55714   1.57083   -2.000
 5370.00    1.57324   1.56111   -2.000
 5371.00    1.57210   1.55554   -2.000
 5372.00    1.56670   1.55252   -2.000
 5373.00    1.55806   1.55488   -2.000
 5374.00    1.56122   1.56653   -2.000
 5375.00    1.57230   1.58378   -2.000
 5376.00    1.58951   1.60040   -2.000
 5377.00    1.61033   1.61593   -2.000
 5378.00    1.59297   1.62923   -2.000
 5379.00    1.55603   1.63829   -2.000
 5380.00    1.55225   1.64338   -2.000
 5381.00    1.56321   1.64395   -2.000
 5382.00    1.57565   1.64092   -2.000
 5383.00    1.58864   1.63826    0.112
 5384.00    1.57045   1.63651    0.111
 5385.00    1.54215   1.63376    0.111
 5386.00    1.54068   1.63226    0.110
 5387.00    1.54650   1.63197    0.109
 5388.00    1.54030   1.62925    0.110
 5389.00    1.53143   1.62427    0.110
 5390.00    1.54011   1.61814    0.111
 5391.00    1.55190   1.60918    0.111
 5392.00    1.55863   1.59829    0.111
 5393.00    1.56466   1.58815    0.111
 5394.00    1.56307   1.57702    0.112
 5395.00    1.56075   1.56451    0.113
 5396.00    1.54394   1.55596    0.112
 5397.00    1.52626   1.55183    0.112
 5398.00    1.53190   1.54550    0.112
 5399.00    1.53815   1.53927    0.112
 5400.00    1.54452   1.54107    0.111
 5401.00    1.55010   1.54451    0.110
 5402.00    1.53504   1.54060    0.112
 5403.00    1.52081   1.53444    0.113
 5404.00    1.51769   1.53094    0.112
 5405.00    1.51567   1.52483    0.111
 5406.00    1.52359   1.51425    0.112
 5407.00    1.52953   1.50464    0.112
 5408.00    1.52234   1.50068    0.112
 5409.00    1.51526   1.50373    0.112
 5410.00    1.50873   1.51072    0.111
 5411.00    1.50577   1.51851    0.111
 5412.00    1.51757   1.52954    0.111
 5413.00    1.52678   1.54667    0.110
 5414.00    1.52707   1.56564    0.110
 5415.00    1.52858   1.58108    0.109
 5416.00    1.53365   1.59344    0.109
 5417.00    1.53849   1.60536    0.109
 5418.00    1.54277   1.61612    0.108
 5419.00    1.54331   1.62268    0.108
 5420.00    1.53589   1.62523    0.107
 5421.00    1.53884   1.62501    0.107
 5422.00    1.56098   1.62208    0.107
 5423.00    1.57138   1.61884    0.107
 5424.00    1.56280   1.61716    0.107
 5425.00    1.55666   1.61368    0.107
 5426.00    1.55398   1.60735    0.107
 5427.00    1.55275   1.60199    0.107
 5428.00    1.55333   1.59886    0.107
 5429.00    1.55681   1.59531    0.107
 5430.00    1.56347   1.58690    0.107
 5431.00    1.56354   1.57448    0.107
 5432.00    1.55722   1.56651    0.108
 5433.00    1.55478   1.56426    0.108
 5434.00    1.55567   1.56030    0.107
 5435.00    1.55000   1.55741    0.107
 5436.00    1.53939   1.56266    0.107
 5437.00    1.53167   1.57430    0.107
 5438.00    1.52586   1.58824    0.107
 5439.00    1.52263   1.60420    0.107
 5440.00    1.52089   1.62166    0.106
 5441.00    1.51908   1.63686    0.105
 5442.00    1.51724   1.64692    0.105
 5443.00    1.52623   1.65043    0.105
 5444.00    1.53996   1.64688    0.106
 5445.00    1.54245   1.63801    0.107
 5446.00    1.54071   1.62678    0.107
 5447.00    1.55382   1.61415    0.107
 5448.00    1.57164   1.60108    0.107
 5449.00    1.57241   1.59274    0.107
 5450.00    1.56864   1.59191    0.107
 5451.00    1.55572   1.59304    0.107
 5452.00    1.54081   1.59255    0.108
 5453.00    1.52918   1.59136    0.108
 5454.00    1.51812   1.59058    0.108
 5455.00    1.53984   1.58962    0.108
 5456.00    1.56585   1.58637    0.109
 5457.00    1.55365   1.58155    0.108
 5458.00    1.53791   1.58133    0.107
 5459.00    1.54024   1.58662    0.107
 5460.00    1.54359   1.59040    0.107
 5461.00    1.54859   1.59136    0.107
 5462.00    1.55362   1.59396    0.106
 5463.00    1.55669   1.59738    0.106
 5464.00    1.55945   1.59665    0.106
 5465.00    1.55448   1.59435    0.107
 5466.00    1.55018   1.59688    0.107
 5467.00    1.55438   1.60056    0.106
 5468.00    1.55850   1.60064    0.106
 5469.00    1.56183   1.60166    0.107
 5470.00    1.56345   1.60436    0.107
 5471.00    1.55408   1.60191    0.107
 5472.00    1.54585   1.59518    0.106
 5473.00    1.54334   1.58900    0.106
 5474.00    1.54322   1.57950    0.107
 5475.00    1.55280   1.56532    0.107
 5476.00    1.55838   1.55509    0.107
 5477.00    1.55056   1.54889    0.107
 5478.00    1.54238   1.53968   -2.000
 5479.00    1.53320   1.53373   -2.000
 5480.00    1.52773   1.53834   -2.000
 5481.00    1.53126   1.54581   -2.000
 5482.00    1.55403   1.55070   -2.000
 5483.00    1.61714   1.55849   -2.000
 5484.00    1.64314   1.57040   -2.000
 5485.00    1.60154   1.58001   -2.000
 5486.00    1.51784   1.58711   -2.000
 5487.00    1.36712   1.59476   -2.000
 5488.00    1.30456   1.59968   -2.000
 5489.00    1.36514   1.60102   -2.000
 5490.00    1.43920   1.60344   -2.000
 5491.00    1.52982   1.60589   -2.000
 5492.00    1.59190   1.60553   -2.000
 5493.00    1.62303   1.60650   -2.000
 5494.00    1.61921   1.60876   -2.000
 5495.00    1.58198   1.60743   -2.000
 5496.00    1.55054   1.60603   -2.000
 5497.00    1.52397   1.60791   -2.000
 5498.00    1.51811   1.60705   -2.000
 5499.00    1.52761   1.60188   -2.000
 5500.00    1.52617   1.59951   -2.000
 5501.00    1.51759   1.59955   -2.000
 5502.00    1.50844   1.59548    0.104
 5503.00    1.49897   1.58901    0.104
 5504.00    1.49908   1.58458    0.104
 5505.00    1.50396   1.58167    0.104
 5506.00    1.51403   1.57881    0.104
 5507.00    1.52633   1.57518    0.105
 5508.00    1.51561   1.57139    0.104
 5509.00    1.49641   1.57042    0.104
 5510.00    1.48420   1.57054    0.104
 5511.00    1.47418   1.56823    0.104
 5512.00    1.47640   1.56669    0.103
 5513.00    1.48179   1.56756    0.102
 5514.00    1.49809   1.56835    0.103
 5515.00    1.51670   1.57086    0.104
 5516.00    1.53270   1.57754    0.104
 5517.00    1.54826   1.58647    0.104
 5518.00    1.56174   1.59596    0.104
 5519.00    1.57494   1.60647    0.103
 5520.00    1.56847   1.61736    0.103
 5521.00    1.56027   1.62548    0.103
 5522.00    1.54165   1.62946    0.103
 5523.00    1.52250   1.63023    0.102
 5524.00    1.51755   1.62784    0.102
 5525.00    1.51273   1.62171    0.101
 5526.00    1.49635   1.61240    0.101
 5527.00    1.48113   1.60275    0.101
 5528.00    1.49063   1.59493    0.101
 5529.00    1.50069   1.58778    0.101
 5530.00    1.51771   1.58218    0.102
 5531.00    1.53256   1.58232    0.102
 5532.00    1.52932   1.58593    0.102
 5533.00    1.52563   1.58842    0.101
 5534.00    1.51920   1.59219    0.101
 5535.00    1.51588   1.59825    0.101
 5536.00    1.52776   1.60240    0.102
 5537.00    1.53490   1.60533    0.102
 5538.00    1.52324   1.61103    0.102
 5539.00    1.51270   1.61708    0.102
 5540.00    1.50582   1.62088    0.101
 5541.00    1.50239   1.62497    0.115
 5542.00    1.50862   1.62969    0.278
 5543.00    1.51586   1.63268   -1.000
 5544.00    1.52554   1.63320   -1.000
 5545.00    1.53450   1.63348   -1.000
 5546.00    1.54197   1.63566   -1.000
 5547.00    1.54392   1.63801    0.578
 5548.00    1.53596   1.63964    0.152
 5549.00    1.53639   1.64328    0.105
 5550.00    1.54996   1.64827    0.104
 5551.00    1.55322   1.65101    0.103
 5552.00    1.54229   1.65175    0.103
 5553.00    1.53373   1.65206    0.102
 5554.00    1.52804   1.65087    0.103
 5555.00    1.52920   1.64724    0.102
 5556.00    1.53765   1.64286    0.101
 5557.00    1.53772   1.63968    0.101
 5558.00    1.52988   1.63678    0.101
 5559.00    1.51989   1.63302    0.101
 5560.00    1.50810   1.62944    0.100
 5561.00    1.50482   1.62630    0.101
 5562.00    1.50776   1.62252    0.101
 5563.00    1.50800   1.61772    0.101
 5564.00    1.50651   1.61183    0.100
 5565.00    1.50354   1.60631    0.099
 5566.00    1.49975   1.60230    0.100
 5567.00    1.50198   1.59711    0.100
 5568.00    1.50714   1.59211    0.100
 5569.00    1.50872   1.59106    0.100
 5570.00    1.50880   1.59009    0.099
 5571.00    1.51000   1.58717    0.099
 5572.00    1.51161   1.58850    0.099
 5573.00    1.50905   1.59273    0.100
 5574.00    1.50522   1.59309    0.100
 5575.00    1.51449   1.59516    0.101
 5576.00    1.52709   1.60251    0.102
 5577.00    1.52883   1.60696    0.101
 5578.00    1.52833   1.60939    0.100
 5579.00    1.52681   1.61482    0.101
 5580.00    1.52513   1.61801    0.101
 5581.00    1.53084   1.61730    0.101
 5582.00    1.53745   1.61609    0.101
 5583.00    1.53057   1.61151    0.101
 5584.00    1.52256   1.60227    0.101
 5585.00    1.52465   1.59152    0.102
 5586.00    1.52723   1.57885    0.103
 5587.00    1.52135   1.56400    0.103
 5588.00    1.51513   1.54975    0.102
 5589.00    1.49692   1.53826    0.102
 5590.00    1.47948   1.53056    0.102
 5591.00    1.47726   1.52697    0.102
 5592.00    1.47703   1.52762    0.102
 5593.00    1.49980   1.53233    0.103
 5594.00    1.52053   1.54012    0.104
 5595.00    1.52471   1.54814    0.104
 5596.00    1.52649   1.55375    0.103
 5597.00    1.51377   1.55934    0.104
 5598.00    1.50406   1.56480    0.105
 5599.00    1.50874   1.56479    0.104
 5600.00    1.51292   1.56188    0.104
 5601.00    1.51512   1.56211    0.104
 5602.00    1.51741   1.56363    0.103
 5603.00    1.52001   1.56488    0.103
 5604.00    1.52188   1.57020    0.102
 5605.00    1.52172   1.58104    0.101
 5606.00    1.52350   1.59484    0.100
 5607.00    1.52982   1.60916    0.100
 5608.00    1.53029   1.62326    0.099
 5609.00    1.51890   1.63593    0.098
 5610.00    1.51113   1.64459    0.099
 5611.00    1.50976   1.64870    0.100
 5612.00    1.50773   1.64784    0.101
 5613.00    1.50469   1.64116    0.102
 5614.00    1.50046   1.63142    0.102
 5615.00    1.49463   1.62126    0.102
 5616.00    1.48254   1.60869    0.101
 5617.00    1.46296   1.59540    0.099
 5618.00    1.46065   1.58814    0.099
 5619.00    1.47652   1.58544    0.099
 5620.00    1.48272   1.58252    0.099
 5621.00    1.47992   1.58225    0.098
 5622.00    1.48090   1.58470    0.098
 5623.00    1.48498   1.58628    0.097
 5624.00    1.48857   1.58740    0.097
 5625.00    1.49180   1.58791    0.097
 5626.00    1.49436   1.58766    0.098
 5627.00    1.49648   1.59037    0.099
 5628.00    1.50217   1.59607    0.099
 5629.00    1.50982   1.60118    0.099
 5630.00    1.51095   1.60756    0.099
 5631.00    1.50895   1.61621    0.099
 5632.00    1.50298   1.62257    0.098
 5633.00    1.49537   1.62555    0.098
 5634.00    1.50150   1.62680    0.098
 5635.00    1.51252   1.62484    0.099
 5636.00    1.51674   1.61985    0.100
 5637.00    1.51892   1.61435    0.102
 5638.00    1.50847   1.60812    0.101
 5639.00    1.49488   1.60099    0.101
 5640.00    1.49028   1.59607    0.101
 5641.00    1.48750   1.59391    0.101
 5642.00    1.49107   1.59182    0.100
 5643.00    1.49564   1.59108    0.100
 5644.00    1.50489   1.59400    0.099
 5645.00    1.51468   1.59785    0.098
 5646.00    1.52103   1.60119    0.098
 5647.00    1.52710   1.60589    0.098
 5648.00    1.52468   1.61091    0.098
 5649.00    1.52189   1.61488    0.098
 5650.00    1.51252   1.61802    0.097
 5651.00    1.50333   1.61988    0.097
 5652.00    1.50642   1.61973    0.096
 5653.00    1.50887   1.61743    0.096
 5654.00    1.49950   1.61373    0.097
 5655.00    1.49041   1.60785    0.098
 5656.00    1.48457   1.59767    0.097
 5657.00    1.47877   1.58671    0.096
 5658.00    1.47333   1.57886    0.097
 5659.00    1.46986   1.56923    0.097
 5660.00    1.47799   1.55825    0.097
 5661.00    1.48399   1.55495    0.097
 5662.00    1.48008   1.55685    0.097
 5663.00    1.47586   1.55681    0.098
 5664.00    1.47044   1.55954    0.097
 5665.00    1.46720   1.56783    0.097
 5666.00    1.47081   1.57557    0.097
 5667.00    1.47624   1.58124    0.097
 5668.00    1.48656   1.58770    0.097
 5669.00    1.48940   1.59448    0.096
 5670.00    1.47499   1.60089    0.097
 5671.00    1.46711   1.60785    0.097
 5672.00    1.47224   1.61493    0.096
 5673.00    1.48196   1.62180    0.096
 5674.00    1.49964   1.62949    0.096
 5675.00    1.50765   1.63717    0.097
 5676.00    1.50095   1.64204    0.099
 5677.00    1.49817   1.64432    0.099
 5678.00    1.50066   1.64612    0.099
 5679.00    1.50013   1.64551    0.099
 5680.00    1.49607   1.64037    0.099
 5681.00    1.49154   1.63397    0.098
 5682.00    1.48654   1.62812    0.097
 5683.00    1.48899   1.62042    0.096
 5684.00    1.49826   1.61144    0.097
 5685.00    1.49856   1.60477    0.096
 5686.00    1.49160   1.60037    0.095
 5687.00    1.48617   1.59683    0.095
 5688.00    1.48182   1.59553    0.095
 5689.00    1.48120   1.59710    0.095
 5690.00    1.48291   1.60125    0.095
 5691.00    1.49140   1.60740    0.095
 5692.00    1.50359   1.61397    0.095
 5693.00    1.51326   1.62048    0.095
 5694.00    1.52172   1.62755    0.094
 5695.00    1.51251   1.63282    0.095
 5696.00    1.49607   1.63408    0.095
 5697.00    1.49705   1.63360    0.096
 5698.00    1.50411   1.63165    0.096
 5699.00    1.50940   1.62593    0.097
 5700.00    1.51417   1.61803    0.098
 5701.00    1.50899   1.61129    0.097
 5702.00    1.50140   1.60423    0.097
 5703.00    1.50467   1.59531    0.097
 5704.00    1.51009   1.58767    0.096
 5705.00    1.50378   1.58170    0.096
 5706.00    1.49566   1.57445    0.096
 5707.00    1.49391   1.56597    0.096
 5708.00    1.49288   1.55922    0.095
 5709.00    1.49241   1.55425    0.095
 5710.00    1.49198   1.54880    0.095
 5711.00    1.50286   1.54645    0.096
 5712.00    1.51421   1.55018    0.096
 5713.00    1.52257   1.55557    0.096
 5714.00    1.53040   1.56387    0.096
 5715.00    1.51685   1.57800    0.096
 5716.00    1.50369   1.59166    0.096
 5717.00    1.49725   1.60446    0.095
 5718.00    1.49267   1.61941    0.094
 5719.00    1.50771   1.63179    0.094
 5720.00    1.52125   1.64139    0.094
 5721.00    1.52350   1.65101    0.094
 5722.00    1.52445   1.65795    0.093
 5723.00    1.51795   1.66246    0.094
 5724.00    1.51385   1.66647    0.094
 5725.00    1.52068   1.66755    0.094
 5726.00    1.52576   1.66632    0.093
 5727.00    1.52440   1.66518    0.094
 5728.00    1.52364   1.66242    0.094
 5729.00    1.52477   1.65801    0.094
 5730.00    1.52592   1.65535    0.094
 5731.00    1.52710   1.65404    0.095
 5732.00    1.52539   1.65204    0.095
 5733.00    1.51714   1.65131    0.095
 5734.00    1.51315   1.65332    0.094
 5735.00    1.51756   1.65546    0.094
 5736.00    1.52304   1.65650    0.094
 5737.00    1.53035   1.65831    0.094
 5738.00    1.53423   1.66033    0.095
 5739.00    1.53297   1.66107    0.094
 5740.00    1.53059   1.66126    0.000
 5741.00    1.52673   1.66091    0.000
 5742.00    1.52427   1.66018    0.000
 5743.00    1.52343   1.65975    0.000
 5744.00    1.52863   1.65924    0.000
 5745.00    1.53999   1.65833    0.000
 5746.00    1.54337   1.65733    0.000
 5747.00    1.53954   1.65626    0.000
 5748.00    1.52713   1.65444    0.000
 5749.00    1.50790   1.65131    0.000
 5750.00    1.50196   1.64779    0.000
 5751.00    1.50533   1.64449    0.000
 5752.00    1.50708   1.64008    0.000
 5753.00    1.50784   1.63553    0.000
 5754.00    1.50980   1.63287    0.000
 5755.00    1.51241   1.63118    0.000
 5756.00    1.51987   1.63050    0.000
 5757.00    1.52958   1.63164    0.000
 5758.00    1.53370   1.63303    0.000
 5759.00    1.53556   1.63427    0.000
 5760.00    1.53805   1.63575    0.000
 5761.00    1.54075   1.63587    0.000
 5762.00    1.53997   1.63533    0.000
 5763.00    1.53819   1.63562    0.000
 5764.00    1.52775   1.63589    0.000
 5765.00    1.51524   1.63792    0.000
 5766.00    1.51934   1.64288    0.000
 5767.00    1.52663   1.64773    0.000
 5768.00    1.53787   1.65259    0.000
 5769.00    1.54970   1.65846    0.000
 5770.00    1.54850   1.66208    0.000
 5771.00    1.54589   1.66318    0.000
 5772.00    1.53754   1.66348    0.000
 5773.00    1.52877   1.66185    0.000
 5774.00    1.53356   1.65891    0.000
 5775.00    1.53885   1.65605    0.000
 5776.00    1.54295   1.65181    0.000
 5777.00    1.54690   1.64663    0.000
 5778.00    1.54519   1.64142    0.000
 5779.00    1.54317   1.63375    0.000
 5780.00    1.53597   1.62422    0.000
 5781.00    1.52798   1.61511    0.000
 5782.00    1.51195   1.60482    0.000
 5783.00    1.49887   1.59409    0.000
 5784.00    1.50715   1.58693    0.000
 5785.00    1.51397   1.58296    0.000
 5786.00    1.51270   1.58041    0.000
 5787.00    1.51425   1.58198    0.000
 5788.00    1.52832   1.58825    0.000
 5789.00    1.54078   1.59490    0.000
 5790.00    1.54739   1.60197    0.000
 5791.00    1.54849   1.61140   -2.000
 5792.00    1.53277   1.61950   -2.000
 5793.00    1.51315   1.62594   -2.000
 5794.00    1.48341   1.63349   -2.000
 5795.00    1.46154   1.63923   -2.000
 5796.00    1.45728   1.64319   -2.000
 5797.00    1.46331   1.64865   -2.000
 5798.00    1.48926   1.65337   -2.000
 5799.00    1.50627   1.65616   -2.000
 5800.00    1.50819   1.66014   -2.000
 5801.00    1.50691   1.66474   -2.000
 5802.00    1.50088   1.66692   -2.000
 5803.00    1.50497   1.66826   -2.000
 5804.00    1.52222   1.67020   -2.000
 5805.00    1.52971   1.66998   -2.000
 5806.00    1.52601   1.66803   -2.000
 5807.00    1.51620   1.66692   -2.000
 5808.00    1.50023   1.66583   -2.000
 5809.00    1.49893   1.66459   -2.000
 5810.00    1.51071   1.66432   -2.000
 5811.00    1.51422   1.66453    0.000
 5812.00    1.51124   1.66494    0.000
 5813.00    1.51515   1.66513    0.000
 5814.00    1.52381   1.66450    0.000
 5815.00    1.53367   1.66395    0.000
 5816.00    1.54425   1.66387    0.000
 5817.00    1.54123   1.66360    0.000
 5818.00    1.53103   1.66409    0.000
 5819.00    1.52707   1.66660    0.000
 5820.00    1.52598   1.66992    0.000
 5821.00    1.53640   1.67306    0.000
 5822.00    1.55137   1.67707    0.000
 5823.00    1.55432   1.68131    0.000
 5824.00    1.55323   1.68411    0.000
 5825.00    1.54787   1.68625    0.000
 5826.00    1.54131   1.68839    0.000
 5827.00    1.53997   1.68977    0.000
 5828.00    1.53984   1.69047    0.000
 5829.00    1.53444   1.69101    0.000
 5830.00    1.52805   1.69128    0.000
 5831.00    1.53413   1.69127    0.000
 5832.00    1.54199   1.69061    0.000
 5833.00    1.53320   1.68922    0.000
 5834.00    1.52267   1.68813    0.000
 5835.00    1.51674   1.68698    0.000
 5836.00    1.51112   1.68504    0.000
 5837.00    1.51576   1.68399    0.000
 5838.00    1.52074   1.68437    0.000
 5839.00    1.52308   1.68444    0.000
 5840.00    1.52533   1.68486    0.000
 5841.00    1.52506   1.68675    0.000
 5842.00    1.52479   1.68823    0.000
 5843.00    1.52456   1.68843    0.000
 5844.00    1.52382   1.68836    0.000
 5845.00    1.51818   1.68709    0.000
 5846.00    1.51366   1.68380    0.000
 5847.00    1.51692   1.67945    0.000
 5848.00    1.51965   1.67393    0.000
 5849.00    1.51954   1.66721    0.000
 5850.00    1.51751   1.66018    0.000
 5851.00    1.50711   1.65236    0.000
 5852.00    1.49689   1.64375    0.000
 5853.00    1.48732   1.63560    0.000
 5854.00    1.48154   1.62716    0.000
 5855.00    1.48710   1.61803    0.000
 5856.00    1.48869   1.61047    0.000
 5857.00    1.48016   1.60470    0.000
 5858.00    1.48004   1.59933    0.000
 5859.00    1.49839   1.59627    0.000
 5860.00    1.51515   1.59681    0.000
 5861.00    1.52888   1.59857    0.000
 5862.00    1.53799   1.60171    0.000
 5863.00    1.53943   1.60742    0.000
 5864.00    1.53618   1.61315    0.000
 5865.00    1.52610   1.61849    0.000
 5866.00    1.52440   1.62483    0.000
 5867.00    1.53344   1.63030    0.000
 5868.00    1.53276   1.63458    0.000
 5869.00    1.52112   1.63961    0.000
 5870.00    1.51623   1.64431    0.000
 5871.00    1.51806   1.64737    0.000
 5872.00    1.51617   1.65027    0.000
 5873.00    1.51100   1.65284    0.000
 5874.00    1.51172   1.65327    0.000
 5875.00    1.51699   1.65232    0.000
 5876.00    1.51631   1.65084    0.000
 5877.00    1.51159   1.64771    0.000
 5878.00    1.51681   1.64300    0.000
 5879.00    1.52796   1.63796    0.000
 5880.00    1.53108   1.63256    0.000
 5881.00    1.53003   1.62586    0.000
 5882.00    1.52588   1.61813    0.000
 5883.00    1.52034   1.61000    0.000
 5884.00    1.51387   1.59939    0.000
 5885.00    1.50706   1.58452    0.000
 5886.00    1.49874   1.56690    0.000
 5887.00    1.48994   1.54498    0.000
 5888.00    1.48536   1.51657    0.000
 5889.00    1.48194   1.48717    0.000
 5890.00    1.47604   1.45855    0.000
 5891.00    1.46958   1.42788    0.000
 5892.00    1.46941   1.40379    0.000
 5893.00    1.47038   1.38953    0.000
 5894.00    1.47980   1.37702    0.000
 5895.00    1.49040   1.37300    0.000
 5896.00    1.48386   1.38109    0.000
 5897.00    1.47560   1.38962    0.000
 5898.00    1.47656   1.40335    0.000
 5899.00    1.47810   1.42767    0.000
 5900.00    1.47737   1.45121    0.000
 5901.00    1.47660   1.47505    0.089
 5902.00    1.48994   1.50418    0.089
 5903.00    1.50297   1.52998    0.089
 5904.00    1.50761   1.55048    0.088
 5905.00    1.51220   1.56994    0.088
 5906.00    1.51611   1.58540    0.088
 5907.00    1.51951   1.59549    0.089
 5908.00    1.51809   1.60319    0.089
 5909.00    1.51519   1.60892    0.089
 5910.00    1.50227   1.61199    0.088
 5911.00    1.49178   1.61308    0.087
 5912.00    1.49402   1.61293    0.088
 5913.00    1.49525   1.61181    0.089
 5914.00    1.49218   1.60954    0.089
 5915.00    1.49056   1.60660    0.089
 5916.00    1.49397   1.60467    0.088
 5917.00    1.49671   1.60360    0.088
 5918.00    1.49749   1.60329    0.088
 5919.00    1.49621   1.60505    0.088
 5920.00    1.48977   1.60778    0.087
 5921.00    1.48505   1.61097    0.086
 5922.00    1.48402   1.61508    0.086
 5923.00    1.48268   1.61839    0.086
 5924.00    1.48076   1.62096    0.086
 5925.00    1.48142   1.62336    0.086
 5926.00    1.48631   1.62419    0.086
 5927.00    1.48929   1.62412    0.087
 5928.00    1.48954   1.62353    0.087
 5929.00    1.49113   1.62187    0.087
 5930.00    1.49443   1.62031    0.087
 5931.00    1.49877   1.61878    0.087
 5932.00    1.50429   1.61721    0.087
 5933.00    1.50636   1.61684    0.087
 5934.00    1.50505   1.61736    0.087
 5935.00    1.50665   1.61814    0.087
 5936.00    1.51077   1.61943    0.087
 5937.00    1.51326   1.62163    0.087
 5938.00    1.51453   1.62391    0.087
 5939.00    1.51051   1.62506    0.088
 5940.00    1.50295   1.62643    0.088
 5941.00    1.50180   1.62805    0.087
 5942.00    1.50441   1.62809    0.087
 5943.00    1.51228   1.62791    0.087
 5944.00    1.52284   1.62841    0.088
 5945.00    1.52011   1.62804    0.088
 5946.00    1.51149   1.62724    0.088
 5947.00    1.50212   1.62652    0.087
 5948.00    1.49247   1.62518    0.087
 5949.00    1.49572   1.62344    0.086
 5950.00    1.50314   1.62116    0.086
 5951.00    1.51008   1.61847    0.086
 5952.00    1.51688   1.61661    0.086
 5953.00    1.51301   1.61505    0.086
 5954.00    1.50677   1.61321    0.086
 5955.00    1.49948   1.61283    0.086
 5956.00    1.49199   1.61384    0.085
 5957.00    1.49565   1.61466    0.085
 5958.00    1.50081   1.61641    0.085
 5959.00    1.50583   1.61991    0.085
 5960.00    1.51085   1.62368    0.085
 5961.00    1.50967   1.62749    0.086
 5962.00    1.50813   1.63212    0.086
 5963.00    1.50727   1.63673    0.086
 5964.00    1.50643   1.64025    0.086
 5965.00    1.50637   1.64349    0.085
 5966.00    1.50641   1.64655    0.085
 5967.00    1.50926   1.64832    0.086
 5968.00    1.51143   1.65004    0.086
 5969.00    1.50462   1.65216    0.086
 5970.00    1.49837   1.65324    0.086
 5971.00    1.49704   1.65399    0.086
 5972.00    1.49749   1.65460    0.086
 5973.00    1.50956   1.65361    0.086
 5974.00    1.51905   1.65118    0.086
 5975.00    1.51536   1.64805    0.086
 5976.00    1.51257   1.64376    0.087
 5977.00    1.51355   1.63858    0.087
 5978.00    1.51384   1.63389    0.086
 5979.00    1.51175   1.62960    0.086
 5980.00    1.50970   1.62546    0.086
 5981.00    1.50777   1.62248    0.086
 5982.00    1.50342   1.61976    0.085
 5983.00    1.49310   1.61678    0.085
 5984.00    1.48795   1.61485    0.085
 5985.00    1.49378   1.61284    0.085
 5986.00    1.49945   1.61086    0.085
 5987.00    1.50485   1.61095    0.085
 5988.00    1.50915   1.61189    0.085
 5989.00    1.51169   1.61337    0.085
 5990.00    1.51345   1.61661    0.085
 5991.00    1.51412   1.62066    0.084
 5992.00    1.51328   1.62434    0.084
 5993.00    1.51057   1.62772    0.084
 5994.00    1.50828   1.63106    0.084
 5995.00    1.50644   1.63323    0.085
 5996.00    1.50640   1.63379    0.086
 5997.00    1.50812   1.63394    0.086
 5998.00    1.51372   1.63297    0.086
 5999.00    1.52264   1.63080    0.086
 6000.00    1.52136   1.62875    0.086
 6001.00    1.51240   1.62599    0.086
 6002.00    1.50268   1.62317    0.085
 6003.00    1.49247   1.62085    0.085
 6004.00    1.48471   1.61756    0.085
 6005.00    1.47836   1.61478    0.086
 6006.00    1.47474   1.61238    0.085
 6007.00    1.47251   1.60896    0.085
 6008.00    1.47861   1.60686    0.085
 6009.00    1.48834   1.60536    0.085
 6010.00    1.49436   1.60364    0.085
 6011.00    1.49898   1.60361    0.086
 6012.00    1.50497   1.60373    0.086
 6013.00    1.51140   1.60379    0.086
 6014.00    1.51520   1.60439    0.086
 6015.00    1.51829   1.60395    0.085
 6016.00    1.51810   1.60351    0.085
 6017.00    1.51718   1.60285    0.086
 6018.00    1.51510   1.60089    0.086
 6019.00    1.51282   1.59967    0.086
 6020.00    1.50930   1.59884    0.086
 6021.00    1.50562   1.59759    0.086
 6022.00    1.49921   1.59761    0.090
 6023.00    1.49254   1.59897    0.095
 6024.00    1.50189   1.60135    0.095
 6025.00    1.51213   1.60471    0.096
 6026.00    1.51546   1.60942    0.096
 6027.00    1.51855   1.61572    0.096
 6028.00    1.51434   1.62179    0.090
 6029.00    1.51018   1.62817    0.085
 6030.00    1.50708   1.63542    0.085
 6031.00    1.50408   1.64157    0.085
 6032.00    1.50226   1.64701    0.085
 6033.00    1.50085   1.65235    0.084
 6034.00    1.50305   1.65655    0.084
 6035.00    1.50393   1.65955    0.084
 6036.00    1.49639   1.66192    0.084
 6037.00    1.48810   1.66346    0.084
 6038.00    1.47610   1.66384    0.084
 6039.00    1.46592   1.66389    0.083
 6040.00    1.46312   1.66361    0.083
 6041.00    1.46131   1.66285    0.084
 6042.00    1.46287   1.66277    0.084
 6043.00    1.46720   1.66296    0.084
 6044.00    1.47943   1.66336    0.084
 6045.00    1.49249   1.66490    0.084
 6046.00    1.50757   1.66661    0.083
 6047.00    1.51874   1.66816    0.083
 6048.00    1.52172   1.66997    0.084
 6049.00    1.52409   1.67118    0.084
 6050.00    1.52537   1.67129    0.084
 6051.00    1.52496   1.67063    0.084
 6052.00    1.52187   1.66903    0.084
 6053.00    1.51505   1.66636    0.084
 6054.00    1.50300   1.66298    0.084
 6055.00    1.49609   1.65943    0.084
 6056.00    1.49550   1.65612    0.084
 6057.00    1.49624   1.65297    0.084
 6058.00    1.49843   1.65059    0.085
 6059.00    1.49825   1.64920    0.085
 6060.00    1.49581   1.64792    0.085
 6061.00    1.49037   1.64666    0.085
 6062.00    1.48241   1.64579    0.084
 6063.00    1.48211   1.64435    0.084
 6064.00    1.48748   1.64230    0.085
 6065.00    1.49437   1.64148    0.085
 6066.00    1.50224   1.64119    0.084
 6067.00    1.50748   1.64163    0.084
 6068.00    1.51123   1.64506    0.084
 6069.00    1.50928   1.64964    0.084
 6070.00    1.50451   1.65488    0.084
 6071.00    1.49792   1.66172    0.084
 6072.00    1.49056   1.66765    0.084
 6073.00    1.49603   1.67209    0.083
 6074.00    1.50624   1.67516    0.083
 6075.00    1.51873   1.67583    0.083
 6076.00    1.53195   1.67429    0.083
 6077.00    1.53240   1.67044    0.083
 6078.00    1.52953   1.66517    0.083
 6079.00    1.53410   1.65910    0.083
 6080.00    1.54024   1.65184    0.083
 6081.00    1.53862   1.64523    0.083
 6082.00    1.53569   1.63963    0.083
 6083.00    1.52425   1.63413    0.083
 6084.00    1.51172   1.63041    0.083
 6085.00    1.50420   1.62823    0.084
 6086.00    1.49710   1.62617    0.085
 6087.00    1.50152   1.62554    0.084
 6088.00    1.50652   1.62571    0.083
 6089.00    1.50857   1.62545    0.083
 6090.00    1.51050   1.62605    0.083
 6091.00    1.50852   1.62681    0.084
 6092.00    1.50686   1.62734    0.085
 6093.00    1.51237   1.62896    0.085
 6094.00    1.51735   1.63067    0.084
 6095.00    1.51611   1.63221    0.084
 6096.00    1.51514   1.63459    0.084
 6097.00    1.51635   1.63610    0.084
 6098.00    1.51727   1.63583    0.084
 6099.00    1.51638   1.63519    0.084
 6100.00    1.51479   1.63276    0.084
 6101.00    1.50972   1.62752    0.085
 6102.00    1.50569   1.62275    0.085
 6103.00    1.50578   1.61800    0.085
 6104.00    1.50700   1.61248    0.084
 6105.00    1.51198   1.61065    0.084
 6106.00    1.51649   1.61082    0.083
 6107.00    1.51970   1.61168    0.083
 6108.00    1.52314   1.61674    0.084
 6109.00    1.52714   1.62224    0.084
 6110.00    1.52797   1.62701    0.084
 6111.00    1.52226   1.63338    0.083
 6112.00    1.51655   1.63795    0.083
 6113.00    1.51082   1.64112    0.083
 6114.00    1.50689   1.64413    0.083
 6115.00    1.50576   1.64450    0.083
 6116.00    1.50808   1.64394    0.083
 6117.00    1.51515   1.64227    0.083
 6118.00    1.51875   1.63771    0.083
 6119.00    1.51819   1.63299    0.084
 6120.00    1.51206   1.62690    0.084
 6121.00    1.49999   1.61912    0.084
 6122.00    1.49626   1.61358    0.084
 6123.00    1.50038   1.60807    0.084
 6124.00    1.50891   1.60340    0.085
 6125.00    1.52108   1.60299    0.085
 6126.00    1.52490   1.60321    0.084
 6127.00    1.52261   1.60467    0.084
 6128.00    1.51821   1.60916    0.084
 6129.00    1.51245   1.61259    0.084
 6130.00    1.50687   1.61512    0.083
 6131.00    1.50139   1.61787    0.082
 6132.00    1.49818   1.61779    0.082
 6133.00    1.49608   1.61462    0.083
 6134.00    1.49725   1.61013    0.084
 6135.00    1.49979   1.60284    0.084
 6136.00    1.50074   1.59324    0.084
 6137.00    1.50112   1.58445    0.084
 6138.00    1.50588   1.57633    0.084
 6139.00    1.51197   1.57040    0.084
 6140.00    1.51542   1.56854    0.084
 6141.00    1.51820   1.56973    0.084
 6142.00    1.51766   1.57467    0.084
 6143.00    1.51642   1.58240    0.084
 6144.00    1.51730   1.59098    0.084
 6145.00    1.51853   1.59978    0.084
 6146.00    1.52319   1.60753    0.084
 6147.00    1.52826   1.61390    0.084
 6148.00    1.52227   1.61811    0.084
 6149.00    1.51535   1.61991    0.083
 6150.00    1.50916   1.62059    0.082
 6151.00    1.50301   1.62009    0.082
 6152.00    1.49957   1.61854    0.082
 6153.00    1.49609   1.61641    0.083
 6154.00    1.48805   1.61399    0.083
 6155.00    1.48051   1.61095    0.083
 6156.00    1.48270   1.60603    0.083
 6157.00    1.48471   1.59979    0.084
 6158.00    1.48458   1.59170    0.084
 6159.00    1.48570   1.58062    0.085
 6160.00    1.49674   1.56827    0.085
 6161.00    1.50656   1.55489    0.085
 6162.00    1.50903   1.54045    0.085
 6163.00    1.51008   1.52813    0.085
 6164.00    1.50438   1.51857    0.084
 6165.00    1.49911   1.51083    0.083
 6166.00    1.49553   1.50747    0.084
 6167.00    1.49247   1.50793    0.084
 6168.00    1.49110   1.50971    0.083
 6169.00    1.49238   1.51382    0.082
 6170.00    1.50094   1.51908    0.082
 6171.00    1.50705   1.52457    0.083
 6172.00    1.50744   1.53120    0.083
 6173.00    1.50662   1.53756    0.084
 6174.00    1.50337   1.54412    0.084
 6175.00    1.49644   1.55211    0.084
 6176.00    1.48305   1.55946    0.084
 6177.00    1.46870   1.56613    0.083
 6178.00    1.45284   1.57328    0.083
 6179.00    1.44206   1.57986    0.083
 6180.00    1.43814   1.58532    0.083
 6181.00    1.43682   1.58968    0.083
 6182.00    1.43858   1.59356    0.083
 6183.00    1.44895   1.59629    0.083
 6184.00    1.46838   1.59629    0.084
 6185.00    1.48412   1.59526    0.084
 6186.00    1.49643   1.59297    0.085
 6187.00    1.50126   1.58722    0.085
 6188.00    1.49998   1.58087    0.085
 6189.00    1.50049   1.57457    0.085
 6190.00    1.50229   1.56647    0.084
 6191.00    1.50215   1.56029    0.084
 6192.00    1.50079   1.55613    0.083
 6193.00    1.49290   1.55316    0.083
 6194.00    1.48142   1.55415    0.083
 6195.00    1.46453   1.55635    0.085
 6196.00    1.44504   1.56004   -2.000
 6197.00    1.41901   1.56654   -2.000
 6198.00    1.39025   1.57136   -2.000
 6199.00    1.38638   1.57562   -2.000
 6200.00    1.39134   1.58070   -2.000
 6201.00    1.43416   1.58416   -2.000
 6202.00    1.48831   1.58720   -2.000
 6203.00    1.53857   1.59032   -2.000
 6204.00    1.58787   1.59327   -2.000
 6205.00    1.58050   1.59673   -2.000
 6206.00    1.56171   1.59943   -2.000
 6207.00    1.53410   1.60118   -2.000
 6208.00    1.50511   1.60218    0.086
 6209.00    1.50371   1.60095    0.085
 6210.00    1.50556   1.59788    0.085
 6211.00    1.50382   1.59265    0.084
 6212.00    1.50180   1.58482    0.083
 6213.00    1.49597   1.57642    0.083
 6214.00    1.48997   1.56675    0.083
 6215.00    1.49156   1.55639    0.083
 6216.00    1.49333   1.54814    0.083
 6217.00    1.49991   1.54043    0.083
 6218.00    1.50610   1.53436    0.083
 6219.00    1.50510   1.53165    0.083
 6220.00    1.50408   1.52961    0.083
 6221.00    1.50274   1.52971    0.083
 6222.00    1.50186   1.53189    0.082
 6223.00    1.50458   1.53337    0.082
 6224.00    1.50709   1.53606    0.082
 6225.00    1.50841   1.53862    0.082
 6226.00    1.50881   1.53913    0.083
 6227.00    1.50495   1.53939    0.083
 6228.00    1.50061   1.53802    0.083
 6229.00    1.49441   1.53503    0.084
 6230.00    1.49142   1.53227    0.084
 6231.00    1.49858   1.52851    0.085
 6232.00    1.50500   1.52542    0.085
 6233.00    1.50942   1.52493    0.084
 6234.00    1.51258   1.52470    0.083
 6235.00    1.51286   1.52616    0.083
 6236.00    1.51326   1.52961    0.083
 6237.00    1.51387   1.53170    0.083
 6238.00    1.51488   1.53323    0.083
 6239.00    1.51659   1.53382    0.083
 6240.00    1.51459   1.53246    0.083
 6241.00    1.50696   1.52931    0.083
 6242.00    1.50229   1.52496    0.082
 6243.00    1.50157   1.52118    0.082
 6244.00    1.50413   1.51670    0.082
 6245.00    1.51055   1.51349    0.082
 6246.00    1.51221   1.51298    0.082
 6247.00    1.50894   1.51183    0.082
 6248.00    1.50796   1.51258    0.082
 6249.00    1.50909   1.51530    0.082
 6250.00    1.50831   1.51567    0.082
 6251.00    1.50599   1.51582    0.082
 6252.00    1.50386   1.51598    0.082
 6253.00    1.50185   1.51301    0.083
 6254.00    1.50560   1.50890    0.083
 6255.00    1.51293   1.50503    0.084
 6256.00    1.51440   1.50030    0.084
 6257.00    1.51268   1.49621    0.084
 6258.00    1.50716   1.49469    0.085
 6259.00    1.49984   1.49537    0.087
 6260.00    1.49418   1.49762    0.091
 6261.00    1.48921   1.50309    0.095
 6262.00    1.50106   1.51046    0.098
 6263.00    1.51876   1.51830    0.100
 6264.00    1.53117   1.52755    0.099
 6265.00    1.54202   1.53560    0.097
 6266.00    1.54849   1.54242    0.093
 6267.00    1.55389   1.54943    0.089
 6268.00    1.55188   1.55437    0.086
 6269.00    1.54842   1.55741    0.084
 6270.00    1.54022   1.56070    0.083
 6271.00    1.53128   1.56381    0.083
 6272.00    1.52847   1.56568    0.082
 6273.00    1.52635   1.56735    0.082
 6274.00    1.52258   1.56957    0.082
 6275.00    1.51869   1.57094    0.082
 6276.00    1.50803   1.57128    0.082
 6277.00    1.49709   1.57167    0.082
 6278.00    1.49378   1.57090    0.081
 6279.00    1.49083   1.56936    0.081
 6280.00    1.50086   1.56851    0.000
 6281.00    1.51068   1.56688    0.000
 6282.00    1.51685   1.56622    0.000
 6283.00    1.52247   1.56738    0.000
 6284.00    1.52221   1.56841    0.000
 6285.00    1.52295   1.57161    0.000
 6286.00    1.53114   1.57581    0.000
 6287.00    1.53807   1.57959    0.000
 6288.00    1.53784   1.58431    0.000
 6289.00    1.53646   1.58750    0.000
 6290.00    1.52986   1.58975    0.000
 6291.00    1.52302   1.59120    0.000
 6292.00    1.51523   1.59009    0.000
 6293.00    1.50723   1.58818    0.000
 6294.00    1.49858   1.58490    0.000
 6295.00    1.49303   1.58018    0.000
 6296.00    1.49568   1.57549    0.000
 6297.00    1.49979   1.56975    0.000
 6298.00    1.50721   1.56425    0.000
 6299.00    1.51492   1.55988    0.000
 6300.00    1.52317   1.55537    0.000
 6301.00    1.52908   1.55195    0.000
 6302.00    1.53095   1.55058    0.000
 6303.00    1.52950   1.55095    0.000
 6304.00    1.52308   1.55270    0.000
 6305.00    1.51861   1.55578    0.000
 6306.00    1.51672   1.56018    0.000
 6307.00    1.51707   1.56550    0.000
 6308.00    1.52003   1.57090    0.000
 6309.00    1.52359   1.57504    0.000
 6310.00    1.52777   1.57756    0.000
 6311.00    1.52825   1.57897    0.000
 6312.00    1.52539   1.57864    0.000
 6313.00    1.51820   1.57571    0.000
 6314.00    1.50757   1.57122    0.000
 6315.00    1.50296   1.56652    0.000
 6316.00    1.50256   1.56107    0.000
 6317.00    1.50463   1.55625    0.000
 6318.00    1.50823   1.55251    0.000
 6319.00    1.51498   1.54921    0.000
 6320.00    1.52342   1.54933    0.000
 6321.00    1.52658   1.55168    0.082
 6322.00    1.52729   1.55402    0.082
 6323.00    1.52506   1.55915    0.082
 6324.00    1.52166   1.56633    0.082
 6325.00    1.51965   1.57305    0.082
 6326.00    1.51812   1.57901    0.082
 6327.00    1.51682   1.58519    0.082
 6328.00    1.51558   1.59065    0.080
 6329.00    1.51540   1.59395    0.080
 6330.00    1.51546   1.59631    0.080
 6331.00    1.51657   1.59643    0.081
 6332.00    1.51788   1.59532    0.081
 6333.00    1.52031   1.59384    0.082
 6334.00    1.52291   1.58974    0.082
 6335.00    1.52091   1.58508    0.082
 6336.00    1.51841   1.58102    0.081
 6337.00    1.51936   1.57676    0.081
 6338.00    1.52056   1.57320    0.082
 6339.00    1.52544   1.57021    0.082
 6340.00    1.53045   1.56820    0.082
 6341.00    1.52806   1.56866    0.081
 6342.00    1.52582   1.56955    0.081
 6343.00    1.53005   1.56938    0.081
 6344.00    1.53444   1.57097    0.081
 6345.00    1.54114   1.57258    0.081
 6346.00    1.54757   1.57340    0.081
 6347.00    1.55117   1.57511    0.082
 6348.00    1.55387   1.57659    0.082
 6349.00    1.55013   1.57920    0.082
 6350.00    1.54733   1.58192    0.082
 6351.00    1.54976   1.58314    0.082
 6352.00    1.55145   1.58481    0.082
 6353.00    1.54995   1.58519    0.082
 6354.00    1.54419   1.58286    0.082
 6355.00    1.52295   1.57953    0.082
 6356.00    1.50308   1.57484    0.081
 6357.00    1.48736   1.56847    0.081
 6358.00    1.47703   1.56110    0.081
 6359.00    1.48066   1.55336    0.081
 6360.00    1.48885   1.54673    0.081
 6361.00    1.50718   1.54123    0.082
 6362.00    1.52219   1.53608    0.083
 6363.00    1.53080   1.53314    0.083
 6364.00    1.53546   1.53367    0.083
 6365.00    1.53347   1.53569    0.083
 6366.00    1.53331   1.53921    0.083
 6367.00    1.53587   1.54530    0.082
 6368.00    1.53898   1.55278    0.082
 6369.00    1.54280   1.56077    0.083
 6370.00    1.54529   1.56857    0.083
 6371.00    1.54625   1.57610    0.082
 6372.00    1.54284   1.58358    0.082
 6373.00    1.53505   1.58982    0.082
 6374.00    1.52820   1.59451    0.081
 6375.00    1.52219   1.59839    0.080
 6376.00    1.51862   1.60155    0.080
 6377.00    1.51697   1.60321    0.081
 6378.00    1.51608   1.60358    0.081
 6379.00    1.51572   1.60278    0.081
 6380.00    1.51893   1.60143    0.081
 6381.00    1.52430   1.60025    0.081
 6382.00    1.53147   1.59843    0.081
 6383.00    1.53960   1.59708    0.081
 6384.00    1.53807   1.59672    0.081
 6385.00    1.53213   1.59640    0.081
 6386.00    1.52488   1.59693    0.081
 6387.00    1.51712   1.59778    0.081
 6388.00    1.51069   1.59764    0.081
 6389.00    1.50471   1.59690    0.080
 6390.00    1.49757   1.59628    0.080
 6391.00    1.49010   1.59478    0.080
 6392.00    1.48725   1.59157    0.081
 6393.00    1.48547   1.58853    0.081
 6394.00    1.49612   1.58557    0.082
 6395.00    1.50910   1.58256    0.083
 6396.00    1.52334   1.58016    0.083
 6397.00    1.53777   1.57806    0.084
 6398.00    1.54224   1.57722    0.084
 6399.00    1.54569   1.57783    0.084
 6400.00    1.55134   1.57880    0.083
 6401.00    1.55714   1.57971    0.083
 6402.00    1.55056   1.58206    0.083
 6403.00    1.54358   1.58429    0.083
 6404.00    1.54024   1.58486    0.082
 6405.00    1.53703   1.58852    0.082
 6406.00    1.53791   1.59194    0.082
 6407.00    1.53855   1.59190    0.082
 6408.00    1.53573   1.59254    0.082
 6409.00    1.53245   1.59213    0.081
 6410.00    1.52472   1.59056    0.082
 6411.00    1.51709   1.58906    0.082
 6412.00    1.51009   1.58650    0.081
 6413.00    1.50488   1.58582    0.081
 6414.00    1.50934   1.58614    0.081
 6415.00    1.51360   1.58433    0.081
 6416.00    1.51706   1.58350    0.081
 6417.00    1.52075   1.58422    0.081
 6418.00    1.52527   1.58388    0.082
 6419.00    1.52889   1.58350    0.082
 6420.00    1.52982   1.58356    0.082
 6421.00    1.52927   1.58375    0.082
 6422.00    1.52493   1.58546    0.081
 6423.00    1.52314   1.58782    0.081
 6424.00    1.52692   1.59052    0.082
 6425.00    1.53462   1.59384    0.082
 6426.00    1.54976   1.59782    0.083
 6427.00    1.55899   1.60194    0.083
 6428.00    1.55840   1.60405    0.084
 6429.00    1.55528   1.60400    0.084
 6430.00    1.54846   1.60321    0.084
 6431.00    1.54266   1.60169    0.084
 6432.00    1.53815   1.59920    0.083
 6433.00    1.53534   1.59717    0.083
 6434.00    1.53443   1.59442    0.082
 6435.00    1.53246   1.59214    0.081
 6436.00    1.52944   1.59287    0.081
 6437.00    1.52335   1.59331    0.081
 6438.00    1.51455   1.59379    0.081
 6439.00    1.50892   1.59554    0.081
 6440.00    1.50574   1.59731    0.082
 6441.00    1.50643   1.60073    0.082
 6442.00    1.50975   1.60386    0.081
 6443.00    1.50937   1.60623    0.081
 6444.00    1.50680   1.61082    0.080
 6445.00    1.50119   1.61410    0.081
 6446.00    1.49402   1.61461    0.082
 6447.00    1.48311   1.61411    0.082
 6448.00    1.47052   1.61051    0.082
 6449.00    1.45667   1.60541    0.082
 6450.00    1.44235   1.59982    0.082
 6451.00    1.42392   1.59311    0.082
 6452.00    1.40413   1.58816    0.082
 6453.00    1.36210   1.58352    0.080
 6454.00    1.31392   1.57997    0.078
 6455.00    1.25721   1.58079    0.078
 6456.00    1.19855   1.58258    0.077
 6457.00    1.18144   1.58466    0.077
 6458.00    1.17186   1.58727    0.077
 6459.00    1.20392   1.58902    0.081
 6460.00    1.24176   1.59064    0.087
 6461.00    1.28839   1.59176    0.087
 6462.00    1.33590   1.59249    0.086
 6463.00    1.37287   1.59253    0.085
 6464.00    1.40918   1.59236    0.084
 6465.00    1.43044   1.59328    0.082
 6466.00    1.45125   1.59322    0.080
 6467.00    1.46982   1.59439    0.080
 6468.00    1.48819   1.59806    0.081
 6469.00    1.50117   1.60105    0.080
 6470.00    1.51324   1.60299    0.080
 6471.00    1.51249   1.60468    0.081
 6472.00    1.51209   1.60605    0.082
 6473.00    1.51496   1.60648    0.083
 6474.00    1.51864   1.60676    0.083
 6475.00    1.52783   1.60623    0.083
 6476.00    1.53572   1.60551    0.083
 6477.00    1.53685   1.60545    0.083
 6478.00    1.53605   1.60436    0.083
 6479.00    1.52714   1.60238    0.083
 6480.00    1.51996   1.60025    0.083
 6481.00    1.51884   1.59797    0.082
 6482.00    1.51891   1.59497    0.081
 6483.00    1.52246   1.59183    0.081
 6484.00    1.52629   1.58944    0.081
 6485.00    1.53077   1.58691    0.081
 6486.00    1.53356   1.58430    0.081
 6487.00    1.53268   1.58224    0.081
 6488.00    1.53179   1.57991    0.081
 6489.00    1.53087   1.57581    0.081
 6490.00    1.53024   1.56892    0.082
 6491.00    1.53006   1.55982    0.082
 6492.00    1.52923   1.54831    0.082
 6493.00    1.52748   1.53410    0.082
 6494.00    1.52346   1.51902    0.082
 6495.00    1.51661   1.50351    0.082
 6496.00    1.51013   1.49068    0.082
 6497.00    1.50406   1.48183    0.082
 6498.00    1.50253   1.47522    0.083
 6499.00    1.50543   1.47540    0.083
 6500.00    1.51023   1.48090    0.083
 6501.00    1.51667   1.49025    0.083
 6502.00    1.52565   1.50413    0.083
 6503.00    1.53657   1.51798    0.083
 6504.00    1.54675   1.53294    0.082
 6505.00    1.55645   1.54804    0.082
 6506.00    1.56051   1.56068    0.082
 6507.00    1.56127   1.57154    0.083
 6508.00    1.56283   1.57976    0.082
 6509.00    1.56478   1.58572    0.081
 6510.00    1.56219   1.58999    0.081
 6511.00    1.55757   1.59215    0.081
 6512.00    1.54684   1.59247    0.081
 6513.00    1.53377   1.59175    0.080
 6514.00    1.52680   1.59010    0.080
 6515.00    1.52178   1.58770    0.081
 6516.00    1.52022   1.58489    0.081
 6517.00    1.51959   1.58184    0.081
 6518.00    1.52079   1.57959    0.081
 6519.00    1.52240   1.57803    0.081
 6520.00    1.52648   1.57725    0.081
 6521.00    1.53099   1.57836    0.081
 6522.00    1.53236   1.57975    0.081
 6523.00    1.53330   1.58167    0.081
 6524.00    1.53398   1.58464    0.082
 6525.00    1.53463   1.58680    0.082
 6526.00    1.52947   1.58846    0.082
 6527.00    1.52396   1.58931    0.082
 6528.00    1.52430   1.58938    0.000
 6529.00    1.52482   1.58958    0.000
 6530.00    1.52946   1.58885    0.000
 6531.00    1.53426   1.58761    0.000
 6532.00    1.54322   1.58690    0.000
 6533.00    1.55120   1.58640    0.000
 6534.00    1.54618   1.58643    0.000
 6535.00    1.54186   1.58665    0.000
 6536.00    1.54383   1.58676    0.000
 6537.00    1.54596   1.58735    0.000
 6538.00    1.54916   1.58808    0.000
 6539.00    1.55138   1.58868    0.000
 6540.00    1.54867   1.58854    0.000
 6541.00    1.54595   1.58685    0.000
 6542.00    1.54319   1.58395    0.000
 6543.00    1.54082   1.58044    0.000
 6544.00    1.53978   1.57569    0.000
 6545.00    1.54111   1.56943    0.000
 6546.00    1.54925   1.56275    0.000
 6547.00    1.55727   1.55563    0.000
 6548.00    1.56501   1.54931    0.000
 6549.00    1.56767   1.54317    0.000
 6550.00    1.55958   1.53611    0.000
 6551.00    1.55324   1.52979    0.000
 6552.00    1.55012   1.52314    0.000
 6553.00    1.54609   1.51524    0.000
 6554.00    1.54058   1.50565    0.000
 6555.00    1.53796   1.49345    0.000
 6556.00    1.53944   1.47914    0.000
 6557.00    1.53904   1.46225    0.000
 6558.00    1.53631   1.44149    0.000
 6559.00    1.53806   1.41800    0.000
 6560.00    1.54472   1.39353    0.000
 6561.00    1.54824   1.36711    0.000
 6562.00    1.54873   1.34203    0.000
 6563.00    1.54946   1.32156    0.000
 6564.00    1.55040   1.30685    0.000
 6565.00    1.54769   1.30187    0.000
 6566.00    1.54224   1.30334    0.000
 6567.00    1.53600   1.31220    0.000
 6568.00    1.52924   1.33184    0.000
 6569.00    1.52432   1.35562    0.000
 6570.00    1.52047   1.38029    0.000
 6571.00    1.51897   1.40412    0.000
 6572.00    1.51867   1.42556    0.000
 6573.00    1.52391   1.44509    0.000
 6574.00    1.53157   1.46188    0.000
 6575.00    1.53440   1.47579    0.000
 6576.00    1.53542   1.48726    0.000
 6577.00    1.54242   1.49763    0.000
 6578.00    1.55132   1.50705    0.000
 6579.00    1.56207   1.51556    0.000
 6580.00    1.57331   1.52383    0.000
 6581.00    1.57905   1.53119    0.000
 6582.00    1.58361   1.53729    0.000
 6583.00    1.58592   1.54257    0.000
 6584.00    1.58783   1.54684    0.000
 6585.00    1.58432   1.54976    0.000
 6586.00    1.58010   1.55252    0.000
 6587.00    1.57644   1.55428    0.000
 6588.00    1.57282   1.55480    0.000
 6589.00    1.56892   1.55468    0.000
 6590.00    1.56501   1.55303    0.000
 6591.00    1.56253   1.55068    0.000
 6592.00    1.56008   1.54739    0.000
 6593.00    1.55697   1.54365    0.000
 6594.00    1.55381   1.54036    0.000
 6595.00    1.54958   1.53795    0.000
 6596.00    1.54509   1.53680    0.000
 6597.00    1.53712   1.53632    0.000
 6598.00    1.52952   1.53823    0.000
 6599.00    1.52513   1.54205    0.000
 6600.00    1.52124   1.54627    0.000
 6601.00    1.52056   1.55079    0.000
 6602.00    1.52113   1.55438    0.000
 6603.00    1.52787   1.55720    0.000
 6604.00    1.53352   1.55940    0.000
 6605.00    1.53472   1.56002    0.000
 6606.00    1.53575   1.55939    0.000
 6607.00    1.53620   1.55802    0.000
 6608.00    1.53615   1.55590    0.000
 6609.00    1.53469   1.55446    0.082
 6610.00    1.53353   1.55387    0.082
 6611.00    1.53312   1.55432    0.082
 6612.00    1.53433   1.55590    0.083
 6613.00    1.53889   1.55790    0.083
 6614.00    1.54220   1.56143    0.083
 6615.00    1.54322   1.56561    0.084
 6616.00    1.54421   1.56985    0.084
 6617.00    1.54516   1.57357    0.083
 6618.00    1.54699   1.57637    0.083
 6619.00    1.55004   1.57902    0.083
 6620.00    1.54870   1.58072    0.083
 6621.00    1.54199   1.58117    0.083
 6622.00    1.53910   1.58058    0.083
 6623.00    1.54034   1.57885    0.083
 6624.00    1.54236   1.57647    0.083
 6625.00    1.54513   1.57381    0.084
 6626.00    1.54351   1.57045    0.083
 6627.00    1.53819   1.56722    0.083
 6628.00    1.52897   1.56374    0.083
 6629.00    1.51687   1.56011    0.084
 6630.00    1.51539   1.55724    0.084
 6631.00    1.52082   1.55421    0.084
 6632.00    1.52741   1.55128    0.084
 6633.00    1.53466   1.54860    0.084
 6634.00    1.53698   1.54633    0.084
 6635.00    1.53687   1.54500    0.084
 6636.00    1.53967   1.54461    0.083
 6637.00    1.54371   1.54477    0.082
 6638.00    1.54104   1.54543    0.083
 6639.00    1.53589   1.54683    0.083
 6640.00    1.53625   1.54862    0.083
 6641.00    1.53831   1.55034    0.083
 6642.00    1.53918   1.55135    0.084
 6643.00    1.53975   1.55189    0.084
 6644.00    1.53561   1.55210    0.083
 6645.00    1.53047   1.55249    0.083
 6646.00    1.52962   1.55302    0.083
 6647.00    1.52949   1.55299    0.084
 6648.00    1.53499   1.55338    0.084
 6649.00    1.54120   1.55424    0.084
 6650.00    1.54251   1.55519    0.084
 6651.00    1.54340   1.55616    0.084
 6652.00    1.54398   1.55668    0.084
 6653.00    1.54454   1.55698    0.085
 6654.00    1.54500   1.55730    0.084
 6655.00    1.54541   1.55694    0.084
 6656.00    1.54248   1.55625    0.084
 6657.00    1.53975   1.55511    0.084
 6658.00    1.54121   1.55338    0.084
 6659.00    1.54284   1.55141    0.084
 6660.00    1.54646   1.54871    0.084
 6661.00    1.54943   1.54566    0.084
 6662.00    1.54690   1.54206    0.084
 6663.00    1.54315   1.53873    0.084
 6664.00    1.53177   1.53569    0.084
 6665.00    1.52179   1.53335    0.084
 6666.00    1.51862   1.53229    0.085
 6667.00    1.51820   1.53165    0.085
 6668.00    1.52863   1.53273    0.085
 6669.00    1.53650   1.53497    0.085
 6670.00    1.53598   1.53775    0.085
 6671.00    1.53464   1.54088    0.085
 6672.00    1.53100   1.54335    0.085
 6673.00    1.52493   1.54514    0.085
 6674.00    1.51311   1.54605    0.085
 6675.00    1.50661   1.54572    0.085
 6676.00    1.51104   1.54364    0.085
 6677.00    1.51615   1.54044    0.085
 6678.00    1.52249   1.53695    0.085
 6679.00    1.52812   1.53364    0.085
 6680.00    1.53267   1.53133    0.085
 6681.00    1.53806   1.52988    0.085
 6682.00    1.54459   1.52919    0.086
 6683.00    1.54731   1.53052    0.086
 6684.00    1.54544   1.53303    0.086
 6685.00    1.54135   1.53633    0.086
 6686.00    1.53490   1.54008    0.085
 6687.00    1.52854   1.54311    0.084
 6688.00    1.52227   1.54615    0.084
 6689.00    1.52082   1.54843    0.085
 6690.00    1.52336   1.54999    0.085
 6691.00    1.52676   1.55076    0.085
 6692.00    1.53078   1.55050    0.086
 6693.00    1.53054   1.54984    0.086
 6694.00    1.52757   1.54843    0.086
 6695.00    1.52831   1.54651    0.086
 6696.00    1.53113   1.54452    0.000
 6697.00    1.52952   1.54231    0.000
 6698.00    1.52576   1.54055    0.000
 6699.00    1.51892   1.53935    0.000
 6700.00    1.51078   1.53825    0.000
 6701.00    1.51291   1.53797    0.000
 6702.00    1.51875   1.53773    0.000
 6703.00    1.52824   1.53776    0.000
 6704.00    1.53884   1.53812    0.000
 6705.00    1.53415   1.53820    0.000
 6706.00    1.52560   1.53832    0.000
 6707.00    1.52025   1.53796    0.000
 6708.00    1.51555   1.53738    0.000
 6709.00    1.51933   1.53620    0.000
 6710.00    1.52448   1.53487    0.000
 6711.00    1.53522   1.53283    0.000
 6712.00    1.54663   1.52998    0.000
 6713.00    1.54543   1.52676    0.000
 6714.00    1.54318   1.52238    0.000
 6715.00    1.54104   1.51803    0.000
 6716.00    1.53890   1.51333    0.000
 6717.00    1.53439   1.50898    0.000
 6718.00    1.52997   1.50595    0.000
 6719.00    1.53239   1.50369    0.000
 6720.00    1.53453   1.50313    0.000
 6721.00    1.53124   1.50361    0.000
 6722.00    1.52902   1.50526    0.000
 6723.00    1.53900   1.50830    0.000
 6724.00    1.54737   1.51171    0.000
 6725.00    1.54287   1.51546    0.000
 6726.00    1.53861   1.51890    0.000
 6727.00    1.53580   1.52182    0.000
 6728.00    1.53290   1.52467    0.000
 6729.00    1.52951   1.52717    0.000
 6730.00    1.52679   1.52919    0.000
 6731.00    1.52667   1.53076    0.000
 6732.00    1.52747   1.53176    0.000
 6733.00    1.53119   1.53256    0.000
 6734.00    1.53039   1.53296    0.000
 6735.00    1.51730   1.53295    0.000
 6736.00    1.50757   1.53225    0.000
 6737.00    1.50568   1.53098    0.000
 6738.00    1.50755   1.52931    0.000
 6739.00    1.51702   1.52733    0.000
 6740.00    1.52474   1.52542    0.000
 6741.00    1.52935   1.52326    0.000
 6742.00    1.53187   1.52103    0.000
 6743.00    1.53115   1.51887    0.000
 6744.00    1.52992   1.51675    0.000
 6745.00    1.52802   1.51508    0.000
 6746.00    1.52518   1.51353    0.000
 6747.00    1.52122   1.51179    0.000
 6748.00    1.51713   1.51032    0.000
 6749.00    1.51290   1.50867    0.000
 6750.00    1.50665   1.50787    0.000
 6751.00    1.49854   1.50737    0.000
 6752.00    1.49475   1.50718    0.000
 6753.00    1.49449   1.50816    0.092
 6754.00    1.49046   1.50927    0.094
 6755.00    1.48372   1.51196    0.095
 6756.00    1.46876   1.51508    0.096
 6757.00    1.44862   1.51873    0.095
 6758.00    1.45623   1.52303    0.096
 6759.00    1.47912   1.52680    0.097
 6760.00    1.54449   1.53074    0.100
 6761.00    1.63022   1.53368    0.102
 6762.00    1.70837   1.53604    0.105
 6763.00    1.78339   1.53727    0.107
 6764.00    1.79378   1.53753    0.107
 6765.00    1.78131   1.53683    0.107
 6766.00    1.78192   1.53488    0.105
 6767.00    1.78645   1.53279    0.104
 6768.00    1.77389   1.53037    0.103
 6769.00    1.75710   1.52834    0.101
 6770.00    1.72605   1.52693    0.099
 6771.00    1.69214   1.52601    0.098
 6772.00    1.65535   1.52619    0.096
 6773.00    1.61810   1.52757    0.095
 6774.00    1.60035   1.52991    0.093
 6775.00    1.58488   1.53319    0.091
 6776.00    1.56258   1.53629    0.092
 6777.00    1.53975   1.53916    0.093
 6778.00    1.56498   1.54166    0.094
 6779.00    1.59231   1.54326    0.095
 6780.00    1.59240   1.54386    0.096
 6781.00    1.59224   1.54277    0.097
 6782.00    1.59389   1.54037    0.097
 6783.00    1.59672   1.53696    0.097
 6784.00    1.62110   1.53309    0.097
 6785.00    1.64321   1.52919    0.097
 6786.00    1.64041   1.52566    0.097
 6787.00    1.63541   1.52269    0.097
 6788.00    1.61348   1.52048    0.097
 6789.00    1.59534   1.51930    0.097
 6790.00    1.59933   1.51894    0.097
 6791.00    1.60312   1.51935    0.097
 6792.00    1.60599   1.52001    0.097
 6793.00    1.61105   1.52073    0.097
 6794.00    1.62437   1.52148    0.095
 6795.00    1.63085   1.52195    0.094
 6796.00    1.61573   1.52263    0.094
 6797.00    1.60506   1.52320    0.094
 6798.00    1.60635   1.52397    0.094
 6799.00    1.60170   1.52485    0.094
 6800.00    1.58343   1.52572    0.093
 6801.00    1.57091   1.52702    0.093
 6802.00    1.56983   1.52811    0.094
 6803.00    1.56325   1.52900    0.094
 6804.00    1.54710   1.52972    0.094
 6805.00    1.53717   1.52997    0.094
 6806.00    1.53667   1.53003    0.093
 6807.00    1.53823   1.53001    0.093
 6808.00    1.54257   1.52932    0.093
 6809.00    1.54562   1.52869    0.093
 6810.00    1.54718   1.52804    0.094
 6811.00    1.54467   1.52738    0.095
 6812.00    1.53795   1.52721    0.096
 6813.00    1.55040   1.52663    0.097
 6814.00    1.58037   1.52640    0.098
 6815.00    1.58649   1.52658    0.098
 6816.00    1.57342   1.52670    0.097
 6817.00    1.57205   1.52754    0.095
 6818.00    1.57896   1.52845    0.094
 6819.00    1.59033   1.52926    0.094
 6820.00    1.60445   1.53039    0.094
 6821.00    1.60995   1.53151    0.093
 6822.00    1.61076   1.53301    0.093
 6823.00    1.59776   1.53469    0.093
 6824.00    1.57824   1.53569    0.092
 6825.00    1.56850   1.53658    0.092
 6826.00    1.56274   1.53684    0.092
 6827.00    1.56160   1.53693    0.093
 6828.00    1.56207   1.53702    0.094
 6829.00    1.57515   1.53656    0.095
 6830.00    1.59193   1.53629    0.096
 6831.00    1.59338   1.53573    0.096
 6832.00    1.59112   1.53532    0.096
 6833.00    1.57981   1.53473    0.095
 6834.00    1.56672   1.53383    0.094
 6835.00    1.57506   1.53293    0.094
 6836.00    1.58667   1.53152    0.096
 6837.00    1.57936   1.52941    0.097
 6838.00    1.56993   1.52615    0.098
 6839.00    1.57984   1.52250    0.098
 6840.00    1.59120   1.51839    0.099
 6841.00    1.58392   1.51463    0.098
 6842.00    1.57589   1.51129    0.097
 6843.00    1.55827   1.50883    0.095
 6844.00    1.54109   1.50795    0.093
 6845.00    1.54373   1.50812    0.091
 6846.00    1.54647   1.50970    0.090
 6847.00    1.55073   1.51206    0.092
 6848.00    1.55554   1.51489    0.094
 6849.00    1.56600   1.51799    0.094
 6850.00    1.57654   1.52071    0.094
 6851.00    1.58774   1.52255    0.094
 6852.00    1.59407   1.52332    0.094
 6853.00    1.57286   1.52273    0.093
 6854.00    1.55403   1.52121    0.093
 6855.00    1.54598   1.51896    0.093
 6856.00    1.54097   1.51610    0.094
 6857.00    1.54722   1.51345    0.094
 6858.00    1.54822   1.51110    0.094
 6859.00    1.53296   1.50898    0.094
 6860.00    1.52104   1.50718    0.094
 6861.00    1.51794   1.50587    0.093
 6862.00    1.51577   1.50575    0.093
 6863.00    1.51569   1.50663    0.092
 6864.00    1.51679   1.50761    0.092
 6865.00    1.52017   1.50880    0.093
 6866.00    1.51923   1.50955    0.094
 6867.00    1.51090   1.50982    0.095
 6868.00    1.50603   1.51030    0.095
 6869.00    1.50632   1.51085    0.095
 6870.00    1.51302   1.51135    0.094
 6871.00    1.52812   1.51116    0.095
 6872.00    1.53942   1.51103    0.094
 6873.00    1.54631   1.51102    0.093
 6874.00    1.54484   1.51146    0.093
 6875.00    1.53484   1.51276    0.093
 6876.00    1.52000   1.51415    0.093
 6877.00    1.50081   1.51570    0.093
 6878.00    1.49736   1.51695    0.093
 6879.00    1.50638   1.51845    0.093
 6880.00    1.51199   1.51958    0.093
 6881.00    1.51523   1.52019    0.094
 6882.00    1.52036   1.52059    0.093
 6883.00    1.52664   1.52109    0.093
 6884.00    1.52571   1.52177    0.093
 6885.00    1.52094   1.52236    0.093
 6886.00    1.51495   1.52367    0.093
 6887.00    1.50839   1.52514    0.093
 6888.00    1.50484   1.52729    0.093
 6889.00    1.50250   1.53008    0.092
 6890.00    1.49722   1.53321    0.092
 6891.00    1.49094   1.53627    0.092
 6892.00    1.48548   1.53860    0.093
 6893.00    1.48027   1.54080    0.093
 6894.00    1.47878   1.54237    0.093
 6895.00    1.47817   1.54340    0.093
 6896.00    1.49494   1.54393    0.093
 6897.00    1.51503   1.54409    0.094
 6898.00    1.52218   1.54405    0.094
 6899.00    1.52742   1.54374    0.094
 6900.00    1.53024   1.54385    0.095
 6901.00    1.53281   1.54389    0.096
 6902.00    1.52651   1.54440    0.095
 6903.00    1.51959   1.54525    0.094
 6904.00    1.52002   1.54627    0.094
 6905.00    1.52071   1.54725    0.094
 6906.00    1.51818   1.54833    0.094
 6907.00    1.51533   1.54937    0.093
 6908.00    1.50171   1.55034    0.094
 6909.00    1.48884   1.55079    0.094
 6910.00    1.48762   1.55043    0.094
 6911.00    1.48728   1.54974    0.093
 6912.00    1.49572   1.54816    0.093
 6913.00    1.50275   1.54635    0.093
 6914.00    1.49963   1.54424    0.093
 6915.00    1.49901   1.54197    0.093
 6916.00    1.51215   1.54003    0.093
 6917.00    1.52375   1.53851    0.093
 6918.00    1.52857   1.53744    0.093
 6919.00    1.53133   1.53715    0.093
 6920.00    1.52663   1.53719    0.093
 6921.00    1.52324   1.53771    0.094
 6922.00    1.52381   1.53855    0.094
 6923.00    1.52517   1.53859    0.094
 6924.00    1.52859   1.53881    0.094
 6925.00    1.52901   1.53853    0.094
 6926.00    1.52276   1.53831    0.094
 6927.00    1.51331   1.53811    0.095
 6928.00    1.49768   1.53791    0.095
 6929.00    1.48835   1.53802    0.095
 6930.00    1.48960   1.53782    0.095
 6931.00    1.49369   1.53827    0.095
 6932.00    1.50197   1.53863    0.095
 6933.00    1.50866   1.53975    0.095
 6934.00    1.51330   1.54071    0.096
 6935.00    1.51196   1.54165    0.096
 6936.00    1.50379   1.54280    0.095
 6937.00    1.49727   1.54351    0.095
 6938.00    1.49241   1.54452    0.095
 6939.00    1.48769   1.54500    0.095
 6940.00    1.48310   1.54581    0.095
 6941.00    1.48286   1.54620    0.095
 6942.00    1.48602   1.54595    0.095
 6943.00    1.49318   1.54520    0.095
 6944.00    1.50309   1.54380    0.096
 6945.00    1.50471   1.54270    0.096
 6946.00    1.50134   1.54137    0.096
 6947.00    1.50897   1.54050    0.096
 6948.00    1.52239   1.53980    0.096
 6949.00    1.51353   1.53920    0.096
 6950.00    1.49451   1.53874    0.096
 6951.00    1.49950   1.53857    0.096
 6952.00    1.51393   1.53875    0.096
 6953.00    1.50815   1.53936    0.096
 6954.00    1.49561   1.54004    0.096
 6955.00    1.49262   1.54094    0.095
 6956.00    1.49231   1.54215    0.094
 6957.00    1.48903   1.54335    0.095
 6958.00    1.48505   1.54519    0.095
 6959.00    1.48824   1.54710    0.095
 6960.00    1.49276   1.54936    0.095
 6961.00    1.48349   1.55162    0.094
 6962.00    1.47224   1.55392    0.094
 6963.00    1.48337   1.55608    0.094
 6964.00    1.49681   1.55765    0.094
 6965.00    1.48381   1.55911    0.095
 6966.00    1.46905   1.56020    0.096
 6967.00    1.41625   1.56116    0.095
 6968.00    1.36229   1.56175    0.095
 6969.00    1.57570   1.56194    0.100
 6970.00    1.78235   1.56140    0.105
 6971.00    1.78182   1.56026    0.105
 6972.00    1.78063   1.55833    0.105
 6973.00    1.76967   1.55559    0.104
 6974.00    1.75950   1.55226    0.103
 6975.00    1.75700   1.54770    0.104
 6976.00    1.75540   1.54263    0.104
 6977.00    1.76016   1.53698    0.104
 6978.00    1.76415   1.53189    0.103
 6979.00    1.76408   1.52812    0.103
 6980.00    1.76370   1.52552    0.103
 6981.00    1.76196   1.52503    0.102
 6982.00    1.75764   1.52627    0.102
 6983.00    1.74414   1.52895    0.102
 6984.00    1.73699   1.53291    0.102
 6985.00    1.74878   1.53764    0.103
 6986.00    1.75965   1.54306    0.103
 6987.00    1.76820   1.54809    0.103
 6988.00    1.76878   1.55216    0.103
 6989.00    1.75194   1.55558    0.104
 6990.00    1.74473   1.55775    0.104
 6991.00    1.75580   1.55933    0.104
 6992.00    1.76111   1.56021    0.105
 6993.00    1.75691   1.56052    0.105
 6994.00    1.75914   1.56042    0.105
 6995.00    1.77073   1.55980    0.105
 6996.00    1.77637   1.55900    0.105
 6997.00    1.77443   1.55783    0.105
 6998.00    1.76698   1.55611    0.105
 6999.00    1.75333   1.55398    0.105
 7000.00    1.74774   1.55158    0.105
 7001.00    1.75014   1.54920    0.105
 7002.00    1.75831   1.54697    0.105
 7003.00    1.77153   1.54483    0.105
 7004.00    1.76154   1.54299    0.105
 7005.00    1.73366   1.54135    0.105
 7006.00    1.68115   1.54041    0.104
 7007.00    1.61196   1.54014    0.104
 7008.00    1.61270   1.54040    0.105
 7009.00    1.65497   1.54084    0.106
 7010.00    1.66984   1.54105    0.107
 7011.00    1.67052   1.54128    0.107
 7012.00    1.68091   1.54112    0.106
 7013.00    1.69567   1.54071    0.106
 7014.00    1.69530   1.53981    0.107
 7015.00    1.68911   1.53816    0.107
 7016.00    1.68408   1.53657    0.107
 7017.00    1.67943   1.53504    0.107
 7018.00    1.67705   1.53420    0.107
 7019.00    1.67530   1.53421    0.106
 7020.00    1.67407   1.53462    0.107
 7021.00    1.67296   1.53536    0.108
 7022.00    1.67809   1.53609    0.107
 7023.00    1.68433   1.53723    0.105
 7024.00    1.68185   1.53867    0.106
 7025.00    1.67816   1.54036    0.108
 7026.00    1.68019   1.54217    0.108
 7027.00    1.68278   1.54403    0.109
 7028.00    1.68992   1.54581    0.109
 7029.00    1.69733   1.54758    0.110
 7030.00    1.70530   1.54971    0.110
 7031.00    1.71323   1.55175    0.110
 7032.00    1.70705   1.55404    0.111
 7033.00    1.70076   1.55595    0.111
 7034.00    1.69124   1.55773    0.111
 7035.00    1.68317   1.55934    0.110
 7036.00    1.69548   1.56056    0.110
 7037.00    1.70578   1.56168    0.110
 7038.00    1.69758   1.56315    0.109
 7039.00    1.69100   1.56514    0.108
 7040.00    1.69529   1.56794    0.109
 7041.00    1.70034   1.57163    0.109
 7042.00    1.70940   1.57580    0.109
 7043.00    1.71691   1.58005    0.109
 7044.00    1.71793   1.58398    0.109
 7045.00    1.72065   1.58788    0.110
 7046.00    1.72925   1.59107    0.111
 7047.00    1.73121   1.59359    0.112
 7048.00    1.71367   1.59499    0.112
 7049.00    1.70091   1.59472    0.112
 7050.00    1.70006   1.59269   -2.000
 7051.00    1.70656   1.58874   -2.000
 7052.00    1.72889   1.58345   -2.000
 7053.00    1.75038   1.57691   -2.000
 7054.00    1.77032   1.56955   -2.000
 7055.00    1.78499   1.56210   -2.000
 7056.00    1.79106   1.55445   -2.000
 7057.00    1.80843   1.54726   -2.000
 7058.00    1.84195   1.54041   -2.000
 7059.00    1.86674   1.53424   -2.000
 7060.00    1.88052   1.52914   -2.000
 7061.00    1.89810   1.52486   -2.000
 7062.00    1.91990   1.52182   -2.000
 7063.00    1.94422   1.51956   -2.000
 7064.00    1.97102   1.51783   -2.000
 7065.00    1.94593   1.51621   -2.000
 7066.00    1.87610   1.51501   -2.000
 7067.00    1.83737   1.51371   -2.000
 7068.00    1.82226   1.51320   -2.000
 7069.00    1.83114   1.51338   -2.000
 7070.00    1.85603   1.51438   -2.000
 7071.00    1.87529   1.51611   -2.000
 7072.00    1.89125   1.51824   -2.000
 7073.00    1.91089   1.52102   -2.000
 7074.00    1.93241   1.52381   -2.000
 7075.00    1.94101   1.52691   -2.000
 7076.00    1.94390   1.52981   -2.000
 7077.00    1.91750   1.53234   -2.000
 7078.00    1.87999   1.53412   -2.000
 7079.00    1.88027   1.53485   -2.000
 7080.00    1.89272   1.53413   -2.000
 7081.00    1.89999   1.53194   -2.000
 7082.00    1.90586   1.52829   -2.000
 7083.00    1.89972   1.52296   -2.000
 7084.00    1.89092   1.51648   -2.000
 7085.00    1.85294   1.50921   -2.000
 7086.00    1.80983   1.50128   -2.000
 7087.00    1.82632   1.49333   -2.000
 7088.00    1.85080   1.48543   -2.000
 7089.00    1.85692   1.47796   -2.000
 7090.00    1.86128   1.47140   -2.000
 7091.00    1.82713   1.46606   -2.000
 7092.00    1.79072   1.46171   -2.000
 7093.00    1.79030   1.45918   -2.000
 7094.00    1.79082   1.45752   -2.000
 7095.00    1.79885   1.45727   -2.000
 7096.00    1.80507   1.45771   -2.000
 7097.00    1.76646   1.45905   -2.000
 7098.00    1.72957   1.46161   -2.000
 7099.00    1.71551   1.46397   -2.000
 7100.00    1.69900   1.46750   -2.000
 7101.00    1.66078   1.47020   -2.000
 7102.00    1.63085   1.47320   -2.000
 7103.00    1.65501   1.47583   -2.000
 7104.00    1.67570   1.47801   -2.000
 7105.00    1.67869   1.47996   -2.000
 7106.00    1.68084   1.48093   -2.000
 7107.00    1.67949   1.48170   -2.000
 7108.00    1.67915   1.48157   -2.000
 7109.00    1.68219   1.48105   -2.000
 7110.00    1.68196   1.48017   -2.000
 7111.00    1.67234   1.47919   -2.000
 7112.00    1.66754   1.47836   -2.000
 7113.00    1.67457   1.47785   -2.000
 7114.00    1.67884   1.47746   -2.000
 7115.00    1.67725   1.47757   -2.000
 7116.00    1.68045   1.47779   -2.000
 7117.00    1.69244   1.47852   -2.000
 7118.00    1.71169   1.47902   -2.000
 7119.00    1.74261   1.47935   -2.000
 7120.00    1.77890   1.47962   -2.000
 7121.00    1.82275   1.47924   -2.000
 7122.00    1.83718   1.47870   -2.000
 7123.00    1.81513   1.47723   -2.000
 7124.00    1.80171   1.47535   -2.000
 7125.00    1.79772   1.47293   -2.000
 7126.00    1.79534   1.46989   -2.000
 7127.00    1.79451   1.46673   -2.000
 7128.00    1.80002   1.46335   -2.000
 7129.00    1.81094   1.46008   -2.000
 7130.00    1.81341   1.45702   -2.000
 7131.00    1.80954   1.45471   -2.000
 7132.00    1.79700   1.45337   -2.000
 7133.00    1.77875   1.45303   -2.000
 7134.00    1.74227   1.45358   -2.000
 7135.00    1.69529   1.45510   -2.000
 7136.00    1.69603   1.45768   -2.000
 7137.00    1.72072   1.46032   -2.000
 7138.00    1.75890   1.46326   -2.000
 7139.00    1.80294   1.46588   -2.000
 7140.00    1.80706   1.46863   -2.000
 7141.00    1.79632   1.47064   -2.000
 7142.00    1.76227   1.47205   -2.000
 7143.00    1.72087   1.47274   -2.000
 7144.00    1.71095   1.47242   -2.000
 7145.00    1.70934   1.47197   -2.000
 7146.00    1.68963   1.47074   -2.000
 7147.00    1.66602   1.46914   -2.000
 7148.00    1.66685   1.46802   -2.000
 7149.00    1.67185   1.46729   -2.000
 7150.00    1.66558   1.46738   -2.000
 7151.00    1.65786   1.46843   -2.000
 7152.00    1.68601   1.47031   -2.000
 7153.00    1.71742   1.47306   -2.000
 7154.00    1.70373   1.47624   -2.000
 7155.00    1.68757   1.47978   -2.000
 7156.00    1.70013   1.48322   -2.000
 7157.00    1.71290   1.48621   -2.000
 7158.00    1.68909   1.48899   -2.000
 7159.00    1.66835   1.49012   -2.000
 7160.00    1.71738   1.49042   -2.000
 7161.00    1.76689   1.48973   -2.000
 7162.00    1.82241   1.48792   -2.000
 7163.00    1.87305   1.48556   -2.000
 7164.00    1.88215   1.48270   -2.000
 7165.00    1.88217   1.48065   -2.000
 7166.00    1.82466   1.47896   -2.000
 7167.00    1.77892   1.47859   -2.000
 7168.00    1.79164   1.47920   -2.000
 7169.00    1.79972   1.48092   -2.000
 7170.00    1.78910   1.48362   -2.000
 7171.00    1.77142   1.48682   -2.000
 7172.00    1.73013   1.49023   -2.000
 7173.00    1.69229   1.49346   -2.000
 7174.00    1.66418   1.49632   -2.000
 7175.00    1.66066   1.49822   -2.000
 7176.00    1.71645   1.49915   -2.000
 7177.00    1.75721   1.49905   -2.000
 7178.00    1.76668   1.49793   -2.000
 7179.00    1.76876   1.49610   -2.000
 7180.00    1.75745   1.49361   -2.000
 7181.00    1.72559   1.49084   -2.000
 7182.00    1.66120   1.48822   -2.000
 7183.00    1.61911   1.48565   -2.000
 7184.00    1.60800   1.48330   -2.000
 7185.00    1.60756   1.48102   -2.000
 7186.00    1.62017   1.47859   -2.000
 7187.00    1.63836   1.47643   -2.000
 7188.00    1.66257   1.47423   -2.000
 7189.00    1.67977   1.47257   -2.000
 7190.00    1.69029   1.47171   -2.000
 7191.00    1.67814   1.47119   -2.000
 7192.00    1.64697   1.47147   -2.000
 7193.00    1.62386   1.47191   -2.000
 7194.00    1.60670   1.47323   -2.000
 7195.00    1.60645   1.47471   -2.000
 7196.00    1.61716   1.47656   -2.000
 7197.00    1.63039   1.47874   -2.000
 7198.00    1.64506   1.48053   -2.000
 7199.00    1.65185   1.48238   -2.000
 7200.00    1.65474   1.48359   -2.000
 7201.00    1.68014   1.48413   -2.000
 7202.00    1.71516   1.48445   -2.000
 7203.00    1.70005   1.48421   -2.000
 7204.00    1.66661   1.48368   -2.000
 7205.00    1.62383   1.48260   -2.000
 7206.00    1.57815   1.48090   -2.000
 7207.00    1.55935   1.47949   -2.000
 7208.00    1.54749   1.47792   -2.000
 7209.00    1.52938   1.47723   -2.000
 7210.00    1.50996   1.47721   -2.000
 7211.00    1.52125   1.47767   -2.000
 7212.00    1.53765   1.47909   -2.000
 7213.00    1.54352   1.48059   -2.000
 7214.00    1.54807   1.48279   -2.000
 7215.00    1.55888   1.48498   -2.000
 7216.00    1.57022   1.48767   -2.000
 7217.00    1.58311   1.49045   -2.000
 7218.00    1.59608   1.49293   -2.000
