###################################################################
## OUTPUT of StarlightChains_v04.for    [Cid@UFSC - 01/Apr/2007] ##
###################################################################

## Some input info
KUG0210-078._34_33.txt                   [arq_obs]
Base.CB07.vall.4m                        [arq_base]
Masks.EmLines.NEW.gm                     [arq_masks]
StCv04.C11.config                        [arq_config]
   66                                    [N_base]
    0                                    [N_YAV_components = # of components with extra extinction!]
    0                                    [i_FitPowerLaw (1/0 = Yes/No)]
-9.99                                    [alpha_PowerLaw]
CCM                                      [red_law_option]
 1.458241                                [q_norm = A(l_norm)/A(V)]

## (Re)Sampling Parameters
 3741.00                                 [l_ini (A)]
 7218.00                                 [l_fin (A)]
    1.00                                 [dl    (A)]     (OBS: dl_cushion =    50.00 A)

## Normalization info
 4020.00                                 [l_norm (A) - for base]
 4010.00                                 [llow_norm (A) - window for f_obs]
 4060.00                                 [lupp_norm (A) - window for f_obs]
7.069831E-17                             [fobs_norm (in input units)]

## S/N
 3691.00                                 [llow_SN (A) - window for S/N]
 7268.00                                 [lupp_SN (A) - window for S/N]
   4.252                                 [S/N in S/N window]
   3.324                                 [S/N in norm. window]
   0.147                                 [S/N_err in S/N window]
   0.115                                 [S/N_err in norm. window]
  1.0000                                 [fscale_chi2]

## etc...
    -2007538                             [idum_orig]
  2432                                   [NOl_eff]
  2426                                   [Nl_eff]
     6    NSIGMA                         [Ntot_cliped & clip_method]
  8051610                                [Nglobal_steps]
   7                                     [N_chains]
  42                                     [NEX0s_base = N_base in EX0s-fits]
 0   1   1        6   2.0   7.078E+03    [Clip-Bug, RC-Crash & Burn-In warning-flags, n_censored_weights, wei_nsig_threshold & wei_limit]
   305    302.936    301.994      0.942  [idt_all, wdt_TotTime, wdt_UsrTime & wdt_SysTime (sec)]

## Synthesis Results - Best model ##

 8.92139E-05                             [chi2/Nl_eff]
     5.47201                             [adev (%)]

   121.54503                             [sum-of-x (%)]
 2.24311E-17                             [Flux_tot (units of input spectrum!)]
 4.02248E-12                             [Mini_tot (???)]
 2.00004E-12                             [Mcor_tot (???)]

 -53.84                                  [v0_min  (km/s)]
 154.05                                  [vd_min  (km/s)]
-1.0000                                  [AV_min  (mag)]
 0.0000                                  [YAV_min (mag)]

# j     x_j(%)      Mini_j(%)     Mcor_j(%)     age_j(yr)     Z_j      (L/M)_j    YAV?  Mstars   component_j        a/Fe...       SSP_chi2r SSP_adev(%)   SSP_AV   SSP_x(%)
  1      0.0000     0.0000E+00    0.0000E+00    1.000000E+06  0.00400  1.094E-02    0   1.0000   age020_m42            0.0000     8.8803E-04    17.4008   3.5565   101.2243
  2      0.0000     0.0000E+00    0.0000E+00    3.160000E+06  0.00400  4.007E-02    0   0.9999   age045_m42            0.0000     7.7715E-04    16.4723   2.8197   108.6450
  3      0.0000     0.0000E+00    0.0000E+00    5.010000E+06  0.00400  2.539E-02    0   0.9488   age055_m42            0.0000     8.3076E-04    16.9514   3.1456   105.7418
  4      0.0000     0.0000E+00    0.0000E+00    6.610000E+06  0.00400  2.620E-02    0   0.9220   age061_m42            0.0000     7.8674E-04    16.5796   2.7457   108.8864
  5      0.0000     0.0000E+00    0.0000E+00    1.000000E+07  0.00400  1.322E-02    0   0.8862   age070_m42            0.0000     9.2762E-04    18.5143   2.4744   110.6671
  6      0.0000     0.0000E+00    0.0000E+00    1.445000E+07  0.00400  7.883E-03    0   0.8571   age078_m42            0.0000     9.4356E-04    18.5435   2.8027   107.8005
  7      0.0000     0.0000E+00    0.0000E+00    2.512000E+07  0.00400  5.251E-03    0   0.8174   age090_m42            0.0000     9.5196E-04    18.8436   2.3460   111.2224
  8      0.0000     0.0000E+00    0.0000E+00    4.000000E+07  0.00400  3.649E-03    0   0.7851   age104_m42            0.0000     9.0911E-04    18.4470   2.1162   112.2982
  9      0.0000     0.0000E+00    0.0000E+00    5.500000E+07  0.00400  3.098E-03    0   0.7629   age110_m42            0.0000     8.3060E-04    17.3892   2.2624   112.6479
 10      0.0000     0.0000E+00    0.0000E+00    1.015200E+08  0.00400  2.228E-03    0   0.7207   age116_m42            0.0000     7.8092E-04    16.6448   2.2770   113.1214
 11      0.0000     0.0000E+00    0.0000E+00    2.861200E+08  0.00400  1.093E-03    0   0.6648   age125_m42            0.0000     8.0858E-04    17.0309   1.7006   116.6150
 12      0.0000     0.0000E+00    0.0000E+00    5.088000E+08  0.00400  6.597E-04    0   0.6365   age130_m42            0.0000     7.1093E-04    15.7554   1.6845   117.9779
 13      0.0000     0.0000E+00    0.0000E+00    1.434000E+09  0.00400  2.132E-04    0   0.5798   age139_m42            0.0000     5.6916E-04    14.6143   0.7116   120.6144
 14      0.0000     0.0000E+00    0.0000E+00    4.250000E+09  0.00400  5.895E-05    0   0.5377   age158_m42            0.0000     4.5268E-04    13.1565   0.2686   116.1949
 15      0.0000     0.0000E+00    0.0000E+00    7.500000E+09  0.00400  3.510E-05    0   0.5212   age171_m42            0.0000     4.0281E-04    12.3801   0.0758   115.6404
 16      0.0000     0.0000E+00    0.0000E+00    1.300000E+10  0.00400  2.005E-05    0   0.5034   age193_m42            0.0000     3.6647E-04    11.7232  -0.0935   115.1785
 17      0.0000     0.0000E+00    0.0000E+00    1.800000E+10  0.00400  1.525E-05    0   0.4967   age213_m42            0.0000     3.7748E-04    11.9023  -0.1146   114.5909
 18      0.0000     0.0000E+00    0.0000E+00    1.000000E+06  0.00800  1.238E-02    0   1.0000   age020_m52            0.0000     8.8619E-04    17.3889   3.5528   101.4276
 19      0.0000     0.0000E+00    0.0000E+00    3.160000E+06  0.00800  3.074E-02    0   0.9966   age045_m52            0.0000     8.7152E-04    17.2647   3.4760   102.3642
 20      0.0000     0.0000E+00    0.0000E+00    5.010000E+06  0.00800  2.668E-02    0   0.9443   age055_m52            0.0000     8.4626E-04    17.1383   3.2299   104.7343
 21      0.0000     0.0000E+00    0.0000E+00    6.610000E+06  0.00800  2.136E-02    0   0.9177   age061_m52            0.0000     8.6328E-04    18.1521   1.9778   111.9121
 22      0.0000     0.0000E+00    0.0000E+00    1.000000E+07  0.00800  1.215E-02    0   0.8827   age070_m52            0.0000     9.9257E-04    19.2336   2.6556   110.2448
 23      0.0000     0.0000E+00    0.0000E+00    1.445000E+07  0.00800  8.717E-03    0   0.8552   age078_m52            0.0000     9.3500E-04    18.5476   2.7680   109.3171
 24      0.0000     0.0000E+00    0.0000E+00    2.512000E+07  0.00800  5.592E-03    0   0.8162   age090_m52            0.0000     9.5479E-04    18.9208   2.4081   112.5734
 25      0.0000     0.0000E+00    0.0000E+00    4.000000E+07  0.00800  3.896E-03    0   0.7841   age104_m52            0.0000     8.9949E-04    18.3024   2.3140   113.7209
 26      0.0000     0.0000E+00    0.0000E+00    1.015200E+08  0.00800  2.148E-03    0   0.7226   age116_m52            0.0000     8.0638E-04    17.1140   2.2455   113.9228
 27      0.0000     0.0000E+00    0.0000E+00    2.861200E+08  0.00800  9.925E-04    0   0.6683   age125_m52            0.0000     7.0677E-04    15.7670   1.7486   119.1191
 28      0.0000     0.0000E+00    0.0000E+00    9.047900E+08  0.00800  3.141E-04    0   0.6138   age135_m52            0.0000     5.1465E-04    13.6044   0.9364   124.8176
 29      0.0000     0.0000E+00    0.0000E+00    1.434000E+09  0.00800  1.719E-04    0   0.5853   age139_m52            0.0000     4.7603E-04    13.4334   0.3579   122.1927
 30      0.0934     5.4411E-03    6.1281E-03    2.500000E+09  0.00800  7.872E-05    0   0.5600   age150_m52            0.0000     3.5904E-04    11.7792   0.0872   119.2584
 31      0.0000     0.0000E+00    0.0000E+00    4.250000E+09  0.00800  4.336E-05    0   0.5426   age158_m52            0.0000     3.5548E-04    11.6869   0.0715   118.1667
 32      0.8893     1.2915E-01    1.3816E-01    6.250000E+09  0.00800  3.159E-05    0   0.5319   age166_m52            0.0000     2.9221E-04    10.5861  -0.1385   118.5627
 33      0.0000     0.0000E+00    0.0000E+00    1.300000E+10  0.00800  1.361E-05    0   0.5073   age193_m52            0.0000     2.2340E-04     9.2468  -0.6157   118.2565
 34      0.0000     0.0000E+00    0.0000E+00    1.800000E+10  0.00800  9.886E-06    0   0.4990   age213_m52            0.0000     1.7705E-04     8.1106  -0.7341   118.1628
 35      0.0000     0.0000E+00    0.0000E+00    1.000000E+06  0.02000  1.544E-02    0   1.0000   age020_m62            0.0000     8.8888E-04    17.4054   3.5492   101.6546
 36      0.0000     0.0000E+00    0.0000E+00    3.160000E+06  0.02000  3.762E-02    0   0.9858   age045_m62            0.0000     8.8298E-04    17.3387   3.4870   102.5935
 37      0.0000     0.0000E+00    0.0000E+00    5.010000E+06  0.02000  3.296E-02    0   0.9342   age055_m62            0.0000     7.9295E-04    16.5320   3.1018   107.2318
 38      0.0000     0.0000E+00    0.0000E+00    8.710000E+06  0.02000  1.154E-02    0   0.8861   age067_m62            0.0000     1.4108E-03    23.5519   2.1212   112.3102
 39      0.0000     0.0000E+00    0.0000E+00    1.445000E+07  0.02000  7.663E-03    0   0.8472   age078_m62            0.0000     1.0922E-03    20.4253   2.3022   112.5689
 40      0.0000     0.0000E+00    0.0000E+00    2.512000E+07  0.02000  4.532E-03    0   0.8099   age090_m62            0.0000     1.1158E-03    20.6211   2.2934   112.2466
 41      0.0000     0.0000E+00    0.0000E+00    5.500000E+07  0.02000  2.733E-03    0   0.7595   age110_m62            0.0000     8.9982E-04    18.3101   2.2994   112.8097
 42      0.0000     0.0000E+00    0.0000E+00    1.609000E+08  0.02000  1.369E-03    0   0.6985   age120_m62            0.0000     7.7341E-04    16.6011   2.1226   116.6838
 43      0.0000     0.0000E+00    0.0000E+00    2.861200E+08  0.02000  9.013E-04    0   0.6714   age125_m62            0.0000     6.9662E-04    15.5955   1.8626   120.5674
 44      0.0000     0.0000E+00    0.0000E+00    5.088000E+08  0.02000  5.028E-04    0   0.6449   age130_m62            0.0000     5.4780E-04    13.6518   1.4730   124.4286
 45      0.0000     0.0000E+00    0.0000E+00    9.047900E+08  0.02000  2.428E-04    0   0.6179   age135_m62            0.0000     4.2809E-04    12.5687   0.8816   124.0000
 46      0.0000     0.0000E+00    0.0000E+00    1.434000E+09  0.02000  1.263E-04    0   0.5908   age139_m62            0.0000     3.7609E-04    12.0414   0.4372   122.2572
 47      0.0000     0.0000E+00    0.0000E+00    2.500000E+09  0.02000  5.985E-05    0   0.5673   age150_m62            0.0000     2.9225E-04    10.6219   0.0641   120.9919
 48      0.0000     0.0000E+00    0.0000E+00    4.250000E+09  0.02000  3.271E-05    0   0.5468   age158_m62            0.0000     2.1090E-04     8.9875  -0.2519   120.5392
 49      1.6764     5.6552E-01    5.8769E-01    1.000000E+10  0.02000  1.360E-05    0   0.5167   age181_m62            0.0000     1.3968E-04     7.1438  -0.6176   120.8701
 50     56.5485     3.6418E+01    3.6717E+01    1.800000E+10  0.02000  7.124E-06    0   0.5013   age213_m62            0.0000     1.0156E-04     5.8072  -0.8412   120.5335
 51      0.0000     0.0000E+00    0.0000E+00    1.000000E+06  0.05000  2.592E-02    0   0.9998   age020_m72            0.0000     9.0338E-04    17.5552   3.5432   101.5985
 52      0.0000     0.0000E+00    0.0000E+00    3.160000E+06  0.05000  4.845E-02    0   0.9577   age045_m72            0.0000     8.3859E-04    16.9123   3.3673   104.0894
 53      0.0000     0.0000E+00    0.0000E+00    5.010000E+06  0.05000  3.072E-02    0   0.9147   age055_m72            0.0000     1.0204E-03    19.2794   2.8809   108.5067
 54      0.0000     0.0000E+00    0.0000E+00    6.610000E+06  0.05000  1.455E-02    0   0.8877   age061_m72            0.0000     1.7327E-03    26.0203   2.1441   113.2669
 55      0.0000     0.0000E+00    0.0000E+00    1.000000E+07  0.05000  9.074E-03    0   0.8524   age070_m72            0.0000     1.0856E-03    19.6264   3.0433   108.5258
 56      0.0000     0.0000E+00    0.0000E+00    2.512000E+07  0.05000  4.250E-03    0   0.7902   age090_m72            0.0000     1.0159E-03    19.1877   2.7516   110.5859
 57      0.0000     0.0000E+00    0.0000E+00    4.000000E+07  0.05000  3.087E-03    0   0.7618   age104_m72            0.0000     1.0262E-03    19.3373   2.5232   112.4631
 58      0.0000     0.0000E+00    0.0000E+00    1.015200E+08  0.05000  1.700E-03    0   0.7096   age116_m72            0.0000     8.4476E-04    17.3847   2.2660   116.0272
 59      0.0000     0.0000E+00    0.0000E+00    2.861200E+08  0.05000  7.384E-04    0   0.6633   age125_m72            0.0000     6.1111E-04    14.5613   1.7220   122.6826
 60      0.0000     0.0000E+00    0.0000E+00    5.088000E+08  0.05000  3.819E-04    0   0.6372   age130_m72            0.0000     4.5785E-04    12.8433   1.2232   125.1585
 61      0.0000     0.0000E+00    0.0000E+00    9.047900E+08  0.05000  1.676E-04    0   0.6110   age135_m72            0.0000     3.0233E-04    10.8045   0.5211   123.4177
 62      0.0000     0.0000E+00    0.0000E+00    1.434000E+09  0.05000  8.837E-05    0   0.5874   age139_m72            0.0000     2.7524E-04    10.3265   0.0572   123.0608
 63      0.0000     0.0000E+00    0.0000E+00    2.500000E+09  0.05000  4.233E-05    0   0.5598   age150_m72            0.0000     1.8747E-04     8.4188  -0.2600   121.9367
 64      0.0000     0.0000E+00    0.0000E+00    6.250000E+09  0.05000  1.435E-05    0   0.5249   age166_m72            0.0000     1.2610E-04     6.6707  -0.7202   120.6343
 65      0.9546     6.7247E-01    6.8111E-01    1.300000E+10  0.05000  6.513E-06    0   0.5036   age193_m72            0.0000     9.1481E-05     5.4031  -1.0000   121.8257
 66     61.3829     6.2209E+01    6.1870E+01    1.800000E+10  0.05000  4.527E-06    0   0.4945   age213_m72            0.0000     1.1390E-04     6.6619  -1.0000   115.2668


## Synthesis Results - Average & Chains ##

# j      x_j: min, <> & last-chain-values for 1 ...  7 chains
  1      0.0000      1.4635      0.0011      0.6261      0.0000      0.1988      0.4151      0.3234      0.0567
  2      0.0000      1.7185      0.5171      0.4515      0.0000      0.9159      0.0000      0.1318      0.6819
  3      0.0000      1.1947      0.4596      0.1775      0.0000      0.0000      0.0000      0.2425      0.0534
  4      0.0000      1.3842      0.2740      0.0000      0.4390      0.4688      0.2778      0.1473      0.4981
  5      0.0000      1.4856      0.0000      0.0000      0.0835      1.4651      1.1910      0.3630      0.5091
  6      0.0000      1.1546      0.0261      0.0000      0.6089      0.0000      0.1268      0.2740      0.2203
  7      0.0000      0.8990      0.0269      0.2458      0.5055      0.9577      0.6909      0.0000      0.0000
  8      0.0000      1.3181      0.7219      0.0000      2.4957      0.3408      0.5043      0.0000      0.0000
  9      0.0000      1.7397      0.5726      0.7270      1.8482      0.8730      0.0000      1.0988      1.0420
 10      0.0000      1.5297      0.0000      0.2088      0.0000      0.4593      0.0000      0.1223      0.0481
 11      0.0000      1.3029      0.1385      0.9323      0.4574      0.9400      0.0000      0.0000      0.0281
 12      0.0000      1.0697      0.0000      0.5950      1.4642      0.6422      1.8126      1.4896      1.5646
 13      0.0000      1.0391      0.5590      0.5862      0.5963      0.6308      1.2268      0.5116      0.0000
 14      0.0000      2.2957      5.3369      5.1349      3.8153      5.5071      5.3433      5.1736      5.6966
 15      0.0000      2.1534      3.9293      3.6178      4.6727      3.9299      4.4296      3.5860      3.5656
 16      0.0000      3.0498      5.4857      5.2311      5.6963      6.2495      6.0732      5.6618      5.3820
 17      0.0000      2.3537      4.4947      3.9809      4.6584      4.2867      4.9066      4.9593      5.2125
 18      0.0000      1.3827      0.3295      0.0000      0.0140      0.9234      0.0000      0.4876      0.4041
 19      0.0000      1.0728      0.4160      0.5485      0.0163      0.1253      0.0400      0.1421      0.0155
 20      0.0000      0.9372      0.2412      0.1901      0.6144      0.0003      0.6724      0.0000      0.0785
 21      0.0000      0.9766      0.1499      1.0311      0.0166      0.0498      0.1027      0.2967      0.2665
 22      0.0000      0.9214      0.7254      0.9695      0.7279      0.0000      0.4553      0.0000      0.4981
 23      0.0000      1.1800      0.7303      0.0000      0.1285      0.2293      0.0000      0.0000      0.3900
 24      0.0000      1.5101      1.0247      0.1455      0.2201      0.0000      0.0000      0.0860      0.0955
 25      0.0000      3.2027      9.3923      8.9646      9.3427      7.8985     10.3090     11.1501      9.4698
 26      0.0000      1.3160      3.0363      1.3050      1.4392      0.7268      1.3080      1.7360      1.2343
 27      0.0000      1.6388      1.8494      0.5744      0.0000      0.5278      1.5686      0.0000      0.0000
 28      0.0000      1.5216      1.5215      1.6970      2.2224      3.0131      0.7114      2.0117      0.4273
 29      0.0000      1.7609      0.9059      0.2782      0.5756      0.4078      0.4372      0.0000      1.3173
 30      0.0934      2.6694      4.9494      5.2628      5.1317      4.0190      4.8364      4.7973      4.5887
 31      0.0000      1.4898      1.3862      1.4490      1.1603      2.4582      1.5149      1.5962      2.6560
 32      0.8893      1.6983      2.8994      1.6915      3.3707      3.4607      3.2868      2.2482      2.7981
 33      0.0000      1.8967      3.5905      2.7203      2.4278      2.9910      2.5736      3.3132      2.3716
 34      0.0000      1.8246      2.4694      2.2192      1.7597      2.0698      2.1709      2.7262      2.5042
 35      0.0000      0.9921      0.0000      1.0138      1.1255      0.4528      0.0817      0.6565      0.6730
 36      0.0000      1.2732      0.5123      0.2983      0.1522      0.0446      0.3433      0.2004      0.9036
 37      0.0000      1.0694      1.6589      0.7352      1.2321      0.8092      1.5768      1.9098      0.8159
 38      0.0000      1.4399      0.0000      0.0089      0.0161      0.2084      0.0000      0.3378      0.1846
 39      0.0000      1.1802      0.0597      0.0810      0.6249      0.0000      0.3478      0.0000      0.4422
 40      0.0000      1.3895      0.0000      0.7868      0.6025      0.9026      0.2181      0.3241      0.6945
 41      0.0000      1.0008      0.5932      0.5281      0.0000      0.3469      0.0000      0.5613      0.3594
 42      0.0000      1.1680      0.0324      0.0000      0.0000      0.0268      0.1619      0.0000      0.6861
 43      0.0000      1.3436      0.0000      0.0698      0.0000      0.4058      0.0000      0.2313      0.2729
 44      0.0000      1.0022      0.3002      0.0671      0.5944      0.3581      0.0408      0.0617      0.1302
 45      0.0000      1.1930      1.5729      2.4792      1.4704      1.5215      1.6314      1.6604      1.4411
 46      0.0000      1.1057      0.4538      0.0000      0.4696      0.3563      0.1135      0.2812      0.3096
 47      0.0000      1.6894      0.8184      0.9222      0.6904      1.5608      0.5495      1.4534      2.5661
 48      0.0000      1.9310      3.9990      3.4173      3.6472      3.8501      3.3342      4.2885      3.6629
 49      1.6764      2.0283      5.0498      4.4559      4.1380      3.1945      4.9411      4.7788      4.4919
 50     56.5485      3.9705     12.4408     13.4832     12.3871     12.7586     12.3322     11.9120     11.9256
 51      0.0000      0.9533      0.0000      0.2014      0.0000      0.0000      0.9469      0.2481      0.2945
 52      0.0000      1.2931      1.1693      0.4988      1.2743      1.1682      1.8714      1.3479      0.8004
 53      0.0000      1.0127      0.0000      0.5467      0.2659      0.1158      0.6088      0.0369      0.6522
 54      0.0000      0.8230      0.0907      0.3604      0.0000      0.0457      0.0000      0.2454      0.0313
 55      0.0000      0.8467      0.3441      0.1168      0.7998      0.1333      0.4563      0.1369      0.1356
 56      0.0000      1.0805      0.0148      0.0371      0.4617      0.1343      0.0982      0.6787      0.3205
 57      0.0000      1.2778      0.5971      1.8730      0.3878      1.0096      1.2737      1.3013      1.3854
 58      0.0000      0.8127      0.3459      0.0000      0.0000      0.0000      0.3353      0.1779      0.2144
 59      0.0000      1.2928      0.3779      0.3274      0.0000      0.1373      0.5737      1.1347      0.0000
 60      0.0000      1.6834      0.0963      0.4827      0.1022      0.2407      0.8770      0.1648      0.5989
 61      0.0000      1.5832      0.3561      0.0000      0.0309      0.4582      0.4718      0.0000      0.0620
 62      0.0000      1.3656      0.2961      3.5977      0.5153      0.6575      0.1937      0.6276      0.2670
 63      0.0000      1.6051      1.2335      1.7773      1.9303      2.1147      0.9509      1.0601      2.0926
 64      0.0000      1.7723      2.2562      2.1181      2.1491      1.2352      2.3773      2.3121      1.8403
 65      0.9546      2.5663      3.6785      4.1226      4.9152      1.5996      4.9445      3.4157      4.5305
 66     61.3829      2.0251      3.5214      2.7563      2.5334      2.9219      2.4929      2.5648      2.3655

# j      m_j: min, <> & last-chain-values for 1 ...  7 chains
  1  0.0000E+00  9.5840E-03  3.7563E-06  2.1959E-03  0.0000E+00  7.6353E-04  1.4406E-03  1.1697E-03  2.0265E-04
  2  0.0000E+00  3.0723E-03  4.8069E-04  4.3227E-04  0.0000E+00  9.6040E-04  0.0000E+00  1.3013E-04  6.6568E-04
  3  0.0000E+00  3.1985E-03  6.3983E-04  2.5443E-04  0.0000E+00  0.0000E+00  0.0000E+00  3.5860E-04  7.8017E-05
  4  0.0000E+00  3.4899E-03  3.5920E-04  0.0000E+00  6.0164E-04  6.9331E-04  3.7109E-04  2.0502E-04  6.8573E-04
  5  0.0000E+00  7.1350E-03  0.0000E+00  0.0000E+00  2.1801E-04  4.1270E-03  3.0309E-03  9.6285E-04  1.3351E-03
  6  0.0000E+00  8.9938E-03  1.0583E-04  0.0000E+00  2.5787E-03  0.0000E+00  5.2323E-04  1.1787E-03  9.3694E-04
  7  0.0000E+00  1.0026E-02  1.5593E-04  1.4678E-03  3.0647E-03  6.2644E-03  4.0828E-03  0.0000E+00  0.0000E+00
  8  0.0000E+00  2.0318E-02  5.7867E-03  0.0000E+00  2.0913E-02  3.0813E-03  4.1193E-03  0.0000E+00  0.0000E+00
  9  0.0000E+00  3.0694E-02  5.2530E-03  6.8689E-03  1.7726E-02  9.0335E-03  0.0000E+00  1.0706E-02  1.0038E-02
 10  0.0000E+00  3.5451E-02  0.0000E+00  2.5911E-03  0.0000E+00  6.2430E-03  0.0000E+00  1.5653E-03  6.0868E-04
 11  0.0000E+00  5.6775E-02  3.1389E-03  2.1758E-02  1.0835E-02  2.4025E-02  0.0000E+00  0.0000E+00  6.6880E-04
 12  0.0000E+00  7.3944E-02  0.0000E+00  2.2027E-02  5.5023E-02  2.6035E-02  6.6394E-02  5.6861E-02  5.9059E-02
 13  0.0000E+00  2.0246E-01  5.6639E-02  6.1162E-02  6.3162E-02  7.2090E-02  1.2665E-01  5.5040E-02  0.0000E+00
 14  0.0000E+00  1.5002E+00  1.8136E+00  1.7970E+00  1.3554E+00  2.1108E+00  1.8503E+00  1.8670E+00  2.0328E+00
 15  0.0000E+00  2.2909E+00  2.1737E+00  2.0612E+00  2.7023E+00  2.4522E+00  2.4970E+00  2.1067E+00  2.0713E+00
 16  0.0000E+00  5.4859E+00  5.1312E+00  5.0392E+00  5.5701E+00  6.5934E+00  5.7887E+00  5.6241E+00  5.2864E+00
 17  0.0000E+00  5.4924E+00  5.4540E+00  4.9748E+00  5.9093E+00  5.8669E+00  6.0669E+00  6.3907E+00  6.6419E+00
 18  0.0000E+00  8.0020E-03  9.9155E-04  0.0000E+00  4.4028E-05  3.1341E-03  0.0000E+00  1.5584E-03  1.2769E-03
 19  0.0000E+00  2.4919E-03  5.0244E-04  6.8226E-04  2.0574E-05  1.7074E-04  4.9184E-05  1.8226E-04  1.9685E-05
 20  0.0000E+00  2.3765E-03  3.1800E-04  2.5816E-04  8.4691E-04  4.5045E-07  9.0350E-04  0.0000E+00  1.0867E-04
 21  0.0000E+00  3.0062E-03  2.3999E-04  1.6997E-03  2.7739E-05  8.9942E-05  1.6751E-04  5.0435E-04  4.4788E-04
 22  0.0000E+00  4.7960E-03  1.9632E-03  2.7025E-03  2.0595E-03  0.0000E+00  1.2558E-03  0.0000E+00  1.4157E-03
 23  0.0000E+00  8.2942E-03  2.6692E-03  0.0000E+00  4.9085E-04  9.4528E-04  0.0000E+00  0.0000E+00  1.4968E-03
 24  0.0000E+00  1.5791E-02  5.5719E-03  8.1479E-04  1.2511E-03  0.0000E+00  0.0000E+00  4.9650E-04  5.4516E-04
 25  0.0000E+00  4.6180E-02  7.0422E-02  6.9223E-02  7.3232E-02  6.6798E-02  7.8765E-02  8.8784E-02  7.4561E-02
 26  0.0000E+00  3.1719E-02  3.8054E-02  1.6844E-02  1.8856E-02  1.0274E-02  1.6704E-02  2.3105E-02  1.6244E-02
 27  0.0000E+00  7.9056E-02  4.6395E-02  1.4839E-02  0.0000E+00  1.4934E-02  4.0097E-02  0.0000E+00  0.0000E+00
 28  0.0000E+00  2.1304E-01  1.1077E-01  1.2724E-01  1.6915E-01  2.4742E-01  5.2777E-02  1.5554E-01  3.2666E-02
 29  0.0000E+00  4.2956E-01  1.1492E-01  3.6340E-02  7.6332E-02  5.8350E-02  5.6511E-02  0.0000E+00  1.7547E-01
 30  6.1281E-03  1.3605E+00  1.3117E+00  1.4365E+00  1.4218E+00  1.2014E+00  1.3061E+00  1.3502E+00  1.2771E+00
 31  0.0000E+00  1.3356E+00  6.4628E-01  6.9569E-01  5.6552E-01  1.2926E+00  7.1970E-01  7.9029E-01  1.3003E+00
 32  1.3816E-01  2.0487E+00  1.8187E+00  1.0928E+00  2.2104E+00  2.4486E+00  2.1009E+00  1.4977E+00  1.8432E+00
 33  0.0000E+00  5.0652E+00  4.9859E+00  3.8903E+00  3.5245E+00  4.6847E+00  3.6418E+00  4.8860E+00  3.4584E+00
 34  0.0000E+00  6.5982E+00  4.6436E+00  4.2979E+00  3.4594E+00  4.3900E+00  4.1600E+00  5.4442E+00  4.9450E+00
 35  0.0000E+00  4.6037E-03  0.0000E+00  2.5193E-03  2.8391E-03  1.2324E-03  2.0083E-04  1.6823E-03  1.7051E-03
 36  0.0000E+00  2.3902E-03  5.0009E-04  2.9996E-04  1.5534E-04  4.9115E-05  3.4154E-04  2.0771E-04  9.2632E-04
 37  0.0000E+00  2.1715E-03  1.7517E-03  7.9948E-04  1.3601E-03  9.6372E-04  1.6967E-03  2.1416E-03  9.0471E-04
 38  0.0000E+00  7.9212E-03  0.0000E+00  2.6346E-05  4.8030E-05  6.7257E-04  0.0000E+00  1.0264E-03  5.5460E-04
 39  0.0000E+00  9.3477E-03  2.4569E-04  3.4366E-04  2.6909E-03  0.0000E+00  1.4597E-03  0.0000E+00  1.9126E-03
 40  0.0000E+00  1.7790E-02  0.0000E+00  5.3946E-03  4.1935E-03  6.7781E-03  1.4795E-03  2.2916E-03  4.8554E-03
 41  0.0000E+00  1.9925E-02  6.1414E-03  5.6308E-03  0.0000E+00  4.0515E-03  0.0000E+00  6.1714E-03  3.9070E-03
 42  0.0000E+00  4.2695E-02  6.1516E-04  0.0000E+00  0.0000E+00  5.7476E-04  3.1354E-03  0.0000E+00  1.3696E-02
 43  0.0000E+00  7.1706E-02  0.0000E+00  1.9946E-03  0.0000E+00  1.2702E-02  0.0000E+00  6.8160E-03  7.9542E-03
 44  0.0000E+00  9.2094E-02  1.4344E-02  3.3001E-03  2.9694E-02  1.9299E-02  1.9842E-03  3.1286E-03  6.5316E-03
 45  0.0000E+00  2.1752E-01  1.4913E-01  2.4208E-01  1.4574E-01  1.6271E-01  1.5761E-01  1.6718E-01  1.4347E-01
 46  0.0000E+00  3.7057E-01  7.9083E-02  0.0000E+00  8.5547E-02  7.0036E-02  2.0156E-02  5.2041E-02  5.6663E-02
 47  0.0000E+00  1.1472E+00  2.8900E-01  3.3540E-01  2.5489E-01  6.2166E-01  1.9775E-01  5.4505E-01  9.5158E-01
 48  0.0000E+00  2.3126E+00  2.4905E+00  2.1918E+00  2.3746E+00  2.7045E+00  2.1159E+00  2.8363E+00  2.3955E+00
 49  5.8769E-01  5.5210E+00  7.1477E+00  6.4954E+00  6.1231E+00  5.1001E+00  7.1266E+00  7.1833E+00  6.6765E+00
 50  3.6717E+01  2.0017E+01  3.2614E+01  3.6403E+01  3.3948E+01  3.7726E+01  3.2944E+01  3.3164E+01  3.2830E+01
 51  0.0000E+00  2.6344E-03  0.0000E+00  2.9804E-04  0.0000E+00  0.0000E+00  1.3866E-03  3.7867E-04  4.4444E-04
 52  0.0000E+00  1.8313E-03  8.6107E-04  3.7826E-04  9.8104E-04  9.7037E-04  1.4043E-03  1.0542E-03  6.1896E-04
 53  0.0000E+00  2.1604E-03  0.0000E+00  6.2457E-04  3.0841E-04  1.4493E-04  6.8813E-04  4.3446E-05  7.5967E-04
 54  0.0000E+00  3.5972E-03  2.0611E-04  8.4373E-04  0.0000E+00  1.1721E-04  0.0000E+00  5.9225E-04  7.4826E-05
 55  0.0000E+00  5.6985E-03  1.2043E-03  4.2109E-04  2.9261E-03  5.2605E-04  1.6273E-03  5.0869E-04  4.9829E-04
 56  0.0000E+00  1.4393E-02  1.0278E-04  2.6501E-04  3.3436E-03  1.0491E-03  6.9344E-04  4.9922E-03  2.3313E-03
 57  0.0000E+00  2.2591E-02  5.4898E-03  1.7734E-02  3.7271E-03  1.0469E-02  1.1933E-02  1.2706E-02  1.3375E-02
 58  0.0000E+00  2.4305E-02  5.3784E-03  0.0000E+00  0.0000E+00  0.0000E+00  5.3137E-03  2.9375E-03  3.5011E-03
 59  0.0000E+00  8.3199E-02  1.2645E-02  1.1285E-02  0.0000E+00  5.1840E-03  1.9563E-02  4.0329E-02  0.0000E+00
 60  0.0000E+00  2.0123E-01  5.9870E-03  3.0898E-02  6.6435E-03  1.6873E-02  5.5553E-02  1.0878E-02  3.9096E-02
 61  0.0000E+00  4.1350E-01  4.8359E-02  0.0000E+00  4.3927E-03  7.0193E-02  6.5300E-02  0.0000E+00  8.8391E-03
 62  0.0000E+00  6.5035E-01  7.3334E-02  9.1755E-01  1.3341E-01  1.8366E-01  4.8887E-02  1.6505E-01  6.9423E-02
 63  0.0000E+00  1.5208E+00  6.0772E-01  9.0183E-01  9.9422E-01  1.1752E+00  4.7739E-01  5.5465E-01  1.0826E+00
 64  0.0000E+00  4.6446E+00  3.0746E+00  2.9727E+00  3.0617E+00  1.8986E+00  3.3012E+00  3.3460E+00  2.6335E+00
 65  6.8111E-01  1.4217E+01  1.0596E+01  1.2231E+01  1.4802E+01  5.1974E+00  1.4514E+01  1.0449E+01  1.3705E+01
 66  6.1870E+01  1.5848E+01  1.4330E+01  1.1552E+01  1.0778E+01  1.3412E+01  1.0338E+01  1.1084E+01  1.0109E+01

# AV, chi2 & Mass for <> & i_chain = 1 ...  7 solutions
AV      -1.0000      0.5024      0.4372      0.4666      0.4940      0.5663      0.4514      0.5011      0.4750
chi2 8.9214E-05  1.9530E-03  6.4622E-04  6.7669E-04  6.8576E-04  7.6819E-04  6.3732E-04  6.9236E-04  6.7867E-04
Mass 2.0000E-12  1.9376E-12  3.4138E-12  3.4484E-12  3.5243E-12  3.5998E-12  3.4148E-12  3.5028E-12  3.4204E-12
 -53.84                                  [v0_min (km/s) before EX0s...]
 154.05                                  [vd_min (km/s) before EX0s...]


## Synthetic spectrum (Best Model) ##l_obs f_obs f_syn wei
 3478    [Nl_obs]
 3741.00    0.31662   0.49911    0.000
 3742.00    0.31059   0.46457    0.000
 3743.00    0.30171   0.41864    0.000
 3744.00    0.29526   0.37542    0.000
 3745.00    0.29021   0.34158    0.173
 3746.00    0.30939   0.32058    0.174
 3747.00    0.34087   0.31692    0.174
 3748.00    0.34516   0.33378    0.177
 3749.00    0.33749   0.37244    0.182
 3750.00    0.35052   0.43132    0.180
 3751.00    0.37136   0.50131    0.175
 3752.00    0.38951   0.56591    0.173
 3753.00    0.40679   0.60901    0.172
 3754.00    0.45599   0.62054    0.173
 3755.00    0.51374   0.59906    0.175
 3756.00    0.51029   0.55459    0.173
 3757.00    0.49342   0.50630    0.170
 3758.00    0.45317   0.47372    0.169
 3759.00    0.40884   0.46465    0.168
 3760.00    0.37181   0.47078    0.215
 3761.00    0.33576   0.47921    0.316
 3762.00    0.35060   0.48320    0.220
 3763.00    0.37022   0.48219    0.162
 3764.00    0.38225   0.48259    0.159
 3765.00    0.39384   0.49266    0.158
 3766.00    0.42584   0.51398    0.162
 3767.00    0.45817   0.54579    0.165
 3768.00    0.47243   0.58840    0.161
 3769.00    0.48532   0.63507    0.158
 3770.00    0.46498   0.67435    0.155
 3771.00    0.44674   0.70074    0.153
 3772.00    0.45608   0.71458    0.154
 3773.00    0.46808   0.71746    0.156
 3774.00    0.50353   0.71280    0.155
 3775.00    0.53310   0.70743    0.155
 3776.00    0.52463   0.70857    0.156
 3777.00    0.52015   0.71776    0.157
 3778.00    0.53590   0.73170    0.160
 3779.00    0.54818   0.74741    0.162
 3780.00    0.54628   0.76108    0.166
 3781.00    0.54337   0.76662    0.168
 3782.00    0.53698   0.75806    0.167
 3783.00    0.52525   0.73218    0.166
 3784.00    0.49822   0.68937    0.168
 3785.00    0.48234   0.63359    0.170
 3786.00    0.49367   0.57573    0.169
 3787.00    0.49167   0.53166    0.168
 3788.00    0.46160   0.51016    0.166
 3789.00    0.44734   0.50730    0.166
 3790.00    0.46205   0.51335    0.167
 3791.00    0.47251   0.51843    0.168
 3792.00    0.47614   0.51491    0.167
 3793.00    0.47204   0.50220    0.166
 3794.00    0.45707   0.48533    0.163
 3795.00    0.44325   0.47011    0.160
 3796.00    0.43087   0.46120    0.156
 3797.00    0.39479   0.46151    0.154
 3798.00    0.33288   0.47381    0.155
 3799.00    0.33475   0.50139    0.156
 3800.00    0.39790   0.54219    0.159
 3801.00    0.44892   0.58541    0.161
 3802.00    0.48965   0.61860    0.162
 3803.00    0.49242   0.63452    0.161
 3804.00    0.46687   0.63308    0.158
 3805.00    0.45647   0.62132    0.156
 3806.00    0.45600   0.60908    0.154
 3807.00    0.47020   0.60432    0.152
 3808.00    0.49281   0.60824    0.150
 3809.00    0.48783   0.61195    0.150
 3810.00    0.46906   0.60344    0.150
 3811.00    0.45667   0.57748    0.153
 3812.00    0.44704   0.53714    0.156
 3813.00    0.46153   0.49205    0.155
 3814.00    0.48497   0.45349    0.153
 3815.00    0.46000   0.42599    0.152
 3816.00    0.41981   0.40695    0.151
 3817.00    0.38966   0.39196    0.155
 3818.00    0.36215   0.37743    0.160
 3819.00    0.36045   0.36280    0.155
 3820.00    0.36428   0.35091    0.148
 3821.00    0.36440   0.34359    0.147
 3822.00    0.36390   0.33779    0.146
 3823.00    0.37617   0.32855    0.148
 3824.00    0.39008   0.31609    0.150
 3825.00    0.32431   0.30690    0.149
 3826.00    0.25139   0.30657    0.147
 3827.00    0.24694   0.31446    0.150
 3828.00    0.24618   0.32482    0.154
 3829.00    0.26275   0.33172    0.154
 3830.00    0.27996   0.33265    0.154
 3831.00    0.32188   0.32916    0.156
 3832.00    0.36066   0.32610    0.159
 3833.00    0.32976   0.32798    0.156
 3834.00    0.29927   0.33451    0.153
 3835.00    0.27372   0.34115    0.151
 3836.00    0.25361   0.34277    0.150
 3837.00    0.27945   0.33855    0.153
 3838.00    0.30734   0.33547    0.154
 3839.00    0.34812   0.34323    0.152
 3840.00    0.38658   0.36547    0.151
 3841.00    0.41355   0.39893    0.155
 3842.00    0.43848   0.43574    0.158
 3843.00    0.45527   0.46632    0.159
 3844.00    0.46626   0.48488    0.158
 3845.00    0.45793   0.49093    0.156
 3846.00    0.45270   0.48694    0.155
 3847.00    0.45621   0.47741    0.000
 3848.00    0.46336   0.46680    0.000
 3849.00    0.47927   0.45788    0.000
 3850.00    0.48632   0.45286    0.000
 3851.00    0.47497   0.45167    0.000
 3852.00    0.46711   0.44893    0.000
 3853.00    0.46552   0.43892    0.000
 3854.00    0.45288   0.42179    0.000
 3855.00    0.42284   0.40060    0.000
 3856.00    0.40035   0.37846    0.000
 3857.00    0.38832   0.36030    0.000
 3858.00    0.38767   0.35182    0.000
 3859.00    0.40087   0.35720    0.000
 3860.00    0.42478   0.37727    0.000
 3861.00    0.46019   0.40711    0.000
 3862.00    0.48091   0.43673    0.000
 3863.00    0.48772   0.45650    0.000
 3864.00    0.48445   0.46286    0.000
 3865.00    0.47275   0.45881    0.000
 3866.00    0.48815   0.44897    0.000
 3867.00    0.52347   0.43558    0.000
 3868.00    0.51552   0.41993    0.000
 3869.00    0.47961   0.40563    0.000
 3870.00    0.44859   0.39895    0.000
 3871.00    0.42033   0.40542    0.000
 3872.00    0.42968   0.42495    0.000
 3873.00    0.45754   0.45038    0.000
 3874.00    0.47057   0.47056    0.000
 3875.00    0.47731   0.47650    0.000
 3876.00    0.47016   0.46736    0.000
 3877.00    0.45795   0.45026    0.000
 3878.00    0.45005   0.43523    0.000
 3879.00    0.44348   0.43059    0.000
 3880.00    0.43523   0.43795    0.000
 3881.00    0.42656   0.45144    0.148
 3882.00    0.45888   0.46451    0.148
 3883.00    0.49977   0.47417    0.148
 3884.00    0.50066   0.47769    0.151
 3885.00    0.49495   0.47509    0.154
 3886.00    0.46779   0.47647    0.154
 3887.00    0.43796   0.49577    0.154
 3888.00    0.46365   0.53574    0.153
 3889.00    0.49408   0.58728    0.152
 3890.00    0.51875   0.63800    0.152
 3891.00    0.54313   0.67644    0.153
 3892.00    0.53845   0.69574    0.151
 3893.00    0.53399   0.69703    0.149
 3894.00    0.57468   0.68703    0.155
 3895.00    0.61456   0.67336    0.161
 3896.00    0.63790   0.66235    0.158
 3897.00    0.65477   0.65611    0.154
 3898.00    0.59516   0.65199    0.148
 3899.00    0.54000   0.64834    0.142
 3900.00    0.52118   0.64635    0.139
 3901.00    0.51034   0.64426    0.137
 3902.00    0.54833   0.63735    0.139
 3903.00    0.57754   0.62752    0.140
 3904.00    0.56448   0.62372    0.137
 3905.00    0.55499   0.63207    0.135
 3906.00    0.55949   0.65440    0.136
 3907.00    0.57048   0.68914    0.137
 3908.00    0.60266   0.72872    0.139
 3909.00    0.64100   0.76318    0.141
 3910.00    0.69631   0.78731    0.144
 3911.00    0.72878   0.80117    0.147
 3912.00    0.70727   0.80535    0.147
 3913.00    0.68971   0.79921    0.148
 3914.00    0.68018   0.78307    0.150
 3915.00    0.66620   0.75788    0.152
 3916.00    0.64433   0.72402    0.154
 3917.00    0.61840   0.68355    0.154
 3918.00    0.58617   0.64083    0.152
 3919.00    0.57126   0.60086    0.151
 3920.00    0.57997   0.56970    0.152
 3921.00    0.58079   0.55191    0.152
 3922.00    0.57212   0.54544    0.153
 3923.00    0.55637   0.54153    0.153
 3924.00    0.53312   0.53008    0.153
 3925.00    0.50047   0.50437    0.152
 3926.00    0.45903   0.46404    0.150
 3927.00    0.44196   0.41461    0.149
 3928.00    0.44496   0.36358    0.151
 3929.00    0.40220   0.31747    0.148
 3930.00    0.32627   0.28031    0.144
 3931.00    0.29188   0.25400    0.143
 3932.00    0.28392   0.24000    0.146
 3933.00    0.29095   0.23982    0.146
 3934.00    0.30632   0.25434    0.144
 3935.00    0.31507   0.28317    0.143
 3936.00    0.32062   0.32380    0.142
 3937.00    0.36597   0.37054    0.144
 3938.00    0.42797   0.41565    0.147
 3939.00    0.46614   0.45215    0.149
 3940.00    0.49579   0.47668    0.149
 3941.00    0.49802   0.49241    0.149
 3942.00    0.49196   0.50747    0.148
 3943.00    0.52480   0.52895    0.149
 3944.00    0.56743   0.55992    0.152
 3945.00    0.60785   0.59984    0.155
 3946.00    0.64783   0.64330    0.158
 3947.00    0.65806   0.68259    0.157
 3948.00    0.66354   0.71461    0.155
 3949.00    0.71463   0.74161    0.158
 3950.00    0.77117   0.76472    0.162
 3951.00    0.74767   0.78093    0.162
 3952.00    0.71766   0.78793    0.161
 3953.00    0.72270   0.78824    0.160
 3954.00    0.72935   0.78418    0.158
 3955.00    0.70074   0.77291    0.158
 3956.00    0.67187   0.75147    0.158
 3957.00    0.65217   0.72076    0.157
 3958.00    0.63086   0.68116    0.156
 3959.00    0.57890   0.63101    0.155
 3960.00    0.52803   0.57148    0.000
 3961.00    0.48956   0.50966    0.000
 3962.00    0.45705   0.45455    0.000
 3963.00    0.47132   0.40921    0.000
 3964.00    0.47476   0.36944    0.000
 3965.00    0.41383   0.33173    0.000
 3966.00    0.35910   0.29899    0.000
 3967.00    0.33350   0.27840    0.000
 3968.00    0.32547   0.27610    0.000
 3969.00    0.38479   0.29407    0.000
 3970.00    0.43128   0.33051    0.000
 3971.00    0.43675   0.38136    0.000
 3972.00    0.43967   0.44150    0.000
 3973.00    0.43570   0.50661    0.000
 3974.00    0.46065   0.57406    0.000
 3975.00    0.55273   0.64166    0.000
 3976.00    0.63035   0.70652    0.000
 3977.00    0.67891   0.76526    0.000
 3978.00    0.73420   0.81455    0.000
 3979.00    0.80126   0.85117    0.000
 3980.00    0.85057   0.87374    0.000
 3981.00    0.87270   0.88523    0.163
 3982.00    0.86968   0.89249    0.164
 3983.00    0.83286   0.90330    0.163
 3984.00    0.81270   0.92135    0.163
 3985.00    0.81229   0.94373    0.163
 3986.00    0.85258   0.96495    0.164
 3987.00    0.93537   0.98156    0.165
 3988.00    0.96050   0.99292    0.163
 3989.00    0.93254   0.99966    0.159
 3990.00    0.91770   1.00405    0.155
 3991.00    0.91353   1.00898    0.153
 3992.00    0.90990   1.01230    0.153
 3993.00    0.90666   1.00902    0.153
 3994.00    0.88524   0.99918    0.154
 3995.00    0.85241   0.98951    0.155
 3996.00    0.84656   0.98841    0.155
 3997.00    0.85550   1.00108    0.155
 3998.00    0.86766   1.02808    0.155
 3999.00    0.88135   1.06259    0.155
 4000.00    0.90385   1.09003    0.156
 4001.00    0.92997   1.09696    0.157
 4002.00    0.99165   1.08137    0.159
 4003.00    1.06582   1.05085    0.161
 4004.00    1.08581   1.01700    0.162
 4005.00    1.08976   0.99468    0.164
 4006.00    1.03109   0.99654    0.162
 4007.00    0.95702   1.02206    0.159
 4008.00    0.96428   1.05731    0.160
 4009.00    0.98770   1.08878    0.162
 4010.00    1.00442   1.11219    0.162
 4011.00    1.02009   1.12984    0.162
 4012.00    1.03138   1.14419    0.164
 4013.00    1.04216   1.15572    0.166
 4014.00    1.02604   1.16433    0.167
 4015.00    1.00784   1.17010    0.168
 4016.00    1.02902   1.17299    0.168
 4017.00    1.05187   1.17354    0.168
 4018.00    1.05077   1.17387    0.167
 4019.00    1.04923   1.17388    0.167
 4020.00    1.03856   1.16929    0.169
 4021.00    1.02991   1.15918    0.171
 4022.00    1.05692   1.14899    0.170
 4023.00    1.07944   1.14459    0.169
 4024.00    1.05381   1.14808    0.167
 4025.00    1.02955   1.15652    0.167
 4026.00    1.01578   1.16087    0.167
 4027.00    1.00000   1.14832    0.168
 4028.00    0.97270   1.10984    0.169
 4029.00    0.94238   1.04699    0.169
 4030.00    0.89823   0.97440    0.166
 4031.00    0.86026   0.91578    0.163
 4032.00    0.84546   0.89180    0.163
 4033.00    0.85216   0.90857    0.164
 4034.00    0.92622   0.95967    0.165
 4035.00    0.99073   1.03111    0.166
 4036.00    1.02980   1.10333    0.165
 4037.00    1.05713   1.15775    0.165
 4038.00    1.05766   1.18364    0.163
 4039.00    1.04551   1.17938    0.162
 4040.00    1.00827   1.14871    0.161
 4041.00    0.97174   1.09650    0.161
 4042.00    0.93643   1.02884    0.163
 4043.00    0.91107   0.95592    0.164
 4044.00    0.90071   0.89513    0.165
 4045.00    0.88815   0.86911    0.165
 4046.00    0.87268   0.89228    0.162
 4047.00    0.90267   0.95713    0.162
 4048.00    0.98572   1.03687    0.163
 4049.00    1.03470   1.10304    0.163
 4050.00    1.04861   1.14078    0.162
 4051.00    1.03216   1.14878    0.161
 4052.00    0.98814   1.13277    0.162
 4053.00    0.97335   1.10195    0.162
 4054.00    0.98195   1.06655    0.162
 4055.00    0.98824   1.03537    0.162
 4056.00    0.99290   1.01454    0.161
 4057.00    0.98573   1.00447    0.161
 4058.00    0.97126   0.99964    0.162
 4059.00    0.95389   0.99247    0.161
 4060.00    0.93495   0.97555    0.159
 4061.00    0.91842   0.94613    0.159
 4062.00    0.90301   0.91227    0.159
 4063.00    0.89856   0.89120    0.160
 4064.00    0.89854   0.89803    0.160
 4065.00    0.91498   0.93220    0.160
 4066.00    0.93709   0.97609    0.159
 4067.00    0.94821   1.01047    0.159
 4068.00    0.95614   1.02828    0.160
 4069.00    0.93521   1.03058    0.162
 4070.00    0.90734   1.02122    0.164
 4071.00    0.91234   1.00830    0.163
 4072.00    0.92371   1.00111    0.162
 4073.00    0.96696   1.00024    0.162
 4074.00    1.01500   0.99610    0.164
 4075.00    0.95373   0.98399    0.161
 4076.00    0.88037   0.97509    0.158
 4077.00    0.88665   0.98623    0.158
 4078.00    0.89876   1.02383    0.158
 4079.00    0.96179   1.07811    0.161
 4080.00    1.02677   1.12960    0.163
 4081.00    1.02323   1.16301    0.164
 4082.00    1.02110   1.17593    0.164
 4083.00    1.08620   1.17883    0.165
 4084.00    1.14631   1.18730    0.165
 4085.00    1.12401   1.21002    0.166
 4086.00    1.10382   1.24370    0.167
 4087.00    1.10542   1.27758    0.167
 4088.00    1.10316   1.29999    0.167
 4089.00    1.07257   1.30417    0.167
 4090.00    1.05112   1.29093    0.166
 4091.00    1.08096   1.26603    0.166
 4092.00    1.10236   1.23468    0.000
 4093.00    1.08600   1.19905    0.000
 4094.00    1.07039   1.16004    0.000
 4095.00    1.05749   1.11869    0.000
 4096.00    1.02602   1.07878    0.000
 4097.00    0.93745   1.04541    0.000
 4098.00    0.87697   1.01912    0.000
 4099.00    0.88993   0.99812    0.000
 4100.00    0.88453   0.98481    0.000
 4101.00    0.83789   0.98578    0.000
 4102.00    0.83727   1.00643    0.000
 4103.00    0.92619   1.04404    0.000
 4104.00    0.98500   1.08705    0.000
 4105.00    0.99268   1.12316    0.000
 4106.00    1.00162   1.14477    0.000
 4107.00    1.01243   1.14866    0.000
 4108.00    1.02457   1.13792    0.000
 4109.00    1.03847   1.12202    0.000
 4110.00    1.04480   1.11118    0.000
 4111.00    1.04242   1.11174    0.000
 4112.00    1.05472   1.12379    0.000
 4113.00    1.08193   1.14121    0.163
 4114.00    1.11337   1.15490    0.163
 4115.00    1.14862   1.15776    0.160
 4116.00    1.14832   1.14856    0.160
 4117.00    1.11997   1.13133    0.163
 4118.00    1.09516   1.11238    0.163
 4119.00    1.07281   1.09888    0.163
 4120.00    1.05611   1.09591    0.164
 4121.00    1.04285   1.10209    0.165
 4122.00    1.04945   1.11207    0.165
 4123.00    1.06661   1.12205    0.165
 4124.00    1.08987   1.12882    0.166
 4125.00    1.11594   1.12779    0.167
 4126.00    1.11960   1.11491    0.165
 4127.00    1.11436   1.09022    0.161
 4128.00    1.05998   1.05795    0.160
 4129.00    0.98897   1.02279    0.159
 4130.00    0.98345   0.98993    0.158
 4131.00    0.99657   0.96639    0.157
 4132.00    1.00713   0.95971    0.156
 4133.00    1.01709   0.97476    0.155
 4134.00    1.02657   1.00913    0.155
 4135.00    1.03595   1.05223    0.156
 4136.00    1.04626   1.09098    0.157
 4137.00    1.05671   1.11342    0.159
 4138.00    1.08700   1.11256    0.161
 4139.00    1.11940   1.08817    0.163
 4140.00    1.09886   1.04410    0.164
 4141.00    1.07466   0.99027    0.164
 4142.00    1.01211   0.94265    0.161
 4143.00    0.94823   0.91714    0.158
 4144.00    0.95744   0.92152    0.158
 4145.00    0.96738   0.94882    0.158
 4146.00    0.99674   0.98038    0.159
 4147.00    1.02432   0.99973    0.161
 4148.00    1.02437   1.00289    0.163
 4149.00    1.02531   0.99480    0.164
 4150.00    1.03504   0.98258    0.164
 4151.00    1.04142   0.97176    0.163
 4152.00    1.02399   0.96451    0.163
 4153.00    1.01024   0.96140    0.163
 4154.00    1.01658   0.96412    0.164
 4155.00    1.01746   0.97525    0.164
 4156.00    0.99448   0.99641    0.160
 4157.00    0.98026   1.02642    0.158
 4158.00    0.99755   1.06147    0.160
 4159.00    1.01549   1.09547    0.162
 4160.00    1.03537   1.12171    0.162
 4161.00    1.05676   1.13602    0.162
 4162.00    1.08205   1.13719    0.165
 4163.00    1.09255   1.12585    0.166
 4164.00    1.07040   1.10457    0.162
 4165.00    1.05472   1.08014    0.161
 4166.00    1.05146   1.06051    0.162
 4167.00    1.04754   1.04772    0.163
 4168.00    1.04253   1.03817    0.164
 4169.00    1.02145   1.02607    0.163
 4170.00    0.97684   1.00595    0.160
 4171.00    0.97289   0.97846    0.160
 4172.00    1.02134   0.95159    0.163
 4173.00    1.02983   0.93499    0.164
 4174.00    0.99298   0.93322    0.164
 4175.00    0.98609   0.94233    0.163
 4176.00    1.00920   0.95508    0.162
 4177.00    1.01625   0.96751    0.160
 4178.00    1.00912   0.97902    0.157
 4179.00    1.02822   0.99065    0.158
 4180.00    1.06773   1.00330    0.160
 4181.00    1.07241   1.01701    0.161
 4182.00    1.05326   1.03174    0.161
 4183.00    1.02843   1.04570    0.160
 4184.00    1.00021   1.05406    0.159
 4185.00    0.99504   1.05326    0.159
 4186.00    1.00192   1.04559    0.160
 4187.00    1.03789   1.03856    0.160
 4188.00    1.08706   1.04076    0.159
 4189.00    1.10380   1.05428    0.158
 4190.00    1.10787   1.07142    0.157
 4191.00    1.09151   1.08241    0.157
 4192.00    1.06836   1.08194    0.157
 4193.00    1.04456   1.06757    0.157
 4194.00    1.02057   1.03837    0.156
 4195.00    0.99137   0.99882    0.156
 4196.00    0.96098   0.96001    0.156
 4197.00    0.95149   0.93221    0.156
 4198.00    0.94585   0.91890    0.156
 4199.00    0.96619   0.91851    0.156
 4200.00    0.99021   0.92911    0.156
 4201.00    1.00315   0.94931    0.154
 4202.00    1.01495   0.97853    0.153
 4203.00    1.02982   1.01684    0.154
 4204.00    1.04488   1.06020    0.156
 4205.00    1.08798   1.10036    0.156
 4206.00    1.13186   1.13109    0.155
 4207.00    1.12424   1.14964    0.156
 4208.00    1.11656   1.15550    0.157
 4209.00    1.10700   1.15040    0.158
 4210.00    1.09849   1.13665    0.159
 4211.00    1.10533   1.11708    0.157
 4212.00    1.11149   1.09510    0.155
 4213.00    1.11126   1.07566    0.155
 4214.00    1.11161   1.06818    0.156
 4215.00    1.11592   1.08291    0.156
 4216.00    1.12143   1.12210    0.156
 4217.00    1.13329   1.17539    0.157
 4218.00    1.14043   1.22172    0.158
 4219.00    1.12743   1.23968    0.157
 4220.00    1.10960   1.21865    0.156
 4221.00    1.07470   1.15870    0.155
 4222.00    1.04281   1.06708    0.154
 4223.00    1.01983   0.95927    0.155
 4224.00    0.98980   0.85936    0.155
 4225.00    0.94195   0.79317    0.154
 4226.00    0.92346   0.77880    0.154
 4227.00    0.96878   0.81974    0.156
 4228.00    1.01059   0.90160    0.156
 4229.00    1.04580   0.99504    0.156
 4230.00    1.07566   1.06902    0.155
 4231.00    1.09672   1.10837    0.154
 4232.00    1.12307   1.11576    0.154
 4233.00    1.15707   1.10310    0.153
 4234.00    1.16630   1.08621    0.153
 4235.00    1.14410   1.07735    0.153
 4236.00    1.13564   1.08034    0.152
 4237.00    1.14257   1.09605    0.151
 4238.00    1.17096   1.12450    0.151
 4239.00    1.22054   1.16185    0.152
 4240.00    1.23481   1.20390    0.154
 4241.00    1.21835   1.24728    0.155
 4242.00    1.21676   1.28568    0.157
 4243.00    1.22656   1.30995    0.158
 4244.00    1.22401   1.31285    0.160
 4245.00    1.21313   1.29074    0.161
 4246.00    1.21105   1.24451    0.161
 4247.00    1.21418   1.18399    0.160
 4248.00    1.19077   1.12480    0.160
 4249.00    1.15369   1.07921    0.161
 4250.00    1.14330   1.05145    0.163
 4251.00    1.14480   1.03997    0.166
 4252.00    1.14489   1.04204    0.165
 4253.00    1.14444   1.05326    0.162
 4254.00    1.11264   1.06889    0.160
 4255.00    1.07063   1.08634    0.160
 4256.00    1.05754   1.10118    0.158
 4257.00    1.05234   1.10601    0.155
 4258.00    1.05732   1.09957    0.155
 4259.00    1.06457   1.09384    0.157
 4260.00    1.10058   1.10744    0.159
 4261.00    1.14173   1.14907    0.162
 4262.00    1.12199   1.21057    0.161
 4263.00    1.09393   1.27183    0.160
 4264.00    1.13511   1.31072    0.162
 4265.00    1.18305   1.31421    0.164
 4266.00    1.18656   1.28122    0.164
 4267.00    1.18735   1.21714    0.163
 4268.00    1.14005   1.13176    0.160
 4269.00    1.09127   1.04071    0.158
 4270.00    1.00736   0.96121    0.156
 4271.00    0.92709   0.90746    0.155
 4272.00    0.94288   0.89001    0.154
 4273.00    0.96387   0.91267    0.154
 4274.00    1.05620   0.96761    0.159
 4275.00    1.14337   1.03858    0.164
 4276.00    1.18371   1.11001    0.164
 4277.00    1.21937   1.16718    0.163
 4278.00    1.22394   1.19861    0.164
 4279.00    1.22473   1.20433    0.164
 4280.00    1.20601   1.19420    0.161
 4281.00    1.18977   1.18034    0.159
 4282.00    1.18388   1.16979   -2.000
 4283.00    1.16535   1.15987   -2.000
 4284.00    1.10318   1.14474   -2.000
 4285.00    1.05945   1.12096   -2.000
 4286.00    1.06935   1.08829   -2.000
 4287.00    1.07130   1.05207   -2.000
 4288.00    1.05353   1.02039   -2.000
 4289.00    1.06118   1.00124   -2.000
 4290.00    1.12317   1.00120   -2.000
 4291.00    1.15804   1.02061   -2.000
 4292.00    1.14255   1.04876   -2.000
 4293.00    1.12461   1.06917   -2.000
 4294.00    1.10269   1.06938   -2.000
 4295.00    1.08015   1.04567   -2.000
 4296.00    1.05671   1.00296   -2.000
 4297.00    1.00992   0.94869   -2.000
 4298.00    0.93392   0.89280    0.156
 4299.00    0.88849   0.84748    0.153
 4300.00    0.87679   0.82039    0.150
 4301.00    0.87496   0.81125    0.149
 4302.00    0.88274   0.81110    0.149
 4303.00    0.86945   0.80732    0.149
 4304.00    0.83809   0.79386    0.148
 4305.00    0.81317   0.77265    0.147
 4306.00    0.79311   0.75080    0.147
 4307.00    0.79832   0.74042    0.148
 4308.00    0.82032   0.75285    0.149
 4309.00    0.89103   0.79362    0.150
 4310.00    0.99008   0.86162    0.151
 4311.00    1.04908   0.95000    0.150
 4312.00    1.08778   1.05144    0.150
 4313.00    1.13968   1.16049    0.151
 4314.00    1.19739   1.27044    0.152
 4315.00    1.23665   1.37078    0.154
 4316.00    1.26898   1.44933    0.155
 4317.00    1.28963   1.49442    0.157
 4318.00    1.30655   1.49817    0.160
 4319.00    1.32014   1.46297    0.162
 4320.00    1.33284   1.39753    0.163
 4321.00    1.28615   1.31076    0.159
 4322.00    1.22647   1.21525    0.154
 4323.00    1.16495   1.13070    0.151
 4324.00    1.10310   1.07907    0.149
 4325.00    1.13336   1.07829    0.152
 4326.00    1.17579   1.13079    0.156
 4327.00    1.23986   1.21958    0.156
 4328.00    1.30595   1.31682    0.157
 4329.00    1.36435   1.39750    0.157
 4330.00    1.42230   1.45155    0.000
 4331.00    1.42422   1.48355    0.000
 4332.00    1.42450   1.50033    0.000
 4333.00    1.38670   1.50022    0.000
 4334.00    1.34930   1.47512    0.000
 4335.00    1.32143   1.42147    0.000
 4336.00    1.29057   1.34578    0.000
 4337.00    1.22072   1.26381    0.000
 4338.00    1.15852   1.19753    0.000
 4339.00    1.16316   1.16681    0.000
 4340.00    1.17786   1.17628    0.000
 4341.00    1.25759   1.21623    0.000
 4342.00    1.32436   1.27298    0.000
 4343.00    1.32574   1.33220    0.000
 4344.00    1.32612   1.38259    0.000
 4345.00    1.32242   1.42123    0.000
 4346.00    1.32180   1.44750    0.000
 4347.00    1.33160   1.45555    0.000
 4348.00    1.33474   1.44038    0.000
 4349.00    1.31887   1.40421    0.000
 4350.00    1.30472   1.35602    0.000
 4351.00    1.29474   1.31100    0.160
 4352.00    1.28953   1.28701    0.162
 4353.00    1.29433   1.29407    0.163
 4354.00    1.30274   1.32491    0.165
 4355.00    1.31775   1.36114    0.167
 4356.00    1.33552   1.38946    0.169
 4357.00    1.35771   1.40813    0.172
 4358.00    1.38488   1.42171    0.173
 4359.00    1.41903   1.43664    0.171
 4360.00    1.46049   1.45882    0.170
 4361.00    1.51096   1.48838    0.170
 4362.00    1.51899   1.51708    0.168
 4363.00    1.48085   1.53421    0.163
 4364.00    1.45559   1.53413    0.161
 4365.00    1.44266   1.51762    0.162
 4366.00    1.41450   1.48880    0.161
 4367.00    1.37346   1.45454    0.158
 4368.00    1.36656   1.42342    0.158
 4369.00    1.38509   1.39918    0.161
 4370.00    1.37492   1.37745    0.162
 4371.00    1.34595   1.35144    0.161
 4372.00    1.30977   1.32117    0.159
 4373.00    1.26944   1.29420    0.156
 4374.00    1.25662   1.28024    0.156
 4375.00    1.25752   1.28485    0.159
 4376.00    1.27340   1.30335    0.159
 4377.00    1.29576   1.31976    0.159
 4378.00    1.27806   1.31366    0.159
 4379.00    1.24554   1.27145    0.160
 4380.00    1.17742   1.19548    0.157
 4381.00    1.09812   1.10427    0.153
 4382.00    1.10689   1.02474    0.155
 4383.00    1.13869   0.98057    0.159
 4384.00    1.14731   0.98305    0.157
 4385.00    1.15098   1.02683    0.154
 4386.00    1.17296   1.09089    0.153
 4387.00    1.19803   1.15050    0.153
 4388.00    1.24818   1.19241    0.155
 4389.00    1.30154   1.21919    0.157
 4390.00    1.29709   1.23985    0.158
 4391.00    1.28749   1.26097    0.159
 4392.00    1.28956   1.28574    0.159
 4393.00    1.29225   1.31479    0.159
 4394.00    1.31369   1.34667    0.160
 4395.00    1.33572   1.37785    0.160
 4396.00    1.37651   1.40245    0.160
 4397.00    1.41552   1.41309    0.160
 4398.00    1.41537   1.40383    0.161
 4399.00    1.41219   1.37429    0.161
 4400.00    1.37154   1.32973    0.161
 4401.00    1.32932   1.27613    0.161
 4402.00    1.27388   1.21942    0.160
 4403.00    1.22371   1.16723    0.160
 4404.00    1.20656   1.12932    0.159
 4405.00    1.19278   1.11803    0.159
 4406.00    1.19554   1.14223    0.159
 4407.00    1.21106   1.19775    0.158
 4408.00    1.27749   1.26907    0.157
 4409.00    1.33686   1.33935    0.156
 4410.00    1.37277   1.39414    0.158
 4411.00    1.39916   1.42084    0.160
 4412.00    1.39883   1.41523    0.162
 4413.00    1.40279   1.38806    0.162
 4414.00    1.41706   1.35964    0.161
 4415.00    1.42313   1.34869    0.160
 4416.00    1.41228   1.36398    0.162
 4417.00    1.40712   1.39924    0.162
 4418.00    1.41222   1.43535    0.160
 4419.00    1.42126   1.45492    0.159
 4420.00    1.43650   1.45265    0.159
 4421.00    1.44502   1.43469    0.159
 4422.00    1.44427   1.41289    0.159
 4423.00    1.45381   1.39795    0.159
 4424.00    1.47587   1.39419    0.160
 4425.00    1.47167   1.39850    0.160
 4426.00    1.43930   1.40432    0.158
 4427.00    1.40889   1.40735    0.157
 4428.00    1.38033   1.40628    0.156
 4429.00    1.37337   1.40046    0.157
 4430.00    1.38442   1.38866    0.160
 4431.00    1.39154   1.37081    0.161
 4432.00    1.39577   1.35080    0.161
 4433.00    1.40284   1.33500    0.162
 4434.00    1.41174   1.33153    0.164
 4435.00    1.41542   1.34799    0.163
 4436.00    1.41616   1.38375    0.161
 4437.00    1.42466   1.42626    0.162
 4438.00    1.43697   1.45721    0.163
 4439.00    1.43035   1.46469    0.162
 4440.00    1.41569   1.45179    0.161
 4441.00    1.42598   1.43361    0.162
 4442.00    1.44534   1.42751    0.163
 4443.00    1.46120   1.44275    0.163
 4444.00    1.47598   1.47582    0.163
 4445.00    1.52646   1.51419    0.164
 4446.00    1.58607   1.54477    0.165
 4447.00    1.58342   1.55961    0.166
 4448.00    1.56780   1.55772    0.166
 4449.00    1.54981   1.54197    0.165
 4450.00    1.53142   1.51355    0.163
 4451.00    1.52511   1.47264    0.161
 4452.00    1.52028   1.42268    0.160
 4453.00    1.46479   1.36973    0.159
 4454.00    1.40500   1.32100    0.158
 4455.00    1.34921   1.28306    0.157
 4456.00    1.29362   1.25861    0.155
 4457.00    1.31845   1.24574    0.154
 4458.00    1.34435   1.24060    0.153
 4459.00    1.35740   1.24231    0.154
 4460.00    1.36986   1.25435    0.155
 4461.00    1.37056   1.27962    0.000
 4462.00    1.37352   1.31553    0.000
 4463.00    1.40313   1.35493    0.000
 4464.00    1.43308   1.38939    0.000
 4465.00    1.46578   1.41225    0.000
 4466.00    1.49388   1.42316    0.000
 4467.00    1.49397   1.42875    0.000
 4468.00    1.49751   1.43711    0.000
 4469.00    1.51754   1.45371    0.000
 4470.00    1.53768   1.48049    0.000
 4471.00    1.55822   1.51595    0.000
 4472.00    1.57623   1.55500    0.000
 4473.00    1.58601   1.59123    0.000
 4474.00    1.59798   1.61956    0.000
 4475.00    1.61597   1.63578    0.000
 4476.00    1.62546   1.63597    0.000
 4477.00    1.61494   1.61820    0.000
 4478.00    1.59324   1.58497    0.000
 4479.00    1.54881   1.54536    0.000
 4480.00    1.51836   1.51426    0.000
 4481.00    1.51269   1.50562    0.000
 4482.00    1.52960   1.52365    0.155
 4483.00    1.58153   1.55918    0.156
 4484.00    1.60925   1.59484    0.157
 4485.00    1.60398   1.61400    0.157
 4486.00    1.61163   1.60907    0.158
 4487.00    1.63478   1.58460    0.158
 4488.00    1.61857   1.55276    0.158
 4489.00    1.56077   1.52522    0.157
 4490.00    1.54060   1.50701    0.157
 4491.00    1.55551   1.49538    0.157
 4492.00    1.56119   1.48484    0.157
 4493.00    1.55929   1.47381    0.156
 4494.00    1.55857   1.46745    0.156
 4495.00    1.55870   1.47371    0.156
 4496.00    1.56651   1.49680    0.156
 4497.00    1.57921   1.53285    0.156
 4498.00    1.59107   1.57296    0.157
 4499.00    1.60246   1.61062    0.157
 4500.00    1.61057   1.64513    0.156
 4501.00    1.61708   1.67881    0.155
 4502.00    1.64410   1.71202    0.155
 4503.00    1.67967   1.74111    0.157
 4504.00    1.67947   1.76036    0.157
 4505.00    1.66651   1.76598    0.155
 4506.00    1.68019   1.76000    0.155
 4507.00    1.70190   1.74847    0.155
 4508.00    1.68706   1.73553    0.154
 4509.00    1.66307   1.72086    0.153
 4510.00    1.66704   1.70178    0.154
 4511.00    1.67669   1.67731    0.155
 4512.00    1.62991   1.65030    0.154
 4513.00    1.57413   1.62627    0.153
 4514.00    1.58606   1.61045    0.153
 4515.00    1.60604   1.60524    0.154
 4516.00    1.60142   1.61001    0.154
 4517.00    1.59480   1.62208    0.153
 4518.00    1.58306   1.63705    0.153
 4519.00    1.57108   1.64897    0.153
 4520.00    1.57449   1.65117    0.153
 4521.00    1.57836   1.63752    0.152
 4522.00    1.59598   1.60523    0.153
 4523.00    1.61047   1.55638    0.154
 4524.00    1.56631   1.49737    0.153
 4525.00    1.51966   1.43694    0.152
 4526.00    1.44502   1.38396    0.150
 4527.00    1.38073   1.34605    0.149
 4528.00    1.39740   1.32802    0.149
 4529.00    1.40758   1.32922    0.149
 4530.00    1.37939   1.34328    0.148
 4531.00    1.36229   1.36217    0.148
 4532.00    1.39717   1.38119    0.149
 4533.00    1.42949   1.40175    0.151
 4534.00    1.45202   1.42879    0.152
 4535.00    1.47104   1.46456    0.154
 4536.00    1.47889   1.50511    0.152
 4537.00    1.50353   1.54149    0.152
 4538.00    1.57355   1.56513    0.154
 4539.00    1.62565   1.57351    0.155
 4540.00    1.63620   1.57100    0.155
 4541.00    1.63738   1.56485    0.155
 4542.00    1.61978   1.55922    0.153
 4543.00    1.59888   1.55393    0.151
 4544.00    1.57219   1.54753    0.150
 4545.00    1.54614   1.53957    0.149
 4546.00    1.52108   1.53126    0.148
 4547.00    1.51663   1.52455    0.148
 4548.00    1.53987   1.52003    0.152
 4549.00    1.55219   1.51673    0.154
 4550.00    1.55161   1.51369    0.000
 4551.00    1.56112   1.51129    0.000
 4552.00    1.58115   1.51193    0.000
 4553.00    1.58200   1.51950    0.000
 4554.00    1.56522   1.53810    0.000
 4555.00    1.56095   1.56923    0.000
 4556.00    1.56682   1.60852    0.000
 4557.00    1.60340   1.64704    0.000
 4558.00    1.66187   1.67547    0.000
 4559.00    1.68462   1.68750    0.000
 4560.00    1.68502   1.68175    0.000
 4561.00    1.67422   1.66214    0.000
 4562.00    1.65730   1.63655    0.000
 4563.00    1.63017   1.61496    0.000
 4564.00    1.59819   1.60578    0.000
 4565.00    1.62629   1.61190    0.000
 4566.00    1.67904   1.62908    0.000
 4567.00    1.69098   1.64765    0.000
 4568.00    1.68862   1.65855    0.000
 4569.00    1.69815   1.65915    0.000
 4570.00    1.71119   1.65419    0.000
 4571.00    1.71061   1.65135    0.000
 4572.00    1.70668   1.65455    0.000
 4573.00    1.69936   1.66089    0.000
 4574.00    1.69137   1.66394    0.000
 4575.00    1.69121   1.65696    0.000
 4576.00    1.69228   1.63663    0.000
 4577.00    1.66841   1.60620    0.000
 4578.00    1.64169   1.57329    0.000
 4579.00    1.63164   1.54567    0.000
 4580.00    1.62287   1.52882    0.000
 4581.00    1.61492   1.52391    0.000
 4582.00    1.60701   1.52825    0.000
 4583.00    1.62147   1.53822    0.000
 4584.00    1.63605   1.55222    0.000
 4585.00    1.64735   1.57054    0.000
 4586.00    1.66012   1.59300    0.000
 4587.00    1.69868   1.61554    0.000
 4588.00    1.72996   1.63075    0.000
 4589.00    1.68332   1.63226    0.000
 4590.00    1.63935   1.61852    0.000
 4591.00    1.61561   1.59392    0.000
 4592.00    1.59849   1.56634    0.000
 4593.00    1.61949   1.54301    0.000
 4594.00    1.63074   1.52809    0.000
 4595.00    1.59746   1.52210    0.000
 4596.00    1.56350   1.52290    0.000
 4597.00    1.52701   1.52749    0.000
 4598.00    1.51763   1.53310    0.000
 4599.00    1.59306   1.53778    0.000
 4600.00    1.64804   1.54119    0.000
 4601.00    1.64878   1.54449    0.000
 4602.00    1.64129   1.54979    0.000
 4603.00    1.61506   1.56060    0.000
 4604.00    1.61132   1.58040    0.000
 4605.00    1.65192   1.61049    0.000
 4606.00    1.68438   1.64833    0.000
 4607.00    1.70284   1.68674    0.000
 4608.00    1.71822   1.71645    0.000
 4609.00    1.72897   1.73111    0.000
 4610.00    1.74777   1.73085    0.000
 4611.00    1.77723   1.72214    0.000
 4612.00    1.77787   1.71372    0.000
 4613.00    1.74490   1.71167    0.000
 4614.00    1.72587   1.71666    0.000
 4615.00    1.72117   1.72500    0.000
 4616.00    1.72038   1.73232    0.000
 4617.00    1.72313   1.73624    0.000
 4618.00    1.72978   1.73693    0.000
 4619.00    1.73954   1.73622    0.000
 4620.00    1.73883   1.73509    0.000
 4621.00    1.73076   1.73311    0.000
 4622.00    1.72296   1.72963    0.000
 4623.00    1.71533   1.72426    0.000
 4624.00    1.73527   1.71758    0.000
 4625.00    1.77007   1.71137    0.000
 4626.00    1.75860   1.70714    0.000
 4627.00    1.72550   1.70501    0.000
 4628.00    1.72464   1.70408    0.000
 4629.00    1.73679   1.70237    0.000
 4630.00    1.73911   1.69711    0.000
 4631.00    1.73807   1.68612    0.000
 4632.00    1.71008   1.66913    0.000
 4633.00    1.67429   1.64751    0.000
 4634.00    1.65731   1.62308    0.000
 4635.00    1.64484   1.59802    0.000
 4636.00    1.65191   1.57484    0.000
 4637.00    1.66275   1.55618    0.000
 4638.00    1.66336   1.54441    0.000
 4639.00    1.66243   1.54007    0.000
 4640.00    1.62791   1.54020    0.000
 4641.00    1.58968   1.53838    0.000
 4642.00    1.58193   1.52797    0.000
 4643.00    1.57640   1.50640    0.000
 4644.00    1.56230   1.47754    0.000
 4645.00    1.54788   1.45054    0.000
 4646.00    1.53093   1.43597    0.000
 4647.00    1.51536   1.44042    0.000
 4648.00    1.55155   1.46314    0.000
 4649.00    1.58659   1.49672    0.000
 4650.00    1.60292   1.53056    0.000
 4651.00    1.62084   1.55548    0.000
 4652.00    1.65499   1.56803    0.000
 4653.00    1.68342   1.57182    0.000
 4654.00    1.67010   1.57554    0.000
 4655.00    1.66279   1.58795    0.000
 4656.00    1.68902   1.61247    0.000
 4657.00    1.71330   1.64456    0.000
 4658.00    1.72885   1.67346    0.000
 4659.00    1.74359   1.68735    0.000
 4660.00    1.75535   1.67914    0.000
 4661.00    1.75066   1.64883    0.000
 4662.00    1.69547   1.60194    0.000
 4663.00    1.64565   1.54622    0.000
 4664.00    1.60984   1.48988    0.000
 4665.00    1.57011   1.44161    0.000
 4666.00    1.52161   1.41057    0.000
 4667.00    1.49978   1.40353    0.000
 4668.00    1.52971   1.42119    0.000
 4669.00    1.55938   1.45633    0.000
 4670.00    1.58860   1.49731    0.000
 4671.00    1.60657   1.53359    0.000
 4672.00    1.60784   1.55980    0.000
 4673.00    1.62843   1.57611    0.000
 4674.00    1.67421   1.58467    0.000
 4675.00    1.67254   1.58633    0.000
 4676.00    1.61634   1.58030    0.000
 4677.00    1.58749   1.56663    0.000
 4678.00    1.58637   1.54844    0.000
 4679.00    1.59945   1.53174    0.000
 4680.00    1.62523   1.52250    0.000
 4681.00    1.62339   1.52358    0.000
 4682.00    1.59980   1.53316    0.000
 4683.00    1.59691   1.54586    0.000
 4684.00    1.60837   1.55589    0.000
 4685.00    1.61953   1.55994    0.000
 4686.00    1.63050   1.55805    0.000
 4687.00    1.63635   1.55262    0.000
 4688.00    1.63949   1.54689    0.000
 4689.00    1.61147   1.54367    0.000
 4690.00    1.56911   1.54484    0.000
 4691.00    1.59282   1.55116    0.000
 4692.00    1.64270   1.56169    0.000
 4693.00    1.66029   1.57293    0.000
 4694.00    1.66698   1.57956    0.000
 4695.00    1.62607   1.57652    0.000
 4696.00    1.57163   1.56185    0.000
 4697.00    1.55917   1.53813    0.000
 4698.00    1.55653   1.51143    0.000
 4699.00    1.60102   1.48816    0.000
 4700.00    1.65437   1.47259    0.000
 4701.00    1.59093   1.46590    0.000
 4702.00    1.51050   1.46675    0.000
 4703.00    1.51176   1.47200    0.000
 4704.00    1.52166   1.47797    0.000
 4705.00    1.55696   1.48226    0.000
 4706.00    1.59400   1.48513    0.000
 4707.00    1.57050   1.48915    0.000
 4708.00    1.54494   1.49692    0.000
 4709.00    1.60587   1.50856    0.000
 4710.00    1.66387   1.52143    0.000
 4711.00    1.62198   1.53236    0.000
 4712.00    1.58270   1.54104    0.000
 4713.00    1.58368   1.55103    0.000
 4714.00    1.59170   1.56754    0.000
 4715.00    1.66870   1.59336    0.000
 4716.00    1.73176   1.62649    0.000
 4717.00    1.69632   1.66101    0.000
 4718.00    1.67174   1.69023    0.000
 4719.00    1.70624   1.70972    0.000
 4720.00    1.72983   1.71856    0.000
 4721.00    1.70589   1.71815    0.000
 4722.00    1.69744   1.70986    0.000
 4723.00    1.74458   1.69298    0.000
 4724.00    1.77294   1.66536    0.000
 4725.00    1.74477   1.62651    0.000
 4726.00    1.71257   1.58075    0.000
 4727.00    1.67006   1.53720    0.000
 4728.00    1.62849   1.50598    0.000
 4729.00    1.58903   1.49330    0.000
 4730.00    1.57418   1.49890    0.000
 4731.00    1.60639   1.51694    0.000
 4732.00    1.63329   1.53956    0.000
 4733.00    1.65133   1.56048    0.000
 4734.00    1.65079   1.57705    0.000
 4735.00    1.62306   1.59008    0.000
 4736.00    1.62525   1.60167    0.000
 4737.00    1.66589   1.61299    0.000
 4738.00    1.70575   1.62359    0.000
 4739.00    1.74474   1.63244    0.000
 4740.00    1.76714   1.63933    0.000
 4741.00    1.77295   1.64542    0.000
 4742.00    1.77403   1.65230    0.000
 4743.00    1.77096   1.66092    0.000
 4744.00    1.74194   1.67115    0.000
 4745.00    1.69279   1.68179    0.000
 4746.00    1.68754   1.69079    0.000
 4747.00    1.71227   1.69577    0.000
 4748.00    1.73948   1.69466    0.000
 4749.00    1.76818   1.68648    0.000
 4750.00    1.73915   1.67186    0.000
 4751.00    1.67998   1.65311    0.000
 4752.00    1.67492   1.63375    0.000
 4753.00    1.69434   1.61752    0.000
 4754.00    1.70288   1.60713    0.000
 4755.00    1.70717   1.60323    0.000
 4756.00    1.69077   1.60405    0.000
 4757.00    1.66750   1.60590    0.000
 4758.00    1.67127   1.60426    0.000
 4759.00    1.68254   1.59532    0.000
 4760.00    1.67506   1.57757    0.000
 4761.00    1.66328   1.55263    0.144
 4762.00    1.66027   1.52498    0.145
 4763.00    1.65887   1.50073    0.146
 4764.00    1.65497   1.48592    0.146
 4765.00    1.65071   1.48469    0.147
 4766.00    1.61443   1.49751    0.146
 4767.00    1.57490   1.52073    0.146
 4768.00    1.61977   1.54803    0.145
 4769.00    1.67009   1.57357    0.145
 4770.00    1.66185   1.59482    0.145
 4771.00    1.65194   1.61286    0.145
 4772.00    1.69204   1.63021    0.144
 4773.00    1.73023   1.64799    0.143
 4774.00    1.71318   1.66486    0.143
 4775.00    1.69874   1.67794    0.144
 4776.00    1.72183   1.68449    0.143
 4777.00    1.74425   1.68289    0.142
 4778.00    1.76028   1.67295    0.142
 4779.00    1.76931   1.65569    0.143
 4780.00    1.73042   1.63348    0.142
 4781.00    1.69380   1.60967    0.140
 4782.00    1.66924   1.58787    0.139
 4783.00    1.64802   1.57074    0.137
 4784.00    1.64104   1.55942    0.138
 4785.00    1.63550   1.55369    0.138
 4786.00    1.63504   1.55299    0.140
 4787.00    1.63877   1.55728    0.141
 4788.00    1.65488   1.56747    0.141
 4789.00    1.68029   1.58487    0.142
 4790.00    1.72912   1.60993    0.141
 4791.00    1.76493   1.64078    0.140
 4792.00    1.77253   1.67249    0.140
 4793.00    1.77194   1.69809    0.141
 4794.00    1.75593   1.71118    0.142
 4795.00    1.73977   1.70914    0.142
 4796.00    1.72336   1.69490    0.142
 4797.00    1.70918   1.67594    0.142
 4798.00    1.69822   1.66097    0.141
 4799.00    1.70513   1.65554    0.141
 4800.00    1.73469   1.65942    0.141
 4801.00    1.74766   1.66704    0.141
 4802.00    1.74208   1.67099    0.141
 4803.00    1.71644   1.66631    0.141
 4804.00    1.67104   1.65306    0.140
 4805.00    1.66078   1.63580    0.141
 4806.00    1.68106   1.62080    0.142
 4807.00    1.69227   1.61283    0.142
 4808.00    1.69655   1.61329    0.141
 4809.00    1.70106   1.62040    0.141
 4810.00    1.70572   1.63090    0.141
 4811.00    1.70977   1.64221    0.141
 4812.00    1.71346   1.65359    0.141
 4813.00    1.70827   1.66593    0.142
 4814.00    1.69851   1.68024    0.142
 4815.00    1.71336   1.69621    0.143
 4816.00    1.73917   1.71154    0.144
 4817.00    1.74827   1.72234    0.144
 4818.00    1.75098   1.72454    0.145
 4819.00    1.77371   1.71570    0.146
 4820.00    1.80296   1.69665    0.147
 4821.00    1.78711   1.67197    0.145
 4822.00    1.75897   1.64839    0.143
 4823.00    1.72542   1.63179    0.144
 4824.00    1.69065   1.62419    0.145
 4825.00    1.68740   1.62317    0.143
 4826.00    1.68975   1.62400    0.142
 4827.00    1.66791   1.62263    0.142
 4828.00    1.64277   1.61776    0.143
 4829.00    1.66773   1.61096    0.143
 4830.00    1.69755   1.60550    0.143
 4831.00    1.72055   1.60445    0.145
 4832.00    1.74313   1.60894    0.147
 4833.00    1.67743   1.61725    0.145
 4834.00    1.60990   1.62533    0.143
 4835.00    1.63199   1.62878    0.143
 4836.00    1.65442   1.62512    0.142
 4837.00    1.68561   1.61500    0.141
 4838.00    1.71387   1.60181    0.141
 4839.00    1.70200   1.59009    0.143
 4840.00    1.69383   1.58364    0.146
 4841.00    1.71914   1.58445    0.146
 4842.00    1.74105   1.59211    0.145
 4843.00    1.74045   1.60394    0.145
 4844.00    1.73619   1.61585    0.145
 4845.00    1.71305   1.62396    0.145
 4846.00    1.69603   1.62653    0.145
 4847.00    1.70448   1.62455    0.145
 4848.00    1.69860   1.62035    0.000
 4849.00    1.64336   1.61516    0.000
 4850.00    1.60650   1.60782    0.000
 4851.00    1.62294   1.59569    0.000
 4852.00    1.62326   1.57708    0.000
 4853.00    1.58369   1.55288    0.000
 4854.00    1.55314   1.52561    0.000
 4855.00    1.54184   1.49703    0.000
 4856.00    1.52565   1.46654    0.000
 4857.00    1.50042   1.43273    0.000
 4858.00    1.48598   1.39671    0.000
 4859.00    1.48902   1.36441    0.000
 4860.00    1.48054   1.34452    0.000
 4861.00    1.45574   1.34380    0.000
 4862.00    1.45130   1.36275    0.000
 4863.00    1.47232   1.39511    0.000
 4864.00    1.49389   1.43083    0.000
 4865.00    1.51608   1.46006    0.000
 4866.00    1.52384   1.47593    0.000
 4867.00    1.51758   1.47599    0.000
 4868.00    1.50251   1.46266    0.000
 4869.00    1.47990   1.44272    0.000
 4870.00    1.47840   1.42549    0.000
 4871.00    1.49280   1.41928    0.000
 4872.00    1.49764   1.42814    0.000
 4873.00    1.49613   1.45072    0.000
 4874.00    1.53035   1.48194    0.000
 4875.00    1.58531   1.51573    0.146
 4876.00    1.61593   1.54678    0.147
 4877.00    1.63422   1.57094    0.148
 4878.00    1.65764   1.58528    0.148
 4879.00    1.68330   1.58840    0.148
 4880.00    1.69039   1.58090    0.147
 4881.00    1.69050   1.56495    0.147
 4882.00    1.64270   1.54331    0.146
 4883.00    1.57962   1.51871    0.145
 4884.00    1.57413   1.49373    0.145
 4885.00    1.58400   1.47058    0.146
 4886.00    1.56207   1.45095    0.146
 4887.00    1.53319   1.43631    0.147
 4888.00    1.57787   1.42916    0.147
 4889.00    1.63529   1.43395    0.146
 4890.00    1.59838   1.45571    0.144
 4891.00    1.54905   1.49655    0.141
 4892.00    1.62476   1.55243    0.145
 4893.00    1.71208   1.61323    0.149
 4894.00    1.75042   1.66659    0.148
 4895.00    1.78598   1.70290    0.147
 4896.00    1.77058   1.71837    0.147
 4897.00    1.75421   1.71528    0.147
 4898.00    1.75945   1.69985    0.145
 4899.00    1.76296   1.67958    0.143
 4900.00    1.72547   1.66108    0.144
 4901.00    1.68881   1.64877    0.144
 4902.00    1.66296   1.64428    0.142
 4903.00    1.64103   1.64596    0.141
 4904.00    1.65310   1.64914    0.141
 4905.00    1.66604   1.64784    0.142
 4906.00    1.68454   1.63786    0.143
 4907.00    1.69659   1.61950    0.144
 4908.00    1.67615   1.59820    0.143
 4909.00    1.66426   1.58175    0.143
 4910.00    1.68721   1.57616    0.141
 4911.00    1.70681   1.58218    0.141
 4912.00    1.71507   1.59447    0.142
 4913.00    1.71502   1.60333    0.142
 4914.00    1.69130   1.59840    0.142
 4915.00    1.66534   1.57305    0.141
 4916.00    1.63395   1.52804    0.140
 4917.00    1.60900   1.47255    0.139
 4918.00    1.59758   1.42131    0.139
 4919.00    1.58617   1.38845    0.139
 4920.00    1.57479   1.38154    0.139
 4921.00    1.57357   1.39948    0.138
 4922.00    1.58856   1.43499    0.138
 4923.00    1.60047   1.47965    0.138
 4924.00    1.60809   1.52732    0.136
 4925.00    1.62967   1.57437    0.136
 4926.00    1.66846   1.61790    0.138
 4927.00    1.71966   1.65415    0.140
 4928.00    1.78434   1.67866    0.141
 4929.00    1.80239   1.68796    0.141
 4930.00    1.77581   1.68134    0.141
 4931.00    1.73488   1.66145    0.139
 4932.00    1.68183   1.63326    0.137
 4933.00    1.65669   1.60166    0.136
 4934.00    1.65230   1.57008    0.137
 4935.00    1.64716   1.54108    0.137
 4936.00    1.64154   1.51827    0.136
 4937.00    1.64263   1.50695    0.136
 4938.00    1.64756   1.51200    0.136
 4939.00    1.64508   1.53455    0.136
 4940.00    1.63891   1.57000    0.000
 4941.00    1.65811   1.60983    0.000
 4942.00    1.68824   1.64547    0.000
 4943.00    1.70283   1.67215    0.000
 4944.00    1.71169   1.68986    0.000
 4945.00    1.73117   1.70183    0.000
 4946.00    1.75396   1.71155    0.000
 4947.00    1.78974   1.72058    0.000
 4948.00    1.82890   1.72770    0.000
 4949.00    1.81553   1.72974    0.000
 4950.00    1.79097   1.72283    0.000
 4951.00    1.77618   1.70378    0.000
 4952.00    1.76304   1.67122    0.000
 4953.00    1.73547   1.62684    0.000
 4954.00    1.70607   1.57638    0.000
 4955.00    1.68308   1.52971    0.000
 4956.00    1.66066   1.49813    0.000
 4957.00    1.68249   1.48958    0.000
 4958.00    1.70665   1.50407    0.000
 4959.00    1.70713   1.53315    0.000
 4960.00    1.70716   1.56393    0.000
 4961.00    1.70795   1.58480    0.000
 4962.00    1.70776   1.59008    0.000
 4963.00    1.68626   1.58092    0.000
 4964.00    1.66405   1.56364    0.000
 4965.00    1.63293   1.54629    0.000
 4966.00    1.60718   1.53572    0.000
 4967.00    1.62643   1.53558    0.000
 4968.00    1.64524   1.54601    0.000
 4969.00    1.66139   1.56448    0.000
 4970.00    1.67527   1.58675    0.000
 4971.00    1.67807   1.60801    0.000
 4972.00    1.68098   1.62357    0.000
 4973.00    1.68429   1.62966    0.000
 4974.00    1.68614   1.62412    0.000
 4975.00    1.68315   1.60674    0.000
 4976.00    1.67918   1.57893    0.000
 4977.00    1.67248   1.54318    0.000
 4978.00    1.64897   1.50254    0.000
 4979.00    1.58531   1.46066    0.000
 4980.00    1.53511   1.42217    0.000
 4981.00    1.51275   1.39290    0.000
 4982.00    1.50364   1.37858    0.000
 4983.00    1.51833   1.38234    0.000
 4984.00    1.52289   1.40272    0.000
 4985.00    1.51155   1.43378    0.000
 4986.00    1.50500   1.46723    0.000
 4987.00    1.50506   1.49592    0.000
 4988.00    1.53867   1.51598    0.000
 4989.00    1.61301   1.52754    0.000
 4990.00    1.64256   1.53340    0.000
 4991.00    1.62416   1.53669    0.000
 4992.00    1.61665   1.53920    0.000
 4993.00    1.61943   1.54079    0.000
 4994.00    1.61663   1.53964    0.000
 4995.00    1.60920   1.53320    0.000
 4996.00    1.61143   1.51973    0.000
 4997.00    1.62075   1.49930    0.000
 4998.00    1.59244   1.47413    0.000
 4999.00    1.53991   1.44767    0.000
 5000.00    1.51424   1.42279    0.000
 5001.00    1.50369   1.40086    0.000
 5002.00    1.56349   1.38244    0.000
 5003.00    1.65775   1.36870    0.000
 5004.00    1.66839   1.36180    0.000
 5005.00    1.64363   1.36359    0.000
 5006.00    1.64923   1.37339    0.000
 5007.00    1.66585   1.38660    0.000
 5008.00    1.64428   1.39585    0.000
 5009.00    1.61099   1.39491    0.000
 5010.00    1.56921   1.38213    0.000
 5011.00    1.52525   1.36163    0.000
 5012.00    1.51364   1.34088    0.000
 5013.00    1.50874   1.32677    0.000
 5014.00    1.49430   1.32277    0.000
 5015.00    1.47829   1.32828    0.000
 5016.00    1.47037   1.33968    0.000
 5017.00    1.46344   1.35268    0.000
 5018.00    1.47240   1.36438    0.000
 5019.00    1.48271   1.37429    0.000
 5020.00    1.50129   1.38346    0.000
 5021.00    1.52028   1.39312    0.000
 5022.00    1.49076   1.40382    0.000
 5023.00    1.46135   1.41487    0.000
 5024.00    1.48348   1.42541    0.000
 5025.00    1.50581   1.43584    0.000
 5026.00    1.53217   1.44775    0.000
 5027.00    1.55692   1.46342    0.000
 5028.00    1.56276   1.48405    0.000
 5029.00    1.56956   1.50800    0.133
 5030.00    1.58411   1.53035    0.133
 5031.00    1.59189   1.54455    0.134
 5032.00    1.55862   1.54531    0.133
 5033.00    1.52656   1.53098    0.133
 5034.00    1.50029   1.50334    0.132
 5035.00    1.48334   1.46607    0.132
 5036.00    1.50267   1.42375    0.134
 5037.00    1.51369   1.38174    0.135
 5038.00    1.49775   1.34698    0.134
 5039.00    1.48274   1.32762    0.133
 5040.00    1.47029   1.33009    0.134
 5041.00    1.47282   1.35574    0.134
 5042.00    1.51056   1.39915    0.135
 5043.00    1.54231   1.44825    0.135
 5044.00    1.56191   1.48881    0.135
 5045.00    1.57034   1.51048    0.135
 5046.00    1.55904   1.51084    0.136
 5047.00    1.54893   1.49520    0.136
 5048.00    1.54069   1.47352    0.135
 5049.00    1.54134   1.45626    0.135
 5050.00    1.55409   1.45080    0.135
 5051.00    1.55962   1.45929    0.136
 5052.00    1.55650   1.47916    0.137
 5053.00    1.56206   1.50527    0.137
 5054.00    1.57677   1.53247    0.137
 5055.00    1.59385   1.55710    0.137
 5056.00    1.61312   1.57726    0.138
 5057.00    1.63253   1.59246    0.138
 5058.00    1.65206   1.60215    0.138
 5059.00    1.65305   1.60444    0.138
 5060.00    1.64064   1.59664    0.137
 5061.00    1.61561   1.57727    0.138
 5062.00    1.58256   1.54859    0.139
 5063.00    1.57967   1.51631    0.139
 5064.00    1.59350   1.48659    0.140
 5065.00    1.55911   1.46441    0.139
 5066.00    1.50146   1.45247    0.137
 5067.00    1.49766   1.44993    0.136
 5068.00    1.51627   1.45291    0.135
 5069.00    1.53208   1.45757    0.136
 5070.00    1.54688   1.46214    0.138
 5071.00    1.54963   1.46565    0.138
 5072.00    1.54876   1.46688    0.137
 5073.00    1.54283   1.46492    0.137
 5074.00    1.53563   1.45842    0.138
 5075.00    1.52692   1.44485    0.138
 5076.00    1.51791   1.42272    0.138
 5077.00    1.51446   1.39502    0.137
 5078.00    1.51190   1.36822    0.136
 5079.00    1.46938   1.34866    0.134
 5080.00    1.42214   1.34077    0.133
 5081.00    1.42274   1.34633    0.132
 5082.00    1.42720   1.36363    0.132
 5083.00    1.44987   1.38819    0.133
 5084.00    1.47336   1.41514    0.133
 5085.00    1.49339   1.44103    0.134
 5086.00    1.51303   1.46416    0.134
 5087.00    1.51529   1.48411    0.133
 5088.00    1.51917   1.50123    0.133
 5089.00    1.55312   1.51611    0.131
 5090.00    1.58420   1.52821    0.130
 5091.00    1.58330   1.53513    0.131
 5092.00    1.57839   1.53378    0.132
 5093.00    1.54222   1.52213    0.131
 5094.00    1.51423   1.50040    0.131
 5095.00    1.53441   1.47167    0.131
 5096.00    1.55090   1.44203    0.132
 5097.00    1.55015   1.41911    0.130
 5098.00    1.54424   1.40809    0.129
 5099.00    1.51868   1.40896    0.129
 5100.00    1.49584   1.41728    0.129
 5101.00    1.48164   1.42677    0.127
 5102.00    1.46934   1.43210    0.127
 5103.00    1.46219   1.43044    0.128
 5104.00    1.45238   1.42189    0.129
 5105.00    1.43643   1.40925    0.129
 5106.00    1.42931   1.39669    0.129
 5107.00    1.43986   1.38799    0.129
 5108.00    1.46324   1.38635    0.129
 5109.00    1.50899   1.39352    0.129
 5110.00    1.53718   1.40883    0.130
 5111.00    1.53858   1.43015    0.132
 5112.00    1.53238   1.45480    0.133
 5113.00    1.51601   1.47977    0.131
 5114.00    1.52133   1.50233    0.131
 5115.00    1.55225   1.51967    0.133
 5116.00    1.57994   1.52860    0.135
 5117.00    1.60426   1.52642    0.136
 5118.00    1.60411   1.51192    0.136
 5119.00    1.58149   1.48600    0.135
 5120.00    1.55284   1.45174    0.135
 5121.00    1.51930   1.41413    0.134
 5122.00    1.49195   1.37942    0.133
 5123.00    1.46900   1.35250    0.132
 5124.00    1.44041   1.33533    0.131
 5125.00    1.40829   1.32764    0.130
 5126.00    1.41275   1.32828    0.131
 5127.00    1.43716   1.33598    0.133
 5128.00    1.45567   1.34979    0.133
 5129.00    1.47137   1.36841    0.133
 5130.00    1.45718   1.38940    0.134
 5131.00    1.43076   1.40981    0.135
 5132.00    1.44562   1.42675    0.134
 5133.00    1.47491   1.43713    0.133
 5134.00    1.48534   1.43823    0.133
 5135.00    1.49022   1.43004    0.134
 5136.00    1.48163   1.41541    0.134
 5137.00    1.46976   1.39876    0.134
 5138.00    1.47205   1.38433    0.135
 5139.00    1.47713   1.37320    0.135
 5140.00    1.45381   1.36467    0.135
 5141.00    1.42612   1.35893    0.135
 5142.00    1.43083   1.35523    0.135
 5143.00    1.43924   1.35153    0.136
 5144.00    1.44924   1.34725    0.135
 5145.00    1.45937   1.34325    0.133
 5146.00    1.43444   1.34038    0.131
 5147.00    1.40806   1.33868    0.128
 5148.00    1.40831   1.33730    0.129
 5149.00    1.40865   1.33609    0.130
 5150.00    1.40393   1.33641    0.132
 5151.00    1.39911   1.34043    0.133
 5152.00    1.39255   1.35060    0.132
 5153.00    1.38920   1.36844    0.131
 5154.00    1.41993   1.39290    0.131
 5155.00    1.44801   1.42029    0.132
 5156.00    1.45611   1.44535    0.131
 5157.00    1.46433   1.46293    0.130
 5158.00    1.47319   1.46944    0.131
 5159.00    1.47864   1.46173    0.132
 5160.00    1.46854   1.43759    0.131
 5161.00    1.44892   1.39696    0.131
 5162.00    1.39382   1.34070    0.129
 5163.00    1.34422   1.27115    0.128
 5164.00    1.31181   1.19496    0.128
 5165.00    1.27441   1.12241    0.127
 5166.00    1.22381   1.06409    0.125
 5167.00    1.17732   1.02536    0.124
 5168.00    1.14016   1.00399    0.124
 5169.00    1.11436   0.99404    0.124
 5170.00    1.11092   0.99363    0.124
 5171.00    1.12030   1.00763    0.125
 5172.00    1.15165   1.04046    0.126
 5173.00    1.18087   1.08952    0.126
 5174.00    1.20690   1.14619    0.127
 5175.00    1.23292   1.19982    0.126
 5176.00    1.25895   1.23960    0.125
 5177.00    1.27904   1.25679    0.125
 5178.00    1.29224   1.24795    0.125
 5179.00    1.29140   1.21606    0.125
 5180.00    1.27614   1.17012    0.123
 5181.00    1.25790   1.12511    0.122
 5182.00    1.23695   1.09933    0.122
 5183.00    1.24399   1.10507    0.123
 5184.00    1.27334   1.14091    0.125
 5185.00    1.28674   1.19528    0.126
 5186.00    1.28897   1.25314    0.125
 5187.00    1.31905   1.30158    0.127
 5188.00    1.36628   1.33204    0.130
 5189.00    1.39443   1.34093    0.129
 5190.00    1.41233   1.33409    0.000
 5191.00    1.40251   1.32366    0.000
 5192.00    1.37976   1.31855    0.000
 5193.00    1.39331   1.32238    0.000
 5194.00    1.42147   1.33676    0.000
 5195.00    1.43911   1.35980    0.000
 5196.00    1.45314   1.38612    0.000
 5197.00    1.44302   1.40974    0.000
 5198.00    1.42592   1.42508    0.000
 5199.00    1.42893   1.42756    0.000
 5200.00    1.43673   1.41499    0.000
 5201.00    1.42810   1.38762    0.000
 5202.00    1.41630   1.34755    0.000
 5203.00    1.39785   1.30045    0.000
 5204.00    1.37840   1.25571    0.000
 5205.00    1.37368   1.22154    0.000
 5206.00    1.37057   1.20309    0.000
 5207.00    1.36988   1.20467    0.000
 5208.00    1.36937   1.22725    0.000
 5209.00    1.37565   1.26619    0.000
 5210.00    1.38218   1.31325    0.000
 5211.00    1.39597   1.35867    0.134
 5212.00    1.41098   1.39456    0.134
 5213.00    1.46946   1.41801    0.133
 5214.00    1.52329   1.43222    0.132
 5215.00    1.50157   1.44335    0.132
 5216.00    1.48037   1.45582    0.132
 5217.00    1.46454   1.46980    0.132
 5218.00    1.45642   1.48164    0.131
 5219.00    1.50435   1.48616    0.132
 5220.00    1.54451   1.47820    0.132
 5221.00    1.54134   1.45494    0.132
 5222.00    1.53050   1.41843    0.131
 5223.00    1.48549   1.37589    0.129
 5224.00    1.44379   1.33768    0.128
 5225.00    1.41418   1.31464    0.128
 5226.00    1.40440   1.31397    0.129
 5227.00    1.45531   1.33345    0.130
 5228.00    1.48598   1.36342    0.130
 5229.00    1.46397   1.39392    0.129
 5230.00    1.45135   1.41758    0.128
 5231.00    1.45974   1.43291    0.127
 5232.00    1.47867   1.44475    0.127
 5233.00    1.51803   1.45872    0.126
 5234.00    1.54720   1.47774    0.127
 5235.00    1.55918   1.50087    0.129
 5236.00    1.55778   1.52406    0.129
 5237.00    1.53656   1.54339    0.128
 5238.00    1.53228   1.55707    0.126
 5239.00    1.55006   1.56513    0.124
 5240.00    1.57408   1.56790    0.124
 5241.00    1.60527   1.56574    0.126
 5242.00    1.60525   1.55882    0.127
 5243.00    1.57366   1.54557    0.127
 5244.00    1.55277   1.52394    0.127
 5245.00    1.54141   1.49585    0.127
 5246.00    1.52987   1.46752    0.127
 5247.00    1.51818   1.44372    0.126
 5248.00    1.51856   1.42613    0.127
 5249.00    1.52728   1.41687    0.128
 5250.00    1.52131   1.41732    0.129
 5251.00    1.50644   1.42578    0.130
 5252.00    1.49268   1.43935    0.129
 5253.00    1.47951   1.45676    0.129
 5254.00    1.49112   1.47860    0.129
 5255.00    1.51412   1.50270    0.130
 5256.00    1.53916   1.52241    0.130
 5257.00    1.56502   1.52991    0.130
 5258.00    1.55746   1.51924    0.130
 5259.00    1.53865   1.48819    0.130
 5260.00    1.52231   1.43926    0.131
 5261.00    1.50666   1.37929    0.131
 5262.00    1.44231   1.31734    0.132
 5263.00    1.36660   1.26155    0.132
 5264.00    1.34652   1.21755    0.133
 5265.00    1.33688   1.18817    0.135
 5266.00    1.32164   1.17146    0.134
 5267.00    1.30559   1.16371    0.133
 5268.00    1.30622   1.16733    0.133
 5269.00    1.30861   1.18809    0.133
 5270.00    1.31717   1.22517    0.134
 5271.00    1.32614   1.27129    0.134
 5272.00    1.36599   1.31978    0.136
 5273.00    1.40688   1.36656    0.138
 5274.00    1.44834   1.41001    0.137
 5275.00    1.48892   1.44962    0.135
 5276.00    1.50109   1.48229    0.134
 5277.00    1.51435   1.50333    0.133
 5278.00    1.54429   1.51056    0.132
 5279.00    1.56993   1.50630    0.132
 5280.00    1.55353   1.49673    0.132
 5281.00    1.54167   1.48952    0.133
 5282.00    1.56184   1.49179    0.132
 5283.00    1.57688   1.50789    0.131
 5284.00    1.56413   1.53612    0.130
 5285.00    1.55481   1.56924    0.129
 5286.00    1.56042   1.59974    0.128
 5287.00    1.57324   1.62367    0.128
 5288.00    1.61188   1.63965    0.128
 5289.00    1.64256   1.64649    0.128
 5290.00    1.64937   1.64283    0.128
 5291.00    1.64724   1.62838    0.127
 5292.00    1.62229   1.60423    0.127
 5293.00    1.59806   1.57197    0.127
 5294.00    1.57540   1.53373    0.128
 5295.00    1.56132   1.49423    0.128
 5296.00    1.56364   1.46176    0.127
 5297.00    1.55229   1.44458    0.126
 5298.00    1.51820   1.44515    0.127
 5299.00    1.51301   1.46015    0.126
 5300.00    1.55000   1.48582    0.126
 5301.00    1.58907   1.51937    0.126
 5302.00    1.63081   1.55654    0.129
 5303.00    1.64902   1.59167    0.129
 5304.00    1.64064   1.62012    0.126
 5305.00    1.64942   1.64013    0.126
 5306.00    1.67533   1.65324    0.127
 5307.00    1.70382   1.66191    0.128
 5308.00    1.73460   1.66691    0.127
 5309.00    1.72932   1.66764    0.128
 5310.00    1.69610   1.66379    0.131
 5311.00    1.67127   1.65593    0.132
 5312.00    1.65215   1.64527    0.131
 5313.00    1.63898   1.63324    0.130
 5314.00    1.62936   1.62080    0.128
 5315.00    1.60658   1.60901    0.128
 5316.00    1.57694   1.59869    0.128
 5317.00    1.58249   1.58913    0.128
 5318.00    1.60392   1.57841    0.128
 5319.00    1.60433   1.56466    0.128
 5320.00    1.59657   1.54597    0.127
 5321.00    1.57912   1.52056    0.128
 5322.00    1.55847   1.48824    0.129
 5323.00    1.54857   1.45151    0.129
 5324.00    1.54164   1.41351    0.129
 5325.00    1.51008   1.37617    0.128
 5326.00    1.47290   1.34450    0.128
 5327.00    1.42794   1.32919    0.126
 5328.00    1.38155   1.33840    0.123
 5329.00    1.41506   1.36923    0.124
 5330.00    1.45978   1.41182    0.126
 5331.00    1.47750   1.45722    0.127
 5332.00    1.49249   1.49970    0.127
 5333.00    1.49625   1.53436    0.126
 5334.00    1.49930   1.55647    0.124
 5335.00    1.53011   1.56396    0.125
 5336.00    1.56163   1.55854    0.125
 5337.00    1.54232   1.54361    0.124
 5338.00    1.52362   1.52388    0.123
 5339.00    1.52216   1.50662    0.122
 5340.00    1.51968   1.49876    0.122
 5341.00    1.50260   1.50067    0.121
 5342.00    1.48985   1.50722    0.120
 5343.00    1.51765   1.51340    0.121
 5344.00    1.54263   1.51692    0.121
 5345.00    1.54845   1.51839    0.122
 5346.00    1.55254   1.51968    0.122
 5347.00    1.54751   1.52298    0.121
 5348.00    1.54397   1.53230    0.120
 5349.00    1.54675   1.55066    0.120
 5350.00    1.55362   1.57648    0.120
 5351.00    1.57479   1.60566    0.121
 5352.00    1.60041   1.63503    0.122
 5353.00    1.63914   1.66236    0.123
 5354.00    1.66926   1.68470    0.123
 5355.00    1.67778   1.69943    0.121
 5356.00    1.68597   1.70579    0.120
 5357.00    1.69344   1.70385    0.121
 5358.00    1.69505   1.69407    0.122
 5359.00    1.68566   1.67740    0.122
 5360.00    1.67436   1.65563    0.123
 5361.00    1.65992   1.63153    0.124
 5362.00    1.64358   1.60709    0.124
 5363.00    1.62453   1.58244    0.123
 5364.00    1.60242   1.55768    0.123
 5365.00    1.57644   1.53301    0.123
 5366.00    1.55272   1.50782    0.123
 5367.00    1.53153   1.48250    0.124
 5368.00    1.51309   1.45947   -2.000
 5369.00    1.49737   1.44426   -2.000
 5370.00    1.47840   1.44425   -2.000
 5371.00    1.45661   1.46286   -2.000
 5372.00    1.47611   1.49541   -2.000
 5373.00    1.52716   1.53232   -2.000
 5374.00    1.56500   1.56564   -2.000
 5375.00    1.59396   1.59073   -2.000
 5376.00    1.61213   1.60676   -2.000
 5377.00    1.62395   1.61512   -2.000
 5378.00    1.63727   1.61665   -2.000
 5379.00    1.65137   1.61264   -2.000
 5380.00    1.65404   1.60581   -2.000
 5381.00    1.65165   1.59860   -2.000
 5382.00    1.63579   1.59267   -2.000
 5383.00    1.61480   1.58876    0.126
 5384.00    1.60560   1.58504    0.125
 5385.00    1.60023   1.57843    0.124
 5386.00    1.58970   1.56743    0.123
 5387.00    1.57776   1.55186    0.122
 5388.00    1.56764   1.53271    0.121
 5389.00    1.55792   1.51237    0.121
 5390.00    1.53876   1.49313    0.121
 5391.00    1.51793   1.47575    0.122
 5392.00    1.50678   1.46007    0.120
 5393.00    1.49693   1.44605    0.119
 5394.00    1.49518   1.43401    0.118
 5395.00    1.49420   1.42492    0.117
 5396.00    1.48100   1.42233    0.117
 5397.00    1.46705   1.42874    0.116
 5398.00    1.46419   1.43946    0.116
 5399.00    1.46178   1.44712    0.117
 5400.00    1.48592   1.44793    0.118
 5401.00    1.50787   1.43958    0.118
 5402.00    1.47342   1.42092    0.118
 5403.00    1.44105   1.39605    0.117
 5404.00    1.43687   1.37381    0.116
 5405.00    1.43187   1.36235    0.114
 5406.00    1.41948   1.36410    0.115
 5407.00    1.40864   1.37584    0.115
 5408.00    1.40810   1.39420    0.115
 5409.00    1.41483   1.41931    0.116
 5410.00    1.45899   1.45104    0.116
 5411.00    1.49712   1.48497    0.117
 5412.00    1.51022   1.51599    0.117
 5413.00    1.52409   1.54208    0.117
 5414.00    1.54063   1.56337    0.118
 5415.00    1.55629   1.57976    0.119
 5416.00    1.56941   1.58944    0.120
 5417.00    1.57837   1.59123    0.120
 5418.00    1.57706   1.58646    0.119
 5419.00    1.57902   1.57821    0.119
 5420.00    1.58797   1.56997    0.119
 5421.00    1.58862   1.56305    0.120
 5422.00    1.57394   1.55638    0.120
 5423.00    1.56121   1.55069    0.120
 5424.00    1.55162   1.54739    0.118
 5425.00    1.54206   1.54341    0.117
 5426.00    1.53255   1.53349    0.118
 5427.00    1.52869   1.51503    0.118
 5428.00    1.53186   1.49138    0.119
 5429.00    1.53312   1.47077    0.120
 5430.00    1.53227   1.45644    0.120
 5431.00    1.51566   1.44550    0.119
 5432.00    1.48378   1.43876    0.117
 5433.00    1.49183   1.44040    0.117
 5434.00    1.53404   1.45332    0.120
 5435.00    1.55438   1.47784    0.120
 5436.00    1.55826   1.51132    0.119
 5437.00    1.56251   1.54867    0.118
 5438.00    1.56702   1.58283    0.119
 5439.00    1.57839   1.60750    0.118
 5440.00    1.59375   1.61872    0.117
 5441.00    1.58119   1.61524    0.115
 5442.00    1.55454   1.59799    0.115
 5443.00    1.55568   1.56997    0.115
 5444.00    1.56897   1.53712    0.116
 5445.00    1.56130   1.50796    0.115
 5446.00    1.54578   1.49105    0.114
 5447.00    1.54632   1.48929    0.114
 5448.00    1.55198   1.49628    0.113
 5449.00    1.56598   1.50350    0.114
 5450.00    1.58221   1.50555    0.115
 5451.00    1.55379   1.50062    0.114
 5452.00    1.51566   1.48984    0.112
 5453.00    1.50435   1.47677    0.113
 5454.00    1.49768   1.46737    0.113
 5455.00    1.50858   1.46802    0.113
 5456.00    1.52178   1.47888    0.114
 5457.00    1.52379   1.49299    0.114
 5458.00    1.52476   1.50346    0.114
 5459.00    1.52758   1.50745    0.115
 5460.00    1.53050   1.50606    0.116
 5461.00    1.52987   1.50195    0.115
 5462.00    1.52906   1.49887    0.113
 5463.00    1.51723   1.50045    0.114
 5464.00    1.50659   1.50561    0.115
 5465.00    1.52367   1.51070    0.117
 5466.00    1.53863   1.51423    0.118
 5467.00    1.52641   1.51486    0.117
 5468.00    1.51604   1.51035    0.116
 5469.00    1.52172   1.50070    0.118
 5470.00    1.52596   1.48806    0.119
 5471.00    1.52095   1.47299    0.118
 5472.00    1.51145   1.45552    0.117
 5473.00    1.47947   1.43848    0.117
 5474.00    1.45874   1.42388    0.117
 5475.00    1.48369   1.41224    0.117
 5476.00    1.50148   1.40784    0.116
 5477.00    1.49517   1.41314    0.117
 5478.00    1.48809   1.42305   -2.000
 5479.00    1.47885   1.43207   -2.000
 5480.00    1.47808   1.44088   -2.000
 5481.00    1.49787   1.45311   -2.000
 5482.00    1.51497   1.46860   -2.000
 5483.00    1.52641   1.48398   -2.000
 5484.00    1.51782   1.49583   -2.000
 5485.00    1.47276   1.50140   -2.000
 5486.00    1.45398   1.50172   -2.000
 5487.00    1.47703   1.50133   -2.000
 5488.00    1.47520   1.50260   -2.000
 5489.00    1.43860   1.50448   -2.000
 5490.00    1.44141   1.50695   -2.000
 5491.00    1.49267   1.50914   -2.000
 5492.00    1.52189   1.50958   -2.000
 5493.00    1.52722   1.50958   -2.000
 5494.00    1.53122   1.51021   -2.000
 5495.00    1.53394   1.50979   -2.000
 5496.00    1.53940   1.50815   -2.000
 5497.00    1.54716   1.50770   -2.000
 5498.00    1.55381   1.50754   -2.000
 5499.00    1.55965   1.50336   -2.000
 5500.00    1.55793   1.49467   -2.000
 5501.00    1.55129   1.48512   -2.000
 5502.00    1.52856   1.47708    0.112
 5503.00    1.49666   1.47046    0.112
 5504.00    1.49509   1.46477    0.112
 5505.00    1.50859   1.46039    0.111
 5506.00    1.50079   1.45940    0.111
 5507.00    1.48382   1.46048    0.112
 5508.00    1.47047   1.45887    0.112
 5509.00    1.45846   1.45300    0.111
 5510.00    1.45470   1.44439    0.112
 5511.00    1.45351   1.43603    0.113
 5512.00    1.45598   1.43279    0.113
 5513.00    1.45940   1.43747    0.113
 5514.00    1.47583   1.44982    0.113
 5515.00    1.49503   1.46826    0.114
 5516.00    1.50741   1.49034    0.114
 5517.00    1.51864   1.51304    0.114
 5518.00    1.51504   1.53175    0.113
 5519.00    1.50955   1.54333    0.113
 5520.00    1.54479   1.54795    0.115
 5521.00    1.58362   1.54641    0.117
 5522.00    1.57786   1.53923    0.116
 5523.00    1.56977   1.52725    0.114
 5524.00    1.53727   1.51200    0.113
 5525.00    1.50467   1.49590    0.112
 5526.00    1.49888   1.48164    0.113
 5527.00    1.49340   1.47273    0.113
 5528.00    1.49449   1.47268    0.112
 5529.00    1.49462   1.47961    0.111
 5530.00    1.48306   1.48781    0.112
 5531.00    1.47512   1.49425    0.112
 5532.00    1.49731   1.49894    0.110
 5533.00    1.51858   1.50214    0.109
 5534.00    1.53410   1.50469    0.108
 5535.00    1.54968   1.50879    0.108
 5536.00    1.56554   1.51472    0.111
 5537.00    1.57574   1.52166    0.113
 5538.00    1.56345   1.52990    0.111
 5539.00    1.55234   1.53805    0.124
 5540.00    1.54510   1.54359    0.294
 5541.00    1.54209   1.54531   -1.000
 5542.00    1.55090   1.54477   -1.000
 5543.00    1.55640   1.54529   -1.000
 5544.00    1.55403   1.54799   -1.000
 5545.00    1.55270   1.55252   -1.000
 5546.00    1.55350   1.55984   -1.000
 5547.00    1.55583   1.56911    0.622
 5548.00    1.56092   1.57649    0.164
 5549.00    1.56416   1.57969    0.113
 5550.00    1.56449   1.57856    0.112
 5551.00    1.56170   1.57321    0.112
 5552.00    1.55462   1.56471    0.111
 5553.00    1.55204   1.55565    0.110
 5554.00    1.55493   1.54843    0.111
 5555.00    1.54967   1.54311    0.111
 5556.00    1.53572   1.53819    0.112
 5557.00    1.52550   1.53341    0.111
 5558.00    1.51880   1.52884    0.110
 5559.00    1.51402   1.52308    0.109
 5560.00    1.51085   1.51536    0.111
 5561.00    1.50390   1.50611    0.112
 5562.00    1.49420   1.49697    0.113
 5563.00    1.48696   1.48923    0.113
 5564.00    1.48129   1.48192    0.111
 5565.00    1.47619   1.47527    0.110
 5566.00    1.47140   1.47137    0.110
 5567.00    1.46545   1.47009    0.110
 5568.00    1.45893   1.47010    0.110
 5569.00    1.46808   1.47238    0.110
 5570.00    1.48385   1.47692    0.109
 5571.00    1.48775   1.48066    0.109
 5572.00    1.48734   1.48511    0.110
 5573.00    1.48915   1.49345    0.109
 5574.00    1.49163   1.50246    0.108
 5575.00    1.48313   1.50945    0.107
 5576.00    1.47184   1.51557    0.107
 5577.00    1.47061   1.51960    0.107
 5578.00    1.47146   1.52015    0.107
 5579.00    1.49086   1.51732    0.108
 5580.00    1.51329   1.50935    0.108
 5581.00    1.48760   1.49534    0.107
 5582.00    1.45604   1.47662    0.106
 5583.00    1.42441   1.45340    0.106
 5584.00    1.39278   1.42678    0.107
 5585.00    1.39660   1.39997    0.107
 5586.00    1.40213   1.37761    0.106
 5587.00    1.39111   1.36441    0.106
 5588.00    1.37983   1.36192    0.105
 5589.00    1.36791   1.36905    0.105
 5590.00    1.35764   1.38269    0.105
 5591.00    1.37987   1.39878    0.106
 5592.00    1.40073   1.41483    0.107
 5593.00    1.40560   1.42930    0.108
 5594.00    1.40802   1.44190    0.110
 5595.00    1.39082   1.45061    0.110
 5596.00    1.37905   1.45094    0.110
 5597.00    1.40003   1.44356    0.112
 5598.00    1.41861   1.43480    0.113
 5599.00    1.42569   1.42861    0.113
 5600.00    1.43389   1.42674    0.113
 5601.00    1.44645   1.43217    0.113
 5602.00    1.45719   1.44701    0.112
 5603.00    1.46208   1.47046    0.113
 5604.00    1.47255   1.49759    0.113
 5605.00    1.49831   1.52287    0.112
 5606.00    1.51993   1.54268    0.111
 5607.00    1.53184   1.55508    0.110
 5608.00    1.53976   1.55973    0.109
 5609.00    1.53961   1.55681    0.110
 5610.00    1.52709   1.54684    0.110
 5611.00    1.49275   1.53034    0.108
 5612.00    1.46578   1.50785    0.107
 5613.00    1.45017   1.48079    0.106
 5614.00    1.43820   1.45468    0.106
 5615.00    1.43119   1.43872    0.106
 5616.00    1.42471   1.43494    0.107
 5617.00    1.41885   1.43702    0.108
 5618.00    1.42499   1.44033    0.108
 5619.00    1.44377   1.44400    0.107
 5620.00    1.45834   1.44717    0.106
 5621.00    1.46900   1.44758    0.104
 5622.00    1.46820   1.44372    0.104
 5623.00    1.45801   1.43803    0.105
 5624.00    1.45289   1.43703    0.105
 5625.00    1.45144   1.44473    0.104
 5626.00    1.45749   1.45848    0.105
 5627.00    1.46828   1.47468    0.106
 5628.00    1.47814   1.49143    0.104
 5629.00    1.48748   1.50542    0.102
 5630.00    1.49373   1.51343    0.103
 5631.00    1.49851   1.51454    0.104
 5632.00    1.49374   1.50950    0.105
 5633.00    1.48499   1.49983    0.106
 5634.00    1.48286   1.48785    0.107
 5635.00    1.48308   1.47563    0.107
 5636.00    1.46301   1.46501    0.107
 5637.00    1.43686   1.45783    0.108
 5638.00    1.42371   1.45411    0.108
 5639.00    1.41380   1.45195    0.108
 5640.00    1.41103   1.45072    0.108
 5641.00    1.40971   1.45218    0.109
 5642.00    1.43516   1.45661    0.110
 5643.00    1.46485   1.46240    0.110
 5644.00    1.46481   1.46893    0.110
 5645.00    1.46126   1.47566    0.109
 5646.00    1.46059   1.48190    0.108
 5647.00    1.46014   1.48692    0.108
 5648.00    1.47963   1.49037    0.108
 5649.00    1.50000   1.49294    0.108
 5650.00    1.50305   1.49459    0.108
 5651.00    1.50553   1.49352    0.108
 5652.00    1.49028   1.48750    0.107
 5653.00    1.47544   1.47593    0.105
 5654.00    1.46804   1.46153    0.105
 5655.00    1.45915   1.44729    0.105
 5656.00    1.43364   1.43219    0.104
 5657.00    1.40927   1.41695    0.103
 5658.00    1.39379   1.40873    0.103
 5659.00    1.38009   1.41033    0.103
 5660.00    1.37688   1.41633    0.102
 5661.00    1.37674   1.42361    0.101
 5662.00    1.39090   1.43381    0.101
 5663.00    1.40292   1.44646    0.102
 5664.00    1.40683   1.45806    0.103
 5665.00    1.40805   1.46621    0.103
 5666.00    1.40076   1.47120    0.101
 5667.00    1.39577   1.47591    0.100
 5668.00    1.39697   1.48266    0.101
 5669.00    1.40447   1.49165    0.101
 5670.00    1.42650   1.50255    0.102
 5671.00    1.45058   1.51532    0.102
 5672.00    1.47872   1.52817    0.104
 5673.00    1.50125   1.53776    0.105
 5674.00    1.51400   1.54280    0.106
 5675.00    1.51443   1.54449    0.106
 5676.00    1.49610   1.54276    0.106
 5677.00    1.49555   1.53636    0.107
 5678.00    1.51875   1.52638    0.107
 5679.00    1.52511   1.51516    0.108
 5680.00    1.51162   1.50315    0.110
 5681.00    1.49560   1.49054    0.110
 5682.00    1.47694   1.48016    0.108
 5683.00    1.45927   1.47411    0.107
 5684.00    1.44248   1.47088    0.106
 5685.00    1.43076   1.46873    0.105
 5686.00    1.42313   1.46879    0.105
 5687.00    1.43257   1.47343    0.105
 5688.00    1.45414   1.48313    0.106
 5689.00    1.47307   1.49598    0.106
 5690.00    1.49036   1.50885    0.107
 5691.00    1.50135   1.51954    0.106
 5692.00    1.50891   1.52593    0.106
 5693.00    1.51393   1.52649    0.105
 5694.00    1.51774   1.52181    0.105
 5695.00    1.51056   1.51310    0.105
 5696.00    1.49889   1.50056    0.104
 5697.00    1.49137   1.48492    0.104
 5698.00    1.48529   1.46947    0.104
 5699.00    1.47426   1.45595    0.103
 5700.00    1.46178   1.44375    0.102
 5701.00    1.45223   1.43378    0.102
 5702.00    1.44339   1.42663    0.102
 5703.00    1.44010   1.42012    0.102
 5704.00    1.43791   1.41107    0.101
 5705.00    1.43003   1.39899    0.100
 5706.00    1.42127   1.38681    0.100
 5707.00    1.40799   1.37730    0.100
 5708.00    1.39419   1.37295    0.101
 5709.00    1.39340   1.37644    0.101
 5710.00    1.39360   1.38696    0.101
 5711.00    1.42227   1.40332    0.102
 5712.00    1.45209   1.42577    0.102
 5713.00    1.46556   1.45072    0.102
 5714.00    1.47855   1.47401    0.103
 5715.00    1.47738   1.49479    0.104
 5716.00    1.47694   1.51256    0.106
 5717.00    1.48915   1.52740    0.105
 5718.00    1.50217   1.54033    0.105
 5719.00    1.52386   1.55094    0.105
 5720.00    1.54328   1.55868    0.106
 5721.00    1.54574   1.56373    0.107
 5722.00    1.54730   1.56533    0.108
 5723.00    1.54364   1.56285    0.106
 5724.00    1.53769   1.55688    0.105
 5725.00    1.52130   1.54821    0.105
 5726.00    1.50684   1.53887    0.104
 5727.00    1.49954   1.53268    0.104
 5728.00    1.49719   1.53046    0.104
 5729.00    1.51026   1.52911    0.103
 5730.00    1.52266   1.52756    0.102
 5731.00    1.53330   1.52876    0.103
 5732.00    1.54085   1.53370    0.103
 5733.00    1.54136   1.53926    0.103
 5734.00    1.53597   1.54285    0.103
 5735.00    1.51896   1.54391    0.103
 5736.00    1.51043   1.54305    0.103
 5737.00    1.51641   1.54162    0.101
 5738.00    1.52095   1.54037    0.101
 5739.00    1.52332   1.53940    0.101
 5740.00    1.51950   1.53869    0.000
 5741.00    1.50750   1.53792    0.000
 5742.00    1.49928   1.53757    0.000
 5743.00    1.49544   1.53854    0.000
 5744.00    1.50106   1.53986    0.000
 5745.00    1.51638   1.53883    0.000
 5746.00    1.52914   1.53371    0.000
 5747.00    1.53957   1.52610    0.000
 5748.00    1.53367   1.51982    0.000
 5749.00    1.51476   1.51538    0.000
 5750.00    1.50172   1.51011    0.000
 5751.00    1.49277   1.50335    0.000
 5752.00    1.49488   1.49754    0.000
 5753.00    1.50378   1.49607    0.000
 5754.00    1.49713   1.50040    0.000
 5755.00    1.48214   1.50745    0.000
 5756.00    1.48248   1.51227    0.000
 5757.00    1.48997   1.51271    0.000
 5758.00    1.49929   1.50889    0.000
 5759.00    1.50935   1.50259    0.000
 5760.00    1.50070   1.49701    0.000
 5761.00    1.48565   1.49538    0.000
 5762.00    1.48988   1.50041    0.000
 5763.00    1.49967   1.51262    0.000
 5764.00    1.51380   1.52775    0.000
 5765.00    1.52896   1.54097    0.000
 5766.00    1.53886   1.55073    0.000
 5767.00    1.54775   1.55628    0.000
 5768.00    1.54282   1.55719    0.000
 5769.00    1.53582   1.55448    0.000
 5770.00    1.54389   1.54947    0.000
 5771.00    1.55360   1.54340    0.000
 5772.00    1.54217   1.53781    0.000
 5773.00    1.52923   1.53231    0.000
 5774.00    1.51392   1.52583    0.000
 5775.00    1.49853   1.51796    0.000
 5776.00    1.49366   1.50701    0.000
 5777.00    1.48874   1.49132    0.000
 5778.00    1.48051   1.47073    0.000
 5779.00    1.47243   1.44645    0.000
 5780.00    1.46669   1.42245    0.000
 5781.00    1.46206   1.40474    0.000
 5782.00    1.46879   1.39589    0.000
 5783.00    1.47518   1.39373    0.000
 5784.00    1.47911   1.39704    0.000
 5785.00    1.48012   1.40787    0.000
 5786.00    1.46493   1.42523    0.000
 5787.00    1.45518   1.44425    0.000
 5788.00    1.46963   1.46180    0.000
 5789.00    1.47936   1.47618    0.000
 5790.00    1.47194   1.48781    0.000
 5791.00    1.46936   1.49924   -2.000
 5792.00    1.48160   1.51041   -2.000
 5793.00    1.48995   1.51979   -2.000
 5794.00    1.48824   1.52725   -2.000
 5795.00    1.48198   1.53245   -2.000
 5796.00    1.46555   1.53564   -2.000
 5797.00    1.45764   1.53945   -2.000
 5798.00    1.46620   1.54635   -2.000
 5799.00    1.47561   1.55404   -2.000
 5800.00    1.48642   1.55859   -2.000
 5801.00    1.50517   1.55899   -2.000
 5802.00    1.53563   1.55523   -2.000
 5803.00    1.55411   1.54839   -2.000
 5804.00    1.55701   1.54185   -2.000
 5805.00    1.54806   1.53792   -2.000
 5806.00    1.52554   1.53657   -2.000
 5807.00    1.51212   1.53713   -2.000
 5808.00    1.50786   1.53862   -2.000
 5809.00    1.51104   1.54021   -2.000
 5810.00    1.52085   1.54092   -2.000
 5811.00    1.52707   1.53985    0.000
 5812.00    1.53047   1.53734    0.000
 5813.00    1.53457   1.53419    0.000
 5814.00    1.53916   1.53136    0.000
 5815.00    1.53568   1.53097    0.000
 5816.00    1.52731   1.53532    0.000
 5817.00    1.52851   1.54393    0.000
 5818.00    1.53475   1.55354    0.000
 5819.00    1.54473   1.56154    0.000
 5820.00    1.55642   1.56716    0.000
 5821.00    1.55890   1.57032    0.000
 5822.00    1.55775   1.57179    0.000
 5823.00    1.55489   1.57262    0.000
 5824.00    1.55146   1.57336    0.000
 5825.00    1.53938   1.57377    0.000
 5826.00    1.52487   1.57375    0.000
 5827.00    1.53137   1.57350    0.000
 5828.00    1.54277   1.57302    0.000
 5829.00    1.54216   1.57157    0.000
 5830.00    1.53930   1.56855    0.000
 5831.00    1.52464   1.56447    0.000
 5832.00    1.50826   1.55992    0.000
 5833.00    1.51143   1.55513    0.000
 5834.00    1.51664   1.55164    0.000
 5835.00    1.52236   1.55114    0.000
 5836.00    1.52812   1.55264    0.000
 5837.00    1.51654   1.55466    0.000
 5838.00    1.50438   1.55820    0.000
 5839.00    1.49463   1.56341    0.000
 5840.00    1.48540   1.56796    0.000
 5841.00    1.49243   1.56961    0.000
 5842.00    1.49991   1.56765    0.000
 5843.00    1.51445   1.56213    0.000
 5844.00    1.52705   1.55373    0.000
 5845.00    1.52080   1.54330    0.000
 5846.00    1.51270   1.53173    0.000
 5847.00    1.49152   1.52056    0.000
 5848.00    1.47276   1.51067    0.000
 5849.00    1.46708   1.50117    0.000
 5850.00    1.46131   1.49053    0.000
 5851.00    1.45521   1.47793    0.000
 5852.00    1.44577   1.46476    0.000
 5853.00    1.42441   1.45385    0.000
 5854.00    1.41012   1.44586    0.000
 5855.00    1.41702   1.43873    0.000
 5856.00    1.42325   1.43227    0.000
 5857.00    1.42778   1.42993    0.000
 5858.00    1.42956   1.43410    0.000
 5859.00    1.42532   1.44243    0.000
 5860.00    1.42737   1.45115    0.000
 5861.00    1.44144   1.45803    0.000
 5862.00    1.45352   1.46397    0.000
 5863.00    1.46230   1.47055    0.000
 5864.00    1.46931   1.47688    0.000
 5865.00    1.47374   1.48143    0.000
 5866.00    1.47895   1.48569    0.000
 5867.00    1.48516   1.49196    0.000
 5868.00    1.48613   1.49944    0.000
 5869.00    1.48116   1.50569    0.000
 5870.00    1.48044   1.50912    0.000
 5871.00    1.48395   1.50959    0.000
 5872.00    1.47824   1.50781    0.000
 5873.00    1.46445   1.50474    0.000
 5874.00    1.45574   1.49991    0.000
 5875.00    1.45096   1.49235    0.000
 5876.00    1.44131   1.48273    0.000
 5877.00    1.42834   1.47224    0.000
 5878.00    1.42164   1.46130    0.000
 5879.00    1.41869   1.45030    0.000
 5880.00    1.40890   1.44018    0.000
 5881.00    1.39555   1.42942    0.000
 5882.00    1.37303   1.41280    0.000
 5883.00    1.34638   1.38636    0.000
 5884.00    1.32388   1.35077    0.000
 5885.00    1.30299   1.30801    0.000
 5886.00    1.27336   1.25885    0.000
 5887.00    1.24086   1.20464    0.000
 5888.00    1.19946   1.15005    0.000
 5889.00    1.15560   1.10566    0.000
 5890.00    1.13459   1.08273    0.000
 5891.00    1.11877   1.07991    0.000
 5892.00    1.11819   1.08734    0.000
 5893.00    1.12039   1.09894    0.000
 5894.00    1.13966   1.11307    0.000
 5895.00    1.16131   1.13484    0.000
 5896.00    1.17662   1.17161    0.000
 5897.00    1.19130   1.21874    0.000
 5898.00    1.22342   1.26563    0.000
 5899.00    1.25665   1.30870    0.000
 5900.00    1.29577   1.34741    0.000
 5901.00    1.33498   1.37993    0.096
 5902.00    1.34933   1.40525    0.097
 5903.00    1.36328   1.42314    0.098
 5904.00    1.36568   1.43452    0.096
 5905.00    1.36843   1.44227    0.095
 5906.00    1.37620   1.44870    0.095
 5907.00    1.38391   1.45353    0.095
 5908.00    1.39106   1.45561    0.095
 5909.00    1.39742   1.45498    0.096
 5910.00    1.39850   1.45247    0.096
 5911.00    1.39767   1.44828    0.095
 5912.00    1.38684   1.44203    0.094
 5913.00    1.37666   1.43509    0.093
 5914.00    1.36922   1.43079    0.092
 5915.00    1.36657   1.43054    0.092
 5916.00    1.38064   1.43394    0.093
 5917.00    1.39578   1.43972    0.093
 5918.00    1.41408   1.44622    0.094
 5919.00    1.42372   1.45281    0.094
 5920.00    1.41165   1.45847    0.094
 5921.00    1.40079   1.46229    0.094
 5922.00    1.39255   1.46504    0.095
 5923.00    1.39356   1.46692    0.096
 5924.00    1.41193   1.46732    0.098
 5925.00    1.42418   1.46668    0.099
 5926.00    1.42643   1.46488    0.098
 5927.00    1.41922   1.46162    0.097
 5928.00    1.39844   1.45739    0.096
 5929.00    1.38558   1.45380    0.097
 5930.00    1.38272   1.45314    0.098
 5931.00    1.38647   1.45474    0.098
 5932.00    1.39756   1.45574    0.097
 5933.00    1.40541   1.45549    0.097
 5934.00    1.41009   1.45591    0.098
 5935.00    1.41562   1.45841    0.098
 5936.00    1.42189   1.46143    0.098
 5937.00    1.42666   1.46322    0.097
 5938.00    1.43027   1.46412    0.095
 5939.00    1.42983   1.46403    0.094
 5940.00    1.42666   1.46299    0.095
 5941.00    1.42196   1.46284    0.094
 5942.00    1.41635   1.46421    0.094
 5943.00    1.40806   1.46610    0.093
 5944.00    1.39839   1.46782    0.092
 5945.00    1.39742   1.46834    0.092
 5946.00    1.40030   1.46614    0.092
 5947.00    1.41359   1.46095    0.093
 5948.00    1.43086   1.45517    0.095
 5949.00    1.44160   1.45147    0.095
 5950.00    1.45024   1.44900    0.096
 5951.00    1.43622   1.44512    0.096
 5952.00    1.41607   1.44091    0.095
 5953.00    1.40252   1.43992    0.095
 5954.00    1.39043   1.44203    0.096
 5955.00    1.39234   1.44441    0.096
 5956.00    1.39673   1.44703    0.095
 5957.00    1.40417   1.45206    0.096
 5958.00    1.41203   1.45993    0.097
 5959.00    1.42183   1.46870    0.097
 5960.00    1.43181   1.47623    0.098
 5961.00    1.44330   1.48192    0.098
 5962.00    1.45487   1.48586    0.098
 5963.00    1.44747   1.48853    0.097
 5964.00    1.43961   1.49020    0.097
 5965.00    1.43530   1.49182    0.098
 5966.00    1.43146   1.49500    0.098
 5967.00    1.43983   1.49921    0.096
 5968.00    1.44853   1.50272    0.094
 5969.00    1.46147   1.50454    0.095
 5970.00    1.47297   1.50390    0.095
 5971.00    1.47167   1.50025    0.094
 5972.00    1.46920   1.49378    0.093
 5973.00    1.45911   1.48514    0.093
 5974.00    1.44834   1.47529    0.093
 5975.00    1.43405   1.46571    0.093
 5976.00    1.42083   1.45815    0.093
 5977.00    1.41207   1.45299    0.093
 5978.00    1.40434   1.44947    0.093
 5979.00    1.40014   1.44721    0.093
 5980.00    1.40002   1.44503    0.093
 5981.00    1.41163   1.44149    0.093
 5982.00    1.41850   1.43672    0.093
 5983.00    1.41368   1.43277    0.093
 5984.00    1.40546   1.43290    0.094
 5985.00    1.39002   1.43732    0.093
 5986.00    1.38590   1.44320    0.094
 5987.00    1.40265   1.44979    0.096
 5988.00    1.41308   1.45748    0.097
 5989.00    1.41333   1.46496    0.096
 5990.00    1.41490   1.47001    0.096
 5991.00    1.41836   1.47247    0.097
 5992.00    1.42078   1.47404    0.097
 5993.00    1.42192   1.47448    0.097
 5994.00    1.41800   1.47230    0.096
 5995.00    1.40854   1.46743    0.095
 5996.00    1.40573   1.46088    0.094
 5997.00    1.40936   1.45477    0.094
 5998.00    1.41029   1.45091    0.094
 5999.00    1.40892   1.44878    0.095
 6000.00    1.40401   1.44654    0.094
 6001.00    1.39644   1.44242    0.093
 6002.00    1.38850   1.43695    0.092
 6003.00    1.38031   1.43295    0.092
 6004.00    1.38186   1.43049    0.092
 6005.00    1.38905   1.42739    0.093
 6006.00    1.39276   1.42330    0.092
 6007.00    1.39472   1.42000    0.091
 6008.00    1.39801   1.42060    0.092
 6009.00    1.40187   1.42477    0.093
 6010.00    1.39533   1.42755    0.093
 6011.00    1.38491   1.42634    0.093
 6012.00    1.38161   1.42323    0.093
 6013.00    1.38057   1.42112    0.094
 6014.00    1.38015   1.41974    0.094
 6015.00    1.37990   1.41686    0.093
 6016.00    1.37291   1.41331    0.094
 6017.00    1.36444   1.41164    0.095
 6018.00    1.35037   1.41155    0.095
 6019.00    1.33534   1.41224    0.096
 6020.00    1.34476   1.41486    0.096
 6021.00    1.35737   1.42013    0.097
 6022.00    1.38408   1.42760    0.097
 6023.00    1.41209   1.43636    0.097
 6024.00    1.41830   1.44625    0.096
 6025.00    1.42330   1.45637    0.095
 6026.00    1.42540   1.46558    0.095
 6027.00    1.42745   1.47460    0.095
 6028.00    1.43087   1.48341    0.094
 6029.00    1.43452   1.49065    0.094
 6030.00    1.44356   1.49599    0.092
 6031.00    1.45272   1.50062    0.091
 6032.00    1.46345   1.50483    0.091
 6033.00    1.47336   1.50754    0.091
 6034.00    1.47627   1.50830    0.092
 6035.00    1.47850   1.50791    0.093
 6036.00    1.47638   1.50704    0.092
 6037.00    1.47305   1.50586    0.092
 6038.00    1.46365   1.50449    0.093
 6039.00    1.45409   1.50357    0.094
 6040.00    1.44388   1.50418    0.093
 6041.00    1.43754   1.50649    0.093
 6042.00    1.44419   1.51033    0.093
 6043.00    1.44747   1.51487    0.093
 6044.00    1.44119   1.51900    0.093
 6045.00    1.43796   1.52237    0.094
 6046.00    1.44211   1.52440    0.094
 6047.00    1.44755   1.52424    0.094
 6048.00    1.45568   1.52190    0.096
 6049.00    1.45540   1.51838    0.096
 6050.00    1.43983   1.51351    0.095
 6051.00    1.42543   1.50661    0.095
 6052.00    1.41288   1.49856    0.097
 6053.00    1.41066   1.49135    0.097
 6054.00    1.42285   1.48598    0.097
 6055.00    1.43045   1.48188    0.097
 6056.00    1.43242   1.47913    0.097
 6057.00    1.42936   1.47799    0.096
 6058.00    1.42089   1.47766    0.094
 6059.00    1.41361   1.47619    0.093
 6060.00    1.40749   1.47284    0.094
 6061.00    1.40676   1.46897    0.094
 6062.00    1.41058   1.46606    0.094
 6063.00    1.41385   1.46481    0.093
 6064.00    1.41673   1.46594    0.091
 6065.00    1.41349   1.47203    0.091
 6066.00    1.40626   1.48399    0.092
 6067.00    1.40786   1.49799    0.091
 6068.00    1.41447   1.51021    0.090
 6069.00    1.42633   1.51984    0.091
 6070.00    1.44078   1.52705    0.092
 6071.00    1.44841   1.53101    0.092
 6072.00    1.45311   1.53042    0.093
 6073.00    1.45741   1.52538    0.094
 6074.00    1.46158   1.51731    0.095
 6075.00    1.45193   1.50704    0.095
 6076.00    1.43799   1.49472    0.094
 6077.00    1.42460   1.48133    0.094
 6078.00    1.41134   1.46942    0.094
 6079.00    1.40363   1.46068    0.094
 6080.00    1.39709   1.45356    0.093
 6081.00    1.39957   1.44746    0.093
 6082.00    1.40357   1.44465    0.094
 6083.00    1.40816   1.44501    0.094
 6084.00    1.41282   1.44520    0.095
 6085.00    1.41134   1.44419    0.095
 6086.00    1.40931   1.44367    0.094
 6087.00    1.40723   1.44377    0.093
 6088.00    1.40514   1.44268    0.092
 6089.00    1.40142   1.44066    0.092
 6090.00    1.39758   1.44051    0.092
 6091.00    1.38773   1.44293    0.091
 6092.00    1.37863   1.44631    0.090
 6093.00    1.38585   1.45064    0.091
 6094.00    1.39329   1.45615    0.091
 6095.00    1.40358   1.45996    0.090
 6096.00    1.41171   1.45894    0.090
 6097.00    1.40198   1.45348    0.090
 6098.00    1.39157   1.44677    0.090
 6099.00    1.37691   1.44033    0.090
 6100.00    1.36439   1.43227    0.091
 6101.00    1.36233   1.42206    0.092
 6102.00    1.36219   1.41509    0.092
 6103.00    1.36968   1.41760    0.091
 6104.00    1.37712   1.42720    0.091
 6105.00    1.38440   1.43687    0.094
 6106.00    1.39336   1.44422    0.096
 6107.00    1.40702   1.45180    0.095
 6108.00    1.41591   1.46136    0.095
 6109.00    1.41343   1.46978    0.095
 6110.00    1.41135   1.47355    0.095
 6111.00    1.41009   1.47443    0.095
 6112.00    1.41252   1.47584    0.095
 6113.00    1.42156   1.47674    0.095
 6114.00    1.42549   1.47320    0.095
 6115.00    1.42142   1.46413    0.094
 6116.00    1.41342   1.45241    0.093
 6117.00    1.39999   1.44059    0.093
 6118.00    1.38809   1.42883    0.092
 6119.00    1.37802   1.41729    0.092
 6120.00    1.37250   1.40727    0.091
 6121.00    1.37183   1.40086    0.091
 6122.00    1.37343   1.40108    0.090
 6123.00    1.37715   1.40746    0.090
 6124.00    1.37580   1.41513    0.090
 6125.00    1.37024   1.42166    0.091
 6126.00    1.36255   1.42778    0.091
 6127.00    1.35330   1.43378    0.091
 6128.00    1.35446   1.43867    0.091
 6129.00    1.36229   1.44073    0.090
 6130.00    1.37040   1.43790    0.090
 6131.00    1.37867   1.42855    0.091
 6132.00    1.37087   1.41409    0.091
 6133.00    1.35522   1.39820    0.092
 6134.00    1.33776   1.38282    0.093
 6135.00    1.31953   1.36822    0.094
 6136.00    1.31998   1.35758    0.094
 6137.00    1.32716   1.35812    0.094
 6138.00    1.34140   1.37165    0.095
 6139.00    1.35781   1.39014    0.097
 6140.00    1.36088   1.40589    0.096
 6141.00    1.36056   1.41963    0.095
 6142.00    1.35576   1.43475    0.095
 6143.00    1.35004   1.44830    0.095
 6144.00    1.35500   1.45489    0.093
 6145.00    1.36169   1.45487    0.092
 6146.00    1.36739   1.45203    0.091
 6147.00    1.37297   1.44817    0.091
 6148.00    1.37179   1.44274    0.090
 6149.00    1.37005   1.43609    0.089
 6150.00    1.36308   1.43048    0.089
 6151.00    1.35585   1.42680    0.089
 6152.00    1.34816   1.42297    0.090
 6153.00    1.34055   1.41630    0.090
 6154.00    1.33765   1.40670    0.090
 6155.00    1.33485   1.39436    0.089
 6156.00    1.33406   1.37733    0.090
 6157.00    1.33218   1.35563    0.090
 6158.00    1.31775   1.33257    0.091
 6159.00    1.30336   1.31009    0.093
 6160.00    1.28926   1.28833    0.093
 6161.00    1.27521   1.27114    0.093
 6162.00    1.26151   1.26456    0.092
 6163.00    1.24865   1.26786    0.092
 6164.00    1.23984   1.27447    0.092
 6165.00    1.23353   1.28157    0.092
 6166.00    1.23691   1.29125    0.091
 6167.00    1.24472   1.30161    0.091
 6168.00    1.26683   1.30788    0.093
 6169.00    1.28319   1.31283    0.094
 6170.00    1.28381   1.32242    0.093
 6171.00    1.28461   1.33504    0.092
 6172.00    1.28581   1.34541    0.091
 6173.00    1.28869   1.35407    0.090
 6174.00    1.29495   1.36358    0.090
 6175.00    1.29610   1.37242    0.089
 6176.00    1.28823   1.37933    0.089
 6177.00    1.28428   1.38579    0.088
 6178.00    1.28638   1.39185    0.088
 6179.00    1.29102   1.39580    0.088
 6180.00    1.29912   1.39779    0.089
 6181.00    1.30642   1.39794    0.089
 6182.00    1.31277   1.39497    0.090
 6183.00    1.31648   1.38845    0.090
 6184.00    1.31740   1.37918    0.089
 6185.00    1.31463   1.36674    0.090
 6186.00    1.30844   1.35139    0.091
 6187.00    1.30004   1.33747    0.092
 6188.00    1.28983   1.32866    0.093
 6189.00    1.28113   1.32335    0.093
 6190.00    1.27352   1.31968    0.092
 6191.00    1.26790   1.32149    0.092
 6192.00    1.26354   1.33184    0.091
 6193.00    1.26820   1.34500    0.092
 6194.00    1.27785   1.35455    0.094
 6195.00    1.29178   1.36106    0.095
 6196.00    1.30776   1.36769   -2.000
 6197.00    1.32495   1.37300   -2.000
 6198.00    1.34263   1.37418   -2.000
 6199.00    1.34642   1.37394   -2.000
 6200.00    1.34528   1.37716   -2.000
 6201.00    1.30882   1.38383   -2.000
 6202.00    1.26179   1.39018   -2.000
 6203.00    1.23057   1.39428   -2.000
 6204.00    1.20327   1.39696   -2.000
 6205.00    1.21949   1.39830   -2.000
 6206.00    1.24447   1.39660   -2.000
 6207.00    1.26401   1.39061   -2.000
 6208.00    1.28269   1.38001    0.091
 6209.00    1.27962   1.36562    0.090
 6210.00    1.27400   1.34925    0.090
 6211.00    1.26308   1.33247    0.089
 6212.00    1.25174   1.31611    0.088
 6213.00    1.24628   1.30129    0.088
 6214.00    1.24108   1.28968    0.088
 6215.00    1.24859   1.28280    0.088
 6216.00    1.25638   1.28125    0.088
 6217.00    1.27133   1.28312    0.090
 6218.00    1.28542   1.28542    0.092
 6219.00    1.28409   1.28773    0.092
 6220.00    1.28217   1.29214    0.092
 6221.00    1.27380   1.29873    0.092
 6222.00    1.26595   1.30426    0.091
 6223.00    1.26208   1.30653    0.091
 6224.00    1.25898   1.30603    0.091
 6225.00    1.26042   1.30308    0.090
 6226.00    1.26052   1.29783    0.090
 6227.00    1.25437   1.29158    0.090
 6228.00    1.24756   1.28482    0.089
 6229.00    1.23825   1.27913    0.089
 6230.00    1.23377   1.27778    0.088
 6231.00    1.24461   1.28266    0.088
 6232.00    1.25586   1.29165    0.087
 6233.00    1.26825   1.30154    0.088
 6234.00    1.27621   1.30975    0.088
 6235.00    1.27397   1.31404    0.087
 6236.00    1.27138   1.31397    0.087
 6237.00    1.26810   1.30909    0.087
 6238.00    1.26348   1.29951    0.088
 6239.00    1.25653   1.28844    0.088
 6240.00    1.25112   1.27972    0.089
 6241.00    1.24806   1.27360    0.089
 6242.00    1.24246   1.26956    0.089
 6243.00    1.23349   1.26986    0.090
 6244.00    1.23049   1.27492    0.090
 6245.00    1.23451   1.28171    0.090
 6246.00    1.23741   1.28790    0.090
 6247.00    1.23914   1.29215    0.091
 6248.00    1.23420   1.29307    0.091
 6249.00    1.22316   1.28959    0.090
 6250.00    1.21343   1.28170    0.090
 6251.00    1.20475   1.27002    0.090
 6252.00    1.20008   1.25657    0.090
 6253.00    1.19827   1.24441    0.090
 6254.00    1.19786   1.23595    0.089
 6255.00    1.19832   1.23146    0.089
 6256.00    1.20749   1.22994    0.089
 6257.00    1.22139   1.23327    0.088
 6258.00    1.23275   1.24358    0.089
 6259.00    1.24292   1.25861    0.090
 6260.00    1.25451   1.27330    0.094
 6261.00    1.26668   1.28702    0.098
 6262.00    1.27236   1.30109    0.101
 6263.00    1.27578   1.31215    0.104
 6264.00    1.26275   1.31740    0.103
 6265.00    1.24490   1.32005    0.099
 6266.00    1.23753   1.32389    0.096
 6267.00    1.23270   1.32758    0.093
 6268.00    1.24047   1.32925    0.091
 6269.00    1.25071   1.33051    0.090
 6270.00    1.26948   1.33346    0.090
 6271.00    1.28956   1.33733    0.090
 6272.00    1.30878   1.34022    0.090
 6273.00    1.32790   1.34153    0.091
 6274.00    1.31935   1.34159    0.090
 6275.00    1.30872   1.34037    0.089
 6276.00    1.29404   1.33829    0.089
 6277.00    1.27920   1.33623    0.089
 6278.00    1.27497   1.33457    0.089
 6279.00    1.27109   1.33357    0.090
 6280.00    1.27828   1.33392    0.000
 6281.00    1.28549   1.33744    0.000
 6282.00    1.29320   1.34422    0.000
 6283.00    1.30081   1.35240    0.000
 6284.00    1.30737   1.35988    0.000
 6285.00    1.31381   1.36605    0.000
 6286.00    1.31930   1.37110    0.000
 6287.00    1.32417   1.37419    0.000
 6288.00    1.32555   1.37413    0.000
 6289.00    1.32552   1.37089    0.000
 6290.00    1.31907   1.36522    0.000
 6291.00    1.31216   1.35740    0.000
 6292.00    1.30357   1.34838    0.000
 6293.00    1.29535   1.34025    0.000
 6294.00    1.28830   1.33348    0.000
 6295.00    1.28339   1.32605    0.000
 6296.00    1.28415   1.31775    0.000
 6297.00    1.28719   1.31180    0.000
 6298.00    1.29538   1.31034    0.000
 6299.00    1.30093   1.31105    0.000
 6300.00    1.30132   1.31116    0.000
 6301.00    1.30025   1.31275    0.000
 6302.00    1.29668   1.31932    0.000
 6303.00    1.29327   1.32924    0.000
 6304.00    1.29011   1.33808    0.000
 6305.00    1.28789   1.34470    0.000
 6306.00    1.28691   1.35074    0.000
 6307.00    1.28696   1.35567    0.000
 6308.00    1.28821   1.35691    0.000
 6309.00    1.29081   1.35287    0.000
 6310.00    1.29477   1.34482    0.000
 6311.00    1.29269   1.33645    0.000
 6312.00    1.28517   1.32872    0.000
 6313.00    1.27362   1.31915    0.000
 6314.00    1.25888   1.30901    0.000
 6315.00    1.25095   1.30337    0.000
 6316.00    1.24778   1.30238    0.000
 6317.00    1.24987   1.30211    0.000
 6318.00    1.25519   1.30405    0.000
 6319.00    1.26140   1.31202    0.000
 6320.00    1.26810   1.32329    0.000
 6321.00    1.27017   1.33320    0.089
 6322.00    1.27010   1.34195    0.088
 6323.00    1.27171   1.35194    0.089
 6324.00    1.27399   1.36152    0.091
 6325.00    1.28290   1.36744    0.090
 6326.00    1.29408   1.37014    0.090
 6327.00    1.30827   1.37233    0.089
 6328.00    1.32333   1.37427    0.089
 6329.00    1.32260   1.37288    0.088
 6330.00    1.31812   1.36711    0.087
 6331.00    1.30704   1.36017    0.087
 6332.00    1.29470   1.35436    0.088
 6333.00    1.28499   1.34783    0.087
 6334.00    1.27566   1.33887    0.087
 6335.00    1.27139   1.33136    0.086
 6336.00    1.26767   1.32953    0.086
 6337.00    1.26358   1.33110    0.086
 6338.00    1.25947   1.33171    0.085
 6339.00    1.25893   1.33200    0.085
 6340.00    1.25853   1.33463    0.084
 6341.00    1.26099   1.33775    0.085
 6342.00    1.26350   1.33871    0.086
 6343.00    1.26750   1.33929    0.087
 6344.00    1.27156   1.34291    0.087
 6345.00    1.27638   1.34882    0.088
 6346.00    1.28059   1.35423    0.088
 6347.00    1.27862   1.35888    0.089
 6348.00    1.27734   1.36283    0.089
 6349.00    1.28106   1.36398    0.088
 6350.00    1.28595   1.36125    0.088
 6351.00    1.29733   1.35623    0.090
 6352.00    1.30553   1.34891    0.091
 6353.00    1.29963   1.33723    0.090
 6354.00    1.28991   1.32262    0.090
 6355.00    1.26630   1.30935    0.089
 6356.00    1.24603   1.29742    0.088
 6357.00    1.23596   1.28401    0.088
 6358.00    1.22830   1.27132    0.087
 6359.00    1.22686   1.26417    0.086
 6360.00    1.22684   1.26236    0.086
 6361.00    1.22993   1.26342    0.086
 6362.00    1.23866   1.26863    0.087
 6363.00    1.25826   1.28002    0.087
 6364.00    1.27696   1.29520    0.087
 6365.00    1.29414   1.31064    0.088
 6366.00    1.30838   1.32599    0.089
 6367.00    1.31826   1.34203    0.090
 6368.00    1.32535   1.35678    0.090
 6369.00    1.32884   1.36769    0.090
 6370.00    1.32858   1.37559    0.090
 6371.00    1.32404   1.38270    0.091
 6372.00    1.31499   1.38822    0.091
 6373.00    1.30141   1.38979    0.090
 6374.00    1.28881   1.38814    0.089
 6375.00    1.27707   1.38589    0.090
 6376.00    1.27231   1.38324    0.089
 6377.00    1.27302   1.37921    0.089
 6378.00    1.27131   1.37497    0.089
 6379.00    1.26793   1.37210    0.088
 6380.00    1.26966   1.37072    0.087
 6381.00    1.27446   1.37110    0.087
 6382.00    1.28275   1.37302    0.087
 6383.00    1.29289   1.37474    0.087
 6384.00    1.30337   1.37589    0.086
 6385.00    1.31401   1.37764    0.086
 6386.00    1.31639   1.37890    0.086
 6387.00    1.31551   1.37691    0.086
 6388.00    1.31049   1.37137    0.086
 6389.00    1.30407   1.36512    0.086
 6390.00    1.29608   1.35982    0.086
 6391.00    1.28765   1.35397    0.086
 6392.00    1.28667   1.34739    0.087
 6393.00    1.28743   1.34350    0.088
 6394.00    1.29475   1.34323    0.090
 6395.00    1.30329   1.34290    0.093
 6396.00    1.29591   1.34240    0.092
 6397.00    1.28624   1.34433    0.092
 6398.00    1.27868   1.34645    0.091
 6399.00    1.27133   1.34679    0.089
 6400.00    1.27388   1.35000    0.090
 6401.00    1.27710   1.35779    0.091
 6402.00    1.29370   1.36389    0.091
 6403.00    1.31075   1.36548    0.090
 6404.00    1.30970   1.36652    0.089
 6405.00    1.30830   1.36769    0.087
 6406.00    1.29584   1.36486    0.087
 6407.00    1.28393   1.35872    0.087
 6408.00    1.28025   1.35515    0.087
 6409.00    1.27626   1.35442    0.086
 6410.00    1.26930   1.35230    0.085
 6411.00    1.26240   1.35018    0.084
 6412.00    1.25585   1.35141    0.085
 6413.00    1.25256   1.35350    0.086
 6414.00    1.26676   1.35341    0.086
 6415.00    1.27793   1.35210    0.086
 6416.00    1.27599   1.35035    0.087
 6417.00    1.27311   1.34839    0.087
 6418.00    1.26689   1.34749    0.087
 6419.00    1.26303   1.34777    0.087
 6420.00    1.26628   1.34923    0.089
 6421.00    1.27015   1.35411    0.091
 6422.00    1.27559   1.36263    0.089
 6423.00    1.28216   1.37060    0.089
 6424.00    1.29122   1.37505    0.089
 6425.00    1.29670   1.37665    0.089
 6426.00    1.29539   1.37603    0.089
 6427.00    1.29435   1.37332    0.089
 6428.00    1.29379   1.36895    0.090
 6429.00    1.29240   1.36317    0.090
 6430.00    1.28980   1.35786    0.090
 6431.00    1.28636   1.35647    0.089
 6432.00    1.28183   1.35869    0.089
 6433.00    1.27859   1.36029    0.088
 6434.00    1.27680   1.36010    0.086
 6435.00    1.27861   1.36133    0.085
 6436.00    1.28402   1.36486    0.085
 6437.00    1.28663   1.36755    0.085
 6438.00    1.28678   1.36929    0.085
 6439.00    1.28573   1.37438    0.086
 6440.00    1.28375   1.38295    0.088
 6441.00    1.28533   1.39007    0.088
 6442.00    1.28932   1.39367    0.089
 6443.00    1.29248   1.39426    0.089
 6444.00    1.29514   1.39001    0.090
 6445.00    1.28834   1.37991    0.089
 6446.00    1.27665   1.36746    0.089
 6447.00    1.25872   1.35534    0.090
 6448.00    1.23800   1.34292    0.092
 6449.00    1.23831   1.33282    0.098
 6450.00    1.24676   1.33001    0.106
 6451.00    1.26471   1.33400    0.106
 6452.00    1.28579   1.34108    0.104
 6453.00    1.29788   1.34971    0.104
 6454.00    1.30749   1.35861    0.104
 6455.00    1.30216   1.36648    0.096
 6456.00    1.29345   1.37315    0.089
 6457.00    1.28588   1.37657    0.087
 6458.00    1.27852   1.37535    0.086
 6459.00    1.27435   1.37274    0.086
 6460.00    1.27063   1.37049    0.085
 6461.00    1.27258   1.36634    0.085
 6462.00    1.27510   1.36236    0.084
 6463.00    1.28199   1.36353    0.085
 6464.00    1.28915   1.36811    0.086
 6465.00    1.30296   1.37173    0.087
 6466.00    1.31692   1.37464    0.088
 6467.00    1.31675   1.37792    0.089
 6468.00    1.31632   1.38033    0.089
 6469.00    1.30845   1.38090    0.090
 6470.00    1.30135   1.37956    0.090
 6471.00    1.30510   1.37797    0.090
 6472.00    1.30876   1.37833    0.090
 6473.00    1.31150   1.37884    0.092
 6474.00    1.31347   1.37700    0.093
 6475.00    1.31024   1.37488    0.091
 6476.00    1.30768   1.37356    0.090
 6477.00    1.30864   1.36960    0.090
 6478.00    1.30699   1.36286    0.089
 6479.00    1.29434   1.35721    0.088
 6480.00    1.28125   1.35275    0.088
 6481.00    1.26661   1.34771    0.087
 6482.00    1.25770   1.34440    0.086
 6483.00    1.26562   1.34511    0.086
 6484.00    1.27495   1.34710    0.085
 6485.00    1.28781   1.34675    0.084
 6486.00    1.29319   1.34363    0.083
 6487.00    1.28247   1.33808    0.085
 6488.00    1.26803   1.32778    0.085
 6489.00    1.24663   1.31010    0.083
 6490.00    1.23128   1.28721    0.083
 6491.00    1.22582   1.26426    0.086
 6492.00    1.21779   1.24277    0.088
 6493.00    1.20607   1.22243    0.088
 6494.00    1.19751   1.20735    0.089
 6495.00    1.19292   1.20239    0.089
 6496.00    1.18833   1.20718    0.089
 6497.00    1.18374   1.21834    0.087
 6498.00    1.19022   1.23388    0.087
 6499.00    1.20755   1.25336    0.088
 6500.00    1.22685   1.27490    0.087
 6501.00    1.24786   1.29525    0.086
 6502.00    1.26203   1.31249    0.086
 6503.00    1.27099   1.32641    0.087
 6504.00    1.27721   1.33705    0.087
 6505.00    1.28159   1.34504    0.086
 6506.00    1.28325   1.35075    0.085
 6507.00    1.28333   1.35365    0.084
 6508.00    1.28726   1.35472    0.084
 6509.00    1.29316   1.35591    0.084
 6510.00    1.29692   1.35647    0.084
 6511.00    1.29972   1.35484    0.084
 6512.00    1.29173   1.35218    0.085
 6513.00    1.27962   1.34946    0.087
 6514.00    1.27916   1.34569    0.087
 6515.00    1.28246   1.34193    0.087
 6516.00    1.28423   1.34052    0.088
 6517.00    1.28558   1.34071    0.088
 6518.00    1.28203   1.34155    0.089
 6519.00    1.27739   1.34468    0.090
 6520.00    1.28230   1.35002    0.090
 6521.00    1.28889   1.35442    0.089
 6522.00    1.28418   1.35636    0.089
 6523.00    1.27795   1.35754    0.089
 6524.00    1.27133   1.35876    0.089
 6525.00    1.26466   1.35822    0.088
 6526.00    1.27554   1.35566    0.087
 6527.00    1.28746   1.35337    0.086
 6528.00    1.29402   1.35218    0.000
 6529.00    1.30043   1.35129    0.000
 6530.00    1.30508   1.35096    0.000
 6531.00    1.30973   1.35170    0.000
 6532.00    1.31417   1.35312    0.000
 6533.00    1.31787   1.35543    0.000
 6534.00    1.31168   1.35938    0.000
 6535.00    1.30687   1.36388    0.000
 6536.00    1.31435   1.36679    0.000
 6537.00    1.32058   1.36775    0.000
 6538.00    1.31862   1.36770    0.000
 6539.00    1.31635   1.36614    0.000
 6540.00    1.31252   1.36151    0.000
 6541.00    1.30821   1.35371    0.000
 6542.00    1.30192   1.34470    0.000
 6543.00    1.29613   1.33680    0.000
 6544.00    1.29203   1.32996    0.000
 6545.00    1.29048   1.32304    0.000
 6546.00    1.29626   1.31725    0.000
 6547.00    1.30312   1.31397    0.000
 6548.00    1.31262   1.31178    0.000
 6549.00    1.31720   1.30814    0.000
 6550.00    1.31135   1.30249    0.000
 6551.00    1.30248   1.29602    0.000
 6552.00    1.28803   1.28950    0.000
 6553.00    1.26961   1.28150    0.000
 6554.00    1.24479   1.27031    0.000
 6555.00    1.22309   1.25735    0.000
 6556.00    1.20578   1.24436    0.000
 6557.00    1.19862   1.22763    0.000
 6558.00    1.20409   1.20436    0.000
 6559.00    1.21343   1.18242    0.000
 6560.00    1.22701   1.16911    0.000
 6561.00    1.23155   1.15892    0.000
 6562.00    1.22737   1.15214    0.000
 6563.00    1.22184   1.16021    0.000
 6564.00    1.21518   1.18113    0.000
 6565.00    1.21461   1.20159    0.000
 6566.00    1.21863   1.22039    0.000
 6567.00    1.22312   1.24024    0.000
 6568.00    1.22793   1.25499    0.000
 6569.00    1.22494   1.26205    0.000
 6570.00    1.21746   1.26617    0.000
 6571.00    1.22007   1.26915    0.000
 6572.00    1.22773   1.27100    0.000
 6573.00    1.23948   1.27376    0.000
 6574.00    1.25300   1.27870    0.000
 6575.00    1.25919   1.28528    0.000
 6576.00    1.26265   1.29219    0.000
 6577.00    1.27561   1.29840    0.000
 6578.00    1.29158   1.30392    0.000
 6579.00    1.31944   1.30848    0.000
 6580.00    1.35044   1.31148    0.000
 6581.00    1.37518   1.31375    0.000
 6582.00    1.39857   1.31643    0.000
 6583.00    1.40147   1.31940    0.000
 6584.00    1.40087   1.32136    0.000
 6585.00    1.39002   1.32151    0.000
 6586.00    1.37783   1.32081    0.000
 6587.00    1.35848   1.31865    0.000
 6588.00    1.33847   1.31225    0.000
 6589.00    1.31949   1.30274    0.000
 6590.00    1.30056   1.29453    0.000
 6591.00    1.27438   1.28736    0.000
 6592.00    1.24820   1.27972    0.000
 6593.00    1.23728   1.27538    0.000
 6594.00    1.22714   1.27691    0.000
 6595.00    1.23522   1.28147    0.000
 6596.00    1.24380   1.28703    0.000
 6597.00    1.25871   1.29379    0.000
 6598.00    1.27230   1.30081    0.000
 6599.00    1.27465   1.30669    0.000
 6600.00    1.27445   1.31035    0.000
 6601.00    1.25802   1.31073    0.000
 6602.00    1.24464   1.30856    0.000
 6603.00    1.24647   1.30488    0.000
 6604.00    1.25008   1.29929    0.000
 6605.00    1.26086   1.29281    0.000
 6606.00    1.26772   1.28880    0.000
 6607.00    1.26149   1.28798    0.000
 6608.00    1.25670   1.28822    0.000
 6609.00    1.25597   1.29036    0.089
 6610.00    1.25713   1.29667    0.089
 6611.00    1.26289   1.30515    0.089
 6612.00    1.26660   1.31177    0.090
 6613.00    1.26604   1.31697    0.091
 6614.00    1.26403   1.32306    0.091
 6615.00    1.25936   1.32838    0.089
 6616.00    1.25859   1.33034    0.088
 6617.00    1.26399   1.33021    0.087
 6618.00    1.26912   1.32975    0.087
 6619.00    1.27385   1.32744    0.087
 6620.00    1.27686   1.32222    0.086
 6621.00    1.27776   1.31617    0.086
 6622.00    1.27501   1.31085    0.086
 6623.00    1.26832   1.30490    0.085
 6624.00    1.25965   1.29851    0.086
 6625.00    1.24908   1.29385    0.086
 6626.00    1.23819   1.29045    0.087
 6627.00    1.22703   1.28645    0.087
 6628.00    1.21957   1.28184    0.087
 6629.00    1.21485   1.27726    0.087
 6630.00    1.20933   1.27305    0.088
 6631.00    1.20328   1.27005    0.089
 6632.00    1.20203   1.26813    0.089
 6633.00    1.20352   1.26771    0.088
 6634.00    1.21149   1.26975    0.088
 6635.00    1.22268   1.27303    0.088
 6636.00    1.23230   1.27632    0.088
 6637.00    1.24126   1.28016    0.088
 6638.00    1.24152   1.28277    0.088
 6639.00    1.23861   1.28239    0.087
 6640.00    1.23585   1.28208    0.087
 6641.00    1.23314   1.28314    0.086
 6642.00    1.23112   1.28222    0.085
 6643.00    1.22929   1.27996    0.084
 6644.00    1.22534   1.28059    0.084
 6645.00    1.22095   1.28299    0.086
 6646.00    1.22107   1.28361    0.085
 6647.00    1.22193   1.28361    0.085
 6648.00    1.22754   1.28510    0.086
 6649.00    1.23375   1.28640    0.087
 6650.00    1.23452   1.28617    0.088
 6651.00    1.23482   1.28568    0.088
 6652.00    1.22099   1.28517    0.088
 6653.00    1.20645   1.28414    0.088
 6654.00    1.19959   1.28291    0.087
 6655.00    1.19303   1.28078    0.087
 6656.00    1.19820   1.27714    0.088
 6657.00    1.20285   1.27322    0.089
 6658.00    1.19656   1.26862    0.088
 6659.00    1.18957   1.26185    0.087
 6660.00    1.17406   1.25543    0.086
 6661.00    1.16088   1.25122    0.085
 6662.00    1.16690   1.24713    0.085
 6663.00    1.17234   1.24401    0.085
 6664.00    1.17418   1.24484    0.085
 6665.00    1.17575   1.24857    0.085
 6666.00    1.17593   1.25287    0.085
 6667.00    1.17919   1.25823    0.085
 6668.00    1.19463   1.26476    0.085
 6669.00    1.20894   1.27040    0.086
 6670.00    1.21952   1.27366    0.088
 6671.00    1.22678   1.27496    0.089
 6672.00    1.22485   1.27409    0.088
 6673.00    1.21740   1.26950    0.087
 6674.00    1.19680   1.26250    0.088
 6675.00    1.18043   1.25716    0.088
 6676.00    1.17275   1.25265    0.088
 6677.00    1.17124   1.24719    0.089
 6678.00    1.18074   1.24514    0.089
 6679.00    1.19011   1.24844    0.089
 6680.00    1.19928   1.25250    0.090
 6681.00    1.20580   1.25596    0.089
 6682.00    1.20868   1.26135    0.088
 6683.00    1.20822   1.26712    0.086
 6684.00    1.20373   1.27054    0.086
 6685.00    1.20256   1.27275    0.086
 6686.00    1.20493   1.27457    0.086
 6687.00    1.20563   1.27506    0.085
 6688.00    1.20476   1.27415    0.084
 6689.00    1.20450   1.27272    0.084
 6690.00    1.20473   1.27062    0.085
 6691.00    1.20222   1.26687    0.086
 6692.00    1.19770   1.26199    0.086
 6693.00    1.19350   1.25779    0.087
 6694.00    1.18952   1.25411    0.088
 6695.00    1.18801   1.25043    0.089
 6696.00    1.18788   1.24849    0.000
 6697.00    1.18571   1.24867    0.000
 6698.00    1.18254   1.24953    0.000
 6699.00    1.18145   1.25052    0.000
 6700.00    1.18123   1.25182    0.000
 6701.00    1.18075   1.25311    0.000
 6702.00    1.18017   1.25385    0.000
 6703.00    1.17704   1.25373    0.000
 6704.00    1.17314   1.25332    0.000
 6705.00    1.17120   1.25304    0.000
 6706.00    1.16976   1.25166    0.000
 6707.00    1.17811   1.24934    0.000
 6708.00    1.18847   1.24656    0.000
 6709.00    1.19240   1.24187    0.000
 6710.00    1.19530   1.23547    0.000
 6711.00    1.20262   1.22889    0.000
 6712.00    1.21047   1.22180    0.000
 6713.00    1.23194   1.21399    0.000
 6714.00    1.25453   1.20821    0.000
 6715.00    1.26170   1.20603    0.000
 6716.00    1.26815   1.20547    0.000
 6717.00    1.25559   1.20651    0.000
 6718.00    1.24256   1.21074    0.000
 6719.00    1.21813   1.21749    0.000
 6720.00    1.19453   1.22373    0.000
 6721.00    1.18701   1.22848    0.000
 6722.00    1.18042   1.23308    0.000
 6723.00    1.18449   1.23769    0.000
 6724.00    1.18841   1.24069    0.000
 6725.00    1.19105   1.24199    0.000
 6726.00    1.19464   1.24386    0.000
 6727.00    1.20389   1.24631    0.000
 6728.00    1.21450   1.24771    0.000
 6729.00    1.23160   1.24814    0.000
 6730.00    1.24372   1.24873    0.000
 6731.00    1.23658   1.24878    0.000
 6732.00    1.22811   1.24769    0.000
 6733.00    1.21532   1.24549    0.000
 6734.00    1.20646   1.24241    0.000
 6735.00    1.20826   1.23902    0.000
 6736.00    1.20501   1.23584    0.000
 6737.00    1.18994   1.23264    0.000
 6738.00    1.17437   1.22886    0.000
 6739.00    1.15780   1.22567    0.000
 6740.00    1.14928   1.22421    0.000
 6741.00    1.15489   1.22288    0.000
 6742.00    1.16266   1.22038    0.000
 6743.00    1.17374   1.21872    0.000
 6744.00    1.17779   1.21830    0.000
 6745.00    1.17234   1.21669    0.000
 6746.00    1.16880   1.21413    0.000
 6747.00    1.16751   1.21344    0.000
 6748.00    1.16333   1.21336    0.000
 6749.00    1.15611   1.21244    0.000
 6750.00    1.14786   1.21387    0.000
 6751.00    1.13866   1.21745    0.000
 6752.00    1.13552   1.22112    0.000
 6753.00    1.13734   1.22623    0.090
 6754.00    1.12606   1.23328    0.092
 6755.00    1.10537   1.23986    0.092
 6756.00    1.09040   1.24577    0.094
 6757.00    1.07902   1.25143    0.096
 6758.00    1.09723   1.25502    0.097
 6759.00    1.13175   1.25671    0.097
 6760.00    1.19907   1.25704    0.100
 6761.00    1.28211   1.25522    0.104
 6762.00    1.32747   1.25136    0.106
 6763.00    1.35724   1.24650    0.108
 6764.00    1.35677   1.24163    0.106
 6765.00    1.34560   1.23738    0.104
 6766.00    1.34376   1.23319    0.102
 6767.00    1.34469   1.22988    0.101
 6768.00    1.34379   1.22963    0.100
 6769.00    1.34243   1.23187    0.100
 6770.00    1.32678   1.23474    0.097
 6771.00    1.30827   1.23914    0.094
 6772.00    1.28631   1.24565    0.094
 6773.00    1.26381   1.25164    0.093
 6774.00    1.24533   1.25624    0.093
 6775.00    1.22732   1.26014    0.092
 6776.00    1.20504   1.26182    0.092
 6777.00    1.18241   1.26046    0.092
 6778.00    1.19445   1.25670    0.093
 6779.00    1.20799   1.25060    0.095
 6780.00    1.20040   1.24263    0.097
 6781.00    1.19275   1.23474    0.099
 6782.00    1.19252   1.22748    0.099
 6783.00    1.19297   1.22171    0.098
 6784.00    1.20577   1.21895    0.098
 6785.00    1.21752   1.21812    0.097
 6786.00    1.21788   1.21870    0.097
 6787.00    1.21909   1.22157    0.098
 6788.00    1.22686   1.22479    0.097
 6789.00    1.23311   1.22613    0.096
 6790.00    1.23050   1.22734    0.096
 6791.00    1.22318   1.22881    0.095
 6792.00    1.19416   1.22844    0.094
 6793.00    1.17405   1.22782    0.093
 6794.00    1.18764   1.22865    0.092
 6795.00    1.19917   1.22963    0.091
 6796.00    1.20415   1.23060    0.090
 6797.00    1.21247   1.23272    0.090
 6798.00    1.22977   1.23519    0.092
 6799.00    1.23854   1.23658    0.093
 6800.00    1.22775   1.23760    0.095
 6801.00    1.22007   1.23894    0.096
 6802.00    1.21858   1.23907    0.096
 6803.00    1.21186   1.23766    0.096
 6804.00    1.19606   1.23712    0.095
 6805.00    1.18627   1.23681    0.095
 6806.00    1.18556   1.23493    0.095
 6807.00    1.18494   1.23356    0.095
 6808.00    1.18441   1.23360    0.094
 6809.00    1.18732   1.23305    0.093
 6810.00    1.19425   1.23187    0.093
 6811.00    1.19494   1.23166    0.094
 6812.00    1.18916   1.23239    0.094
 6813.00    1.19105   1.23318    0.095
 6814.00    1.19992   1.23389    0.096
 6815.00    1.20055   1.23513    0.096
 6816.00    1.19455   1.23709    0.095
 6817.00    1.19095   1.23920    0.094
 6818.00    1.18907   1.24125    0.092
 6819.00    1.19057   1.24357    0.092
 6820.00    1.19416   1.24568    0.093
 6821.00    1.20431   1.24741    0.094
 6822.00    1.21802   1.24879    0.095
 6823.00    1.21716   1.24904    0.095
 6824.00    1.20943   1.24803    0.094
 6825.00    1.20046   1.24691    0.094
 6826.00    1.19099   1.24603    0.095
 6827.00    1.19335   1.24479    0.096
 6828.00    1.19982   1.24346    0.096
 6829.00    1.21479   1.24306    0.096
 6830.00    1.23225   1.24362    0.096
 6831.00    1.24411   1.24387    0.095
 6832.00    1.25462   1.24283    0.094
 6833.00    1.24468   1.24087    0.093
 6834.00    1.23075   1.23800    0.093
 6835.00    1.21825   1.23290    0.093
 6836.00    1.20598   1.22597    0.093
 6837.00    1.21352   1.21898    0.095
 6838.00    1.22330   1.21267    0.096
 6839.00    1.21475   1.20755    0.096
 6840.00    1.20484   1.20503    0.097
 6841.00    1.20452   1.20539    0.097
 6842.00    1.20458   1.20793    0.097
 6843.00    1.19600   1.21267    0.096
 6844.00    1.18759   1.21871    0.095
 6845.00    1.18806   1.22420    0.094
 6846.00    1.18810   1.22854    0.094
 6847.00    1.18086   1.23152    0.094
 6848.00    1.17578   1.23242    0.095
 6849.00    1.19322   1.23136    0.095
 6850.00    1.20848   1.22828    0.095
 6851.00    1.20755   1.22325    0.095
 6852.00    1.20349   1.21845    0.094
 6853.00    1.18167   1.21391    0.092
 6854.00    1.16302   1.20822    0.091
 6855.00    1.15872   1.20392    0.091
 6856.00    1.15189   1.20223    0.091
 6857.00    1.13568   1.20020    0.091
 6858.00    1.12392   1.19876    0.091
 6859.00    1.12597   1.20065    0.091
 6860.00    1.13045   1.20286    0.091
 6861.00    1.14131   1.20363    0.092
 6862.00    1.14839   1.20576    0.093
 6863.00    1.14692   1.20794    0.093
 6864.00    1.14617   1.20731    0.094
 6865.00    1.14683   1.20644    0.095
 6866.00    1.15037   1.20677    0.096
 6867.00    1.15879   1.20546    0.097
 6868.00    1.16215   1.20313    0.097
 6869.00    1.15794   1.20316    0.097
 6870.00    1.15333   1.20440    0.096
 6871.00    1.14819   1.20467    0.094
 6872.00    1.14874   1.20603    0.093
 6873.00    1.15584   1.20969    0.092
 6874.00    1.15754   1.21291    0.091
 6875.00    1.15373   1.21452    0.091
 6876.00    1.15423   1.21646    0.091
 6877.00    1.15862   1.21860    0.091
 6878.00    1.16263   1.21870    0.091
 6879.00    1.16634   1.21766    0.090
 6880.00    1.16215   1.21809    0.091
 6881.00    1.15246   1.21892    0.092
 6882.00    1.14824   1.21913    0.093
 6883.00    1.14737   1.22165    0.092
 6884.00    1.15829   1.22667    0.093
 6885.00    1.17550   1.23102    0.094
 6886.00    1.18844   1.23547    0.095
 6887.00    1.19940   1.24169    0.097
 6888.00    1.19791   1.24638    0.097
 6889.00    1.19143   1.24850    0.095
 6890.00    1.19558   1.25094    0.095
 6891.00    1.20336   1.25240    0.095
 6892.00    1.19946   1.25132    0.095
 6893.00    1.19221   1.25040    0.095
 6894.00    1.17777   1.25046    0.094
 6895.00    1.16164   1.24949    0.093
 6896.00    1.16075   1.24829    0.092
 6897.00    1.16276   1.24889    0.091
 6898.00    1.15465   1.25023    0.091
 6899.00    1.14504   1.25088    0.091
 6900.00    1.14247   1.25186    0.092
 6901.00    1.14065   1.25392    0.094
 6902.00    1.15118   1.25594    0.094
 6903.00    1.16258   1.25721    0.093
 6904.00    1.16450   1.25823    0.094
 6905.00    1.16608   1.25930    0.095
 6906.00    1.16834   1.25961    0.096
 6907.00    1.17015   1.25836    0.097
 6908.00    1.15630   1.25618    0.096
 6909.00    1.14290   1.25358    0.095
 6910.00    1.13644   1.24969    0.094
 6911.00    1.13050   1.24566    0.092
 6912.00    1.12968   1.24278    0.093
 6913.00    1.13116   1.24001    0.094
 6914.00    1.14915   1.23826    0.093
 6915.00    1.16260   1.23892    0.092
 6916.00    1.15102   1.24010    0.091
 6917.00    1.13821   1.24073    0.090
 6918.00    1.11990   1.24208    0.090
 6919.00    1.10596   1.24285    0.090
 6920.00    1.10779   1.24138    0.091
 6921.00    1.11033   1.23888    0.092
 6922.00    1.11501   1.23621    0.092
 6923.00    1.12305   1.23333    0.093
 6924.00    1.13979   1.23061    0.095
 6925.00    1.14873   1.22887    0.096
 6926.00    1.14032   1.22847    0.096
 6927.00    1.13335   1.22918    0.096
 6928.00    1.12915   1.23031    0.096
 6929.00    1.13383   1.23119    0.097
 6930.00    1.15345   1.23268    0.098
 6931.00    1.15923   1.23476    0.098
 6932.00    1.14461   1.23598    0.096
 6933.00    1.13203   1.23711    0.094
 6934.00    1.12208   1.23944    0.093
 6935.00    1.11900   1.24166    0.093
 6936.00    1.12375   1.24284    0.092
 6937.00    1.13227   1.24389    0.092
 6938.00    1.14459   1.24410    0.093
 6939.00    1.15397   1.24287    0.094
 6940.00    1.16076   1.24080    0.093
 6941.00    1.16082   1.23761    0.094
 6942.00    1.15561   1.23440    0.096
 6943.00    1.14175   1.23233    0.096
 6944.00    1.12193   1.23024    0.095
 6945.00    1.11249   1.22886    0.095
 6946.00    1.10930   1.22927    0.095
 6947.00    1.11123   1.22927    0.095
 6948.00    1.11585   1.22872    0.096
 6949.00    1.11417   1.22925    0.096
 6950.00    1.10960   1.22923    0.097
 6951.00    1.10343   1.22852    0.096
 6952.00    1.09664   1.22959    0.095
 6953.00    1.11180   1.23150    0.095
 6954.00    1.13430   1.23334    0.095
 6955.00    1.14604   1.23671    0.095
 6956.00    1.15474   1.24096    0.096
 6957.00    1.15413   1.24475    0.095
 6958.00    1.15135   1.24826    0.094
 6959.00    1.14460   1.25147    0.094
 6960.00    1.13710   1.25439    0.094
 6961.00    1.13233   1.25667    0.094
 6962.00    1.12796   1.25793    0.094
 6963.00    1.12678   1.25926    0.094
 6964.00    1.12594   1.26082    0.093
 6965.00    1.13306   1.26142    0.095
 6966.00    1.14071   1.26166    0.097
 6967.00    1.14871   1.26171    0.098
 6968.00    1.15671   1.26053    0.099
 6969.00    1.13632   1.25842    0.098
 6970.00    1.11681   1.25483    0.097
 6971.00    1.12434   1.24857    0.097
 6972.00    1.13200   1.24144    0.096
 6973.00    1.14166   1.23410    0.096
 6974.00    1.14799   1.22455    0.096
 6975.00    1.12228   1.21554    0.096
 6976.00    1.09791   1.21093    0.096
 6977.00    1.08274   1.20867    0.094
 6978.00    1.07169   1.20835    0.093
 6979.00    1.08275   1.21332    0.093
 6980.00    1.09223   1.22206    0.093
 6981.00    1.09491   1.23055    0.094
 6982.00    1.09827   1.23895    0.095
 6983.00    1.10409   1.24745    0.095
 6984.00    1.11226   1.25358    0.096
 6985.00    1.12744   1.25672    0.097
 6986.00    1.13782   1.25837    0.098
 6987.00    1.13602   1.25916    0.097
 6988.00    1.13482   1.25895    0.097
 6989.00    1.13493   1.25835    0.099
 6990.00    1.13130   1.25810    0.099
 6991.00    1.12057   1.25795    0.099
 6992.00    1.11368   1.25714    0.099
 6993.00    1.11314   1.25574    0.098
 6994.00    1.11190   1.25399    0.097
 6995.00    1.10968   1.25144    0.096
 6996.00    1.11150   1.24786    0.095
 6997.00    1.11848   1.24413    0.095
 6998.00    1.12162   1.24096    0.095
 6999.00    1.12044   1.23775    0.094
 7000.00    1.11610   1.23478    0.094
 7001.00    1.10864   1.23324    0.095
 7002.00    1.10227   1.23260    0.096
 7003.00    1.09687   1.23193    0.096
 7004.00    1.09255   1.23189    0.097
 7005.00    1.08905   1.23304    0.098
 7006.00    1.09019   1.23427    0.099
 7007.00    1.09446   1.23465    0.101
 7008.00    1.09865   1.23473    0.101
 7009.00    1.10280   1.23420    0.101
 7010.00    1.10827   1.23242    0.102
 7011.00    1.11442   1.22968    0.102
 7012.00    1.09010   1.22606    0.101
 7013.00    1.05210   1.22266    0.099
 7014.00    1.05857   1.22105    0.098
 7015.00    1.08221   1.22025    0.098
 7016.00    1.09959   1.22010    0.097
 7017.00    1.11491   1.22257    0.096
 7018.00    1.10462   1.22601    0.096
 7019.00    1.08728   1.22764    0.096
 7020.00    1.07609   1.22875    0.096
 7021.00    1.06628   1.23021    0.095
 7022.00    1.06390   1.23058    0.097
 7023.00    1.06285   1.23019    0.099
 7024.00    1.07240   1.23080    0.099
 7025.00    1.08341   1.23280    0.100
 7026.00    1.08324   1.23538    0.101
 7027.00    1.08196   1.23815    0.101
 7028.00    1.08446   1.24126    0.101
 7029.00    1.08719   1.24452    0.101
 7030.00    1.10912   1.24688    0.102
 7031.00    1.13149   1.24771    0.102
 7032.00    1.12513   1.24846    0.103
 7033.00    1.11878   1.24968    0.104
 7034.00    1.11297   1.24961    0.103
 7035.00    1.10739   1.24991    0.102
 7036.00    1.10510   1.25327    0.100
 7037.00    1.10376   1.25719    0.099
 7038.00    1.11123   1.26090    0.100
 7039.00    1.11674   1.26759    0.100
 7040.00    1.10900   1.27521    0.099
 7041.00    1.10530   1.28044    0.099
 7042.00    1.12271   1.28546    0.100
 7043.00    1.13935   1.29034    0.102
 7044.00    1.15274   1.29238    0.102
 7045.00    1.15850   1.29197    0.103
 7046.00    1.13775   1.29004    0.103
 7047.00    1.12350   1.28550    0.104
 7048.00    1.12830   1.27759    0.106
 7049.00    1.12869   1.26687    0.107
 7050.00    1.11808   1.25443   -2.000
 7051.00    1.11194   1.24087   -2.000
 7052.00    1.11543   1.22649   -2.000
 7053.00    1.11988   1.21312   -2.000
 7054.00    1.12615   1.20212   -2.000
 7055.00    1.13383   1.19252   -2.000
 7056.00    1.14380   1.18421   -2.000
 7057.00    1.15618   1.17832   -2.000
 7058.00    1.17200   1.17390   -2.000
 7059.00    1.18202   1.16942   -2.000
 7060.00    1.18474   1.16599   -2.000
 7061.00    1.18451   1.16392   -2.000
 7062.00    1.18098   1.16130   -2.000
 7063.00    1.19753   1.15883   -2.000
 7064.00    1.23371   1.15769   -2.000
 7065.00    1.22040   1.15666   -2.000
 7066.00    1.16440   1.15669   -2.000
 7067.00    1.12993   1.15900   -2.000
 7068.00    1.11181   1.16225   -2.000
 7069.00    1.13275   1.16683   -2.000
 7070.00    1.17979   1.17330   -2.000
 7071.00    1.19920   1.17954   -2.000
 7072.00    1.20246   1.18489   -2.000
 7073.00    1.22641   1.19019   -2.000
 7074.00    1.26091   1.19437   -2.000
 7075.00    1.25710   1.19639   -2.000
 7076.00    1.23636   1.19696   -2.000
 7077.00    1.21467   1.19595   -2.000
 7078.00    1.19261   1.19232   -2.000
 7079.00    1.20553   1.18633   -2.000
 7080.00    1.22971   1.17818   -2.000
 7081.00    1.21957   1.16784   -2.000
 7082.00    1.20019   1.15674   -2.000
 7083.00    1.18576   1.14531   -2.000
 7084.00    1.17244   1.13357   -2.000
 7085.00    1.14095   1.12378   -2.000
 7086.00    1.10626   1.11592   -2.000
 7087.00    1.11940   1.10873   -2.000
 7088.00    1.13896   1.10388   -2.000
 7089.00    1.11964   1.10112   -2.000
 7090.00    1.09663   1.09902   -2.000
 7091.00    1.09571   1.09870   -2.000
 7092.00    1.09609   1.09989   -2.000
 7093.00    1.09659   1.10158   -2.000
 7094.00    1.09707   1.10441   -2.000
 7095.00    1.09535   1.10794   -2.000
 7096.00    1.09318   1.11142   -2.000
 7097.00    1.07999   1.11489   -2.000
 7098.00    1.06694   1.11814   -2.000
 7099.00    1.05579   1.12070   -2.000
 7100.00    1.04194   1.12238   -2.000
 7101.00    1.00417   1.12362   -2.000
 7102.00    0.97475   1.12420   -2.000
 7103.00    0.99979   1.12361   -2.000
 7104.00    1.02013   1.12265   -2.000
 7105.00    1.01649   1.12162   -2.000
 7106.00    1.01066   1.11977   -2.000
 7107.00    0.99581   1.11753   -2.000
 7108.00    0.98673   1.11611   -2.000
 7109.00    0.99736   1.11548   -2.000
 7110.00    1.00644   1.11512   -2.000
 7111.00    1.01105   1.11556   -2.000
 7112.00    1.01808   1.11730   -2.000
 7113.00    1.03108   1.11937   -2.000
 7114.00    1.03523   1.12091   -2.000
 7115.00    1.02070   1.12211   -2.000
 7116.00    1.01317   1.12283   -2.000
 7117.00    1.01850   1.12250   -2.000
 7118.00    1.03568   1.12080   -2.000
 7119.00    1.07191   1.11814   -2.000
 7120.00    1.09993   1.11523   -2.000
 7121.00    1.11638   1.11140   -2.000
 7122.00    1.11735   1.10629   -2.000
 7123.00    1.09914   1.10128   -2.000
 7124.00    1.08414   1.09630   -2.000
 7125.00    1.07264   1.09079   -2.000
 7126.00    1.06491   1.08557   -2.000
 7127.00    1.06082   1.08158   -2.000
 7128.00    1.05013   1.07923   -2.000
 7129.00    1.03383   1.07817   -2.000
 7130.00    1.04030   1.07884   -2.000
 7131.00    1.06382   1.08199   -2.000
 7132.00    1.06738   1.08597   -2.000
 7133.00    1.05780   1.09034   -2.000
 7134.00    1.02731   1.09578   -2.000
 7135.00    0.98476   1.09999   -2.000
 7136.00    1.00072   1.10283   -2.000
 7137.00    1.04602   1.10613   -2.000
 7138.00    1.06834   1.10786   -2.000
 7139.00    1.08068   1.10766   -2.000
 7140.00    1.08818   1.10808   -2.000
 7141.00    1.09387   1.10757   -2.000
 7142.00    1.05844   1.10529   -2.000
 7143.00    1.01002   1.10353   -2.000
 7144.00    1.01009   1.10130   -2.000
 7145.00    1.02295   1.09848   -2.000
 7146.00    1.01341   1.09763   -2.000
 7147.00    0.99906   1.09760   -2.000
 7148.00    0.99999   1.09806   -2.000
 7149.00    1.00354   1.10138   -2.000
 7150.00    1.01350   1.10596   -2.000
 7151.00    1.02429   1.10985   -2.000
 7152.00    1.00979   1.11424   -2.000
 7153.00    0.99299   1.11894   -2.000
 7154.00    1.00935   1.12173   -2.000
 7155.00    1.02752   1.12256   -2.000
 7156.00    1.02752   1.12304   -2.000
 7157.00    1.02690   1.12218   -2.000
 7158.00    1.00376   1.11926   -2.000
 7159.00    0.98433   1.11629   -2.000
 7160.00    1.04891   1.11323   -2.000
 7161.00    1.11079   1.10975   -2.000
 7162.00    1.13858   1.10778   -2.000
 7163.00    1.15928   1.10745   -2.000
 7164.00    1.11957   1.10828   -2.000
 7165.00    1.08208   1.11139   -2.000
 7166.00    1.05867   1.11617   -2.000
 7167.00    1.04545   1.12141   -2.000
 7168.00    1.08274   1.12718   -2.000
 7169.00    1.10898   1.13233   -2.000
 7170.00    1.09069   1.13595   -2.000
 7171.00    1.07212   1.13858   -2.000
 7172.00    1.05260   1.13939   -2.000
 7173.00    1.03712   1.13800   -2.000
 7174.00    1.03305   1.13603   -2.000
 7175.00    1.03748   1.13322   -2.000
 7176.00    1.06241   1.12918   -2.000
 7177.00    1.07824   1.12551   -2.000
 7178.00    1.07509   1.12248   -2.000
 7179.00    1.07208   1.11976   -2.000
 7180.00    1.06932   1.11757   -2.000
 7181.00    1.05724   1.11555   -2.000
 7182.00    1.03040   1.11407   -2.000
 7183.00    1.01308   1.11228   -2.000
 7184.00    1.00901   1.10921   -2.000
 7185.00    1.00008   1.10655   -2.000
 7186.00    0.98520   1.10405   -2.000
 7187.00    0.99120   1.10125   -2.000
 7188.00    1.01969   1.10011   -2.000
 7189.00    1.03255   1.10017   -2.000
 7190.00    1.03054   1.10080   -2.000
 7191.00    1.02600   1.10313   -2.000
 7192.00    1.01934   1.10613   -2.000
 7193.00    1.01233   1.10860   -2.000
 7194.00    1.00508   1.11151   -2.000
 7195.00    0.99842   1.11475   -2.000
 7196.00    0.99215   1.11694   -2.000
 7197.00    0.97993   1.11870   -2.000
 7198.00    0.96434   1.12070   -2.000
 7199.00    0.96415   1.12182   -2.000
 7200.00    0.97155   1.12185   -2.000
 7201.00    0.99924   1.12134   -2.000
 7202.00    1.03557   1.12002   -2.000
 7203.00    1.01481   1.11740   -2.000
 7204.00    0.97316   1.11447   -2.000
 7205.00    0.93608   1.11239   -2.000
 7206.00    0.90043   1.11032   -2.000
 7207.00    0.89545   1.10939   -2.000
 7208.00    0.89839   1.11098   -2.000
 7209.00    0.91490   1.11296   -2.000
 7210.00    0.93426   1.11559   -2.000
 7211.00    0.94497   1.11980   -2.000
 7212.00    0.95424   1.12337   -2.000
 7213.00    0.94943   1.12634   -2.000
 7214.00    0.94286   1.12999   -2.000
 7215.00    0.95600   1.13304   -2.000
 7216.00    0.97084   1.13518   -2.000
 7217.00    0.97356   1.13756   -2.000
 7218.00    0.97566   1.13989   -2.000
