###################################################################
## OUTPUT of StarlightChains_v04.for    [Cid@UFSC - 01/Apr/2007] ##
###################################################################

## Some input info
KUG0210-078._32_29.txt                   [arq_obs]
Base.CB07.vall.4m                        [arq_base]
Masks.EmLines.NEW.gm                     [arq_masks]
StCv04.C11.config                        [arq_config]
   66                                    [N_base]
    0                                    [N_YAV_components = # of components with extra extinction!]
    0                                    [i_FitPowerLaw (1/0 = Yes/No)]
-9.99                                    [alpha_PowerLaw]
CCM                                      [red_law_option]
 1.458241                                [q_norm = A(l_norm)/A(V)]

## (Re)Sampling Parameters
 3741.00                                 [l_ini (A)]
 7218.00                                 [l_fin (A)]
    1.00                                 [dl    (A)]     (OBS: dl_cushion =    50.00 A)

## Normalization info
 4020.00                                 [l_norm (A) - for base]
 4010.00                                 [llow_norm (A) - window for f_obs]
 4060.00                                 [lupp_norm (A) - window for f_obs]
4.025409E-17                             [fobs_norm (in input units)]

## S/N
 3691.00                                 [llow_SN (A) - window for S/N]
 7268.00                                 [lupp_SN (A) - window for S/N]
   3.358                                 [S/N in S/N window]
   2.276                                 [S/N in norm. window]
   0.121                                 [S/N_err in S/N window]
   0.082                                 [S/N_err in norm. window]
  1.0000                                 [fscale_chi2]

## etc...
    -2007477                             [idum_orig]
  2430                                   [NOl_eff]
  1940                                   [Nl_eff]
   490    NSIGMA                         [Ntot_cliped & clip_method]
 10174080                                [Nglobal_steps]
   7                                     [N_chains]
   9                                     [NEX0s_base = N_base in EX0s-fits]
 0   0   1        0   2.0   3.979E+04    [Clip-Bug, RC-Crash & Burn-In warning-flags, n_censored_weights, wei_nsig_threshold & wei_limit]
    79     78.369     77.387      0.981  [idt_all, wdt_TotTime, wdt_UsrTime & wdt_SysTime (sec)]

## Synthesis Results - Best model ##

 2.08331E-04                             [chi2/Nl_eff]
     8.61253                             [adev (%)]

   119.47617                             [sum-of-x (%)]
 2.76447E-17                             [Flux_tot (units of input spectrum!)]
 3.88050E-12                             [Mini_tot (???)]
 1.94529E-12                             [Mcor_tot (???)]

 -63.68                                  [v0_min  (km/s)]
 217.88                                  [vd_min  (km/s)]
-0.4123                                  [AV_min  (mag)]
 0.0000                                  [YAV_min (mag)]

# j     x_j(%)      Mini_j(%)     Mcor_j(%)     age_j(yr)     Z_j      (L/M)_j    YAV?  Mstars   component_j        a/Fe...       SSP_chi2r SSP_adev(%)   SSP_AV   SSP_x(%)
  1      0.0000     0.0000E+00    0.0000E+00    1.000000E+06  0.00400  1.094E-02    0   1.0000   age020_m42            0.0000     4.0383E-04    11.1353   3.7044   113.0255
  2      0.0000     0.0000E+00    0.0000E+00    3.160000E+06  0.00400  4.007E-02    0   0.9999   age045_m42            0.0000     4.5515E-04    12.1857   3.0814   115.0512
  3      0.0000     0.0000E+00    0.0000E+00    5.010000E+06  0.00400  2.539E-02    0   0.9488   age055_m42            0.0000     4.2892E-04    11.7033   3.3496   114.9951
  4      0.0000     0.0000E+00    0.0000E+00    6.610000E+06  0.00400  2.620E-02    0   0.9220   age061_m42            0.0000     4.5941E-04    12.3502   3.0074   115.2916
  5      0.0000     0.0000E+00    0.0000E+00    1.000000E+07  0.00400  1.322E-02    0   0.8862   age070_m42            0.0000     5.3179E-04    13.8971   2.7443   116.5839
  6      0.0000     0.0000E+00    0.0000E+00    1.445000E+07  0.00400  7.883E-03    0   0.8571   age078_m42            0.0000     4.9688E-04    13.2344   3.0266   116.0513
  7      0.0000     0.0000E+00    0.0000E+00    2.512000E+07  0.00400  5.251E-03    0   0.8174   age090_m42            0.0000     5.4834E-04    14.2481   2.6187   116.9454
  8      0.0000     0.0000E+00    0.0000E+00    4.000000E+07  0.00400  3.649E-03    0   0.7851   age104_m42            0.0000     5.4751E-04    14.2619   2.4058   117.1052
  9      0.0000     0.0000E+00    0.0000E+00    5.500000E+07  0.00400  3.098E-03    0   0.7629   age110_m42            0.0000     5.2523E-04    13.7476   2.5698   116.5614
 10      0.0000     0.0000E+00    0.0000E+00    1.015200E+08  0.00400  2.228E-03    0   0.7207   age116_m42            0.0000     5.1383E-04    13.4929   2.6031   116.1382
 11      0.0000     0.0000E+00    0.0000E+00    2.861200E+08  0.00400  1.093E-03    0   0.6648   age125_m42            0.0000     5.6902E-04    14.5412   2.0828   116.8622
 12      0.0000     0.0000E+00    0.0000E+00    5.088000E+08  0.00400  6.597E-04    0   0.6365   age130_m42            0.0000     5.3973E-04    13.9855   2.0879   117.1191
 13      0.0000     0.0000E+00    0.0000E+00    1.434000E+09  0.00400  2.132E-04    0   0.5798   age139_m42            0.0000     4.9913E-04    13.7702   1.1388   118.3683
 14      0.0000     0.0000E+00    0.0000E+00    4.250000E+09  0.00400  5.895E-05    0   0.5377   age158_m42            0.0000     3.8772E-04    11.8961   0.6301   117.7269
 15      0.0000     0.0000E+00    0.0000E+00    7.500000E+09  0.00400  3.510E-05    0   0.5212   age171_m42            0.0000     3.6100E-04    11.3970   0.4351   117.3663
 16      0.0000     0.0000E+00    0.0000E+00    1.300000E+10  0.00400  2.005E-05    0   0.5034   age193_m42            0.0000     3.4779E-04    11.0608   0.2721   116.6034
 17      0.0000     0.0000E+00    0.0000E+00    1.800000E+10  0.00400  1.525E-05    0   0.4967   age213_m42            0.0000     3.4318E-04    11.0514   0.2427   116.5180
 18      0.0000     0.0000E+00    0.0000E+00    1.000000E+06  0.00800  1.238E-02    0   1.0000   age020_m52            0.0000     4.0380E-04    11.1377   3.7026   113.1598
 19      0.0000     0.0000E+00    0.0000E+00    3.160000E+06  0.00800  3.074E-02    0   0.9966   age045_m52            0.0000     4.0169E-04    11.1238   3.6282   114.0281
 20      0.0000     0.0000E+00    0.0000E+00    5.010000E+06  0.00800  2.668E-02    0   0.9443   age055_m52            0.0000     4.2029E-04    11.5717   3.4153   114.8674
 21      0.0000     0.0000E+00    0.0000E+00    6.610000E+06  0.00800  2.136E-02    0   0.9177   age061_m52            0.0000     5.0888E-04    13.7202   2.2505   117.6667
 22      0.0000     0.0000E+00    0.0000E+00    1.000000E+07  0.00800  1.215E-02    0   0.8827   age070_m52            0.0000     5.4141E-04    14.1179   2.9106   117.0495
 23      0.0000     0.0000E+00    0.0000E+00    1.445000E+07  0.00800  8.717E-03    0   0.8552   age078_m52            0.0000     5.0875E-04    13.4814   3.0097   116.7038
 24      0.0000     0.0000E+00    0.0000E+00    2.512000E+07  0.00800  5.592E-03    0   0.8162   age090_m52            0.0000     5.5470E-04    14.4108   2.6926   117.8112
 25      0.0000     0.0000E+00    0.0000E+00    4.000000E+07  0.00800  3.896E-03    0   0.7841   age104_m52            0.0000     5.4441E-04    14.2366   2.6150   118.1491
 26      0.0000     0.0000E+00    0.0000E+00    1.015200E+08  0.00800  2.148E-03    0   0.7226   age116_m52            0.0000     5.1999E-04    13.7532   2.5661   117.3405
 27      0.0000     0.0000E+00    0.0000E+00    2.861200E+08  0.00800  9.925E-04    0   0.6683   age125_m52            0.0000     5.3858E-04    14.0448   2.1573   117.9953
 28      0.0000     0.0000E+00    0.0000E+00    9.047900E+08  0.00800  3.141E-04    0   0.6138   age135_m52            0.0000     4.8422E-04    13.4764   1.3982   120.8827
 29      0.0000     0.0000E+00    0.0000E+00    1.434000E+09  0.00800  1.719E-04    0   0.5853   age139_m52            0.0000     4.3023E-04    12.7941   0.7842   120.5303
 30      0.0000     0.0000E+00    0.0000E+00    2.500000E+09  0.00800  7.872E-05    0   0.5600   age150_m52            0.0000     3.5674E-04    11.4659   0.4827   119.1837
 31      0.0000     0.0000E+00    0.0000E+00    4.250000E+09  0.00800  4.336E-05    0   0.5426   age158_m52            0.0000     3.4620E-04    11.2517   0.4528   118.8389
 32      0.0000     0.0000E+00    0.0000E+00    6.250000E+09  0.00800  3.159E-05    0   0.5319   age166_m52            0.0000     3.1909E-04    10.7475   0.2516   118.8864
 33      0.0000     0.0000E+00    0.0000E+00    1.300000E+10  0.00800  1.361E-05    0   0.5073   age193_m52            0.0000     2.8737E-04    10.2428  -0.2103   117.9061
 34      0.0000     0.0000E+00    0.0000E+00    1.800000E+10  0.00800  9.886E-06    0   0.4990   age213_m52            0.0000     2.6071E-04     9.6511  -0.3236   117.7191
 35      0.0000     0.0000E+00    0.0000E+00    1.000000E+06  0.02000  1.544E-02    0   1.0000   age020_m62            0.0000     4.0427E-04    11.1411   3.6996   113.3916
 36      0.0000     0.0000E+00    0.0000E+00    3.160000E+06  0.02000  3.762E-02    0   0.9858   age045_m62            0.0000     4.0310E-04    11.0992   3.6387   114.3471
 37      0.0000     0.0000E+00    0.0000E+00    5.010000E+06  0.02000  3.296E-02    0   0.9342   age055_m62            0.0000     4.3380E-04    11.7642   3.3304   115.2824
 38      0.0000     0.0000E+00    0.0000E+00    8.710000E+06  0.02000  1.154E-02    0   0.8861   age067_m62            0.0000     7.1547E-04    17.1751   2.3770   119.3229
 39      0.0000     0.0000E+00    0.0000E+00    1.445000E+07  0.02000  7.663E-03    0   0.8472   age078_m62            0.0000     5.9389E-04    15.1601   2.5780   118.5529
 40      0.0000     0.0000E+00    0.0000E+00    2.512000E+07  0.02000  4.532E-03    0   0.8099   age090_m62            0.0000     6.0294E-04    15.3654   2.5707   118.2378
 41      0.0000     0.0000E+00    0.0000E+00    5.500000E+07  0.02000  2.733E-03    0   0.7595   age110_m62            0.0000     5.3840E-04    14.1820   2.5958   117.4741
 42      0.0000     0.0000E+00    0.0000E+00    1.609000E+08  0.02000  1.369E-03    0   0.6985   age120_m62            0.0000     5.3782E-04    14.0474   2.4871   117.7615
 43      0.0000     0.0000E+00    0.0000E+00    2.861200E+08  0.02000  9.013E-04    0   0.6714   age125_m62            0.0000     5.4303E-04    14.1331   2.2742   119.0036
 44      0.0000     0.0000E+00    0.0000E+00    5.088000E+08  0.02000  5.028E-04    0   0.6449   age130_m62            0.0000     5.0204E-04    13.4286   1.9253   120.6723
 45      0.0000     0.0000E+00    0.0000E+00    9.047900E+08  0.02000  2.428E-04    0   0.6179   age135_m62            0.0000     4.2215E-04    12.4650   1.3155   121.5773
 46      0.0000     0.0000E+00    0.0000E+00    1.434000E+09  0.02000  1.263E-04    0   0.5908   age139_m62            0.0000     3.7773E-04    11.8542   0.8477   121.1781
 47      0.0000     0.0000E+00    0.0000E+00    2.500000E+09  0.02000  5.985E-05    0   0.5673   age150_m62            0.0000     3.2404E-04    10.9419   0.4675   120.4905
 48      0.0000     0.0000E+00    0.0000E+00    4.250000E+09  0.02000  3.271E-05    0   0.5468   age158_m62            0.0000     2.8065E-04    10.1386   0.1553   120.0204
 49      0.0000     0.0000E+00    0.0000E+00    1.000000E+10  0.02000  1.360E-05    0   0.5167   age181_m62            0.0000     2.3746E-04     9.3312  -0.1978   119.9713
 50    119.4762     1.0000E+02    1.0000E+02    1.800000E+10  0.02000  7.124E-06    0   0.5013   age213_m62            0.0000     2.0831E-04     8.6100  -0.4124   119.4828
 51      0.0000     0.0000E+00    0.0000E+00    1.000000E+06  0.05000  2.592E-02    0   0.9998   age020_m72            0.0000     4.0301E-04    11.1262   3.6854   113.7509
 52      0.0000     0.0000E+00    0.0000E+00    3.160000E+06  0.05000  4.845E-02    0   0.9577   age045_m72            0.0000     4.0631E-04    11.1986   3.5410   114.8251
 53      0.0000     0.0000E+00    0.0000E+00    5.010000E+06  0.05000  3.072E-02    0   0.9147   age055_m72            0.0000     5.0619E-04    13.4731   3.1208   116.7600
 54      0.0000     0.0000E+00    0.0000E+00    6.610000E+06  0.05000  1.455E-02    0   0.8877   age061_m72            0.0000     8.0879E-04    18.5995   2.4487   119.7205
 55      0.0000     0.0000E+00    0.0000E+00    1.000000E+07  0.05000  9.074E-03    0   0.8524   age070_m72            0.0000     5.0391E-04    13.3375   3.3148   116.3815
 56      0.0000     0.0000E+00    0.0000E+00    2.512000E+07  0.05000  4.250E-03    0   0.7902   age090_m72            0.0000     5.3364E-04    13.9779   3.0348   116.9107
 57      0.0000     0.0000E+00    0.0000E+00    4.000000E+07  0.05000  3.087E-03    0   0.7618   age104_m72            0.0000     5.6517E-04    14.5923   2.8352   117.2616
 58      0.0000     0.0000E+00    0.0000E+00    1.015200E+08  0.05000  1.700E-03    0   0.7096   age116_m72            0.0000     5.5784E-04    14.3796   2.6215   117.7395
 59      0.0000     0.0000E+00    0.0000E+00    2.861200E+08  0.05000  7.384E-04    0   0.6633   age125_m72            0.0000     5.1266E-04    13.7306   2.1537   120.0545
 60      0.0000     0.0000E+00    0.0000E+00    5.088000E+08  0.05000  3.819E-04    0   0.6372   age130_m72            0.0000     4.5073E-04    12.8676   1.6695   121.6774
 61      0.0000     0.0000E+00    0.0000E+00    9.047900E+08  0.05000  1.676E-04    0   0.6110   age135_m72            0.0000     3.3919E-04    11.1478   0.9290   122.3535
 62      0.0000     0.0000E+00    0.0000E+00    1.434000E+09  0.05000  8.837E-05    0   0.5874   age139_m72            0.0000     3.1715E-04    10.8263   0.4694   122.1320
 63      0.0000     0.0000E+00    0.0000E+00    2.500000E+09  0.05000  4.233E-05    0   0.5598   age150_m72            0.0000     2.6563E-04     9.8458   0.1535   121.1629
 64      0.0000     0.0000E+00    0.0000E+00    6.250000E+09  0.05000  1.435E-05    0   0.5249   age166_m72            0.0000     2.2445E-04     9.0444  -0.2959   119.6603
 65      0.0000     0.0000E+00    0.0000E+00    1.300000E+10  0.05000  6.513E-06    0   0.5036   age193_m72            0.0000     1.9580E-04     8.2137  -0.5809   121.3266
 66      0.0000     0.0000E+00    0.0000E+00    1.800000E+10  0.05000  4.527E-06    0   0.4945   age213_m72            0.0000     1.8151E-04     7.6630  -0.7489   121.6043


## Synthesis Results - Average & Chains ##

# j      x_j: min, <> & last-chain-values for 1 ...  7 chains
  1      0.0000      0.3022      0.0227      0.0229      0.0194      0.0000      0.0184      0.0000      0.0416
  2      0.0000      0.4221      0.0285      0.0006      0.0060      0.0362      0.0224      0.0207      0.0000
  3      0.0000      0.3909      0.0774      0.0322      0.0000      0.0024      0.0149      0.0625      0.0000
  4      0.0000      0.2984      0.0000      0.0191      0.0000      0.0003      0.0195      0.0971      0.0069
  5      0.0000      0.3674      0.0926      0.0067      0.1243      0.1430      0.0000      0.0000      0.0305
  6      0.0000      0.3209      0.1696      0.0251      0.0307      0.0087      0.0000      0.1298      0.0373
  7      0.0000      0.3943      0.0041      0.1354      0.0000      0.1273      0.0228      0.0584      0.0763
  8      0.0000      0.3361      0.0356      0.0405      0.0180      0.0010      0.0000      0.0021      0.0360
  9      0.0000      0.3124      0.0000      0.0000      0.0229      0.0095      0.0000      0.0836      0.0208
 10      0.0000      0.3771      0.0034      0.0500      0.0387      0.0000      0.0010      0.0105      0.0260
 11      0.0000      0.3270      0.0070      0.0521      0.0448      0.0652      0.0121      0.0000      0.0478
 12      0.0000      0.4614      0.0000      0.0000      0.0007      0.0007      0.0000      0.0293      0.2054
 13      0.0000      0.4681      0.0859      0.0003      0.0000      0.0231      0.0223      0.1043      0.0548
 14      0.0000      0.3089      0.0190      0.0000      0.0290      0.0000      0.0000      0.0558      0.0892
 15      0.0000      0.3382      0.0215      0.0000      0.0000      0.0188      0.0261      0.0455      0.0120
 16      0.0000      0.3556      0.0000      0.0036      0.0148      0.0276      0.0497      0.0806      0.0691
 17      0.0000      0.3742      0.0000      0.0035      0.0222      0.0288      0.0289      0.0392      0.0140
 18      0.0000      0.3293      0.0026      0.0000      0.0211      0.0139      0.0048      0.0000      0.0149
 19      0.0000      0.3822      0.0212      0.0355      0.0000      0.0000      0.0389      0.0000      0.0144
 20      0.0000      0.2877      0.1101      0.0219      0.0038      0.0078      0.0635      0.0000      0.0529
 21      0.0000      0.3145      0.0067      0.0000      0.0022      0.0088      0.0000      0.0452      0.0504
 22      0.0000      0.2873      0.0000      0.0066      0.0046      0.1051      0.0638      0.0102      0.0265
 23      0.0000      0.3671      0.2134      0.0000      0.0661      0.0127      0.0567      0.0353      0.0159
 24      0.0000      0.4406      0.0849      0.0000      0.0156      0.0438      0.0000      0.0171      0.0426
 25      0.0000      0.3276      0.0623      0.0062      0.0209      0.0359      0.0768      0.0972      0.0000
 26      0.0000      0.4078      0.0083      0.0560      0.0000      0.0873      0.0000      0.0489      0.0264
 27      0.0000      0.2944      0.0184      0.0000      0.0000      0.0567      0.0405      0.0602      0.0399
 28      0.0000      2.5323      4.1485      0.5790      2.1755      2.7840      5.7561      1.8160      2.6737
 29      0.0000      0.3637      0.0000      0.0675      0.0000      0.0345      0.0000      0.0135      0.0021
 30      0.0000      0.2799      0.0127      0.0025      0.0079      0.0154      0.0173      0.0150      0.0000
 31      0.0000      0.3996      0.0532      0.0000      0.0803      0.0685      0.0000      0.0002      0.0000
 32      0.0000      0.5052      0.1241      0.0461      0.0377      0.0000      0.0615      0.0418      0.0487
 33      0.0000      0.3354      0.0000      0.0485      0.0309      0.0032      0.0610      0.0280      0.0178
 34      0.0000      0.2688      0.1003      0.0245      0.0560      0.1011      0.0028      0.0283      0.0238
 35      0.0000      0.3550      0.0253      0.0000      0.0110      0.0074      0.0766      0.0000      0.0151
 36      0.0000      0.2806      0.0000      0.0614      0.0000      0.0209      0.0000      0.0088      0.0440
 37      0.0000      0.3855      0.0000      0.0000      0.0015      0.0772      0.0737      0.0081      0.0615
 38      0.0000      0.3535      0.1194      0.0173      0.1833      0.0014      0.0294      0.0057      0.0237
 39      0.0000      0.3032      0.0710      0.0362      0.0176      0.0000      0.0394      0.0000      0.0706
 40      0.0000      0.4185      0.0248      0.0000      0.0350      0.0775      0.0707      0.0871      0.0822
 41      0.0000      0.3377      0.0000      0.0903      0.0000      0.0319      0.0437      0.0000      0.0526
 42      0.0000      0.4048      0.0000      0.0071      0.0000      0.0000      0.0000      0.0441      0.0356
 43      0.0000      0.3869      0.1404      0.0555      0.0590      0.0227      0.0245      0.0244      0.0831
 44      0.0000      7.9884      9.7665     11.0085     10.4171      7.7766     10.5172      9.9230      8.5236
 45      0.0000     17.0258     22.5970     29.0168     22.7367     15.0487     10.8560     22.4347     23.6108
 46      0.0000      0.3433      0.0214      0.0000      0.0492      0.0000      0.0000      0.0258      0.0201
 47      0.0000      0.3765      0.0949      0.0039      0.0279      0.0000      0.0266      0.0453      0.0014
 48      0.0000      2.5467      2.9950      0.1434      0.2545      4.9384      4.6721      3.0874      3.0636
 49      0.0000     15.8563     17.3472     24.2028     21.0598     18.8466     21.3471     19.0610     18.1827
 50    119.4762      8.7942      9.0874     17.1618      9.0225      8.8099      6.9269      9.2971      9.1389
 51      0.0000      0.4640      0.0093      0.0153      0.0000      0.0225      0.0000      0.0085      0.0823
 52      0.0000      0.3998      0.1227      0.0000      0.0000      0.0000      0.0510      0.0000      0.0812
 53      0.0000      0.3100      0.0972      0.0215      0.1604      0.0301      0.0000      0.0000      0.0480
 54      0.0000      0.4521      0.0404      0.0197      0.0101      0.0000      0.0565      0.0837      0.0000
 55      0.0000      0.3406      0.0082      0.0918      0.0316      0.0827      0.0290      0.0493      0.0834
 56      0.0000      0.3855      0.0822      0.0000      0.0761      0.0260      0.0000      0.0000      0.0187
 57      0.0000      0.4234      0.0198      0.0000      0.0000      0.0592      0.0101      0.0090      0.0000
 58      0.0000      0.3608      0.0000      0.0301      0.0000      0.0096      0.0000      0.0000      0.1238
 59      0.0000      0.4899      0.0355      0.0573      0.0000      0.0035      0.0685      0.0943      0.1084
 60      0.0000      2.8956      2.5930      0.3576      0.4733     10.0177      3.7360      2.5837      2.5465
 61      0.0000      1.0363      0.8834      0.0686      1.3834      0.2590      2.5589      0.8574      0.8369
 62      0.0000      0.3956      0.0478      0.0147      0.0592      0.0368      0.0034      0.1682      0.0101
 63      0.0000     25.3584     32.5475     22.8038     33.1353     33.8593     38.3502     33.4865     33.4904
 64      0.0000      2.0860      2.0304      0.0646      4.6525      2.6909      0.3578      1.9657      2.0798
 65      0.0000      0.2698      0.1011      0.0443      0.0546      0.0000      0.0507      0.0383      0.1060
 66      0.0000      0.4082      0.0601      0.0406      0.0106      0.0147      0.0000      0.0000      0.0093

# j      m_j: min, <> & last-chain-values for 1 ...  7 chains
  1  0.0000E+00  1.4599E-03  1.0574E-04  8.2662E-05  8.2782E-05  0.0000E+00  8.5124E-05  0.0000E+00  1.8977E-04
  2  0.0000E+00  5.5661E-04  3.6270E-05  5.5851E-07  6.9737E-06  4.4092E-05  2.8288E-05  2.5321E-05  0.0000E+00
  3  0.0000E+00  7.7208E-04  1.4737E-04  4.7496E-05  0.0000E+00  4.3567E-06  2.8218E-05  1.1449E-04  0.0000E+00
  4  0.0000E+00  5.5491E-04  0.0000E+00  2.6570E-05  0.0000E+00  5.5571E-07  3.4782E-05  1.6764E-04  1.2199E-05
  5  0.0000E+00  1.3017E-03  3.1618E-04  1.7729E-05  3.8879E-04  4.6857E-04  0.0000E+00  0.0000E+00  1.0205E-04
  6  0.0000E+00  1.8440E-03  9.3930E-04  1.0751E-04  1.5558E-04  4.6064E-05  0.0000E+00  6.9204E-04  2.0247E-04
  7  0.0000E+00  3.2439E-03  3.2699E-05  8.3112E-04  0.0000E+00  9.6814E-04  1.7992E-04  4.4607E-04  5.9270E-04
  8  0.0000E+00  3.8211E-03  3.9046E-04  3.4359E-04  1.8074E-04  1.0047E-05  0.0000E+00  2.2039E-05  3.8606E-04
  9  0.0000E+00  4.0660E-03  0.0000E+00  0.0000E+00  2.6266E-04  1.1393E-04  0.0000E+00  1.0095E-03  2.5599E-04
 10  0.0000E+00  6.4465E-03  5.5448E-05  6.3823E-04  5.8415E-04  0.0000E+00  1.6396E-05  1.6702E-04  4.1942E-04
 11  0.0000E+00  1.0510E-02  2.1643E-04  1.2497E-03  1.2708E-03  1.9392E-03  3.7135E-04  0.0000E+00  1.4497E-03
 12  0.0000E+00  2.3528E-02  0.0000E+00  0.0000E+00  3.0595E-05  3.1090E-05  0.0000E+00  1.3874E-03  9.8906E-03
 13  0.0000E+00  6.7280E-02  1.1898E-02  3.2190E-05  0.0000E+00  3.0695E-03  3.0670E-03  1.3912E-02  7.4332E-03
 14  0.0000E+00  1.4891E-01  8.8340E-03  0.0000E+00  1.2346E-02  0.0000E+00  0.0000E+00  2.4948E-02  4.0594E-02
 15  0.0000E+00  2.6543E-01  1.6232E-02  0.0000E+00  0.0000E+00  1.3605E-02  1.9640E-02  3.3158E-02  8.9076E-03
 16  0.0000E+00  4.7180E-01  0.0000E+00  3.5768E-03  1.7305E-02  3.3871E-02  6.3113E-02  9.9316E-02  8.6579E-02
 17  0.0000E+00  6.4403E-01  0.0000E+00  4.5083E-03  3.3715E-02  4.5861E-02  4.7709E-02  6.2615E-02  2.2686E-02
 18  0.0000E+00  1.4059E-03  1.0841E-05  0.0000E+00  7.9467E-05  5.5016E-05  1.9622E-05  0.0000E+00  5.9966E-05
 19  0.0000E+00  6.5481E-04  3.4938E-05  4.5367E-05  0.0000E+00  0.0000E+00  6.3816E-05  0.0000E+00  2.3357E-05
 20  0.0000E+00  5.3816E-04  1.9851E-04  3.0602E-05  6.3374E-06  1.3435E-05  1.1372E-04  0.0000E+00  9.3441E-05
 21  0.0000E+00  7.1414E-04  1.4742E-05  0.0000E+00  4.4026E-06  1.8389E-05  0.0000E+00  9.5154E-05  1.0813E-04
 22  0.0000E+00  1.1030E-03  0.0000E+00  1.8938E-05  1.5631E-05  3.7325E-04  2.3458E-04  3.6370E-05  9.6071E-05
 23  0.0000E+00  1.9031E-03  1.0661E-03  0.0000E+00  3.0270E-04  6.0700E-05  2.8161E-04  1.6971E-04  7.7977E-05
 24  0.0000E+00  3.3988E-03  6.3073E-04  0.0000E+00  1.0623E-04  3.1239E-04  0.0000E+00  1.2223E-04  3.1002E-04
 25  0.0000E+00  3.4845E-03  6.3851E-04  4.9000E-05  1.9669E-04  3.5288E-04  7.8257E-04  9.5920E-04  0.0000E+00
 26  0.0000E+00  7.2497E-03  1.4195E-04  7.4339E-04  0.0000E+00  1.4357E-03  0.0000E+00  8.0647E-04  4.4393E-04
 27  0.0000E+00  1.0477E-02  6.3137E-04  0.0000E+00  0.0000E+00  1.8642E-03  1.3820E-03  1.9889E-03  1.3415E-03
 28  0.0000E+00  2.6152E-01  4.1285E-01  4.4613E-02  1.9843E-01  2.6584E-01  5.6943E-01  1.7408E-01  2.6077E-01
 29  0.0000E+00  6.5439E-02  0.0000E+00  9.0597E-03  0.0000E+00  5.7345E-03  0.0000E+00  2.2467E-03  3.5882E-04
 30  0.0000E+00  1.0525E-01  4.6150E-03  7.0550E-04  2.6363E-03  5.3431E-03  6.2178E-03  5.2468E-03  0.0000E+00
 31  0.0000E+00  2.6426E-01  3.3907E-02  0.0000E+00  4.6928E-02  4.1908E-02  0.0000E+00  1.0760E-04  0.0000E+00
 32  0.0000E+00  4.4955E-01  1.0640E-01  3.0586E-02  2.9594E-02  0.0000E+00  5.2446E-02  3.4497E-02  4.0942E-02
 33  0.0000E+00  6.6078E-01  0.0000E+00  7.1258E-02  5.3785E-02  5.9157E-03  1.1516E-01  5.1260E-02  3.3057E-02
 34  0.0000E+00  7.1698E-01  2.5789E-01  4.8727E-02  1.3199E-01  2.4947E-01  7.0970E-03  7.0086E-02  6.0035E-02
 35  0.0000E+00  1.2152E-03  8.3305E-05  0.0000E+00  3.3198E-05  2.3426E-05  2.5112E-04  0.0000E+00  4.8947E-05
 36  0.0000E+00  3.8853E-04  0.0000E+00  6.3414E-05  0.0000E+00  2.6744E-05  0.0000E+00  1.1265E-05  5.7599E-05
 37  0.0000E+00  5.7738E-04  0.0000E+00  0.0000E+00  1.9647E-06  1.0685E-04  1.0573E-04  1.1245E-05  8.7002E-05
 38  0.0000E+00  1.4344E-03  4.6681E-04  5.2528E-05  6.5690E-04  5.3468E-06  1.1431E-04  2.1476E-05  9.0634E-05
 39  0.0000E+00  1.7713E-03  3.9965E-04  1.5765E-04  9.0858E-05  0.0000E+00  2.2026E-04  0.0000E+00  3.8957E-04
 40  0.0000E+00  3.9521E-03  2.2607E-04  0.0000E+00  2.9236E-04  6.7670E-04  6.3988E-04  7.6313E-04  7.3312E-04
 41  0.0000E+00  4.9591E-03  0.0000E+00  9.8953E-04  0.0000E+00  4.3349E-04  6.1422E-04  0.0000E+00  7.2976E-04
 42  0.0000E+00  1.0915E-02  0.0000E+00  1.4347E-04  0.0000E+00  0.0000E+00  0.0000E+00  1.1046E-03  9.0611E-04
 43  0.0000E+00  1.5230E-02  5.3256E-03  1.6308E-03  2.0500E-03  8.2494E-04  9.2439E-04  8.9045E-04  3.0908E-03
 44  0.0000E+00  5.4149E-01  6.3794E-01  5.5678E-01  6.2364E-01  4.8739E-01  6.8289E-01  6.2432E-01  5.4563E-01
 45  0.0000E+00  2.2899E+00  2.9286E+00  2.9119E+00  2.7008E+00  1.8714E+00  1.3986E+00  2.8006E+00  2.9989E+00
 46  0.0000E+00  8.4859E-02  5.0969E-03  0.0000E+00  1.0740E-02  0.0000E+00  0.0000E+00  5.9121E-03  4.6914E-03
 47  0.0000E+00  1.8858E-01  4.5828E-02  1.4622E-03  1.2333E-02  0.0000E+00  1.2761E-02  2.1043E-02  6.7157E-04
 48  0.0000E+00  2.2498E+00  2.5497E+00  9.4544E-02  1.9858E-01  4.0339E+00  3.9538E+00  2.5317E+00  2.5560E+00
 49  0.0000E+00  3.1837E+01  3.3564E+01  3.6260E+01  3.7346E+01  3.4988E+01  4.1058E+01  3.5523E+01  3.4478E+01
 50  1.0000E+02  3.2704E+01  3.2565E+01  4.7620E+01  2.9634E+01  3.0293E+01  2.4675E+01  3.2091E+01  3.2096E+01
 51  0.0000E+00  9.4576E-04  1.8287E-05  2.3291E-05  0.0000E+00  4.2357E-05  0.0000E+00  1.6056E-05  1.5836E-04
 52  0.0000E+00  4.1768E-04  1.2348E-04  0.0000E+00  0.0000E+00  0.0000E+00  5.1058E-05  0.0000E+00  8.0077E-05
 53  0.0000E+00  4.8776E-04  1.4733E-04  2.5249E-05  2.2286E-04  4.3779E-05  0.0000E+00  0.0000E+00  7.1259E-05
 54  0.0000E+00  1.4577E-03  1.2550E-04  4.7482E-05  2.8660E-05  0.0000E+00  1.7460E-04  2.5053E-04  0.0000E+00
 55  0.0000E+00  1.6908E-03  3.9334E-05  3.3989E-04  1.3848E-04  3.7984E-04  1.3774E-04  2.2724E-04  3.9091E-04
 56  0.0000E+00  3.7879E-03  7.7791E-04  0.0000E+00  6.6000E-04  2.3608E-04  0.0000E+00  0.0000E+00  1.7321E-04
 57  0.0000E+00  5.5218E-03  2.4943E-04  0.0000E+00  0.0000E+00  7.1388E-04  1.2626E-04  1.0928E-04  0.0000E+00
 58  0.0000E+00  7.9601E-03  0.0000E+00  4.9611E-04  0.0000E+00  1.9533E-04  0.0000E+00  0.0000E+00  2.5785E-03
 59  0.0000E+00  2.3255E-02  1.6225E-03  2.0290E-03  0.0000E+00  1.5489E-04  3.1139E-03  4.1538E-03  4.8580E-03
 60  0.0000E+00  2.5533E-01  2.2033E-01  2.3525E-02  3.6858E-02  8.1674E-01  3.1557E-01  2.1146E-01  2.1206E-01
 61  0.0000E+00  1.9965E-01  1.6401E-01  9.8561E-03  2.3540E-01  4.6132E-02  4.7225E-01  1.5333E-01  1.5228E-01
 62  0.0000E+00  1.3896E-01  1.6191E-02  3.8596E-03  1.8368E-02  1.1965E-02  1.1461E-03  5.4835E-02  3.3414E-03
 63  0.0000E+00  1.7723E+01  2.1920E+01  1.1892E+01  2.0454E+01  2.1880E+01  2.5675E+01  2.1723E+01  2.2105E+01
 64  0.0000E+00  4.0325E+00  3.7823E+00  9.3199E-02  7.9434E+00  4.8097E+00  6.6247E-01  3.5271E+00  3.7968E+00
 65  0.0000E+00  1.1026E+00  3.9822E-01  1.3502E-01  1.9696E-01  0.0000E+00  1.9856E-01  1.4532E-01  4.0903E-01
 66  0.0000E+00  2.3563E+00  3.3450E-01  1.7467E-01  5.4292E-02  7.8677E-02  0.0000E+00  0.0000E+00  5.0807E-02

# AV, chi2 & Mass for <> & i_chain = 1 ...  7 solutions
AV      -0.4123      0.6892      0.6996      0.6161      0.6216      0.6507      0.6362      0.6616      0.6745
chi2 2.0833E-04  5.8498E-04  5.1432E-04  4.9927E-04  4.9384E-04  5.0215E-04  5.0150E-04  5.0706E-04  5.0983E-04
Mass 1.9453E-12  1.9223E-12  2.0227E-12  2.3353E-12  1.9874E-12  1.9741E-12  1.8688E-12  1.9956E-12  1.9955E-12
 -63.68                                  [v0_min (km/s) before EX0s...]
 217.88                                  [vd_min (km/s) before EX0s...]


## Synthetic spectrum (Best Model) ##l_obs f_obs f_syn wei
 3478    [Nl_obs]
 3741.00    0.39118   0.46700    0.000
 3742.00    0.45786   0.44675    0.000
 3743.00    0.52628   0.41878    0.000
 3744.00    0.50418   0.38985    0.000
 3745.00    0.42935   0.36597   -1.000
 3746.00    0.44843   0.35313   -1.000
 3747.00    0.51518   0.35618   -1.000
 3748.00    0.50896   0.37658   -1.000
 3749.00    0.47063   0.41185   -1.000
 3750.00    0.48471   0.45710   -1.000
 3751.00    0.51858   0.50530   -1.000
 3752.00    0.51443   0.54707   -1.000
 3753.00    0.49811   0.57333   -1.000
 3754.00    0.56263   0.57931   -1.000
 3755.00    0.64882   0.56758   -1.000
 3756.00    0.64722   0.54607   -1.000
 3757.00    0.62635   0.52302   -1.000
 3758.00    0.59404   0.50427   -1.000
 3759.00    0.55973   0.49225   -1.000
 3760.00    0.56336   0.48666   -1.000
 3761.00    0.57204   0.48631   -1.000
 3762.00    0.60657   0.48947   -1.000
 3763.00    0.64354   0.49418   -1.000
 3764.00    0.67512   0.50158   -1.000
 3765.00    0.70640   0.51500   -1.000
 3766.00    0.64796   0.53538   -1.000
 3767.00    0.58786   0.56125   -1.000
 3768.00    0.58280   0.59108   -1.000
 3769.00    0.58081   0.62228   -1.000
 3770.00    0.65331   0.65073   -1.000
 3771.00    0.71674   0.67305   -1.000
 3772.00    0.66155   0.68838   -1.000
 3773.00    0.61333   0.69795   -1.000
 3774.00    0.62629   0.70371   -1.000
 3775.00    0.63398   0.70816   -1.000
 3776.00    0.60742   0.71425   -1.000
 3777.00    0.58579   0.72280   -1.000
 3778.00    0.58907   0.73222   -1.000
 3779.00    0.57819   0.74040   -1.000
 3780.00    0.50932   0.74499   -1.000
 3781.00    0.47435   0.74252   -1.000
 3782.00    0.55434   0.72899   -1.000
 3783.00    0.59204   0.70316   -1.000
 3784.00    0.50876   0.66813   -1.000
 3785.00    0.44272   0.62892   -1.000
 3786.00    0.41880   0.59123   -1.000
 3787.00    0.39727   0.56077   -1.000
 3788.00    0.38079   0.54057   -1.000
 3789.00    0.37600   0.52897   -1.000
 3790.00    0.39262   0.52182   -1.000
 3791.00    0.40185   0.51560   -1.000
 3792.00    0.39923   0.50854   -1.000
 3793.00    0.40516   0.50039   -1.000
 3794.00    0.42307   0.49141   -1.000
 3795.00    0.43217   0.48345   -1.000
 3796.00    0.43038   0.48064   -1.000
 3797.00    0.42093   0.48688   -1.000
 3798.00    0.40315   0.50308   -1.000
 3799.00    0.36921   0.52748   -1.000
 3800.00    0.31975   0.55659   -1.000
 3801.00    0.33014   0.58525   -1.000
 3802.00    0.39126   0.60823   -1.000
 3803.00    0.50460   0.62212   -1.000
 3804.00    0.65691   0.62731   -1.000
 3805.00    0.72936   0.62752   -1.000
 3806.00    0.74946   0.62595   -1.000
 3807.00    0.68095   0.62345   -1.000
 3808.00    0.56158   0.61868   -1.000
 3809.00    0.52762   0.60883   -1.000
 3810.00    0.53633   0.59148   -1.000
 3811.00    0.52798   0.56645   -1.000
 3812.00    0.51224   0.53573   -1.000
 3813.00    0.52908   0.50331   -1.000
 3814.00    0.55799   0.47354   -1.000
 3815.00    0.47931   0.44794   -1.000
 3816.00    0.36681   0.42541   -1.000
 3817.00    0.34733   0.40542   -1.000
 3818.00    0.35224   0.38902   -1.000
 3819.00    0.34080   0.37661   -1.000
 3820.00    0.32585   0.36638   -1.000
 3821.00    0.40913   0.35599   -1.000
 3822.00    0.50908   0.34511   -1.000
 3823.00    0.55944   0.33504   -1.000
 3824.00    0.60344   0.32730   -1.000
 3825.00    0.51065   0.32287   -1.000
 3826.00    0.40558   0.32209   -1.000
 3827.00    0.34170   0.32428   -1.000
 3828.00    0.28003   0.32746   -1.000
 3829.00    0.22339   0.32955   -1.000
 3830.00    0.16788   0.33006   -1.000
 3831.00    0.19951   0.33014   -1.000
 3832.00    0.23328   0.33134   -1.000
 3833.00    0.31432   0.33399   -1.000
 3834.00    0.39098   0.33680   -1.000
 3835.00    0.41307   0.33886   -1.000
 3836.00    0.43329   0.34103   -1.000
 3837.00    0.43776   0.34533   -1.000
 3838.00    0.43641   0.35444   -1.000
 3839.00    0.39842   0.37067   -1.000
 3840.00    0.35853   0.39355   -1.000
 3841.00    0.30930   0.41983   -1.000
 3842.00    0.27755   0.44555   -1.000
 3843.00    0.31581   0.46728   -1.000
 3844.00    0.34824   0.48302   -1.000
 3845.00    0.36131   0.49165   -1.000
 3846.00    0.34172   0.49282   -1.000
 3847.00    0.23045   0.48844    0.000
 3848.00    0.15058   0.48244    0.000
 3849.00    0.14613   0.47705    0.000
 3850.00    0.18927   0.47146    0.000
 3851.00    0.33111   0.46423    0.000
 3852.00    0.42001   0.45469    0.000
 3853.00    0.41344   0.44249    0.000
 3854.00    0.43601   0.42804    0.000
 3855.00    0.50454   0.41256    0.000
 3856.00    0.48864   0.39792    0.000
 3857.00    0.35589   0.38752    0.000
 3858.00    0.30077   0.38540    0.000
 3859.00    0.34026   0.39331    0.000
 3860.00    0.37201   0.40898    0.000
 3861.00    0.39546   0.42740    0.000
 3862.00    0.41590   0.44395    0.000
 3863.00    0.43349   0.45582    0.000
 3864.00    0.49130   0.46172    0.000
 3865.00    0.58271   0.46122    0.000
 3866.00    0.62663   0.45503    0.000
 3867.00    0.63561   0.44515    0.000
 3868.00    0.58375   0.43466    0.000
 3869.00    0.49259   0.42730    0.000
 3870.00    0.45286   0.42635    0.000
 3871.00    0.44220   0.43320    0.000
 3872.00    0.45146   0.44581    0.000
 3873.00    0.47052   0.45888    0.000
 3874.00    0.45006   0.46730    0.000
 3875.00    0.41279   0.46909    0.000
 3876.00    0.43799   0.46620    0.000
 3877.00    0.48595   0.46199    0.000
 3878.00    0.49085   0.45792    0.000
 3879.00    0.48249   0.45518    0.000
 3880.00    0.45085   0.45662    0.000
 3881.00    0.41325   0.46334   -1.000
 3882.00    0.47636   0.47127   -1.000
 3883.00    0.56052   0.47632   -1.000
 3884.00    0.53735   0.48067   -1.000
 3885.00    0.49647   0.48911   -1.000
 3886.00    0.44509   0.50408   -1.000
 3887.00    0.39242   0.52683   -1.000
 3888.00    0.42806   0.55735   -1.000
 3889.00    0.47126   0.59224   -1.000
 3890.00    0.52355   0.62585   -1.000
 3891.00    0.57629   0.65284   -1.000
 3892.00    0.55717   0.67030   -1.000
 3893.00    0.53712   0.67882   -1.000
 3894.00    0.53375   0.68160   -1.000
 3895.00    0.52970   0.68025   -1.000
 3896.00    0.51177   0.67512   -1.000
 3897.00    0.50523   0.66883   -1.000
 3898.00    0.63338   0.66425   -1.000
 3899.00    0.74475   0.66103   -1.000
 3900.00    0.71931   0.65654   -1.000
 3901.00    0.68183   0.65124   -1.000
 3902.00    0.57071   0.64698   -1.000
 3903.00    0.48655   0.64471   -1.000
 3904.00    0.53203   0.64810   -1.000
 3905.00    0.57646   0.66047   -1.000
 3906.00    0.61681   0.68047   -1.000
 3907.00    0.64890   0.70448   -1.000
 3908.00    0.65413   0.72923   -1.000
 3909.00    0.67126   0.75231   -1.000
 3910.00    0.72125   0.77060   -1.000
 3911.00    0.76130   0.78117   -1.000
 3912.00    0.77789   0.78308   -1.000
 3913.00    0.76800   0.77615   -1.000
 3914.00    0.70408   0.76055   -1.000
 3915.00    0.67552   0.73804   -1.000
 3916.00    0.70978   0.71010   -1.000
 3917.00    0.72791   0.67794   -1.000
 3918.00    0.72098   0.64466   -1.000
 3919.00    0.67743   0.61449   -1.000
 3920.00    0.58388   0.58988   -1.000
 3921.00    0.53219   0.57043   -1.000
 3922.00    0.53077   0.55357   -1.000
 3923.00    0.53026   0.53482   -1.000
 3924.00    0.53070   0.51070   -1.000
 3925.00    0.55195   0.47971   -1.000
 3926.00    0.59264   0.44231   -1.000
 3927.00    0.58236   0.40114   -1.000
 3928.00    0.53012   0.35934   -1.000
 3929.00    0.42718   0.32041   -1.000
 3930.00    0.28748   0.28797   -1.000
 3931.00    0.22786   0.26518   -1.000
 3932.00    0.21921   0.25427   -1.000
 3933.00    0.26159   0.25634   -1.000
 3934.00    0.33238   0.27126   -1.000
 3935.00    0.36438   0.29724   -1.000
 3936.00    0.37760   0.33111   -1.000
 3937.00    0.42686   0.36886   -1.000
 3938.00    0.49118   0.40603   -1.000
 3939.00    0.60375   0.43961   -1.000
 3940.00    0.73357   0.46902   -1.000
 3941.00    0.72053   0.49491   -1.000
 3942.00    0.66430   0.52065   -1.000
 3943.00    0.62334   0.55049   -1.000
 3944.00    0.58621   0.58366   -1.000
 3945.00    0.66657   0.61636   -1.000
 3946.00    0.77088   0.64796   -1.000
 3947.00    0.73380   0.67962   -1.000
 3948.00    0.67408   0.70970   -1.000
 3949.00    0.65346   0.73407   -1.000
 3950.00    0.63750   0.75085   -1.000
 3951.00    0.74735   0.76302   -1.000
 3952.00    0.86744   0.77188   -1.000
 3953.00    0.82066   0.77314   -1.000
 3954.00    0.76621   0.76528   -1.000
 3955.00    0.72145   0.75112   -1.000
 3956.00    0.67637   0.73139   -1.000
 3957.00    0.60877   0.70359   -1.000
 3958.00    0.54469   0.66483   -1.000
 3959.00    0.54757   0.61623   -1.000
 3960.00    0.54565   0.56394    0.000
 3961.00    0.48976   0.51252    0.000
 3962.00    0.44229   0.46273    0.000
 3963.00    0.46097   0.41498    0.000
 3964.00    0.47599   0.37109    0.000
 3965.00    0.46925   0.33436    0.000
 3966.00    0.45953   0.30836    0.000
 3967.00    0.43580   0.29613    0.000
 3968.00    0.41893   0.29952    0.000
 3969.00    0.42837   0.31870    0.000
 3970.00    0.44654   0.35219    0.000
 3971.00    0.49267   0.39763    0.000
 3972.00    0.51628   0.45251    0.000
 3973.00    0.47894   0.51352    0.000
 3974.00    0.46356   0.57620    0.000
 3975.00    0.49918   0.63780    0.000
 3976.00    0.54846   0.69649    0.000
 3977.00    0.62518   0.74952    0.000
 3978.00    0.70408   0.79418    0.000
 3979.00    0.78679   0.82827    0.000
 3980.00    0.83424   0.85298    0.000
 3981.00    0.82769   0.87196    0.164
 3982.00    0.82383   0.88841    0.116
 3983.00    0.82359   0.90455    0.116
 3984.00    0.80936   0.92051    0.115
 3985.00    0.77855   0.93689    0.114
 3986.00    0.81086   0.95352    0.113
 3987.00    0.90909   0.96660    0.114
 3988.00    1.03190   0.97611    0.113
 3989.00    1.17736   0.98475    0.113
 3990.00    1.19625   0.99179    0.112
 3991.00    1.11238   0.99571    0.110
 3992.00    1.06928   0.99598    0.110
 3993.00    1.05533   0.99406    0.112
 3994.00    1.10053   0.99178    0.113
 3995.00    1.18282   0.99150    0.114
 3996.00    1.12250   0.99700    0.113
 3997.00    0.98401   1.00985    0.113
 3998.00    0.93926   1.02573    0.112
 3999.00    0.93916   1.03933    0.111
 4000.00    0.99469   1.04914    0.113
 4001.00    1.07308   1.05248    0.116
 4002.00    0.99667   1.04502    0.116
 4003.00    0.86588   1.02970    0.116
 4004.00    0.87914   1.01764    0.115
 4005.00    0.93509   1.01570    0.115
 4006.00    0.96962   1.02273    0.114
 4007.00    0.99888   1.03604    0.113
 4008.00    0.93318   1.05371    0.113
 4009.00    0.84859   1.07348    0.113
 4010.00    0.97212   1.09313    0.115
 4011.00    1.12798   1.11123    0.116
 4012.00    1.10836   1.12620    0.214
 4013.00    1.06856   1.13805    3.193
 4014.00    1.06326   1.14593   -1.000
 4015.00    1.06063   1.14927   -1.000
 4016.00    1.15571   1.15166   -1.000
 4017.00    1.25489   1.15469   -1.000
 4018.00    1.13166   1.15525   -1.000
 4019.00    1.00790   1.15265   -1.000
 4020.00    0.94956   1.14930   -1.000
 4021.00    0.89683   1.14603   -1.000
 4022.00    0.94304   1.14219   -1.000
 4023.00    0.98648   1.13942   -1.000
 4024.00    1.00000   1.13839   -1.000
 4025.00    1.02449   1.13564   -1.000
 4026.00    1.13222   1.12699   -1.000
 4027.00    1.21148   1.10739   -1.000
 4028.00    1.12652   1.07459   -1.000
 4029.00    1.05369   1.03628   -1.000
 4030.00    1.03646   1.00279   -1.000
 4031.00    1.00447   0.97973   -1.000
 4032.00    0.91718   0.97228   -1.000
 4033.00    0.84894   0.98408   -1.000
 4034.00    0.84043   1.01346   -1.000
 4035.00    0.85967   1.05265   -1.000
 4036.00    0.95270   1.09063   -1.000
 4037.00    1.03236   1.11759   -1.000
 4038.00    1.08153   1.12825   -1.000
 4039.00    1.11850   1.12310   -1.000
 4040.00    1.13134   1.10434   -1.000
 4041.00    1.10209   1.07157   -1.000
 4042.00    1.00033   1.02698   -1.000
 4043.00    0.92407   0.98181   -1.000
 4044.00    0.88626   0.95272   -1.000
 4045.00    0.85038   0.95007   -1.000
 4046.00    0.81705   0.96973   -1.000
 4047.00    0.83744   1.00142   -1.000
 4048.00    0.92055   1.03732   -1.000
 4049.00    1.01850   1.06995   -1.000
 4050.00    1.13174   1.09228   -1.000
 4051.00    1.10831   1.10152   -1.000
 4052.00    0.96077   1.09761   -1.000
 4053.00    0.89600   1.08358   -1.000
 4054.00    0.89747   1.06529   -1.000
 4055.00    0.87119   1.04533   -1.000
 4056.00    0.82537   1.02623   -1.000
 4057.00    0.86815   1.01237   -1.000
 4058.00    0.96564   1.00295   -1.000
 4059.00    0.95901   0.99199   -1.000
 4060.00    0.89620   0.97474   -1.000
 4061.00    0.92489   0.95416   -1.000
 4062.00    0.99646   0.94091   -1.000
 4063.00    1.00372   0.94185   -1.000
 4064.00    0.98499   0.95206   -1.000
 4065.00    1.02124   0.96620   -1.000
 4066.00    1.07643   0.98500   -1.000
 4067.00    1.05120   1.00608   -1.000
 4068.00    1.00261   1.02040   -1.000
 4069.00    0.89278   1.02280   -1.000
 4070.00    0.76824   1.01987   -1.000
 4071.00    0.76356   1.01983   -1.000
 4072.00    0.78211   1.02049   -1.000
 4073.00    0.91551   1.01658   -1.000
 4074.00    1.06622   1.00876   -1.000
 4075.00    1.03066   1.00387   -1.000
 4076.00    0.97449   1.01028   -1.000
 4077.00    0.92818   1.03036   -1.000
 4078.00    0.88258   1.05970   -1.000
 4079.00    1.04776   1.09211   -1.000
 4080.00    1.22102   1.12142   -1.000
 4081.00    1.24483   1.14501   -1.000
 4082.00    1.26760   1.16506   -1.000
 4083.00    1.28202   1.18407   -1.000
 4084.00    1.29430   1.20354   -1.000
 4085.00    1.27128   1.22469   -1.000
 4086.00    1.24133   1.24579   -1.000
 4087.00    1.14009   1.26230   -1.000
 4088.00    1.05633   1.27085   -1.000
 4089.00    1.10088   1.27052   -1.000
 4090.00    1.12997   1.26150   -1.000
 4091.00    1.07241   1.24569   -1.000
 4092.00    1.01913   1.22344    0.000
 4093.00    0.98505   1.19239    0.000
 4094.00    0.95245   1.15562    0.000
 4095.00    0.92528   1.12032    0.000
 4096.00    0.89775   1.08967    0.000
 4097.00    0.86911   1.06285    0.000
 4098.00    0.87586   1.03855    0.000
 4099.00    0.97512   1.01906    0.000
 4100.00    1.04340   1.01173    0.000
 4101.00    1.04212   1.01966    0.000
 4102.00    1.03507   1.03790    0.000
 4103.00    1.01680   1.06169    0.000
 4104.00    0.97985   1.08802    0.000
 4105.00    0.91122   1.11196    0.000
 4106.00    0.89469   1.12952    0.000
 4107.00    0.95561   1.13948    0.000
 4108.00    0.99687   1.14302    0.000
 4109.00    1.01245   1.14379    0.000
 4110.00    0.99494   1.14547    0.000
 4111.00    0.93933   1.15003    0.000
 4112.00    0.93401   1.15669    0.000
 4113.00    0.97974   1.16289   -1.000
 4114.00    1.05105   1.16691   -1.000
 4115.00    1.14526   1.16686   -1.000
 4116.00    1.15133   1.16073   -1.000
 4117.00    1.08786   1.15127   -1.000
 4118.00    1.08111   1.14418   -1.000
 4119.00    1.11372   1.14032   -1.000
 4120.00    1.11444   1.13760   -1.000
 4121.00    1.09574   1.13641   -1.000
 4122.00    1.10804   1.13818   -1.000
 4123.00    1.13680   1.14121   -1.000
 4124.00    1.12642   1.14014   -1.000
 4125.00    1.09799   1.13157   -1.000
 4126.00    1.11665   1.11675   -1.000
 4127.00    1.15401   1.09834   -1.000
 4128.00    1.06034   1.07798   -1.000
 4129.00    0.92232   1.05648   -1.000
 4130.00    0.87684   1.03659   -1.000
 4131.00    0.85770   1.02486   -1.000
 4132.00    0.93012   1.02576   -1.000
 4133.00    1.02404   1.03913   -1.000
 4134.00    1.01520   1.06071   -1.000
 4135.00    0.98697   1.08197   -1.000
 4136.00    0.98203   1.09754   -1.000
 4137.00    0.98048   1.10588   -1.000
 4138.00    0.98900   1.10430   -1.000
 4139.00    0.99860   1.09062   -1.000
 4140.00    0.97261   1.06469   -1.000
 4141.00    0.94417   1.03230   -1.000
 4142.00    0.81103   1.00671   -1.000
 4143.00    0.67429   0.99668   -1.000
 4144.00    0.76885   0.99891   -1.000
 4145.00    0.86426   1.00612   -1.000
 4146.00    0.97270   1.01423   -1.000
 4147.00    1.06813   1.02111   -1.000
 4148.00    0.96252   1.02562   -1.000
 4149.00    0.87484   1.02744   -1.000
 4150.00    0.96393   1.02584   -1.000
 4151.00    1.03469   1.02205   -1.000
 4152.00    0.97536   1.01896   -1.000
 4153.00    0.92305   1.01943   -1.000
 4154.00    0.90905   1.02520   -1.000
 4155.00    0.91948   1.03719   -1.000
 4156.00    1.03672   1.05602   -1.000
 4157.00    1.11622   1.07957   -1.000
 4158.00    1.06001   1.10295   -1.000
 4159.00    1.01054   1.12318   -1.000
 4160.00    0.98139   1.13984   -1.000
 4161.00    0.98306   1.15131   -1.000
 4162.00    1.06388   1.15398   -1.000
 4163.00    1.11022   1.14782   -1.000
 4164.00    1.08041   1.13598   -1.000
 4165.00    1.04971   1.12020   -1.000
 4166.00    1.01732   1.10360   -1.000
 4167.00    0.98370   1.08887   -1.000
 4168.00    0.94804   1.07410   -1.000
 4169.00    0.94181   1.05619   -1.000
 4170.00    0.97867   1.03435   -1.000
 4171.00    1.02464   1.01320   -1.000
 4172.00    1.08235   0.99968   -1.000
 4173.00    1.11364   0.99400   -1.000
 4174.00    1.11496   0.99239   -1.000
 4175.00    1.08825   0.99343   -1.000
 4176.00    1.03350   0.99843   -1.000
 4177.00    0.94298   1.00927   -1.000
 4178.00    0.82087   1.02338   -1.000
 4179.00    0.78925   1.03527   -1.000
 4180.00    0.82801   1.04415   -1.000
 4181.00    0.85316   1.05359   -1.000
 4182.00    0.86900   1.06525   -1.000
 4183.00    0.89599   1.07643   -1.000
 4184.00    0.92964   1.08167   -1.000
 4185.00    0.92881   1.07995   -1.000
 4186.00    0.90995   1.07930   -1.000
 4187.00    0.94872   1.08545   -1.000
 4188.00    1.01364   1.09333   -1.000
 4189.00    1.04054   1.09706   -1.000
 4190.00    1.05261   1.09806   -1.000
 4191.00    0.99796   1.09906   -1.000
 4192.00    0.92115   1.09574   -1.000
 4193.00    0.94487   1.08167   -1.000
 4194.00    0.99660   1.05823   -1.000
 4195.00    0.96961   1.03269   -1.000
 4196.00    0.92457   1.01051   -1.000
 4197.00    0.87870   0.99400   -1.000
 4198.00    0.83267   0.98496   -1.000
 4199.00    0.88354   0.98364   -1.000
 4200.00    0.94810   0.99028   -1.000
 4201.00    0.95549   1.00767   -1.000
 4202.00    0.95704   1.03427   -1.000
 4203.00    0.94293   1.06440   -1.000
 4204.00    0.92781   1.09479   -1.000
 4205.00    1.00532   1.12338   -1.000
 4206.00    1.08550   1.14784   -1.000
 4207.00    1.05087   1.16452   -1.000
 4208.00    1.01857   1.17031   -1.000
 4209.00    1.05506   1.16883   -1.000
 4210.00    1.08939   1.16535   -1.000
 4211.00    1.09221   1.15938   -1.000
 4212.00    1.10731   1.15008    2.121
 4213.00    1.23853   1.14123    0.185
 4214.00    1.37196   1.14118    0.103
 4215.00    1.52048   1.15595    0.103
 4216.00    1.64288   1.17875    0.102
 4217.00    1.62649   1.19698    0.101
 4218.00    1.61127   1.20447    0.099
 4219.00    1.60109   1.19799    0.100
 4220.00    1.59668   1.17342    0.101
 4221.00    1.61261   1.12986    0.101
 4222.00    1.57335   1.07295    0.101
 4223.00    1.37063   1.01235    0.100
 4224.00    1.19343   0.95835    0.098
 4225.00    1.08059   0.92357    0.095
 4226.00    1.03234   0.91953    0.093
 4227.00    1.12444   0.94522    0.094
 4228.00    1.20232   0.98640    0.095
 4229.00    1.25338   1.03021    0.095
 4230.00    1.31014   1.06913    0.095
 4231.00    1.37629   1.09774    0.096
 4232.00    1.37169   1.11603    0.096
 4233.00    1.26498   1.12530    0.095
 4234.00    1.22565   1.12703    0.095
 4235.00    1.27187   1.12826    0.095
 4236.00    1.28546   1.13559    0.095
 4237.00    1.26254   1.15009    0.095
 4238.00    1.27699   1.17168    0.095
 4239.00    1.32832   1.19909    0.096
 4240.00    1.37568   1.22782    0.096
 4241.00    1.41959   1.25274    0.094
 4242.00    1.38326   1.27209    0.095
 4243.00    1.28539   1.28300    0.096
 4244.00    1.28142   1.27902    0.097
 4245.00    1.34073   1.25927    0.097
 4246.00    1.46851   1.22971    0.099
 4247.00    1.63673   1.19628    0.102
 4248.00    1.60521   1.16178    0.105
 4249.00    1.47085   1.13178    0.107
 4250.00    1.30639   1.11473    0.106
 4251.00    1.12849   1.10830    0.104
 4252.00    1.14528   1.10336    0.103
 4253.00    1.23671   1.10055    0.102
 4254.00    1.36418   1.10683    0.102
 4255.00    1.50340   1.12100    0.101
 4256.00    1.51400   1.13209    0.102
 4257.00    1.48949   1.13471    0.103
 4258.00    1.50340   1.13696    0.104
 4259.00    1.52592   1.14917    0.104
 4260.00    1.53149   1.17455    0.104
 4261.00    1.53402   1.20732    0.104
 4262.00    1.55450   1.23757    0.104
 4263.00    1.57743   1.25983    0.105
 4264.00    1.39382   1.27084    0.104
 4265.00    1.19004   1.26481    0.103
 4266.00    1.33819   1.23857    0.104
 4267.00    1.50786   1.19621    0.106
 4268.00    1.54328   1.14343    0.105
 4269.00    1.57491   1.08655    0.104
 4270.00    1.57382   1.03804    0.104
 4271.00    1.56913   1.01133    0.104
 4272.00    1.46970   1.00734    0.103
 4273.00    1.37259   1.01858    0.102
 4274.00    1.30737   1.04493    0.100
 4275.00    1.24852   1.08604    0.099
 4276.00    1.24757   1.13112    0.099
 4277.00    1.24687   1.16690    0.100
 4278.00    1.24783   1.18694    0.101
 4279.00    1.26587   1.19577    0.102
 4280.00    1.37230   1.20023    0.101
 4281.00    1.42936   1.19921    0.100
 4282.00    1.28028   1.19017   -2.000
 4283.00    1.24261   1.17263   -2.000
 4284.00    1.58958   1.15043   -2.000
 4285.00    1.82792   1.13079   -2.000
 4286.00    1.75051   1.11343   -2.000
 4287.00    1.65888   1.09300   -2.000
 4288.00    1.53192   1.07148   -2.000
 4289.00    1.43423   1.05992   -2.000
 4290.00    1.39910   1.06244   -2.000
 4291.00    1.36928   1.06990   -2.000
 4292.00    1.34932   1.07081   -2.000
 4293.00    1.35176   1.06267   -2.000
 4294.00    1.39051   1.05067   -2.000
 4295.00    1.36501   1.03241   -2.000
 4296.00    1.24811   1.00207   -2.000
 4297.00    1.20752   0.96200   -2.000
 4298.00    1.26245   0.92153    0.096
 4299.00    1.28586   0.89027    0.096
 4300.00    1.27451   0.86778    0.096
 4301.00    1.21035   0.84785    0.095
 4302.00    1.09479   0.83080    0.095
 4303.00    1.02829   0.81902    0.095
 4304.00    1.00388   0.81040    0.095
 4305.00    1.02287   0.80345    0.095
 4306.00    1.07466   0.80070    0.095
 4307.00    1.13908   0.80937    0.096
 4308.00    1.21187   0.83550    0.096
 4309.00    1.21289   0.87990    0.095
 4310.00    1.17216   0.94183    0.095
 4311.00    1.15953   1.01788    0.094
 4312.00    1.16112   1.10265    0.093
 4313.00    1.21107   1.19088    0.093
 4314.00    1.28225   1.27883    0.093
 4315.00    1.36012   1.35741    0.094
 4316.00    1.44052   1.41261    0.094
 4317.00    1.51231   1.43878    0.094
 4318.00    1.58134   1.43871    0.093
 4319.00    1.61883   1.41535    0.094
 4320.00    1.64790   1.37329    0.096
 4321.00    1.64628   1.32117    0.098
 4322.00    1.63795   1.26679    0.100
 4323.00    1.48653   1.22094    0.098
 4324.00    1.31021   1.19592    0.096
 4325.00    1.30084   1.20238    0.096
 4326.00    1.31356   1.23930    0.096
 4327.00    1.36025   1.29066    0.096
 4328.00    1.41012   1.34233    0.096
 4329.00    1.49737   1.39072    0.098
 4330.00    1.58677   1.43463    0.000
 4331.00    1.56026   1.46485    0.000
 4332.00    1.53221   1.47386    0.000
 4333.00    1.63762   1.46408    0.000
 4334.00    1.73957   1.43847    0.000
 4335.00    1.75860   1.39731    0.000
 4336.00    1.76934   1.34708    0.000
 4337.00    1.67213   1.30163    0.000
 4338.00    1.58662   1.26840    0.000
 4339.00    1.60337   1.25118    0.000
 4340.00    1.60685   1.25569    0.000
 4341.00    1.52462   1.27921    0.000
 4342.00    1.46162   1.31184    0.000
 4343.00    1.49563   1.34987    0.000
 4344.00    1.54079   1.38917    0.000
 4345.00    1.63148   1.41708    0.000
 4346.00    1.67273   1.43021    0.000
 4347.00    1.54671   1.43667    0.000
 4348.00    1.49269   1.43490    0.000
 4349.00    1.64410   1.41562    0.000
 4350.00    1.72316   1.38696    0.000
 4351.00    1.62579   1.37032    0.100
 4352.00    1.58177   1.36987    0.099
 4353.00    1.64996   1.37342    0.099
 4354.00    1.65795   1.37993    0.098
 4355.00    1.55590   1.39768    0.097
 4356.00    1.52976   1.42171    0.097
 4357.00    1.62490   1.44004    0.098
 4358.00    1.68599   1.45620    0.099
 4359.00    1.69932   1.47957    0.099
 4360.00    1.72129   1.50426    0.100
 4361.00    1.75392   1.51907    0.100
 4362.00    1.78761   1.52667    0.101
 4363.00    1.82245   1.53514    0.102
 4364.00    1.83244   1.53779    0.102
 4365.00    1.81858   1.52493    0.101
 4366.00    1.79320   1.50214    0.101
 4367.00    1.75805   1.48008    0.101
 4368.00    1.69724   1.45855    0.101
 4369.00    1.61731   1.43266    0.101
 4370.00    1.60694   1.40696    0.100
 4371.00    1.64208   1.38645    0.098
 4372.00    1.64783   1.36807    0.099
 4373.00    1.63673   1.35040    0.100
 4374.00    1.62659   1.33911    0.100
 4375.00    1.61692   1.33707    0.100
 4376.00    1.56143   1.33478    0.099
 4377.00    1.48616   1.31931    0.099
 4378.00    1.54761   1.28998    0.099
 4379.00    1.65966   1.25478    0.101
 4380.00    1.60238   1.21629    0.100
 4381.00    1.49201   1.17015    0.098
 4382.00    1.43672   1.12427    0.097
 4383.00    1.39583   1.10052    0.096
 4384.00    1.45543   1.10662    0.096
 4385.00    1.53650   1.12906    0.097
 4386.00    1.52190   1.15537    0.096
 4387.00    1.49112   1.18661    0.095
 4388.00    1.52632   1.22250    0.095
 4389.00    1.56995   1.25612    0.096
 4390.00    1.62398   1.28633    0.096
 4391.00    1.67893   1.31571    0.096
 4392.00    1.58087   1.34192    0.096
 4393.00    1.47467   1.36246    0.096
 4394.00    1.52420   1.38113    0.095
 4395.00    1.57749   1.40159    0.094
 4396.00    1.68919   1.41734    0.095
 4397.00    1.79538   1.41731    0.095
 4398.00    1.78064   1.39928    0.096
 4399.00    1.76464   1.37175    0.096
 4400.00    1.73321   1.34601    0.097
 4401.00    1.68985   1.32022    0.097
 4402.00    1.54609   1.28358    0.095
 4403.00    1.42868   1.24570    0.094
 4404.00    1.47648   1.23240    0.095
 4405.00    1.52238   1.24591    0.095
 4406.00    1.55893   1.26665    0.096
 4407.00    1.58277   1.29134    0.096
 4408.00    1.55582   1.32909    0.095
 4409.00    1.53739   1.37176    0.094
 4410.00    1.54718   1.40406    0.094
 4411.00    1.58799   1.42444    0.093
 4412.00    1.71574   1.43473    0.094
 4413.00    1.81795   1.43368    0.095
 4414.00    1.85899   1.43070    0.096
 4415.00    1.87655   1.43725    0.096
 4416.00    1.84553   1.44822    0.095
 4417.00    1.81181   1.45784    0.095
 4418.00    1.77325   1.46914    0.096
 4419.00    1.73502   1.47968    0.096
 4420.00    1.69731   1.48134    0.095
 4421.00    1.69542   1.47559    0.094
 4422.00    1.74303   1.47234    0.094
 4423.00    1.77803   1.47195    0.094
 4424.00    1.79769   1.46674    0.094
 4425.00    1.77140   1.45935    0.094
 4426.00    1.69584   1.45846    0.093
 4427.00    1.71099   1.46146    0.093
 4428.00    1.81194   1.45623    0.093
 4429.00    1.85021   1.44250    0.093
 4430.00    1.83622   1.43417    0.093
 4431.00    1.77175   1.43209    0.092
 4432.00    1.67022   1.42620    0.091
 4433.00    1.63081   1.41866    0.091
 4434.00    1.63144   1.42131    0.092
 4435.00    1.67458   1.43664    0.093
 4436.00    1.74170   1.45569    0.095
 4437.00    1.73815   1.47155    0.096
 4438.00    1.69991   1.48436    0.096
 4439.00    1.74466   1.49371    0.097
 4440.00    1.82464   1.49899    0.097
 4441.00    1.88040   1.50243    0.098
 4442.00    1.92735   1.50985    0.099
 4443.00    1.77618   1.52498    0.096
 4444.00    1.56407   1.54362    0.093
 4445.00    1.58484   1.55788    0.094
 4446.00    1.66523   1.56773    0.095
 4447.00    1.73992   1.57650    0.095
 4448.00    1.81342   1.57569    0.095
 4449.00    1.82061   1.55821    0.096
 4450.00    1.81691   1.53296    0.096
 4451.00    1.79454   1.50543    0.095
 4452.00    1.76988   1.47045    0.093
 4453.00    1.77049   1.42876    0.092
 4454.00    1.77325   1.39217    0.091
 4455.00    1.69804   1.36709    0.091
 4456.00    1.61898   1.34732    0.091
 4457.00    1.59769   1.33169    0.091
 4458.00    1.57941   1.32757    0.091
 4459.00    1.69192   1.33492    0.092
 4460.00    1.79843   1.34597    0.094
 4461.00    1.78336   1.36355    0.000
 4462.00    1.76964   1.39240    0.000
 4463.00    1.77171   1.42051    0.000
 4464.00    1.77430   1.44007    0.000
 4465.00    1.78117   1.45954    0.000
 4466.00    1.78838   1.48266    0.000
 4467.00    1.79774   1.50237    0.000
 4468.00    1.80487   1.51795    0.000
 4469.00    1.80127   1.53802    0.000
 4470.00    1.80991   1.56362    0.000
 4471.00    1.86635   1.59146    0.000
 4472.00    1.91560   1.61939    0.000
 4473.00    1.94149   1.64242    0.000
 4474.00    1.97867   1.65607    0.000
 4475.00    2.04692   1.66322    0.000
 4476.00    2.06546   1.66515    0.000
 4477.00    1.96688   1.65661    0.000
 4478.00    1.90540   1.63860    0.000
 4479.00    1.91947   1.62127    0.000
 4480.00    1.93555   1.61211    0.000
 4481.00    1.95517   1.61122    0.000
 4482.00    1.96707   1.61736    0.096
 4483.00    1.96700   1.62658    0.095
 4484.00    1.95194   1.63456    0.094
 4485.00    1.91647   1.63970    0.095
 4486.00    1.86934   1.63928    0.094
 4487.00    1.80822   1.63009    0.092
 4488.00    1.81632   1.61375    0.093
 4489.00    1.89760   1.59714    0.095
 4490.00    1.95250   1.58559    0.095
 4491.00    1.98280   1.57724    0.095
 4492.00    1.96951   1.56867    0.095
 4493.00    1.92040   1.56287    0.095
 4494.00    1.82879   1.56796    0.095
 4495.00    1.70643   1.58288    0.095
 4496.00    1.71323   1.60195    0.095
 4497.00    1.80207   1.62622    0.094
 4498.00    1.89993   1.65730    0.093
 4499.00    2.00280   1.68855    0.093
 4500.00    1.93514   1.71548    0.094
 4501.00    1.78509   1.74408    0.096
 4502.00    1.84420   1.77445    0.096
 4503.00    1.99057   1.79557    0.096
 4504.00    2.04536   1.80568    0.095
 4505.00    2.06746   1.81122    0.094
 4506.00    2.15863   1.81317    0.095
 4507.00    2.27062   1.80760    0.097
 4508.00    2.18699   1.79642    0.095
 4509.00    2.05435   1.78270    0.093
 4510.00    2.00318   1.76657    0.094
 4511.00    1.96857   1.74790    0.096
 4512.00    1.92808   1.72928    0.094
 4513.00    1.88665   1.71386    0.091
 4514.00    1.85053   1.70512    0.093
 4515.00    1.81504   1.70163    0.095
 4516.00    1.87001   1.69836    0.096
 4517.00    1.93231   1.69519    0.096
 4518.00    1.92112   1.69629    0.095
 4519.00    1.90658   1.69711    0.094
 4520.00    1.97549   1.68737    0.095
 4521.00    2.04269   1.66335    0.095
 4522.00    1.97063   1.63288    0.094
 4523.00    1.89927   1.60085    0.094
 4524.00    1.84095   1.56292    0.093
 4525.00    1.79186   1.52077    0.092
 4526.00    1.84625   1.48434    0.093
 4527.00    1.88998   1.46041    0.093
 4528.00    1.85027   1.44640    0.093
 4529.00    1.80403   1.43991    0.092
 4530.00    1.71917   1.44230    0.093
 4531.00    1.66029   1.45704    0.093
 4532.00    1.72301   1.47820    0.093
 4533.00    1.77349   1.49804    0.093
 4534.00    1.77715   1.51907    0.093
 4535.00    1.77879   1.54857    0.092
 4536.00    1.77395   1.58117    0.093
 4537.00    1.78523   1.60433    0.094
 4538.00    1.84005   1.61832    0.093
 4539.00    1.89926   1.62820    0.093
 4540.00    1.96863   1.63496    0.094
 4541.00    1.99674   1.63907    0.094
 4542.00    1.94214   1.63857    0.092
 4543.00    1.91030   1.63028    0.092
 4544.00    1.91820   1.61955    0.093
 4545.00    1.90676   1.61625    0.094
 4546.00    1.86573   1.61551    0.094
 4547.00    1.84404   1.60802    0.094
 4548.00    1.84830   1.59839    0.093
 4549.00    1.84569   1.59760    0.093
 4550.00    1.83497   1.60215    0.000
 4551.00    1.87294   1.60462    0.000
 4552.00    1.96165   1.61005    0.000
 4553.00    1.98479   1.62333    0.000
 4554.00    1.94766   1.64182    0.000
 4555.00    1.93831   1.66357    0.000
 4556.00    1.95148   1.68842    0.000
 4557.00    1.96277   1.71052    0.000
 4558.00    1.97273   1.72431    0.000
 4559.00    2.01899   1.73015    0.000
 4560.00    2.08796   1.73171    0.000
 4561.00    2.14591   1.72946    0.000
 4562.00    2.19783   1.72116    0.000
 4563.00    2.22382   1.71049    0.000
 4564.00    2.23747   1.70563    0.000
 4565.00    2.14273   1.70928    0.000
 4566.00    2.00352   1.71431    0.000
 4567.00    1.99127   1.71808    0.000
 4568.00    2.02349   1.72512    0.000
 4569.00    2.02113   1.73168    0.000
 4570.00    2.00854   1.73101    0.000
 4571.00    2.06213   1.73234    0.000
 4572.00    2.13192   1.73945    0.000
 4573.00    2.16364   1.73824    0.000
 4574.00    2.18782   1.72622    0.000
 4575.00    2.17013   1.71526    0.000
 4576.00    2.14596   1.70505    0.000
 4577.00    2.10709   1.68789    0.000
 4578.00    2.06654   1.66545    0.000
 4579.00    2.01342   1.64608    0.000
 4580.00    1.95934   1.63504    0.000
 4581.00    2.02119   1.63121    0.000
 4582.00    2.08787   1.63161    0.000
 4583.00    2.06069   1.63695    0.000
 4584.00    2.03311   1.64816    0.000
 4585.00    2.02403   1.66169    0.000
 4586.00    2.01056   1.67565    0.000
 4587.00    1.92027   1.68769    0.000
 4588.00    1.83981   1.69457    0.000
 4589.00    1.86449   1.69293    0.000
 4590.00    1.90029   1.68402    0.000
 4591.00    2.02013   1.67243    0.000
 4592.00    2.10906   1.66078    0.000
 4593.00    2.02040   1.64771    0.000
 4594.00    1.95219   1.63596    0.000
 4595.00    1.97742   1.62841    0.000
 4596.00    1.99704   1.62565    0.000
 4597.00    1.99563   1.62735    0.000
 4598.00    1.99803   1.63170    0.000
 4599.00    2.01234   1.63443    0.000
 4600.00    2.00922   1.63922    0.000
 4601.00    1.95981   1.65051    0.000
 4602.00    1.94640   1.66437    0.000
 4603.00    2.01501   1.67993    0.000
 4604.00    2.05906   1.69880    0.000
 4605.00    2.05465   1.72122    0.000
 4606.00    2.07581   1.74483    0.000
 4607.00    2.14096   1.76801    0.000
 4608.00    2.12926   1.78554    0.000
 4609.00    2.00184   1.79563    0.000
 4610.00    1.93740   1.80199    0.000
 4611.00    1.95628   1.80551    0.000
 4612.00    2.01746   1.80647    0.000
 4613.00    2.12794   1.80778    0.000
 4614.00    2.20979   1.80939    0.000
 4615.00    2.26221   1.81042    0.000
 4616.00    2.20829   1.81534    0.000
 4617.00    2.05796   1.81864    0.000
 4618.00    1.96297   1.81701    0.000
 4619.00    1.91220   1.81858    0.000
 4620.00    1.98814   1.82209    0.000
 4621.00    2.15315   1.81825    0.000
 4622.00    2.18207   1.81443    0.000
 4623.00    2.12708   1.81569    0.000
 4624.00    2.13436   1.81191    0.000
 4625.00    2.17518   1.80525    0.000
 4626.00    2.14174   1.80570    0.000
 4627.00    2.07357   1.80530    0.000
 4628.00    2.05047   1.79560    0.000
 4629.00    2.04554   1.78754    0.000
 4630.00    2.01910   1.78490    0.000
 4631.00    1.98525   1.77393    0.000
 4632.00    2.01842   1.75340    0.000
 4633.00    2.07099   1.73626    0.000
 4634.00    2.05175   1.72238    0.000
 4635.00    2.01530   1.70402    0.000
 4636.00    2.00566   1.68560    0.000
 4637.00    2.00120   1.67338    0.000
 4638.00    1.97098   1.66299    0.000
 4639.00    1.93690   1.65173    0.000
 4640.00    1.86127   1.64486    0.000
 4641.00    1.78108   1.63669    0.000
 4642.00    1.80114   1.62185    0.000
 4643.00    1.82850   1.60778    0.000
 4644.00    1.81996   1.59790    0.000
 4645.00    1.81007   1.58749    0.000
 4646.00    1.77319   1.58193    0.000
 4647.00    1.73837   1.58792    0.000
 4648.00    1.78521   1.60144    0.000
 4649.00    1.82985   1.61650    0.000
 4650.00    1.83864   1.63313    0.000
 4651.00    1.85016   1.65183    0.000
 4652.00    1.88961   1.66982    0.000
 4653.00    1.91931   1.68372    0.000
 4654.00    1.87773   1.69773    0.000
 4655.00    1.86077   1.71403    0.000
 4656.00    1.98146   1.72998    0.000
 4657.00    2.07575   1.74368    0.000
 4658.00    2.05230   1.75184    0.000
 4659.00    2.02302   1.75108    0.000
 4660.00    1.97236   1.73949    0.000
 4661.00    1.95485   1.71567    0.000
 4662.00    2.03903   1.68170    0.000
 4663.00    2.09349   1.64737    0.000
 4664.00    2.07046   1.61767    0.000
 4665.00    2.03094   1.58885    0.000
 4666.00    1.95448   1.56732    0.000
 4667.00    1.89876   1.56437    0.000
 4668.00    1.88332   1.57678    0.000
 4669.00    1.86200   1.59407    0.000
 4670.00    1.83072   1.61534    0.000
 4671.00    1.82314   1.63990    0.000
 4672.00    1.85074   1.66123    0.000
 4673.00    1.87080   1.67510    0.000
 4674.00    1.88103   1.68425    0.000
 4675.00    1.86803   1.69017    0.000
 4676.00    1.82834   1.68787    0.000
 4677.00    1.80860   1.67881    0.000
 4678.00    1.80906   1.67213    0.000
 4679.00    1.81478   1.66783    0.000
 4680.00    1.82519   1.66234    0.000
 4681.00    1.86189   1.66042    0.000
 4682.00    1.91928   1.66485    0.000
 4683.00    1.92898   1.66859    0.000
 4684.00    1.90562   1.67073    0.000
 4685.00    1.87378   1.67450    0.000
 4686.00    1.83678   1.67522    0.000
 4687.00    1.82134   1.67379    0.000
 4688.00    1.81733   1.67558    0.000
 4689.00    1.84279   1.67733    0.000
 4690.00    1.88181   1.67753    0.000
 4691.00    1.94223   1.68156    0.000
 4692.00    2.01113   1.68679    0.000
 4693.00    1.94319   1.68660    0.000
 4694.00    1.82905   1.68385    0.000
 4695.00    1.82142   1.68036    0.000
 4696.00    1.84402   1.67012    0.000
 4697.00    1.83386   1.65145    0.000
 4698.00    1.81604   1.63414    0.000
 4699.00    1.86460   1.62356    0.000
 4700.00    1.92563   1.61331    0.000
 4701.00    1.94912   1.60233    0.000
 4702.00    1.96714   1.59651    0.000
 4703.00    1.88816   1.59916    0.000
 4704.00    1.79891   1.60352    0.000
 4705.00    1.84753   1.60545    0.000
 4706.00    1.90562   1.60964    0.000
 4707.00    1.82983   1.61829    0.000
 4708.00    1.74949   1.62653    0.000
 4709.00    1.77606   1.63488    0.000
 4710.00    1.80236   1.64790    0.000
 4711.00    1.81456   1.66284    0.000
 4712.00    1.82932   1.67735    0.000
 4713.00    1.88353   1.69172    0.000
 4714.00    1.93293   1.71159    0.000
 4715.00    1.93532   1.73790    0.000
 4716.00    1.92465   1.76132    0.000
 4717.00    1.82176   1.77977    0.000
 4718.00    1.75581   1.79854    0.000
 4719.00    1.89079   1.81411    0.000
 4720.00    1.99891   1.82009    0.000
 4721.00    1.98994   1.81605    0.000
 4722.00    1.98884   1.80475    0.000
 4723.00    2.01597   1.78804    0.000
 4724.00    2.01451   1.76640    0.000
 4725.00    1.92696   1.73890    0.000
 4726.00    1.86033   1.70762    0.000
 4727.00    1.84728   1.68246    0.000
 4728.00    1.84846   1.66724    0.000
 4729.00    1.88099   1.65766    0.000
 4730.00    1.88170   1.65612    0.000
 4731.00    1.82158   1.66408    0.000
 4732.00    1.82370   1.67441    0.000
 4733.00    1.92966   1.68731    0.000
 4734.00    1.99215   1.70527    0.000
 4735.00    1.99108   1.71663    0.000
 4736.00    1.97123   1.72332    0.000
 4737.00    1.92722   1.73749    0.000
 4738.00    1.89566   1.75096    0.000
 4739.00    1.87820   1.75571    0.000
 4740.00    1.89499   1.76076    0.000
 4741.00    1.94599   1.77204    0.000
 4742.00    1.96872   1.78375    0.000
 4743.00    1.96655   1.79003    0.000
 4744.00    1.99450   1.79457    0.000
 4745.00    2.04585   1.80368    0.000
 4746.00    2.05990   1.81047    0.000
 4747.00    2.04849   1.80854    0.000
 4748.00    2.05974   1.80398    0.000
 4749.00    2.08456   1.79953    0.000
 4750.00    2.04967   1.79032    0.000
 4751.00    1.98360   1.77656    0.000
 4752.00    1.97843   1.76501    0.000
 4753.00    2.00081   1.75463    0.000
 4754.00    2.01062   1.74516    0.000
 4755.00    2.01552   1.73859    0.000
 4756.00    1.99488   1.73331    0.000
 4757.00    1.96576   1.72568    0.000
 4758.00    2.02478   1.71733    0.000
 4759.00    2.10829   1.70944    0.000
 4760.00    1.94777   1.69523    0.000
 4761.00    1.73143   1.67704    0.081
 4762.00    1.77454   1.66469    0.082
 4763.00    1.86516   1.65645    0.084
 4764.00    1.85228   1.64879    0.085
 4765.00    1.82483   1.64909    0.086
 4766.00    1.85708   1.65988    0.085
 4767.00    1.89540   1.67374    0.085
 4768.00    1.88046   1.69082    0.084
 4769.00    1.86208   1.71306    0.083
 4770.00    1.95174   1.73258    0.084
 4771.00    2.04460   1.74845    0.085
 4772.00    2.09871   1.76639    0.086
 4773.00    2.14722   1.78539    0.087
 4774.00    2.03363   1.79635    0.086
 4775.00    1.92943   1.79965    0.085
 4776.00    1.96083   1.80463    0.086
 4777.00    1.98605   1.80553    0.086
 4778.00    1.95315   1.79451    0.084
 4779.00    1.93528   1.78076    0.082
 4780.00    2.02029   1.77051    0.083
 4781.00    2.07868   1.75472    0.084
 4782.00    1.99603   1.73426    0.083
 4783.00    1.94016   1.72380    0.082
 4784.00    1.99829   1.71878    0.082
 4785.00    2.01795   1.70885    0.082
 4786.00    1.90243   1.70769    0.082
 4787.00    1.81819   1.71814    0.081
 4788.00    1.82638   1.72696    0.081
 4789.00    1.84280   1.73990    0.082
 4790.00    1.88000   1.76109    0.083
 4791.00    1.91447   1.78061    0.083
 4792.00    1.94303   1.79673    0.082
 4793.00    1.96771   1.81286    0.082
 4794.00    1.98506   1.82253    0.084
 4795.00    2.00046   1.82291    0.084
 4796.00    2.01268   1.82086    0.083
 4797.00    1.99169   1.81742    0.083
 4798.00    1.92282   1.81130    0.083
 4799.00    1.93559   1.80575    0.083
 4800.00    2.05182   1.80306    0.084
 4801.00    2.10464   1.80180    0.085
 4802.00    2.08663   1.79921    0.085
 4803.00    2.06536   1.79297    0.084
 4804.00    2.04089   1.78541    0.083
 4805.00    2.03433   1.78178    0.083
 4806.00    2.04333   1.77716    0.085
 4807.00    2.00598   1.77165    0.084
 4808.00    1.93315   1.77312    0.083
 4809.00    1.94473   1.77966    0.083
 4810.00    2.01309   1.78582    0.083
 4811.00    1.99964   1.79438    0.084
 4812.00    1.93799   1.80653    0.084
 4813.00    1.90730   1.81879    0.083
 4814.00    1.89252   1.82993    0.081
 4815.00    1.93724   1.84036    0.082
 4816.00    2.00845   1.84764    0.083
 4817.00    2.01566   1.85075    0.084
 4818.00    1.99838   1.84964    0.086
 4819.00    1.97445   1.84130    0.085
 4820.00    1.94836   1.83042    0.084
 4821.00    1.95829   1.81988    0.084
 4822.00    1.97802   1.80470    0.084
 4823.00    1.97484   1.79084    0.083
 4824.00    1.96654   1.78419    0.082
 4825.00    1.94394   1.77929    0.081
 4826.00    1.91879   1.77333    0.081
 4827.00    1.90439   1.76758    0.080
 4828.00    1.89145   1.76437    0.080
 4829.00    1.87616   1.76542    0.081
 4830.00    1.86064   1.76410    0.081
 4831.00    1.85549   1.75979    0.081
 4832.00    1.85097   1.76201    0.080
 4833.00    1.90144   1.76705    0.081
 4834.00    1.95331   1.76556    0.082
 4835.00    1.99617   1.76089    0.082
 4836.00    2.03419   1.75968    0.081
 4837.00    1.94617   1.75738    0.081
 4838.00    1.86120   1.74965    0.082
 4839.00    1.81788   1.74314    0.081
 4840.00    1.78230   1.74432    0.080
 4841.00    1.81664   1.74733    0.079
 4842.00    1.84806   1.74764    0.078
 4843.00    1.86004   1.75225    0.080
 4844.00    1.87921   1.76008    0.080
 4845.00    1.93545   1.76487    0.080
 4846.00    1.97427   1.76718    0.080
 4847.00    1.94062   1.76453    0.080
 4848.00    1.92323   1.75981    0.000
 4849.00    1.96181   1.75682    0.000
 4850.00    1.97993   1.74475    0.000
 4851.00    1.93872   1.72487    0.000
 4852.00    1.88999   1.70847    0.000
 4853.00    1.82264   1.68675    0.000
 4854.00    1.79433   1.65379    0.000
 4855.00    1.84931   1.62347    0.000
 4856.00    1.87124   1.59599    0.000
 4857.00    1.83193   1.56350    0.000
 4858.00    1.77551   1.53688    0.000
 4859.00    1.69138   1.51930    0.000
 4860.00    1.63199   1.50503    0.000
 4861.00    1.60774   1.50668    0.000
 4862.00    1.62951   1.52315    0.000
 4863.00    1.70878   1.53655    0.000
 4864.00    1.73170   1.55311    0.000
 4865.00    1.69256   1.57668    0.000
 4866.00    1.65466   1.58972    0.000
 4867.00    1.61796   1.59063    0.000
 4868.00    1.63718   1.59594    0.000
 4869.00    1.70429   1.60049    0.000
 4870.00    1.73161   1.59476    0.000
 4871.00    1.72890   1.59660    0.000
 4872.00    1.71997   1.61393    0.000
 4873.00    1.70692   1.62970    0.000
 4874.00    1.75018   1.64357    0.000
 4875.00    1.82614   1.66894    0.077
 4876.00    1.83499   1.69254    0.078
 4877.00    1.80991   1.70244    0.078
 4878.00    1.83104   1.71397    0.078
 4879.00    1.87241   1.72258    0.077
 4880.00    1.87364   1.71349    0.077
 4881.00    1.85979   1.69992    0.077
 4882.00    1.82331   1.69019    0.077
 4883.00    1.77962   1.67288    0.077
 4884.00    1.82703   1.65056    0.077
 4885.00    1.89874   1.63558    0.078
 4886.00    1.87926   1.62568    0.078
 4887.00    1.83989   1.61813    0.078
 4888.00    1.80098   1.62337    0.077
 4889.00    1.76215   1.63858    0.077
 4890.00    1.78492   1.65743    0.077
 4891.00    1.81579   1.69083    0.078
 4892.00    1.83752   1.73154    0.078
 4893.00    1.85839   1.76694    0.077
 4894.00    1.89110   1.80088    0.078
 4895.00    1.92448   1.82749    0.079
 4896.00    1.89513   1.84216    0.079
 4897.00    1.86524   1.85112    0.078
 4898.00    1.93244   1.85036    0.079
 4899.00    1.99703   1.84050    0.079
 4900.00    1.99963   1.83417    0.079
 4901.00    1.99773   1.82894    0.078
 4902.00    1.93768   1.81847    0.078
 4903.00    1.88527   1.80978    0.078
 4904.00    1.89918   1.80587    0.078
 4905.00    1.91133   1.79916    0.078
 4906.00    1.91218   1.78701    0.078
 4907.00    1.90984   1.77707    0.078
 4908.00    1.89144   1.76956    0.078
 4909.00    1.87954   1.75976    0.077
 4910.00    1.89409   1.75280    0.078
 4911.00    1.89881   1.75031    0.079
 4912.00    1.87038   1.74416    0.077
 4913.00    1.83536   1.73228    0.075
 4914.00    1.78158   1.71707    0.076
 4915.00    1.76399   1.69521    0.077
 4916.00    1.83442   1.66653    0.078
 4917.00    1.87519   1.63761    0.078
 4918.00    1.85368   1.61488    0.078
 4919.00    1.82788   1.59939    0.078
 4920.00    1.79423   1.59490    0.077
 4921.00    1.77576   1.60752    0.077
 4922.00    1.78148   1.63184    0.077
 4923.00    1.75492   1.65907    0.077
 4924.00    1.68317   1.69312    0.076
 4925.00    1.64144   1.73306    0.076
 4926.00    1.63668   1.76390    0.076
 4927.00    1.72877   1.78716    0.078
 4928.00    1.92599   1.80778    0.081
 4929.00    2.03529   1.81270    0.082
 4930.00    2.06040   1.80709    0.081
 4931.00    2.03307   1.80023    0.079
 4932.00    1.96146   1.78105    0.078
 4933.00    1.91786   1.75665    0.077
 4934.00    1.89509   1.73986    0.078
 4935.00    1.87119   1.72416    0.078
 4936.00    1.84656   1.71230    0.077
 4937.00    1.78773   1.71076    0.077
 4938.00    1.70936   1.71655    0.078
 4939.00    1.72610   1.73312    0.078
 4940.00    1.79020   1.75751    0.000
 4941.00    1.80970   1.77906    0.000
 4942.00    1.81001   1.80283    0.000
 4943.00    1.87331   1.83015    0.000
 4944.00    1.95986   1.84880    0.000
 4945.00    1.97522   1.86071    0.000
 4946.00    1.96831   1.87396    0.000
 4947.00    2.04882   1.88226    0.000
 4948.00    2.15213   1.88091    0.000
 4949.00    2.09680   1.87421    0.000
 4950.00    2.00769   1.86312    0.000
 4951.00    1.95672   1.84509    0.000
 4952.00    1.91217   1.81943    0.000
 4953.00    1.95419   1.78768    0.000
 4954.00    2.00723   1.76117    0.000
 4955.00    1.96866   1.74284    0.000
 4956.00    1.92197   1.72249    0.000
 4957.00    1.90065   1.71205    0.000
 4958.00    1.88067   1.71972    0.000
 4959.00    1.90420   1.72905    0.000
 4960.00    1.92880   1.73476    0.000
 4961.00    1.97187   1.74206    0.000
 4962.00    2.01092   1.74970    0.000
 4963.00    1.96246   1.75083    0.000
 4964.00    1.91389   1.74492    0.000
 4965.00    1.86384   1.74220    0.000
 4966.00    1.82052   1.74306    0.000
 4967.00    1.83343   1.74372    0.000
 4968.00    1.85145   1.74947    0.000
 4969.00    1.90139   1.75928    0.000
 4970.00    1.94328   1.76986    0.000
 4971.00    1.94566   1.77905    0.000
 4972.00    1.94475   1.78385    0.000
 4973.00    1.93076   1.78437    0.000
 4974.00    1.92378   1.77570    0.000
 4975.00    1.93999   1.75855    0.000
 4976.00    1.94635   1.73858    0.000
 4977.00    1.92517   1.71116    0.000
 4978.00    1.88634   1.67825    0.000
 4979.00    1.80526   1.65119    0.000
 4980.00    1.74989   1.62953    0.000
 4981.00    1.74759   1.60906    0.000
 4982.00    1.75568   1.59951    0.000
 4983.00    1.78241   1.60483    0.000
 4984.00    1.80993   1.61380    0.000
 4985.00    1.83868   1.62746    0.000
 4986.00    1.87895   1.64874    0.000
 4987.00    1.93509   1.66753    0.000
 4988.00    1.92983   1.68465    0.000
 4989.00    1.85001   1.69916    0.000
 4990.00    1.81810   1.70652    0.000
 4991.00    1.83748   1.71485    0.000
 4992.00    1.84891   1.71849    0.000
 4993.00    1.85285   1.71360    0.000
 4994.00    1.86923   1.71080    0.000
 4995.00    1.89598   1.70276    0.000
 4996.00    1.90129   1.68680    0.000
 4997.00    1.89091   1.67219    0.000
 4998.00    1.87104   1.65357    0.000
 4999.00    1.84507   1.63160    0.000
 5000.00    1.83206   1.61423    0.000
 5001.00    1.82636   1.59710    0.000
 5002.00    1.82261   1.58040    0.000
 5003.00    1.81982   1.57216    0.000
 5004.00    1.82315   1.56858    0.000
 5005.00    1.82908   1.56340    0.000
 5006.00    1.85138   1.56309    0.000
 5007.00    1.87963   1.56658    0.000
 5008.00    1.84207   1.56356    0.000
 5009.00    1.78433   1.55811    0.000
 5010.00    1.74989   1.55283    0.000
 5011.00    1.72140   1.54417    0.000
 5012.00    1.71915   1.53658    0.000
 5013.00    1.72236   1.53003    0.000
 5014.00    1.67103   1.52613    0.000
 5015.00    1.61078   1.52965    0.000
 5016.00    1.62577   1.53519    0.000
 5017.00    1.64999   1.54107    0.000
 5018.00    1.63857   1.55096    0.000
 5019.00    1.62414   1.56353    0.000
 5020.00    1.65418   1.57453    0.000
 5021.00    1.68639   1.58401    0.000
 5022.00    1.72942   1.59769    0.000
 5023.00    1.77140   1.60993    0.000
 5024.00    1.73907   1.62019    0.000
 5025.00    1.70922   1.63691    0.000
 5026.00    1.72940   1.65171    0.000
 5027.00    1.75274   1.66443    0.000
 5028.00    1.81302   1.68203    0.000
 5029.00    1.86110   1.69590    0.074
 5030.00    1.81070   1.70377    0.074
 5031.00    1.76930   1.70610    0.074
 5032.00    1.78246   1.70013    0.074
 5033.00    1.79506   1.68897    0.074
 5034.00    1.80498   1.66767    0.075
 5035.00    1.80486   1.63981    0.076
 5036.00    1.76562   1.61577    0.075
 5037.00    1.73475   1.59042    0.075
 5038.00    1.73099   1.57223    0.075
 5039.00    1.72528   1.56889    0.075
 5040.00    1.71423   1.56991    0.076
 5041.00    1.69606   1.58223    0.076
 5042.00    1.66111   1.60709    0.074
 5043.00    1.66123   1.62798    0.074
 5044.00    1.73266   1.64552    0.073
 5045.00    1.77398   1.66313    0.073
 5046.00    1.76205   1.67295    0.074
 5047.00    1.77223   1.67380    0.074
 5048.00    1.81664   1.67340    0.074
 5049.00    1.82377   1.67569    0.075
 5050.00    1.78019   1.67908    0.075
 5051.00    1.78919   1.68621    0.075
 5052.00    1.86109   1.69940    0.075
 5053.00    1.84382   1.71624    0.075
 5054.00    1.73241   1.73473    0.075
 5055.00    1.73043   1.75150    0.075
 5056.00    1.83029   1.76587    0.076
 5057.00    1.88698   1.77692    0.076
 5058.00    1.90823   1.78047    0.076
 5059.00    1.91559   1.77871    0.076
 5060.00    1.91291   1.76994    0.076
 5061.00    1.89828   1.75370    0.076
 5062.00    1.87606   1.73819    0.075
 5063.00    1.83863   1.71946    0.075
 5064.00    1.79276   1.69713    0.075
 5065.00    1.79013   1.68292    0.075
 5066.00    1.80834   1.67446    0.075
 5067.00    1.77174   1.66470    0.075
 5068.00    1.71234   1.65866    0.074
 5069.00    1.72454   1.66033    0.075
 5070.00    1.76225   1.66138    0.075
 5071.00    1.74846   1.65635    0.075
 5072.00    1.71918   1.65222    0.075
 5073.00    1.75863   1.64931    0.075
 5074.00    1.81525   1.63906    0.074
 5075.00    1.83299   1.62223    0.074
 5076.00    1.84285   1.60826    0.074
 5077.00    1.83016   1.59669    0.075
 5078.00    1.81388   1.58145    0.076
 5079.00    1.77467   1.57091    0.074
 5080.00    1.73275   1.57205    0.072
 5081.00    1.66347   1.57753    0.072
 5082.00    1.59199   1.58644    0.073
 5083.00    1.66098   1.60339    0.072
 5084.00    1.73630   1.62418    0.072
 5085.00    1.73609   1.64465    0.072
 5086.00    1.73516   1.66485    0.071
 5087.00    1.74274   1.68310    0.070
 5088.00    1.75260   1.69890    0.069
 5089.00    1.80497   1.71112    0.069
 5090.00    1.84959   1.71696    0.068
 5091.00    1.80808   1.71756    0.069
 5092.00    1.77377   1.71353    0.070
 5093.00    1.79557   1.70379    0.069
 5094.00    1.81170   1.68905    0.069
 5095.00    1.79439   1.67193    0.071
 5096.00    1.77941   1.65719    0.072
 5097.00    1.77534   1.64422    0.071
 5098.00    1.77763   1.63263    0.071
 5099.00    1.80413   1.62781    0.071
 5100.00    1.81987   1.62592    0.071
 5101.00    1.80137   1.62381    0.070
 5102.00    1.77289   1.62361    0.069
 5103.00    1.71751   1.62063    0.069
 5104.00    1.68154   1.61719    0.068
 5105.00    1.69044   1.61558    0.069
 5106.00    1.69828   1.61021    0.069
 5107.00    1.70402   1.60980    0.069
 5108.00    1.71546   1.61673    0.069
 5109.00    1.73682   1.62157    0.069
 5110.00    1.74240   1.63355    0.070
 5111.00    1.72392   1.65231    0.071
 5112.00    1.72172   1.66645    0.072
 5113.00    1.74136   1.68275    0.072
 5114.00    1.74927   1.69840    0.072
 5115.00    1.74335   1.70510    0.072
 5116.00    1.73140   1.70703    0.072
 5117.00    1.71319   1.70214    0.072
 5118.00    1.73903   1.68912    0.073
 5119.00    1.80528   1.66999    0.075
 5120.00    1.84053   1.64589    0.075
 5121.00    1.85070   1.62258    0.075
 5122.00    1.82140   1.59935    0.074
 5123.00    1.76400   1.57767    0.073
 5124.00    1.69289   1.56521    0.072
 5125.00    1.61321   1.55810    0.071
 5126.00    1.62793   1.55454    0.071
 5127.00    1.69418   1.56002    0.072
 5128.00    1.68036   1.57011    0.073
 5129.00    1.62856   1.57976    0.073
 5130.00    1.65190   1.59221    0.074
 5131.00    1.70601   1.60603    0.074
 5132.00    1.72843   1.61292    0.074
 5133.00    1.73978   1.61639    0.074
 5134.00    1.70515   1.62051    0.074
 5135.00    1.65696   1.61400    0.073
 5136.00    1.65176   1.60458    0.073
 5137.00    1.65706   1.60052    0.073
 5138.00    1.65335   1.58656    0.074
 5139.00    1.64785   1.57437    0.074
 5140.00    1.67820   1.57242    0.073
 5141.00    1.71408   1.56170    0.073
 5142.00    1.68797   1.55351    0.073
 5143.00    1.65480   1.55497    0.072
 5144.00    1.62840   1.54956    0.073
 5145.00    1.60252   1.54552    0.074
 5146.00    1.64075   1.54721    0.073
 5147.00    1.68163   1.54543    0.073
 5148.00    1.66582   1.54645    0.073
 5149.00    1.65067   1.55084    0.073
 5150.00    1.68275   1.55506    0.074
 5151.00    1.71013   1.56462    0.075
 5152.00    1.65610   1.57703    0.073
 5153.00    1.61007   1.59046    0.072
 5154.00    1.64925   1.60733    0.073
 5155.00    1.68365   1.62146    0.073
 5156.00    1.68209   1.63220    0.073
 5157.00    1.68849   1.63878    0.072
 5158.00    1.74047   1.63210    0.073
 5159.00    1.77587   1.61609    0.073
 5160.00    1.73578   1.59119    0.073
 5161.00    1.70003   1.54945    0.073
 5162.00    1.68052   1.50052    0.072
 5163.00    1.65721   1.44862    0.071
 5164.00    1.62202   1.39049    0.071
 5165.00    1.56226   1.33665    0.071
 5166.00    1.43740   1.29237    0.071
 5167.00    1.34176   1.25630    0.070
 5168.00    1.31254   1.23246    0.070
 5169.00    1.30496   1.22434    0.070
 5170.00    1.34000   1.23064    0.070
 5171.00    1.35827   1.24664    0.070
 5172.00    1.34775   1.27258    0.070
 5173.00    1.34204   1.30789    0.069
 5174.00    1.34354   1.34245    0.068
 5175.00    1.37046   1.37054    0.068
 5176.00    1.43094   1.39269    0.068
 5177.00    1.48476   1.40463    0.068
 5178.00    1.53085   1.40328    0.069
 5179.00    1.54464   1.39191    0.068
 5180.00    1.52530   1.37918    0.068
 5181.00    1.48568   1.37015    0.067
 5182.00    1.42769   1.36415    0.067
 5183.00    1.39119   1.37031    0.066
 5184.00    1.37184   1.39065    0.066
 5185.00    1.38286   1.41450    0.067
 5186.00    1.41519   1.44454    0.067
 5187.00    1.44724   1.47494    0.067
 5188.00    1.47911   1.49637    0.068
 5189.00    1.50887   1.51740    0.068
 5190.00    1.53751   1.53201    0.000
 5191.00    1.56737   1.53667    0.000
 5192.00    1.59782   1.54767    0.000
 5193.00    1.62227   1.56057    0.000
 5194.00    1.64432   1.56770    0.000
 5195.00    1.68104   1.58111    0.000
 5196.00    1.72280   1.59728    0.000
 5197.00    1.75737   1.60449    0.000
 5198.00    1.78986   1.60708    0.000
 5199.00    1.78939   1.60606    0.000
 5200.00    1.78106   1.59422    0.000
 5201.00    1.72339   1.57253    0.000
 5202.00    1.65621   1.54966    0.000
 5203.00    1.70182   1.52607    0.000
 5204.00    1.76430   1.49942    0.000
 5205.00    1.68276   1.48278    0.000
 5206.00    1.58544   1.47920    0.000
 5207.00    1.57909   1.47921    0.000
 5208.00    1.57930   1.49201    0.000
 5209.00    1.61551   1.51756    0.000
 5210.00    1.65305   1.54273    0.000
 5211.00    1.66908   1.57058    0.071
 5212.00    1.68584   1.60041    0.071
 5213.00    1.73318   1.62479    0.072
 5214.00    1.77962   1.64471    0.072
 5215.00    1.81170   1.66171    0.073
 5216.00    1.84220   1.67347    0.073
 5217.00    1.85670   1.67967    0.074
 5218.00    1.86905   1.68119    0.074
 5219.00    1.86579   1.67571    0.074
 5220.00    1.85080   1.66326    0.074
 5221.00    1.77048   1.64703    0.073
 5222.00    1.70828   1.62670    0.072
 5223.00    1.72671   1.60410    0.072
 5224.00    1.72996   1.58870    0.073
 5225.00    1.67777   1.57929    0.072
 5226.00    1.63260   1.57265    0.071
 5227.00    1.60896   1.58049    0.071
 5228.00    1.60546   1.59492    0.070
 5229.00    1.65434   1.60641    0.071
 5230.00    1.68163   1.62821    0.071
 5231.00    1.66059   1.65033    0.071
 5232.00    1.66770   1.66570    0.071
 5233.00    1.72935   1.68774    0.072
 5234.00    1.77646   1.70819    0.072
 5235.00    1.79895   1.72406    0.072
 5236.00    1.81352   1.74272    0.072
 5237.00    1.81635   1.75800    0.072
 5238.00    1.83638   1.76851    0.071
 5239.00    1.87881   1.77588    0.070
 5240.00    1.92735   1.77818    0.070
 5241.00    1.98292   1.77541    0.071
 5242.00    1.98757   1.76671    0.070
 5243.00    1.94073   1.75340    0.069
 5244.00    1.89594   1.73892    0.069
 5245.00    1.85300   1.72154    0.070
 5246.00    1.82311   1.70168    0.069
 5247.00    1.80349   1.68823    0.068
 5248.00    1.79632   1.67875    0.068
 5249.00    1.79776   1.66913    0.069
 5250.00    1.78528   1.66939    0.070
 5251.00    1.76436   1.67591    0.070
 5252.00    1.76204   1.68253    0.070
 5253.00    1.76956   1.69403    0.070
 5254.00    1.79246   1.70465    0.070
 5255.00    1.82241   1.71192    0.070
 5256.00    1.83201   1.71412    0.070
 5257.00    1.83357   1.70497    0.070
 5258.00    1.87336   1.68785    0.070
 5259.00    1.92603   1.66067    0.070
 5260.00    1.88599   1.62286    0.071
 5261.00    1.81972   1.58188    0.072
 5262.00    1.74951   1.53736    0.072
 5263.00    1.67839   1.49568    0.072
 5264.00    1.64323   1.46293    0.072
 5265.00    1.61482   1.43397    0.073
 5266.00    1.52874   1.41803    0.073
 5267.00    1.43431   1.41922    0.073
 5268.00    1.43621   1.42408    0.073
 5269.00    1.44824   1.44029    0.073
 5270.00    1.50756   1.47458    0.074
 5271.00    1.57011   1.50763    0.075
 5272.00    1.60435   1.54119    0.074
 5273.00    1.63765   1.58597    0.074
 5274.00    1.68475   1.62347    0.074
 5275.00    1.73183   1.65180    0.074
 5276.00    1.77753   1.68227    0.075
 5277.00    1.82098   1.70305    0.076
 5278.00    1.83017   1.71506    0.076
 5279.00    1.83795   1.72742    0.076
 5280.00    1.83190   1.73529    0.074
 5281.00    1.82538   1.74356    0.073
 5282.00    1.81554   1.75603    0.074
 5283.00    1.80848   1.76937    0.074
 5284.00    1.81654   1.78770    0.074
 5285.00    1.82841   1.80799    0.073
 5286.00    1.85683   1.82504    0.073
 5287.00    1.89382   1.84066    0.073
 5288.00    1.96147   1.85121    0.074
 5289.00    2.01671   1.85338    0.075
 5290.00    2.03472   1.84815    0.075
 5291.00    2.03522   1.83550    0.074
 5292.00    1.99095   1.81665    0.073
 5293.00    1.96112   1.79434    0.072
 5294.00    1.96304   1.77029    0.073
 5295.00    1.94177   1.74877    0.073
 5296.00    1.87626   1.73317    0.072
 5297.00    1.83670   1.72368    0.072
 5298.00    1.84035   1.72480    0.071
 5299.00    1.84057   1.73502    0.071
 5300.00    1.83575   1.74964    0.071
 5301.00    1.84273   1.77264    0.071
 5302.00    1.86484   1.79942    0.071
 5303.00    1.88144   1.82274    0.071
 5304.00    1.89182   1.84546    0.070
 5305.00    1.93212   1.86631    0.070
 5306.00    2.00227   1.88065    0.071
 5307.00    2.03885   1.89044    0.070
 5308.00    2.04590   1.89710    0.070
 5309.00    2.04333   1.89790    0.069
 5310.00    2.03330   1.89488    0.068
 5311.00    2.01398   1.89064    0.069
 5312.00    1.98831   1.88230    0.069
 5313.00    1.97698   1.87196    0.069
 5314.00    1.97422   1.86210    0.069
 5315.00    1.96192   1.84915    0.070
 5316.00    1.94465   1.83564    0.070
 5317.00    1.94403   1.82235    0.070
 5318.00    1.95093   1.80436    0.069
 5319.00    1.93932   1.78437    0.069
 5320.00    1.92050   1.76237    0.069
 5321.00    1.87204   1.73584    0.068
 5322.00    1.81377   1.70775    0.068
 5323.00    1.80509   1.67872    0.068
 5324.00    1.81016   1.65194    0.070
 5325.00    1.76548   1.63243    0.070
 5326.00    1.70946   1.61856    0.071
 5327.00    1.69685   1.61301    0.070
 5328.00    1.69216   1.62305    0.070
 5329.00    1.70121   1.64148    0.070
 5330.00    1.71219   1.66216    0.071
 5331.00    1.71725   1.69021    0.070
 5332.00    1.72171   1.71955    0.070
 5333.00    1.79820   1.74262    0.071
 5334.00    1.87932   1.75903    0.073
 5335.00    1.86157   1.76886    0.072
 5336.00    1.84100   1.77223    0.071
 5337.00    1.87517   1.77074    0.072
 5338.00    1.90801   1.76691    0.072
 5339.00    1.90293   1.75967    0.073
 5340.00    1.89962   1.75518    0.073
 5341.00    1.92166   1.75582    0.073
 5342.00    1.93215   1.75310    0.073
 5343.00    1.83446   1.75450    0.072
 5344.00    1.76154   1.76147    0.070
 5345.00    1.85757   1.76579    0.071
 5346.00    1.93388   1.77464    0.071
 5347.00    1.90606   1.78633    0.071
 5348.00    1.88038   1.79843    0.071
 5349.00    1.86380   1.81717    0.071
 5350.00    1.86635   1.83769    0.071
 5351.00    1.93599   1.85780    0.072
 5352.00    1.98197   1.87894    0.072
 5353.00    1.95822   1.89915    0.071
 5354.00    1.95473   1.91569    0.070
 5355.00    2.00213   1.92507    0.070
 5356.00    2.03458   1.92961    0.070
 5357.00    2.03470   1.92961    0.070
 5358.00    2.02634   1.92110    0.070
 5359.00    2.00208   1.90796    0.069
 5360.00    1.98217   1.89157    0.069
 5361.00    1.96939   1.86955    0.069
 5362.00    1.95352   1.84731    0.069
 5363.00    1.93321   1.82404    0.069
 5364.00    1.89799   1.79796    0.069
 5365.00    1.84391   1.77599    0.069
 5366.00    1.82399   1.75636    0.068
 5367.00    1.84215   1.73878    0.068
 5368.00    1.83684   1.72894   -2.000
 5369.00    1.80846   1.72613   -2.000
 5370.00    1.79658   1.72942   -2.000
 5371.00    1.79900   1.74106   -2.000
 5372.00    1.78442   1.75917   -2.000
 5373.00    1.75684   1.77740   -2.000
 5374.00    1.72916   1.79782   -2.000
 5375.00    1.70142   1.81914   -2.000
 5376.00    1.77299   1.83276   -2.000
 5377.00    1.90296   1.84242   -2.000
 5378.00    1.97560   1.84942   -2.000
 5379.00    2.01883   1.84955   -2.000
 5380.00    1.99941   1.84760   -2.000
 5381.00    1.95213   1.84546   -2.000
 5382.00    1.97508   1.83876   -2.000
 5383.00    2.02483   1.83114    0.071
 5384.00    2.00133   1.82429    0.071
 5385.00    1.95407   1.81274    0.071
 5386.00    1.89557   1.80040    0.071
 5387.00    1.83402   1.78797    0.071
 5388.00    1.86522   1.77108    0.070
 5389.00    1.91708   1.75494    0.070
 5390.00    1.86593   1.73916    0.070
 5391.00    1.79648   1.72187    0.070
 5392.00    1.78037   1.70836    0.070
 5393.00    1.77149   1.69647    0.070
 5394.00    1.73572   1.68695    0.070
 5395.00    1.69736   1.68153    0.069
 5396.00    1.66874   1.67560    0.070
 5397.00    1.64071   1.67415    0.071
 5398.00    1.71363   1.67372    0.071
 5399.00    1.78884   1.66690    0.070
 5400.00    1.80781   1.66165    0.070
 5401.00    1.82533   1.65756    0.070
 5402.00    1.80560   1.64785    0.070
 5403.00    1.78287   1.63759    0.069
 5404.00    1.71943   1.63273    0.069
 5405.00    1.66458   1.63144    0.069
 5406.00    1.68686   1.63446    0.069
 5407.00    1.70926   1.64455    0.070
 5408.00    1.73241   1.66031    0.069
 5409.00    1.75442   1.68128    0.069
 5410.00    1.77054   1.70738    0.068
 5411.00    1.79005   1.73227    0.068
 5412.00    1.82362   1.75459    0.068
 5413.00    1.85070   1.77816    0.068
 5414.00    1.85552   1.79704    0.068
 5415.00    1.86244   1.81027    0.068
 5416.00    1.87549   1.82044    0.068
 5417.00    1.89022   1.82390    0.067
 5418.00    1.90911   1.82464    0.067
 5419.00    1.93118   1.82404    0.067
 5420.00    1.96002   1.81815    0.067
 5421.00    1.97134   1.81325    0.067
 5422.00    1.95026   1.80744    0.067
 5423.00    1.94468   1.79602    0.067
 5424.00    1.96414   1.78915    0.067
 5425.00    1.94965   1.78099    0.068
 5426.00    1.88704   1.76509    0.068
 5427.00    1.84392   1.75377    0.067
 5428.00    1.82509   1.74105    0.066
 5429.00    1.82101   1.72810    0.066
 5430.00    1.83314   1.72262    0.066
 5431.00    1.83828   1.71475    0.066
 5432.00    1.83665   1.71405    0.066
 5433.00    1.82702   1.72554    0.067
 5434.00    1.81054   1.73820    0.068
 5435.00    1.79004   1.75503    0.069
 5436.00    1.76652   1.77600    0.070
 5437.00    1.84247   1.79700    0.070
 5438.00    1.98423   1.81517    0.071
 5439.00    2.00403   1.82810    0.071
 5440.00    1.95316   1.83391    0.071
 5441.00    1.95723   1.83207    0.071
 5442.00    1.98904   1.82544    0.071
 5443.00    1.97449   1.81295    0.071
 5444.00    1.93967   1.79875    0.070
 5445.00    1.91244   1.78624    0.070
 5446.00    1.88805   1.77429    0.070
 5447.00    1.88996   1.76768    0.070
 5448.00    1.90024   1.76263    0.071
 5449.00    1.91122   1.75641    0.070
 5450.00    1.92239   1.75583    0.070
 5451.00    1.89316   1.75538    0.070
 5452.00    1.85515   1.75191    0.071
 5453.00    1.82869   1.75066    0.071
 5454.00    1.80423   1.74890    0.070
 5455.00    1.80975   1.74968    0.069
 5456.00    1.81920   1.75406    0.068
 5457.00    1.81106   1.75455    0.068
 5458.00    1.80130   1.75816    0.068
 5459.00    1.84473   1.76371    0.069
 5460.00    1.89115   1.76554    0.069
 5461.00    1.84390   1.76781    0.068
 5462.00    1.79540   1.76839    0.067
 5463.00    1.83444   1.76941    0.067
 5464.00    1.87042   1.77089    0.066
 5465.00    1.83426   1.76929    0.065
 5466.00    1.80206   1.76883    0.065
 5467.00    1.82074   1.76643    0.065
 5468.00    1.83855   1.75996    0.065
 5469.00    1.84894   1.75206    0.066
 5470.00    1.85431   1.74079    0.067
 5471.00    1.82756   1.72903    0.066
 5472.00    1.80781   1.71657    0.065
 5473.00    1.82311   1.70454    0.066
 5474.00    1.83386   1.69690    0.066
 5475.00    1.82613   1.68819    0.066
 5476.00    1.81117   1.68418    0.066
 5477.00    1.77188   1.68837    0.066
 5478.00    1.74488   1.69168   -2.000
 5479.00    1.75281   1.69767   -2.000
 5480.00    1.73794   1.70838   -2.000
 5481.00    1.66768   1.71982   -2.000
 5482.00    1.84136   1.73096   -2.000
 5483.00    2.52606   1.74015   -2.000
 5484.00    2.82233   1.74872   -2.000
 5485.00    2.41121   1.75724   -2.000
 5486.00    1.91845   1.76309   -2.000
 5487.00    1.29576   1.76680   -2.000
 5488.00    1.04610   1.77079   -2.000
 5489.00    1.31755   1.77244   -2.000
 5490.00    1.56303   1.77359   -2.000
 5491.00    1.77658   1.77609   -2.000
 5492.00    2.02585   1.77640   -2.000
 5493.00    2.31384   1.77766   -2.000
 5494.00    2.31991   1.77892   -2.000
 5495.00    2.05650   1.77700   -2.000
 5496.00    1.94120   1.77478   -2.000
 5497.00    1.95073   1.77330   -2.000
 5498.00    1.94447   1.77108   -2.000
 5499.00    1.92648   1.76575   -2.000
 5500.00    1.89824   1.75834   -2.000
 5501.00    1.86330   1.75428   -2.000
 5502.00    1.83993   1.75010    0.069
 5503.00    1.82316   1.74228    0.068
 5504.00    1.81289   1.73743    0.068
 5505.00    1.80585   1.73324    0.067
 5506.00    1.80094   1.72813    0.067
 5507.00    1.79695   1.72606    0.067
 5508.00    1.78097   1.72142    0.067
 5509.00    1.76056   1.71776    0.067
 5510.00    1.79015   1.71858    0.067
 5511.00    1.83534   1.71823    0.067
 5512.00    1.80907   1.72195    0.066
 5513.00    1.76420   1.72985    0.064
 5514.00    1.79505   1.73819    0.064
 5515.00    1.84196   1.75097    0.065
 5516.00    1.81853   1.76483    0.066
 5517.00    1.78329   1.77805    0.066
 5518.00    1.80425   1.78992    0.066
 5519.00    1.83233   1.79678    0.067
 5520.00    1.84774   1.80138    0.066
 5521.00    1.86204   1.80170    0.065
 5522.00    1.86932   1.79586    0.066
 5523.00    1.87623   1.78963    0.067
 5524.00    1.86413   1.78232    0.066
 5525.00    1.85201   1.77355    0.065
 5526.00    1.86534   1.76672    0.066
 5527.00    1.87667   1.76151    0.066
 5528.00    1.84495   1.75968    0.065
 5529.00    1.81607   1.76016    0.064
 5530.00    1.82183   1.76171    0.066
 5531.00    1.82906   1.76587    0.067
 5532.00    1.84846   1.77106    0.067
 5533.00    1.85924   1.77713    0.067
 5534.00    1.81632   1.78221    0.067
 5535.00    1.78877   1.78807    0.066
 5536.00    1.83636   1.79494    0.067
 5537.00    1.87345   1.79923    0.067
 5538.00    1.86886   1.80571    0.067
 5539.00    1.85844   1.81215    0.067
 5540.00    1.82877   1.81522    0.068
 5541.00    1.79870   1.81966    0.068
 5542.00    1.76752   1.82418    0.067
 5543.00    1.76397   1.82786    0.067
 5544.00    1.82633   1.83205    0.068
 5545.00    1.88580   1.83556    0.069
 5546.00    1.93930   1.83954    0.068
 5547.00    1.96273   1.84391    0.068
 5548.00    1.93224   1.84563    0.069
 5549.00    1.91339   1.84615    0.069
 5550.00    1.91278   1.84638    0.068
 5551.00    1.90146   1.84335    0.067
 5552.00    1.87537   1.83849    0.068
 5553.00    1.84974   1.83394    0.068
 5554.00    1.82466   1.82801    0.067
 5555.00    1.82965   1.82187    0.067
 5556.00    1.86676   1.81513    0.067
 5557.00    1.86899   1.80789    0.066
 5558.00    1.83832   1.80246    0.066
 5559.00    1.85624   1.79467    0.065
 5560.00    1.91453   1.78584    0.064
 5561.00    1.92682   1.77877    0.064
 5562.00    1.90547   1.77095    0.065
 5563.00    1.86249   1.76359    0.065
 5564.00    1.80560   1.75721    0.065
 5565.00    1.81117   1.75268    0.065
 5566.00    1.85183   1.74928    0.065
 5567.00    1.85383   1.74723    0.065
 5568.00    1.83693   1.74853    0.064
 5569.00    1.83234   1.74992    0.064
 5570.00    1.83295   1.75342    0.064
 5571.00    1.84273   1.75870    0.064
 5572.00    1.85583   1.76289    0.065
 5573.00    1.80182   1.77025    0.064
 5574.00    1.72728   1.77669    0.064
 5575.00    1.76117   1.77916    0.065
 5576.00    1.82268   1.78330    0.066
 5577.00    1.85989   1.78553    0.067
 5578.00    1.89206   1.78157    0.067
 5579.00    1.83846   1.77613    0.067
 5580.00    1.77087   1.76652    0.067
 5581.00    1.76946   1.75133    0.067
 5582.00    1.77614   1.73625    0.067
 5583.00    1.81309   1.71775    0.067
 5584.00    1.85258   1.69828    0.068
 5585.00    1.79151   1.68273    0.068
 5586.00    1.72556   1.66839    0.068
 5587.00    1.75361   1.65982    0.069
 5588.00    1.78188   1.65619    0.070
 5589.00    1.73995   1.65656    0.069
 5590.00    1.70012   1.66386    0.068
 5591.00    1.70180   1.67161    0.068
 5592.00    1.70548   1.68060    0.068
 5593.00    1.73235   1.69149    0.069
 5594.00    1.75484   1.69903    0.070
 5595.00    1.74218   1.70462    0.070
 5596.00    1.72797   1.70802    0.070
 5597.00    1.70444   1.70946    0.069
 5598.00    1.68767   1.71375    0.068
 5599.00    1.70319   1.71835    0.069
 5600.00    1.71996   1.72286    0.069
 5601.00    1.74163   1.73347    0.067
 5602.00    1.75569   1.74725    0.066
 5603.00    1.74519   1.76320    0.066
 5604.00    1.73474   1.78000    0.066
 5605.00    1.72446   1.79500    0.066
 5606.00    1.74691   1.80897    0.066
 5607.00    1.84617   1.81803    0.065
 5608.00    1.91241   1.82081    0.064
 5609.00    1.91169   1.81699    0.064
 5610.00    1.89224   1.80922    0.064
 5611.00    1.83975   1.79828    0.064
 5612.00    1.82145   1.78236    0.064
 5613.00    1.85596   1.76674    0.065
 5614.00    1.86838   1.75281    0.066
 5615.00    1.85083   1.74214    0.066
 5616.00    1.80660   1.73490    0.066
 5617.00    1.73047   1.72762    0.066
 5618.00    1.71158   1.72426    0.066
 5619.00    1.75297   1.72541    0.066
 5620.00    1.76211   1.72718    0.065
 5621.00    1.74128   1.72780    0.065
 5622.00    1.72283   1.72898    0.065
 5623.00    1.70632   1.73336    0.065
 5624.00    1.70338   1.73966    0.066
 5625.00    1.71022   1.74740    0.066
 5626.00    1.72453   1.75526    0.067
 5627.00    1.74358   1.76355    0.066
 5628.00    1.78853   1.77354    0.067
 5629.00    1.84781   1.78106    0.068
 5630.00    1.84297   1.78482    0.068
 5631.00    1.80727   1.78568    0.067
 5632.00    1.83241   1.78380    0.067
 5633.00    1.88281   1.77922    0.067
 5634.00    1.85060   1.77232    0.067
 5635.00    1.78904   1.76458    0.068
 5636.00    1.76929   1.75735    0.067
 5637.00    1.76208   1.75186    0.067
 5638.00    1.74274   1.74696    0.066
 5639.00    1.72038   1.74418    0.065
 5640.00    1.74979   1.74385    0.065
 5641.00    1.78965   1.74529    0.065
 5642.00    1.75406   1.74901    0.064
 5643.00    1.70653   1.75194    0.063
 5644.00    1.74295   1.75643    0.064
 5645.00    1.78925   1.76212    0.064
 5646.00    1.78389   1.76590    0.064
 5647.00    1.77439   1.76931    0.063
 5648.00    1.80674   1.77081    0.063
 5649.00    1.84095   1.77081    0.063
 5650.00    1.81760   1.76937    0.063
 5651.00    1.79401   1.76405    0.063
 5652.00    1.79019   1.75567    0.063
 5653.00    1.78824   1.74744    0.064
 5654.00    1.82076   1.73856    0.063
 5655.00    1.84815   1.72727    0.062
 5656.00    1.81877   1.71750    0.063
 5657.00    1.78612   1.71011    0.064
 5658.00    1.72811   1.70694    0.064
 5659.00    1.68252   1.70728    0.064
 5660.00    1.70987   1.70788    0.065
 5661.00    1.72840   1.71236    0.065
 5662.00    1.70587   1.72123    0.065
 5663.00    1.69382   1.73073    0.065
 5664.00    1.72164   1.73909    0.065
 5665.00    1.75170   1.74817    0.065
 5666.00    1.78889   1.75818    0.065
 5667.00    1.80221   1.76867    0.066
 5668.00    1.75133   1.77879    0.066
 5669.00    1.72389   1.78794    0.067
 5670.00    1.75053   1.79792    0.066
 5671.00    1.78599   1.80746    0.066
 5672.00    1.83906   1.81514    0.067
 5673.00    1.88231   1.82075    0.068
 5674.00    1.90847   1.82429    0.068
 5675.00    1.92086   1.82515    0.068
 5676.00    1.91228   1.82266    0.068
 5677.00    1.90180   1.81751    0.068
 5678.00    1.88877   1.81070    0.069
 5679.00    1.86184   1.80250    0.068
 5680.00    1.81856   1.79344    0.066
 5681.00    1.80018   1.78470    0.065
 5682.00    1.80767   1.77791    0.065
 5683.00    1.80752   1.77296    0.065
 5684.00    1.80035   1.76955    0.065
 5685.00    1.78906   1.76857    0.065
 5686.00    1.77444   1.77078    0.064
 5687.00    1.77492   1.77592    0.063
 5688.00    1.78612   1.78148    0.063
 5689.00    1.81435   1.78801    0.062
 5690.00    1.85319   1.79383    0.062
 5691.00    1.85828   1.79839    0.062
 5692.00    1.84497   1.80096    0.062
 5693.00    1.82996   1.80001    0.062
 5694.00    1.81415   1.79664    0.063
 5695.00    1.82761   1.78906    0.063
 5696.00    1.85303   1.77985    0.063
 5697.00    1.83140   1.76904    0.063
 5698.00    1.79334   1.75665    0.064
 5699.00    1.81732   1.74499    0.064
 5700.00    1.85954   1.73207    0.065
 5701.00    1.85768   1.72058    0.065
 5702.00    1.84509   1.71049    0.065
 5703.00    1.84116   1.69891    0.065
 5704.00    1.83893   1.68966    0.066
 5705.00    1.81784   1.68174    0.066
 5706.00    1.79385   1.67529    0.066
 5707.00    1.76573   1.67427    0.066
 5708.00    1.73714   1.67469    0.065
 5709.00    1.70690   1.67977    0.065
 5710.00    1.67654   1.69117    0.065
 5711.00    1.74352   1.70445    0.065
 5712.00    1.81446   1.72251    0.064
 5713.00    1.78493   1.74222    0.064
 5714.00    1.75720   1.76113    0.064
 5715.00    1.83599   1.78131    0.065
 5716.00    1.90850   1.79989    0.066
 5717.00    1.87318   1.81562    0.065
 5718.00    1.83898   1.82929    0.065
 5719.00    1.81677   1.83971    0.065
 5720.00    1.80146   1.84695    0.065
 5721.00    1.83797   1.85197    0.064
 5722.00    1.86806   1.85391    0.064
 5723.00    1.86161   1.85300    0.063
 5724.00    1.85786   1.85010    0.063
 5725.00    1.86643   1.84669    0.063
 5726.00    1.86743   1.84352    0.062
 5727.00    1.84032   1.84070    0.061
 5728.00    1.81064   1.83771    0.060
 5729.00    1.77293   1.83562    0.060
 5730.00    1.75791   1.83591    0.060
 5731.00    1.80283   1.83758    0.061
 5732.00    1.83577   1.83980    0.061
 5733.00    1.84154   1.84136    0.061
 5734.00    1.85088   1.84251    0.061
 5735.00    1.86727   1.84419    0.061
 5736.00    1.86848   1.84533    0.061
 5737.00    1.84370   1.84580    0.061
 5738.00    1.85308   1.84596    0.061
 5739.00    1.91370   1.84508    0.062
 5740.00    1.93630   1.84383    0.000
 5741.00    1.90876   1.84323    0.000
 5742.00    1.88761   1.84241    0.000
 5743.00    1.87385   1.84134    0.000
 5744.00    1.86754   1.83892    0.000
 5745.00    1.86887   1.83430    0.000
 5746.00    1.88854   1.83045    0.000
 5747.00    1.92478   1.82661    0.000
 5748.00    1.94458   1.82230    0.000
 5749.00    1.95131   1.81747    0.000
 5750.00    1.92027   1.81195    0.000
 5751.00    1.86279   1.80780    0.000
 5752.00    1.83313   1.80631    0.000
 5753.00    1.82057   1.80604    0.000
 5754.00    1.82228   1.80583    0.000
 5755.00    1.83164   1.80625    0.000
 5756.00    1.82337   1.80652    0.000
 5757.00    1.80689   1.80741    0.000
 5758.00    1.83899   1.80877    0.000
 5759.00    1.89060   1.80995    0.000
 5760.00    1.87665   1.81210    0.000
 5761.00    1.84027   1.81691    0.000
 5762.00    1.83456   1.82259    0.000
 5763.00    1.83769   1.82946    0.000
 5764.00    1.85485   1.83694    0.000
 5765.00    1.87536   1.84365    0.000
 5766.00    1.86097   1.85022    0.000
 5767.00    1.83988   1.85458    0.000
 5768.00    1.87519   1.85670    0.000
 5769.00    1.91891   1.85584    0.000
 5770.00    1.91450   1.85347    0.000
 5771.00    1.90485   1.84844    0.000
 5772.00    1.89087   1.84128    0.000
 5773.00    1.87658   1.83298    0.000
 5774.00    1.86974   1.82204    0.000
 5775.00    1.86318   1.81035    0.000
 5776.00    1.85664   1.79626    0.000
 5777.00    1.85063   1.77983    0.000
 5778.00    1.86385   1.76296    0.000
 5779.00    1.87465   1.74761    0.000
 5780.00    1.84666   1.73446    0.000
 5781.00    1.81883   1.72460    0.000
 5782.00    1.79268   1.71716    0.000
 5783.00    1.76513   1.71460    0.000
 5784.00    1.72750   1.71839    0.000
 5785.00    1.69895   1.72549    0.000
 5786.00    1.72085   1.73705    0.000
 5787.00    1.74263   1.74895    0.000
 5788.00    1.76386   1.76150    0.000
 5789.00    1.78143   1.77589    0.000
 5790.00    1.78563   1.78846    0.000
 5791.00    1.79430   1.80159   -2.000
 5792.00    1.81665   1.81310   -2.000
 5793.00    1.84261   1.82207   -2.000
 5794.00    1.87794   1.83038   -2.000
 5795.00    1.89214   1.83671   -2.000
 5796.00    1.85919   1.84332   -2.000
 5797.00    1.83521   1.84940   -2.000
 5798.00    1.82859   1.85332   -2.000
 5799.00    1.83227   1.85651   -2.000
 5800.00    1.85335   1.85722   -2.000
 5801.00    1.85215   1.85680   -2.000
 5802.00    1.81802   1.85609   -2.000
 5803.00    1.81564   1.85457   -2.000
 5804.00    1.85453   1.85312   -2.000
 5805.00    1.89100   1.85160   -2.000
 5806.00    1.92468   1.84991   -2.000
 5807.00    1.92397   1.84907   -2.000
 5808.00    1.88853   1.84887   -2.000
 5809.00    1.87145   1.84885   -2.000
 5810.00    1.87070   1.84978   -2.000
 5811.00    1.86366   1.85001    0.000
 5812.00    1.85169   1.85023    0.000
 5813.00    1.84330   1.85086    0.000
 5814.00    1.83739   1.85260    0.000
 5815.00    1.84634   1.85644    0.000
 5816.00    1.86429   1.86049    0.000
 5817.00    1.88400   1.86552    0.000
 5818.00    1.90466   1.87057    0.000
 5819.00    1.90588   1.87541    0.000
 5820.00    1.89820   1.88045    0.000
 5821.00    1.87380   1.88439    0.000
 5822.00    1.84281   1.88800    0.000
 5823.00    1.85047   1.88998    0.000
 5824.00    1.87112   1.89094    0.000
 5825.00    1.88946   1.89124    0.000
 5826.00    1.90715   1.89093    0.000
 5827.00    1.88491   1.89018    0.000
 5828.00    1.85339   1.88863    0.000
 5829.00    1.84496   1.88681    0.000
 5830.00    1.84085   1.88418    0.000
 5831.00    1.83475   1.88145    0.000
 5832.00    1.82836   1.87893    0.000
 5833.00    1.85109   1.87747    0.000
 5834.00    1.87686   1.87667    0.000
 5835.00    1.88356   1.87566    0.000
 5836.00    1.88897   1.87615    0.000
 5837.00    1.89747   1.87724    0.000
 5838.00    1.90606   1.87888    0.000
 5839.00    1.91702   1.88000    0.000
 5840.00    1.92780   1.87987    0.000
 5841.00    1.93288   1.87873    0.000
 5842.00    1.93672   1.87561    0.000
 5843.00    1.92187   1.87080    0.000
 5844.00    1.90797   1.86381    0.000
 5845.00    1.90332   1.85550    0.000
 5846.00    1.89523   1.84644    0.000
 5847.00    1.86297   1.83642    0.000
 5848.00    1.84034   1.82568    0.000
 5849.00    1.86978   1.81360    0.000
 5850.00    1.88916   1.80156    0.000
 5851.00    1.86491   1.79089    0.000
 5852.00    1.84035   1.78153    0.000
 5853.00    1.81464   1.77273    0.000
 5854.00    1.78836   1.76436    0.000
 5855.00    1.76038   1.75822    0.000
 5856.00    1.73566   1.75612    0.000
 5857.00    1.71927   1.75631    0.000
 5858.00    1.72480   1.75915    0.000
 5859.00    1.77843   1.76234    0.000
 5860.00    1.81211   1.76757    0.000
 5861.00    1.80783   1.77445    0.000
 5862.00    1.80797   1.78167    0.000
 5863.00    1.81545   1.78872    0.000
 5864.00    1.80568   1.79498    0.000
 5865.00    1.77080   1.80202    0.000
 5866.00    1.76579   1.80847    0.000
 5867.00    1.79905   1.81467    0.000
 5868.00    1.83181   1.81931    0.000
 5869.00    1.86403   1.82293    0.000
 5870.00    1.86374   1.82473    0.000
 5871.00    1.83109   1.82564    0.000
 5872.00    1.80709   1.82502    0.000
 5873.00    1.79067   1.82185    0.000
 5874.00    1.79335   1.81721    0.000
 5875.00    1.81080   1.80997    0.000
 5876.00    1.79563   1.80165    0.000
 5877.00    1.75827   1.79106    0.000
 5878.00    1.73196   1.77941    0.000
 5879.00    1.71222   1.76585    0.000
 5880.00    1.69985   1.74792    0.000
 5881.00    1.69132   1.72581    0.000
 5882.00    1.67722   1.69967    0.000
 5883.00    1.66060   1.67058    0.000
 5884.00    1.66848   1.63727    0.000
 5885.00    1.68585   1.59913    0.000
 5886.00    1.66329   1.55796    0.000
 5887.00    1.62756   1.51676    0.000
 5888.00    1.55529   1.48482    0.000
 5889.00    1.47291   1.46078    0.000
 5890.00    1.42231   1.44278    0.000
 5891.00    1.37894   1.43409    0.000
 5892.00    1.38336   1.43039    0.000
 5893.00    1.39648   1.43681    0.000
 5894.00    1.39244   1.45663    0.000
 5895.00    1.38601   1.48386    0.000
 5896.00    1.39210   1.51533    0.000
 5897.00    1.39944   1.54866    0.000
 5898.00    1.45674   1.58274    0.000
 5899.00    1.51722   1.61762    0.000
 5900.00    1.54747   1.65035    0.000
 5901.00    1.57685   1.68078    0.055
 5902.00    1.60995   1.70681    0.055
 5903.00    1.64361   1.72704    0.056
 5904.00    1.69282   1.74341    0.055
 5905.00    1.74013   1.75576    0.055
 5906.00    1.76035   1.76403    0.055
 5907.00    1.77655   1.76937    0.054
 5908.00    1.75531   1.77210    0.054
 5909.00    1.73779   1.77309    0.053
 5910.00    1.74552   1.77192    0.053
 5911.00    1.75242   1.76895    0.053
 5912.00    1.75487   1.76715    0.054
 5913.00    1.75376   1.76515    0.054
 5914.00    1.73756   1.76480    0.054
 5915.00    1.72430   1.76594    0.055
 5916.00    1.72134   1.76742    0.055
 5917.00    1.71271   1.77114    0.055
 5918.00    1.68739   1.77466    0.055
 5919.00    1.67470   1.77864    0.055
 5920.00    1.69367   1.78296    0.055
 5921.00    1.72171   1.78684    0.056
 5922.00    1.76936   1.78952    0.056
 5923.00    1.79384   1.79162    0.056
 5924.00    1.77488   1.79197    0.055
 5925.00    1.75256   1.79120    0.055
 5926.00    1.72475   1.78978    0.055
 5927.00    1.71392   1.78722    0.056
 5928.00    1.72746   1.78695    0.055
 5929.00    1.74371   1.78617    0.055
 5930.00    1.76339   1.78535    0.055
 5931.00    1.77464   1.78432    0.055
 5932.00    1.77650   1.78338    0.055
 5933.00    1.77139   1.78520    0.055
 5934.00    1.75944   1.78632    0.055
 5935.00    1.74908   1.78778    0.054
 5936.00    1.74012   1.78954    0.054
 5937.00    1.74277   1.79008    0.054
 5938.00    1.75428   1.78975    0.054
 5939.00    1.75981   1.78986    0.054
 5940.00    1.76135   1.79064    0.053
 5941.00    1.76254   1.79087    0.053
 5942.00    1.76354   1.79088    0.053
 5943.00    1.75473   1.79001    0.054
 5944.00    1.74090   1.78883    0.054
 5945.00    1.75302   1.78618    0.054
 5946.00    1.77664   1.78330    0.053
 5947.00    1.78101   1.78172    0.053
 5948.00    1.77804   1.77980    0.053
 5949.00    1.75796   1.77685    0.053
 5950.00    1.73234   1.77359    0.054
 5951.00    1.71839   1.77260    0.054
 5952.00    1.70760   1.77282    0.053
 5953.00    1.71240   1.77285    0.054
 5954.00    1.72065   1.77436    0.055
 5955.00    1.71293   1.77746    0.055
 5956.00    1.70238   1.78168    0.054
 5957.00    1.71548   1.78705    0.054
 5958.00    1.73178   1.79276    0.054
 5959.00    1.72391   1.79905    0.055
 5960.00    1.71372   1.80413    0.055
 5961.00    1.73458   1.80934    0.055
 5962.00    1.75729   1.81402    0.055
 5963.00    1.77441   1.81777    0.055
 5964.00    1.79127   1.82220    0.055
 5965.00    1.78810   1.82529    0.055
 5966.00    1.78457   1.82752    0.055
 5967.00    1.77201   1.82902    0.054
 5968.00    1.76145   1.82938    0.053
 5969.00    1.77775   1.82865    0.053
 5970.00    1.79166   1.82645    0.053
 5971.00    1.78414   1.82287    0.053
 5972.00    1.77736   1.81782    0.053
 5973.00    1.77548   1.81107    0.053
 5974.00    1.77522   1.80447    0.053
 5975.00    1.78330   1.79797    0.053
 5976.00    1.78861   1.79193    0.052
 5977.00    1.78246   1.78695    0.051
 5978.00    1.77435   1.78206    0.051
 5979.00    1.75948   1.77760    0.052
 5980.00    1.74410   1.77369    0.053
 5981.00    1.72719   1.77002    0.053
 5982.00    1.71221   1.76906    0.053
 5983.00    1.70196   1.77004    0.053
 5984.00    1.70152   1.77128    0.053
 5985.00    1.72192   1.77400    0.053
 5986.00    1.73277   1.77720    0.053
 5987.00    1.72597   1.78170    0.053
 5988.00    1.72426   1.78564    0.054
 5989.00    1.73076   1.78967    0.055
 5990.00    1.74208   1.79461    0.056
 5991.00    1.76024   1.79746    0.055
 5992.00    1.77027   1.79853    0.055
 5993.00    1.77020   1.79799    0.055
 5994.00    1.76212   1.79572    0.055
 5995.00    1.74525   1.79301    0.055
 5996.00    1.73377   1.78979    0.054
 5997.00    1.72749   1.78644    0.054
 5998.00    1.72573   1.78278    0.054
 5999.00    1.72782   1.77805    0.054
 6000.00    1.72039   1.77338    0.053
 6001.00    1.70580   1.76989    0.052
 6002.00    1.71867   1.76656    0.052
 6003.00    1.74968   1.76282    0.052
 6004.00    1.75701   1.75968    0.052
 6005.00    1.75066   1.75625    0.052
 6006.00    1.72725   1.75455    0.052
 6007.00    1.69524   1.75417    0.052
 6008.00    1.68894   1.75335    0.051
 6009.00    1.69387   1.75244    0.051
 6010.00    1.70149   1.75047    0.051
 6011.00    1.71013   1.74944    0.052
 6012.00    1.70572   1.74895    0.052
 6013.00    1.69716   1.74720    0.051
 6014.00    1.67196   1.74612    0.052
 6015.00    1.64233   1.74502    0.052
 6016.00    1.64881   1.74392    0.053
 6017.00    1.66312   1.74286    0.053
 6018.00    1.70328   1.74424    0.054
 6019.00    1.74790   1.74689    0.054
 6020.00    1.74156   1.75119    0.054
 6021.00    1.72856   1.75601    0.053
 6022.00    1.72324   1.76316    0.054
 6023.00    1.71862   1.77164    0.055
 6024.00    1.71552   1.77908    0.054
 6025.00    1.71250   1.78908    0.054
 6026.00    1.70674   1.79803    0.054
 6027.00    1.70122   1.80745    0.053
 6028.00    1.72476   1.81512    0.053
 6029.00    1.74806   1.82275    0.053
 6030.00    1.76570   1.82949    0.053
 6031.00    1.78182   1.83426    0.053
 6032.00    1.77868   1.83854    0.052
 6033.00    1.77452   1.84140    0.052
 6034.00    1.76165   1.84363    0.052
 6035.00    1.75358   1.84448    0.051
 6036.00    1.77614   1.84516    0.051
 6037.00    1.79585   1.84516    0.052
 6038.00    1.80125   1.84582    0.052
 6039.00    1.80334   1.84617    0.052
 6040.00    1.79199   1.84762    0.052
 6041.00    1.78098   1.84957    0.052
 6042.00    1.77112   1.85136    0.052
 6043.00    1.76144   1.85339    0.052
 6044.00    1.75225   1.85486    0.052
 6045.00    1.75426   1.85624    0.052
 6046.00    1.78339   1.85619    0.052
 6047.00    1.81329   1.85567    0.052
 6048.00    1.84481   1.85385    0.053
 6049.00    1.85873   1.85039    0.053
 6050.00    1.84066   1.84613    0.054
 6051.00    1.82759   1.84085    0.055
 6052.00    1.82245   1.83619    0.054
 6053.00    1.80158   1.83038    0.054
 6054.00    1.75878   1.82627    0.055
 6055.00    1.73360   1.82200    0.055
 6056.00    1.73004   1.81886    0.055
 6057.00    1.72878   1.81599    0.054
 6058.00    1.73003   1.81324    0.054
 6059.00    1.74223   1.81159    0.055
 6060.00    1.76488   1.80924    0.055
 6061.00    1.76057   1.80926    0.054
 6062.00    1.73356   1.80924    0.051
 6063.00    1.71241   1.81210    0.051
 6064.00    1.69560   1.81709    0.052
 6065.00    1.69216   1.82276    0.052
 6066.00    1.69743   1.82961    0.051
 6067.00    1.70651   1.83635    0.050
 6068.00    1.71776   1.84349    0.051
 6069.00    1.72502   1.84899    0.050
 6070.00    1.73029   1.85319    0.050
 6071.00    1.75027   1.85547    0.050
 6072.00    1.77656   1.85446    0.051
 6073.00    1.78724   1.85046    0.051
 6074.00    1.79219   1.84406    0.052
 6075.00    1.78542   1.83597    0.052
 6076.00    1.77501   1.82665    0.053
 6077.00    1.76537   1.81772    0.053
 6078.00    1.75592   1.80871    0.053
 6079.00    1.72936   1.79985    0.052
 6080.00    1.69917   1.79301    0.052
 6081.00    1.68892   1.78733    0.052
 6082.00    1.68201   1.78285    0.053
 6083.00    1.69412   1.77950    0.053
 6084.00    1.70863   1.77785    0.053
 6085.00    1.71748   1.77670    0.053
 6086.00    1.72583   1.77543    0.053
 6087.00    1.70870   1.77480    0.053
 6088.00    1.69025   1.77521    0.053
 6089.00    1.71500   1.77612    0.053
 6090.00    1.74030   1.77713    0.052
 6091.00    1.74868   1.77877    0.052
 6092.00    1.75647   1.78087    0.052
 6093.00    1.75179   1.78185    0.052
 6094.00    1.74704   1.78197    0.051
 6095.00    1.74146   1.78158    0.051
 6096.00    1.73412   1.78044    0.051
 6097.00    1.71211   1.77739    0.051
 6098.00    1.69298   1.77324    0.051
 6099.00    1.69166   1.76883    0.051
 6100.00    1.69031   1.76442    0.051
 6101.00    1.68875   1.76324    0.051
 6102.00    1.68794   1.76321    0.050
 6103.00    1.69015   1.76498    0.050
 6104.00    1.69153   1.76833    0.050
 6105.00    1.69018   1.77286    0.050
 6106.00    1.69041   1.77839    0.051
 6107.00    1.69504   1.78437    0.052
 6108.00    1.70334   1.79076    0.053
 6109.00    1.72039   1.79607    0.053
 6110.00    1.73511   1.79964    0.053
 6111.00    1.74506   1.80104    0.053
 6112.00    1.75004   1.80033    0.053
 6113.00    1.74613   1.79740    0.053
 6114.00    1.74435   1.79280    0.053
 6115.00    1.74591   1.78632    0.053
 6116.00    1.74595   1.77840    0.053
 6117.00    1.74391   1.76948    0.053
 6118.00    1.74328   1.76175    0.053
 6119.00    1.74438   1.75421    0.053
 6120.00    1.72832   1.74906    0.053
 6121.00    1.69399   1.74680    0.052
 6122.00    1.67065   1.74568    0.051
 6123.00    1.65767   1.74635    0.050
 6124.00    1.64208   1.74780    0.050
 6125.00    1.62432   1.75046    0.051
 6126.00    1.63200   1.75293    0.050
 6127.00    1.65824   1.75497    0.049
 6128.00    1.67809   1.75610    0.049
 6129.00    1.69383   1.75340    0.049
 6130.00    1.69925   1.74843    0.049
 6131.00    1.69888   1.74111    0.049
 6132.00    1.69707   1.73152    0.050
 6133.00    1.69455   1.72275    0.051
 6134.00    1.67055   1.71476    0.051
 6135.00    1.63749   1.71052    0.051
 6136.00    1.63343   1.70932    0.051
 6137.00    1.63985   1.71082    0.051
 6138.00    1.64142   1.71575    0.051
 6139.00    1.64150   1.72256    0.052
 6140.00    1.63478   1.73259    0.052
 6141.00    1.62634   1.74288    0.051
 6142.00    1.63274   1.75321    0.052
 6143.00    1.64221   1.76248    0.053
 6144.00    1.63088   1.76884    0.053
 6145.00    1.61617   1.77255    0.052
 6146.00    1.65726   1.77366    0.052
 6147.00    1.70514   1.77357    0.052
 6148.00    1.70473   1.77190    0.052
 6149.00    1.70030   1.76804    0.051
 6150.00    1.67581   1.76292    0.051
 6151.00    1.65036   1.75592    0.052
 6152.00    1.63264   1.74737    0.051
 6153.00    1.61505   1.73719    0.050
 6154.00    1.59798   1.72525    0.050
 6155.00    1.58233   1.71117    0.051
 6156.00    1.59491   1.69494    0.051
 6157.00    1.60707   1.67773    0.051
 6158.00    1.61428   1.65972    0.050
 6159.00    1.61732   1.64360    0.050
 6160.00    1.58690   1.63058    0.050
 6161.00    1.55632   1.62074    0.049
 6162.00    1.52478   1.61470    0.049
 6163.00    1.49949   1.61177    0.050
 6164.00    1.50393   1.61180    0.050
 6165.00    1.50847   1.61452    0.051
 6166.00    1.51341   1.61971    0.050
 6167.00    1.51748   1.62754    0.050
 6168.00    1.51876   1.63716    0.051
 6169.00    1.52420   1.64782    0.051
 6170.00    1.54099   1.65797    0.051
 6171.00    1.55242   1.66841    0.051
 6172.00    1.55132   1.67873    0.051
 6173.00    1.55556   1.68862    0.052
 6174.00    1.57062   1.69798    0.053
 6175.00    1.57504   1.70714    0.053
 6176.00    1.56071   1.71553    0.052
 6177.00    1.54172   1.72161    0.051
 6178.00    1.51551   1.72663    0.050
 6179.00    1.50718   1.72929    0.050
 6180.00    1.52306   1.73026    0.050
 6181.00    1.53506   1.72817    0.050
 6182.00    1.54241   1.72463    0.050
 6183.00    1.55765   1.71877    0.050
 6184.00    1.58118   1.71122    0.049
 6185.00    1.59547   1.70350    0.049
 6186.00    1.60118   1.69472    0.049
 6187.00    1.58000   1.68756    0.049
 6188.00    1.53682   1.68203    0.049
 6189.00    1.51226   1.67879    0.049
 6190.00    1.50110   1.67893    0.049
 6191.00    1.49978   1.68068    0.049
 6192.00    1.50467   1.68511    0.049
 6193.00    1.50533   1.69043    0.050
 6194.00    1.50365   1.69640    0.050
 6195.00    1.53311   1.70229    0.052
 6196.00    1.57753   1.70812   -2.000
 6197.00    1.47663   1.71429   -2.000
 6198.00    1.31548   1.71988   -2.000
 6199.00    1.22336   1.72482   -2.000
 6200.00    1.15571   1.72910   -2.000
 6201.00    1.30144   1.73265   -2.000
 6202.00    1.51104   1.73520   -2.000
 6203.00    1.67048   1.73667   -2.000
 6204.00    1.81747   1.73632   -2.000
 6205.00    1.83223   1.73427   -2.000
 6206.00    1.82036   1.72965   -2.000
 6207.00    1.72846   1.72282   -2.000
 6208.00    1.62395   1.71300    0.052
 6209.00    1.61090   1.70151    0.051
 6210.00    1.60857   1.68890    0.051
 6211.00    1.61798   1.67587    0.050
 6212.00    1.62833   1.66427    0.050
 6213.00    1.61565   1.65362    0.050
 6214.00    1.60196   1.64496    0.051
 6215.00    1.57505   1.63816    0.049
 6216.00    1.54796   1.63398    0.048
 6217.00    1.51967   1.63179    0.049
 6218.00    1.49276   1.63178    0.050
 6219.00    1.49107   1.63277    0.050
 6220.00    1.49171   1.63470    0.050
 6221.00    1.51797   1.63672    0.050
 6222.00    1.54133   1.63804    0.050
 6223.00    1.54237   1.63872    0.050
 6224.00    1.53948   1.63765    0.050
 6225.00    1.51358   1.63573    0.050
 6226.00    1.49178   1.63283    0.050
 6227.00    1.48900   1.63099    0.051
 6228.00    1.48466   1.62881    0.052
 6229.00    1.47446   1.62902    0.052
 6230.00    1.47117   1.62974    0.053
 6231.00    1.48975   1.63178    0.052
 6232.00    1.50794   1.63428    0.051
 6233.00    1.52507   1.63658    0.051
 6234.00    1.53269   1.63827    0.051
 6235.00    1.51841   1.63839    0.051
 6236.00    1.50956   1.63808    0.050
 6237.00    1.51152   1.63591    0.050
 6238.00    1.51437   1.63238    0.050
 6239.00    1.51877   1.62879    0.050
 6240.00    1.51874   1.62485    0.050
 6241.00    1.51197   1.62144    0.050
 6242.00    1.50806   1.61957    0.049
 6243.00    1.50793   1.61870    0.048
 6244.00    1.51090   1.61869    0.048
 6245.00    1.51750   1.61904    0.049
 6246.00    1.52561   1.61898    0.049
 6247.00    1.53529   1.61716    0.049
 6248.00    1.54188   1.61455    0.049
 6249.00    1.54566   1.61023    0.049
 6250.00    1.53097   1.60485    0.048
 6251.00    1.50139   1.59852    0.048
 6252.00    1.47771   1.59204    0.049
 6253.00    1.45821   1.58607    0.050
 6254.00    1.45242   1.58193    0.051
 6255.00    1.45518   1.58108    0.051
 6256.00    1.46096   1.58187    0.051
 6257.00    1.46840   1.58672    0.051
 6258.00    1.46635   1.59361    0.052
 6259.00    1.45982   1.60269    0.053
 6260.00    1.39375   1.61226    0.055
 6261.00    1.30343   1.62265    0.058
 6262.00    1.28775   1.63308    0.059
 6263.00    1.29804   1.64213    0.060
 6264.00    1.39205   1.65065    0.059
 6265.00    1.51060   1.65727    0.058
 6266.00    1.60716   1.66352    0.056
 6267.00    1.69838   1.66807    0.054
 6268.00    1.68999   1.67241    0.053
 6269.00    1.66204   1.67521    0.051
 6270.00    1.61883   1.67809    0.050
 6271.00    1.57329   1.68006    0.048
 6272.00    1.56756   1.68164    0.048
 6273.00    1.56632   1.68284    0.049
 6274.00    1.57498   1.68326    0.049
 6275.00    1.58438   1.68323    0.049
 6276.00    1.58978   1.68299    0.049
 6277.00    1.59502   1.68385    0.049
 6278.00    1.57592   1.68440    0.049
 6279.00    1.55679   1.68702    0.049
 6280.00    1.54394   1.68901    0.000
 6281.00    1.53239   1.69302    0.000
 6282.00    1.54307   1.69711    0.000
 6283.00    1.55389   1.70192    0.000
 6284.00    1.56621   1.70627    0.000
 6285.00    1.57851   1.70956    0.000
 6286.00    1.59064   1.71168    0.000
 6287.00    1.59911   1.71209    0.000
 6288.00    1.58683   1.71126    0.000
 6289.00    1.57767   1.70838    0.000
 6290.00    1.58261   1.70441    0.000
 6291.00    1.58912   1.69822    0.000
 6292.00    1.60146   1.69145    0.000
 6293.00    1.60936   1.68470    0.000
 6294.00    1.60351   1.67830    0.000
 6295.00    1.59228   1.67239    0.000
 6296.00    1.56683   1.66689    0.000
 6297.00    1.54639   1.66301    0.000
 6298.00    1.53727   1.66113    0.000
 6299.00    1.53021   1.66131    0.000
 6300.00    1.52722   1.66287    0.000
 6301.00    1.53125   1.66579    0.000
 6302.00    1.54731   1.67050    0.000
 6303.00    1.56224   1.67534    0.000
 6304.00    1.57550   1.68045    0.000
 6305.00    1.57877   1.68462    0.000
 6306.00    1.56889   1.68732    0.000
 6307.00    1.56616   1.68850    0.000
 6308.00    1.57174   1.68794    0.000
 6309.00    1.57433   1.68557    0.000
 6310.00    1.57388   1.68092    0.000
 6311.00    1.56001   1.67588    0.000
 6312.00    1.53402   1.67022    0.000
 6313.00    1.51888   1.66424    0.000
 6314.00    1.51235   1.65992    0.000
 6315.00    1.52777   1.65719    0.000
 6316.00    1.55853   1.65654    0.000
 6317.00    1.57080   1.65777    0.000
 6318.00    1.57174   1.66113    0.000
 6319.00    1.55968   1.66723    0.000
 6320.00    1.54066   1.67358    0.000
 6321.00    1.53685   1.68169    0.049
 6322.00    1.54012   1.68894    0.049
 6323.00    1.55572   1.69690    0.049
 6324.00    1.57627   1.70328    0.049
 6325.00    1.57859   1.70829    0.049
 6326.00    1.57469   1.71213    0.049
 6327.00    1.57123   1.71408    0.049
 6328.00    1.56789   1.71432    0.048
 6329.00    1.57376   1.71258    0.049
 6330.00    1.58182   1.70914    0.050
 6331.00    1.56456   1.70484    0.049
 6332.00    1.54245   1.70019    0.048
 6333.00    1.52642   1.69587    0.048
 6334.00    1.51130   1.69137    0.049
 6335.00    1.52054   1.68822    0.050
 6336.00    1.53241   1.68580    0.050
 6337.00    1.53106   1.68402    0.050
 6338.00    1.52875   1.68372    0.050
 6339.00    1.52432   1.68368    0.050
 6340.00    1.51980   1.68542    0.050
 6341.00    1.53646   1.68735    0.051
 6342.00    1.55283   1.69011    0.051
 6343.00    1.55625   1.69333    0.051
 6344.00    1.55914   1.69679    0.051
 6345.00    1.55369   1.69992    0.050
 6346.00    1.54765   1.70248    0.050
 6347.00    1.53568   1.70418    0.049
 6348.00    1.52657   1.70422    0.049
 6349.00    1.53804   1.70245    0.049
 6350.00    1.54652   1.69872    0.049
 6351.00    1.53836   1.69312    0.048
 6352.00    1.53385   1.68588    0.048
 6353.00    1.54547   1.67638    0.048
 6354.00    1.55444   1.66614    0.048
 6355.00    1.55373   1.65562    0.048
 6356.00    1.54983   1.64557    0.047
 6357.00    1.53619   1.63668    0.048
 6358.00    1.52481   1.62999    0.049
 6359.00    1.51928   1.62610    0.048
 6360.00    1.51636   1.62520    0.049
 6361.00    1.51925   1.62771    0.050
 6362.00    1.52002   1.63323    0.050
 6363.00    1.51672   1.64180    0.050
 6364.00    1.50916   1.65213    0.050
 6365.00    1.49444   1.66404    0.051
 6366.00    1.49028   1.67669    0.052
 6367.00    1.50169   1.68933    0.052
 6368.00    1.51851   1.70116    0.051
 6369.00    1.54234   1.71149    0.051
 6370.00    1.56569   1.72032    0.051
 6371.00    1.58848   1.72689    0.051
 6372.00    1.59804   1.73181    0.051
 6373.00    1.59428   1.73440    0.051
 6374.00    1.59240   1.73562    0.051
 6375.00    1.59221   1.73560    0.050
 6376.00    1.59294   1.73460    0.050
 6377.00    1.59439   1.73335    0.050
 6378.00    1.58422   1.73186    0.049
 6379.00    1.56604   1.73069    0.049
 6380.00    1.56134   1.72960    0.049
 6381.00    1.56479   1.72917    0.049
 6382.00    1.57547   1.72870    0.049
 6383.00    1.58997   1.72843    0.049
 6384.00    1.59510   1.72755    0.049
 6385.00    1.59595   1.72636    0.050
 6386.00    1.59622   1.72389    0.050
 6387.00    1.59626   1.72098    0.050
 6388.00    1.58916   1.71702    0.050
 6389.00    1.57967   1.71299    0.051
 6390.00    1.58186   1.70888    0.051
 6391.00    1.58733   1.70477    0.051
 6392.00    1.58481   1.70120    0.052
 6393.00    1.58044   1.69768    0.052
 6394.00    1.55997   1.69581    0.053
 6395.00    1.53651   1.69431    0.053
 6396.00    1.53028   1.69460    0.053
 6397.00    1.52654   1.69579    0.054
 6398.00    1.52005   1.69749    0.053
 6399.00    1.51328   1.70003    0.051
 6400.00    1.51381   1.70233    0.050
 6401.00    1.51484   1.70502    0.049
 6402.00    1.53223   1.70713    0.050
 6403.00    1.55015   1.70876    0.050
 6404.00    1.56585   1.70939    0.050
 6405.00    1.58117   1.70927    0.049
 6406.00    1.58498   1.70840    0.049
 6407.00    1.58669   1.70704    0.048
 6408.00    1.55700   1.70576    0.048
 6409.00    1.53051   1.70439    0.048
 6410.00    1.53486   1.70318    0.049
 6411.00    1.54016   1.70229    0.050
 6412.00    1.55197   1.70146    0.050
 6413.00    1.56225   1.70090    0.051
 6414.00    1.56431   1.70051    0.051
 6415.00    1.56199   1.70058    0.051
 6416.00    1.54079   1.70135    0.051
 6417.00    1.52481   1.70228    0.051
 6418.00    1.52739   1.70422    0.051
 6419.00    1.53442   1.70642    0.051
 6420.00    1.55476   1.70966    0.052
 6421.00    1.56592   1.71297    0.052
 6422.00    1.55371   1.71661    0.052
 6423.00    1.54495   1.71929    0.052
 6424.00    1.54372   1.72148    0.051
 6425.00    1.54224   1.72278    0.051
 6426.00    1.54027   1.72316    0.050
 6427.00    1.54097   1.72274    0.050
 6428.00    1.54609   1.72175    0.050
 6429.00    1.55429   1.72050    0.050
 6430.00    1.56693   1.71940    0.050
 6431.00    1.56954   1.71832    0.050
 6432.00    1.55930   1.71789    0.049
 6433.00    1.55326   1.71833    0.049
 6434.00    1.55194   1.71987    0.049
 6435.00    1.55733   1.72188    0.049
 6436.00    1.56938   1.72477    0.049
 6437.00    1.57165   1.72780    0.050
 6438.00    1.56537   1.73132    0.051
 6439.00    1.54650   1.73444    0.051
 6440.00    1.51794   1.73707    0.052
 6441.00    1.51108   1.73826    0.052
 6442.00    1.51895   1.73744    0.052
 6443.00    1.54226   1.73454    0.052
 6444.00    1.57477   1.73069    0.052
 6445.00    1.59533   1.72516    0.053
 6446.00    1.60969   1.71922    0.053
 6447.00    1.60202   1.71297    0.053
 6448.00    1.58442   1.70752    0.053
 6449.00    1.54216   1.70367    0.053
 6450.00    1.49035   1.70176    0.052
 6451.00    1.48627   1.70215    0.052
 6452.00    1.49789   1.70396    0.051
 6453.00    1.53006   1.70745    0.051
 6454.00    1.56788   1.71102    0.050
 6455.00    1.58526   1.71465    0.050
 6456.00    1.59800   1.71734    0.050
 6457.00    1.58595   1.72012    0.050
 6458.00    1.56941   1.72128    0.050
 6459.00    1.56182   1.72245    0.050
 6460.00    1.55548   1.72251    0.050
 6461.00    1.57304   1.72296    0.050
 6462.00    1.59299   1.72286    0.051
 6463.00    1.58158   1.72365    0.051
 6464.00    1.56819   1.72445    0.050
 6465.00    1.55340   1.72571    0.051
 6466.00    1.53864   1.72741    0.052
 6467.00    1.54213   1.72846    0.052
 6468.00    1.54497   1.72975    0.052
 6469.00    1.52991   1.73003    0.052
 6470.00    1.51734   1.73068    0.052
 6471.00    1.54017   1.73012    0.052
 6472.00    1.56017   1.72977    0.053
 6473.00    1.55396   1.72848    0.053
 6474.00    1.54608   1.72674    0.053
 6475.00    1.52685   1.72441    0.053
 6476.00    1.51154   1.72166    0.052
 6477.00    1.51674   1.71886    0.052
 6478.00    1.52435   1.71558    0.052
 6479.00    1.54210   1.71250    0.051
 6480.00    1.55541   1.70918    0.050
 6481.00    1.55328   1.70610    0.050
 6482.00    1.55546   1.70264    0.050
 6483.00    1.57029   1.69865    0.050
 6484.00    1.58152   1.69361    0.050
 6485.00    1.58372   1.68696    0.050
 6486.00    1.58005   1.67816    0.050
 6487.00    1.56369   1.66677    0.051
 6488.00    1.54652   1.65326    0.051
 6489.00    1.52783   1.63815    0.051
 6490.00    1.50801   1.62188    0.051
 6491.00    1.48631   1.60634    0.051
 6492.00    1.47271   1.59189    0.052
 6493.00    1.47069   1.58093    0.052
 6494.00    1.46902   1.57356    0.052
 6495.00    1.46779   1.57116    0.053
 6496.00    1.46136   1.57357    0.053
 6497.00    1.44914   1.58049    0.052
 6498.00    1.45093   1.59159    0.052
 6499.00    1.46645   1.60501    0.052
 6500.00    1.47592   1.62074    0.052
 6501.00    1.48016   1.63618    0.051
 6502.00    1.48786   1.65180    0.051
 6503.00    1.49819   1.66543    0.051
 6504.00    1.49155   1.67781    0.050
 6505.00    1.47356   1.68751    0.050
 6506.00    1.46373   1.69531    0.049
 6507.00    1.45869   1.70064    0.050
 6508.00    1.47268   1.70417    0.050
 6509.00    1.49639   1.70580    0.050
 6510.00    1.50831   1.70612    0.050
 6511.00    1.51502   1.70534    0.051
 6512.00    1.53064   1.70386    0.051
 6513.00    1.54966   1.70211    0.051
 6514.00    1.57063   1.70032    0.052
 6515.00    1.59224   1.69901    0.053
 6516.00    1.58895   1.69819    0.053
 6517.00    1.57894   1.69821    0.053
 6518.00    1.58480   1.69880    0.054
 6519.00    1.59416   1.70017    0.055
 6520.00    1.58680   1.70175    0.055
 6521.00    1.57648   1.70362    0.054
 6522.00    1.54875   1.70516    0.054
 6523.00    1.51868   1.70642    0.054
 6524.00    1.52493   1.70719    0.053
 6525.00    1.53464   1.70758    0.052
 6526.00    1.57643   1.70771    0.052
 6527.00    1.62011   1.70771    0.052
 6528.00    1.61150   1.70772    0.000
 6529.00    1.60156   1.70802    0.000
 6530.00    1.58891   1.70867    0.000
 6531.00    1.57622   1.70985    0.000
 6532.00    1.56258   1.71122    0.000
 6533.00    1.54978   1.71291    0.000
 6534.00    1.54837   1.71441    0.000
 6535.00    1.54775   1.71568    0.000
 6536.00    1.55429   1.71616    0.000
 6537.00    1.56385   1.71556    0.000
 6538.00    1.59321   1.71397    0.000
 6539.00    1.61705   1.71102    0.000
 6540.00    1.61266   1.70699    0.000
 6541.00    1.60293   1.70181    0.000
 6542.00    1.57120   1.69589    0.000
 6543.00    1.54729   1.68959    0.000
 6544.00    1.55010   1.68295    0.000
 6545.00    1.55649   1.67647    0.000
 6546.00    1.57322   1.66965    0.000
 6547.00    1.59479   1.66314    0.000
 6548.00    1.62827   1.65595    0.000
 6549.00    1.63892   1.64856    0.000
 6550.00    1.60119   1.63979    0.000
 6551.00    1.57242   1.62998    0.000
 6552.00    1.56018   1.61819    0.000
 6553.00    1.53812   1.60461    0.000
 6554.00    1.50024   1.58906    0.000
 6555.00    1.46706   1.57270    0.000
 6556.00    1.44051   1.55524    0.000
 6557.00    1.42908   1.53825    0.000
 6558.00    1.43643   1.52225    0.000
 6559.00    1.44060   1.50935    0.000
 6560.00    1.44128   1.49991    0.000
 6561.00    1.42573   1.49574    0.000
 6562.00    1.39450   1.49647    0.000
 6563.00    1.39600   1.50256    0.000
 6564.00    1.42538   1.51268    0.000
 6565.00    1.44433   1.52609    0.000
 6566.00    1.45546   1.54116    0.000
 6567.00    1.46109   1.55679    0.000
 6568.00    1.46308   1.57164    0.000
 6569.00    1.46504   1.58518    0.000
 6570.00    1.46698   1.59690    0.000
 6571.00    1.45463   1.60714    0.000
 6572.00    1.43509   1.61591    0.000
 6573.00    1.43602   1.62386    0.000
 6574.00    1.44585   1.63109    0.000
 6575.00    1.43903   1.63793    0.000
 6576.00    1.42599   1.64434    0.000
 6577.00    1.43408   1.65034    0.000
 6578.00    1.44887   1.65591    0.000
 6579.00    1.50052   1.66076    0.000
 6580.00    1.56191   1.66501    0.000
 6581.00    1.58064   1.66818    0.000
 6582.00    1.59014   1.67052    0.000
 6583.00    1.59517   1.67159    0.000
 6584.00    1.59943   1.67165    0.000
 6585.00    1.63186   1.67034    0.000
 6586.00    1.66795   1.66793    0.000
 6587.00    1.63948   1.66439    0.000
 6588.00    1.60512   1.66009    0.000
 6589.00    1.58593   1.65549    0.000
 6590.00    1.56757   1.65104    0.000
 6591.00    1.57042   1.64733    0.000
 6592.00    1.57319   1.64469    0.000
 6593.00    1.52434   1.64357    0.000
 6594.00    1.47653   1.64385    0.000
 6595.00    1.45238   1.64564    0.000
 6596.00    1.43130   1.64829    0.000
 6597.00    1.44919   1.65162    0.000
 6598.00    1.46457   1.65473    0.000
 6599.00    1.45846   1.65757    0.000
 6600.00    1.45385   1.65932    0.000
 6601.00    1.45882   1.66026    0.000
 6602.00    1.46163   1.65995    0.000
 6603.00    1.45369   1.65911    0.000
 6604.00    1.44900   1.65778    0.000
 6605.00    1.45739   1.65667    0.000
 6606.00    1.46237   1.65610    0.000
 6607.00    1.45591   1.65647    0.000
 6608.00    1.45724   1.65809    0.000
 6609.00    1.48059   1.66076    0.053
 6610.00    1.49798   1.66463    0.054
 6611.00    1.50099   1.66903    0.054
 6612.00    1.50367   1.67394    0.055
 6613.00    1.50568   1.67855    0.055
 6614.00    1.51270   1.68276    0.055
 6615.00    1.52879   1.68597    0.055
 6616.00    1.55415   1.68809    0.056
 6617.00    1.59421   1.68886    0.058
 6618.00    1.61525   1.68830    0.059
 6619.00    1.60983   1.68649    0.058
 6620.00    1.59134   1.68355    0.059
 6621.00    1.55684   1.67973    0.059
 6622.00    1.52853   1.67528    0.058
 6623.00    1.50691   1.67038    0.057
 6624.00    1.52252   1.66539    0.056
 6625.00    1.57358   1.66026    0.055
 6626.00    1.57755   1.65543    0.055
 6627.00    1.54196   1.65067    0.055
 6628.00    1.51806   1.64657    0.055
 6629.00    1.50280   1.64279    0.055
 6630.00    1.48655   1.63993    0.055
 6631.00    1.46964   1.63768    0.055
 6632.00    1.45175   1.63652    0.055
 6633.00    1.43331   1.63607    0.055
 6634.00    1.41963   1.63653    0.055
 6635.00    1.40832   1.63748    0.055
 6636.00    1.42751   1.63890    0.056
 6637.00    1.45977   1.64040    0.057
 6638.00    1.47597   1.64190    0.058
 6639.00    1.48628   1.64324    0.059
 6640.00    1.47610   1.64437    0.059
 6641.00    1.45955   1.64538    0.058
 6642.00    1.48755   1.64625    0.059
 6643.00    1.52708   1.64719    0.060
 6644.00    1.53239   1.64815    0.060
 6645.00    1.53049   1.64925    0.060
 6646.00    1.51372   1.65038    0.059
 6647.00    1.49447   1.65149    0.058
 6648.00    1.52160   1.65251    0.058
 6649.00    1.55454   1.65322    0.059
 6650.00    1.52207   1.65362    0.058
 6651.00    1.48390   1.65344    0.057
 6652.00    1.44351   1.65274    0.056
 6653.00    1.40301   1.65129    0.055
 6654.00    1.42560   1.64915    0.055
 6655.00    1.44907   1.64629    0.055
 6656.00    1.45602   1.64278    0.056
 6657.00    1.46270   1.63881    0.057
 6658.00    1.46376   1.63453    0.058
 6659.00    1.46610   1.63036    0.059
 6660.00    1.48376   1.62649    0.059
 6661.00    1.49294   1.62342    0.060
 6662.00    1.43211   1.62128    0.059
 6663.00    1.38542   1.62037    0.059
 6664.00    1.42603   1.62065    0.060
 6665.00    1.45622   1.62203    0.061
 6666.00    1.43584   1.62425    0.061
 6667.00    1.42378   1.62681    0.061
 6668.00    1.44455   1.62944    0.061
 6669.00    1.45412   1.63144    0.060
 6670.00    1.42692   1.63280    0.059
 6671.00    1.41675   1.63293    0.059
 6672.00    1.45388   1.63226    0.059
 6673.00    1.46657   1.63055    0.058
 6674.00    1.42117   1.62855    0.058
 6675.00    1.38811   1.62633    0.058
 6676.00    1.38039   1.62467    0.058
 6677.00    1.38162   1.62370    0.058
 6678.00    1.39887   1.62381    0.058
 6679.00    1.41392   1.62496    0.058
 6680.00    1.42554   1.62712    0.059
 6681.00    1.42954   1.62994    0.059
 6682.00    1.42308   1.63320    0.059
 6683.00    1.43214   1.63636    0.060
 6684.00    1.45992   1.63929    0.061
 6685.00    1.46939   1.64144    0.062
 6686.00    1.45937   1.64290    0.062
 6687.00    1.44875   1.64327    0.062
 6688.00    1.43755   1.64284    0.063
 6689.00    1.43470   1.64141    0.063
 6690.00    1.43876   1.63935    0.063
 6691.00    1.45431   1.63672    0.063
 6692.00    1.47822   1.63382    0.064
 6693.00    1.46209   1.63093    0.064
 6694.00    1.42033   1.62818    0.063
 6695.00    1.38483   1.62594    0.062
 6696.00    1.35282   1.62407    0.000
 6697.00    1.37823   1.62287    0.000
 6698.00    1.43159   1.62204    0.000
 6699.00    1.44163   1.62165    0.000
 6700.00    1.43344   1.62141    0.000
 6701.00    1.42754   1.62121    0.000
 6702.00    1.42246   1.62085    0.000
 6703.00    1.40224   1.62012    0.000
 6704.00    1.37742   1.61895    0.000
 6705.00    1.41538   1.61711    0.000
 6706.00    1.46924   1.61462    0.000
 6707.00    1.44147   1.61135    0.000
 6708.00    1.39691   1.60744    0.000
 6709.00    1.41054   1.60293    0.000
 6710.00    1.43359   1.59813    0.000
 6711.00    1.36152   1.59323    0.000
 6712.00    1.27794   1.58878    0.000
 6713.00    1.34421   1.58488    0.000
 6714.00    1.42292   1.58224    0.000
 6715.00    1.43058   1.58066    0.000
 6716.00    1.43486   1.58075    0.000
 6717.00    1.44481   1.58194    0.000
 6718.00    1.45456   1.58462    0.000
 6719.00    1.44871   1.58797    0.000
 6720.00    1.44177   1.59216    0.000
 6721.00    1.41351   1.59642    0.000
 6722.00    1.38856   1.60079    0.000
 6723.00    1.40155   1.60481    0.000
 6724.00    1.41246   1.60845    0.000
 6725.00    1.40683   1.61157    0.000
 6726.00    1.40366   1.61408    0.000
 6727.00    1.41522   1.61605    0.000
 6728.00    1.43455   1.61730    0.000
 6729.00    1.49067   1.61799    0.000
 6730.00    1.52895   1.61791    0.000
 6731.00    1.49830   1.61725    0.000
 6732.00    1.46831   1.61585    0.000
 6733.00    1.44048   1.61391    0.000
 6734.00    1.41534   1.61145    0.000
 6735.00    1.39752   1.60859    0.000
 6736.00    1.38955   1.60556    0.000
 6737.00    1.40456   1.60238    0.000
 6738.00    1.41491   1.59937    0.000
 6739.00    1.41583   1.59639    0.000
 6740.00    1.43285   1.59380    0.000
 6741.00    1.47817   1.59135    0.000
 6742.00    1.48184   1.58935    0.000
 6743.00    1.42137   1.58756    0.000
 6744.00    1.35603   1.58625    0.000
 6745.00    1.28410   1.58528    0.000
 6746.00    1.26443   1.58485    0.000
 6747.00    1.30698   1.58505    0.000
 6748.00    1.33511   1.58590    0.000
 6749.00    1.34810   1.58767    0.000
 6750.00    1.36742   1.59015    0.000
 6751.00    1.39258   1.59361    0.000
 6752.00    1.37611   1.59764    0.000
 6753.00    1.32566   1.60230    0.066
 6754.00    1.28148   1.60708    0.067
 6755.00    1.24182   1.61184    0.068
 6756.00    1.24616   1.61610    0.069
 6757.00    1.27824   1.61962    0.071
 6758.00    1.36375   1.62213    0.073
 6759.00    1.47871   1.62344    0.075
 6760.00    1.51675   1.62360    0.076
 6761.00    1.51794   1.62259    0.076
 6762.00    1.57915   1.62077    0.077
 6763.00    1.66518   1.61831    0.078
 6764.00    1.68971   1.61574    0.078
 6765.00    1.69250   1.61330    0.079
 6766.00    1.68352   1.61151    0.078
 6767.00    1.67101   1.61050    0.076
 6768.00    1.62435   1.61058    0.074
 6769.00    1.56922   1.61164    0.072
 6770.00    1.54158   1.61367    0.070
 6771.00    1.51945   1.61631    0.068
 6772.00    1.46673   1.61928    0.067
 6773.00    1.40919   1.62206    0.067
 6774.00    1.42692   1.62432    0.067
 6775.00    1.45342   1.62559    0.067
 6776.00    1.47204   1.62575    0.068
 6777.00    1.49003   1.62457    0.069
 6778.00    1.50938   1.62226    0.070
 6779.00    1.52879   1.61890    0.072
 6780.00    1.54747   1.61501    0.073
 6781.00    1.56393   1.61086    0.073
 6782.00    1.47742   1.60699    0.073
 6783.00    1.39897   1.60365    0.074
 6784.00    1.46626   1.60114    0.073
 6785.00    1.52828   1.59953    0.072
 6786.00    1.53245   1.59876    0.072
 6787.00    1.52780   1.59874    0.071
 6788.00    1.45528   1.59923    0.069
 6789.00    1.40640   1.60005    0.068
 6790.00    1.49525   1.60103    0.069
 6791.00    1.56340   1.60206    0.070
 6792.00    1.53586   1.60312    0.069
 6793.00    1.52541   1.60416    0.068
 6794.00    1.57959   1.60527    0.068
 6795.00    1.59854   1.60639    0.068
 6796.00    1.50625   1.60758    0.067
 6797.00    1.44766   1.60874    0.067
 6798.00    1.47932   1.60986    0.068
 6799.00    1.49909   1.61082    0.069
 6800.00    1.49159   1.61159    0.068
 6801.00    1.48029   1.61209    0.068
 6802.00    1.46147   1.61231    0.070
 6803.00    1.46780   1.61231    0.071
 6804.00    1.51771   1.61207    0.071
 6805.00    1.53419   1.61173    0.071
 6806.00    1.49998   1.61132    0.071
 6807.00    1.48185   1.61094    0.071
 6808.00    1.48515   1.61065    0.070
 6809.00    1.47191   1.61052    0.069
 6810.00    1.43925   1.61062    0.069
 6811.00    1.41005   1.61093    0.068
 6812.00    1.38442   1.61155    0.068
 6813.00    1.39734   1.61238    0.067
 6814.00    1.44545   1.61354    0.068
 6815.00    1.47154   1.61484    0.068
 6816.00    1.47992   1.61639    0.067
 6817.00    1.45923   1.61794    0.066
 6818.00    1.41795   1.61957    0.065
 6819.00    1.40808   1.62102    0.064
 6820.00    1.41771   1.62234    0.065
 6821.00    1.43999   1.62328    0.066
 6822.00    1.46912   1.62398    0.067
 6823.00    1.42808   1.62422    0.067
 6824.00    1.35395   1.62422    0.067
 6825.00    1.36942   1.62382    0.068
 6826.00    1.42133   1.62326    0.070
 6827.00    1.38173   1.62240    0.069
 6828.00    1.31036   1.62139    0.069
 6829.00    1.36118   1.62003    0.070
 6830.00    1.44775   1.61837    0.071
 6831.00    1.46467   1.61618    0.071
 6832.00    1.46472   1.61347    0.071
 6833.00    1.46585   1.61014    0.070
 6834.00    1.46720   1.60627    0.069
 6835.00    1.48899   1.60204    0.069
 6836.00    1.51390   1.59766    0.069
 6837.00    1.47877   1.59358    0.068
 6838.00    1.43690   1.59003    0.067
 6839.00    1.44137   1.58749    0.068
 6840.00    1.44932   1.58601    0.069
 6841.00    1.46177   1.58584    0.068
 6842.00    1.47440   1.58671    0.067
 6843.00    1.43623   1.58853    0.067
 6844.00    1.39877   1.59075    0.066
 6845.00    1.40394   1.59311    0.067
 6846.00    1.41092   1.59506    0.067
 6847.00    1.44838   1.59636    0.068
 6848.00    1.48104   1.59671    0.069
 6849.00    1.46360   1.59607    0.069
 6850.00    1.44362   1.59447    0.070
 6851.00    1.40482   1.59211    0.069
 6852.00    1.37704   1.58925    0.068
 6853.00    1.41165   1.58620    0.069
 6854.00    1.43976   1.58325    0.070
 6855.00    1.43856   1.58067    0.069
 6856.00    1.42543   1.57863    0.068
 6857.00    1.36820   1.57723    0.068
 6858.00    1.32739   1.57646    0.067
 6859.00    1.33747   1.57625    0.067
 6860.00    1.34928   1.57645    0.066
 6861.00    1.36565   1.57691    0.066
 6862.00    1.37211   1.57741    0.066
 6863.00    1.35618   1.57789    0.066
 6864.00    1.34961   1.57816    0.066
 6865.00    1.36138   1.57837    0.067
 6866.00    1.36290   1.57840    0.067
 6867.00    1.34694   1.57853    0.069
 6868.00    1.35391   1.57869    0.069
 6869.00    1.39514   1.57917    0.069
 6870.00    1.44112   1.57987    0.069
 6871.00    1.49334   1.58097    0.071
 6872.00    1.49318   1.58228    0.071
 6873.00    1.43238   1.58388    0.071
 6874.00    1.38618   1.58551    0.070
 6875.00    1.35485   1.58718    0.069
 6876.00    1.32253   1.58874    0.069
 6877.00    1.28932   1.59025    0.068
 6878.00    1.31229   1.59168    0.068
 6879.00    1.37984   1.59321    0.068
 6880.00    1.39279   1.59492    0.068
 6881.00    1.36764   1.59700    0.067
 6882.00    1.37322   1.59950    0.066
 6883.00    1.39762   1.60248    0.065
 6884.00    1.41597   1.60590    0.065
 6885.00    1.43109   1.60960    0.066
 6886.00    1.40465   1.61343    0.066
 6887.00    1.35891   1.61713    0.065
 6888.00    1.36083   1.62053    0.065
 6889.00    1.38180   1.62342    0.066
 6890.00    1.40379   1.62572    0.067
 6891.00    1.42613   1.62743    0.069
 6892.00    1.42671   1.62857    0.069
 6893.00    1.42106   1.62933    0.069
 6894.00    1.41219   1.62976    0.070
 6895.00    1.40256   1.63015    0.070
 6896.00    1.42700   1.63049    0.071
 6897.00    1.45793   1.63105    0.071
 6898.00    1.43388   1.63170    0.070
 6899.00    1.40172   1.63261    0.069
 6900.00    1.43745   1.63354    0.069
 6901.00    1.48050   1.63458    0.070
 6902.00    1.47343   1.63539    0.070
 6903.00    1.46282   1.63604    0.069
 6904.00    1.46649   1.63619    0.068
 6905.00    1.47067   1.63592    0.067
 6906.00    1.47439   1.63502    0.066
 6907.00    1.47751   1.63356    0.065
 6908.00    1.46036   1.63163    0.066
 6909.00    1.44180   1.62927    0.066
 6910.00    1.40096   1.62682    0.065
 6911.00    1.36581   1.62429    0.065
 6912.00    1.38762   1.62210    0.068
 6913.00    1.30185   1.62014    0.066
 6914.00    0.44293   1.61874    0.043
 6915.00   -0.21420   1.61768    0.000
 6916.00    0.24148   1.61701    0.081
 6917.00    0.61285   1.61655   -1.000
 6918.00    0.61249   1.61609   -1.000
 6919.00    0.60961   1.61566   -1.000
 6920.00    0.59761   1.61497   -1.000
 6921.00    0.59187   1.61427   -1.000
 6922.00    0.60514   1.61336   -1.000
 6923.00    0.61303   1.61260   -1.000
 6924.00    0.60696   1.61188   -1.000
 6925.00    0.60313   1.61150   -1.000
 6926.00    0.60424   1.61139   -1.000
 6927.00    0.60864   1.61169   -1.000
 6928.00    0.61938   1.61230   -1.000
 6929.00    0.63174   1.61326   -1.000
 6930.00    0.64683   1.61442   -1.000
 6931.00    0.65418   1.61578   -1.000
 6932.00    0.65016   1.61714   -1.000
 6933.00    0.63345   1.61847   -1.000
 6934.00    0.60029   1.61962   -1.000
 6935.00    0.58289   1.62044   -1.000
 6936.00    0.58347   1.62092   -1.000
 6937.00    0.59323   1.62085   -1.000
 6938.00    0.61224   1.62035   -1.000
 6939.00    0.61487   1.61928   -1.000
 6940.00    0.60298   1.61788   -1.000
 6941.00    0.59922   1.61613   -1.000
 6942.00    0.60183   1.61432   -1.000
 6943.00    0.61544   1.61251   -1.000
 6944.00    0.63662   1.61090   -1.000
 6945.00    0.63133   1.60956   -1.000
 6946.00    0.61008   1.60859   -1.000
 6947.00    0.59590   1.60804   -1.000
 6948.00    0.58545   1.60789   -1.000
 6949.00    0.58546   1.60824   -1.000
 6950.00    0.59023   1.60901   -1.000
 6951.00    0.58846   1.61031   -1.000
 6952.00    0.58411   1.61202   -1.000
 6953.00    0.59687   1.61424   -1.000
 6954.00    0.61535   1.61681   -1.000
 6955.00    0.62353   1.61969   -1.000
 6956.00    0.62881   1.62280   -1.000
 6957.00    0.62523   1.62588   -1.000
 6958.00    0.61959   1.62904   -1.000
 6959.00    0.60692   1.63181   -1.000
 6960.00    0.59294   1.63452   -1.000
 6961.00    0.60913   1.63660   -1.000
 6962.00    0.62965   1.63844   -1.000
 6963.00    0.63934   1.63951   -1.000
 6964.00    0.64790   1.64011   -1.000
 6965.00    0.63262   1.63983   -1.000
 6966.00    0.61575   1.63878   -1.000
 6967.00    0.61377   1.63672   -1.000
 6968.00    0.61219   1.63366   -1.000
 6969.00    0.28672   1.62962   -1.000
 6970.00   -0.01780   1.62465    0.000
 6971.00    0.31987   1.61904   -1.000
 6972.00    0.63509   1.61307   -1.000
 6973.00    0.61611   1.60722   -1.000
 6974.00    0.59741   1.60198   -1.000
 6975.00    0.58137   1.59782   -1.000
 6976.00    0.56920   1.59519   -1.000
 6977.00    0.58390   1.59433   -1.000
 6978.00    0.59380   1.59532   -1.000
 6979.00    0.57787   1.59803   -1.000
 6980.00    0.56695   1.60212   -1.000
 6981.00    0.57757   1.60720   -1.000
 6982.00    0.58644   1.61268   -1.000
 6983.00    0.58910   1.61819   -1.000
 6984.00    0.59364   1.62319   -1.000
 6985.00    0.60380   1.62754   -1.000
 6986.00    0.60930   1.63093   -1.000
 6987.00    0.60296   1.63347   -1.000
 6988.00    0.60019   1.63504   -1.000
 6989.00    0.60521   1.63585   -1.000
 6990.00    0.60381   1.63587   -1.000
 6991.00    0.59020   1.63528   -1.000
 6992.00    0.59039   1.63405   -1.000
 6993.00    0.61343   1.63234   -1.000
 6994.00    0.62344   1.63013   -1.000
 6995.00    0.61453   1.62761   -1.000
 6996.00    0.61534   1.62480   -1.000
 6997.00    0.62856   1.62195   -1.000
 6998.00    0.62510   1.61909   -1.000
 6999.00    0.60289   1.61650   -1.000
 7000.00    0.58609   1.61417   -1.000
 7001.00    0.57466   1.61224   -1.000
 7002.00    0.57872   1.61075   -1.000
 7003.00    0.59634   1.60955   -1.000
 7004.00    0.60255   1.60876   -1.000
 7005.00    0.59997   1.60795   -1.000
 7006.00    0.59872   1.60735   -1.000
 7007.00    0.59839   1.60640   -1.000
 7008.00    0.60970   1.60549   -1.000
 7009.00    0.62793   1.60408   -1.000
 7010.00    0.62627   1.60274   -1.000
 7011.00    0.61432   1.60103   -1.000
 7012.00    0.60036   1.59963   -1.000
 7013.00    0.58549   1.59819   -1.000
 7014.00    0.58043   1.59736   -1.000
 7015.00    0.57916   1.59676   -1.000
 7016.00    0.58143   1.59687   -1.000
 7017.00    0.58487   1.59722   -1.000
 7018.00    0.59157   1.59815   -1.000
 7019.00    0.59916   1.59917   -1.000
 7020.00    0.59211   1.60055   -1.000
 7021.00    0.58176   1.60193   -1.000
 7022.00    0.59206   1.60356   -1.000
 7023.00    0.60611   1.60522   -1.000
 7024.00    0.59920   1.60708   -1.000
 7025.00    0.58939   1.60906   -1.000
 7026.00    0.59611   1.61117   -1.000
 7027.00    0.60447   1.61344   -1.000
 7028.00    0.59658   1.61569   -1.000
 7029.00    0.58767   1.61804   -1.000
 7030.00    0.58543   1.62029   -1.000
 7031.00    0.58342   1.62267   -1.000
 7032.00    0.59186   1.62507   -1.000
 7033.00    0.59990   1.62777   -1.000
 7034.00    0.59674   1.63074   -1.000
 7035.00    0.59534   1.63423   -1.000
 7036.00    0.61876   1.63817   -1.000
 7037.00    0.63914   1.64266   -1.000
 7038.00    0.63154   1.64742   -1.000
 7039.00    0.62205   1.65241   -1.000
 7040.00    0.59984   1.65709   -1.000
 7041.00    0.57976   1.66139   -1.000
 7042.00    0.57084   1.66459   -1.000
 7043.00    0.56887   1.66670   -1.000
 7044.00    0.59618   1.66704   -1.000
 7045.00    0.62240   1.66576   -1.000
 7046.00    0.64487   1.66244   -1.000
 7047.00    0.65903   1.65736   -1.000
 7048.00    0.64892   1.65054   -1.000
 7049.00    0.63862   1.64231   -1.000
 7050.00    0.62789   1.63309   -2.000
 7051.00    0.62195   1.62321   -2.000
 7052.00    0.62630   1.61325   -2.000
 7053.00    0.63137   1.60344   -2.000
 7054.00    0.63776   1.59423   -2.000
 7055.00    0.64459   1.58578   -2.000
 7056.00    0.65214   1.57821   -2.000
 7057.00    0.64845   1.57164   -2.000
 7058.00    0.62869   1.56590   -2.000
 7059.00    0.63721   1.56116   -2.000
 7060.00    0.68132   1.55706   -2.000
 7061.00    0.69275   1.55392   -2.000
 7062.00    0.66792   1.55138   -2.000
 7063.00    0.66143   1.54982   -2.000
 7064.00    0.67289   1.54899   -2.000
 7065.00    0.66871   1.54920   -2.000
 7066.00    0.65104   1.55033   -2.000
 7067.00    0.63774   1.55237   -2.000
 7068.00    0.62778   1.55533   -2.000
 7069.00    0.61629   1.55878   -2.000
 7070.00    0.60378   1.56277   -2.000
 7071.00    0.61470   1.56658   -2.000
 7072.00    0.63933   1.57023   -2.000
 7073.00    0.63710   1.57295   -2.000
 7074.00    0.62118   1.57471   -2.000
 7075.00    0.62417   1.57492   -2.000
 7076.00    0.63551   1.57359   -2.000
 7077.00    0.65060   1.57044   -2.000
 7078.00    0.66711   1.56561   -2.000
 7079.00    0.65297   1.55911   -2.000
 7080.00    0.62896   1.55134   -2.000
 7081.00    0.63796   1.54248   -2.000
 7082.00    0.65585   1.53311   -2.000
 7083.00    0.64723   1.52355   -2.000
 7084.00    0.63275   1.51429   -2.000
 7085.00    0.63181   1.50575   -2.000
 7086.00    0.63325   1.49808   -2.000
 7087.00    0.62527   1.49189   -2.000
 7088.00    0.61604   1.48669   -2.000
 7089.00    0.63242   1.48347   -2.000
 7090.00    0.65122   1.48096   -2.000
 7091.00    0.61799   1.48062   -2.000
 7092.00    0.58170   1.48052   -2.000
 7093.00    0.58958   1.48245   -2.000
 7094.00    0.59843   1.48420   -2.000
 7095.00    0.59190   1.48744   -2.000
 7096.00    0.58641   1.49031   -2.000
 7097.00    0.60686   1.49379   -2.000
 7098.00    0.62327   1.49695   -2.000
 7099.00    0.58599   1.49976   -2.000
 7100.00    0.55201   1.50245   -2.000
 7101.00    0.54733   1.50410   -2.000
 7102.00    0.54605   1.50582   -2.000
 7103.00    0.56696   1.50626   -2.000
 7104.00    0.58210   1.50696   -2.000
 7105.00    0.56786   1.50657   -2.000
 7106.00    0.55862   1.50663   -2.000
 7107.00    0.56992   1.50603   -2.000
 7108.00    0.57368   1.50599   -2.000
 7109.00    0.55171   1.50576   -2.000
 7110.00    0.54406   1.50600   -2.000
 7111.00    0.57754   1.50635   -2.000
 7112.00    0.59326   1.50683   -2.000
 7113.00    0.56540   1.50749   -2.000
 7114.00    0.55227   1.50776   -2.000
 7115.00    0.57029   1.50805   -2.000
 7116.00    0.59121   1.50757   -2.000
 7117.00    0.61744   1.50678   -2.000
 7118.00    0.63768   1.50521   -2.000
 7119.00    0.64828   1.50297   -2.000
 7120.00    0.64069   1.50031   -2.000
 7121.00    0.60746   1.49681   -2.000
 7122.00    0.60023   1.49342   -2.000
 7123.00    0.62525   1.48936   -2.000
 7124.00    0.62512   1.48595   -2.000
 7125.00    0.59751   1.48235   -2.000
 7126.00    0.60696   1.47978   -2.000
 7127.00    0.65214   1.47768   -2.000
 7128.00    0.66217   1.47671   -2.000
 7129.00    0.64229   1.47670   -2.000
 7130.00    0.59857   1.47761   -2.000
 7131.00    0.53701   1.47962   -2.000
 7132.00    0.53579   1.48203   -2.000
 7133.00    0.57429   1.48529   -2.000
 7134.00    0.57071   1.48827   -2.000
 7135.00    0.54289   1.49163   -2.000
 7136.00    0.53856   1.49420   -2.000
 7137.00    0.54600   1.49668   -2.000
 7138.00    0.56455   1.49813   -2.000
 7139.00    0.58792   1.49928   -2.000
 7140.00    0.59302   1.49946   -2.000
 7141.00    0.59131   1.49942   -2.000
 7142.00    0.58215   1.49879   -2.000
 7143.00    0.57063   1.49827   -2.000
 7144.00    0.56427   1.49765   -2.000
 7145.00    0.55927   1.49751   -2.000
 7146.00    0.56030   1.49774   -2.000
 7147.00    0.56263   1.49866   -2.000
 7148.00    0.52824   1.50014   -2.000
 7149.00    0.48758   1.50225   -2.000
 7150.00    0.49895   1.50464   -2.000
 7151.00    0.51706   1.50734   -2.000
 7152.00    0.56374   1.50981   -2.000
 7153.00    0.61302   1.51212   -2.000
 7154.00    0.59145   1.51379   -2.000
 7155.00    0.56601   1.51484   -2.000
 7156.00    0.54048   1.51522   -2.000
 7157.00    0.51547   1.51478   -2.000
 7158.00    0.53893   1.51414   -2.000
 7159.00    0.56455   1.51282   -2.000
 7160.00    0.63933   1.51202   -2.000
 7161.00    0.70722   1.51097   -2.000
 7162.00    0.68823   1.51097   -2.000
 7163.00    0.66511   1.51120   -2.000
 7164.00    0.60670   1.51262   -2.000
 7165.00    0.55458   1.51447   -2.000
 7166.00    0.54223   1.51710   -2.000
 7167.00    0.53767   1.51995   -2.000
 7168.00    0.57179   1.52285   -2.000
 7169.00    0.60154   1.52550   -2.000
 7170.00    0.61367   1.52757   -2.000
 7171.00    0.61167   1.52891   -2.000
 7172.00    0.56247   1.52935   -2.000
 7173.00    0.52752   1.52880   -2.000
 7174.00    0.53276   1.52746   -2.000
 7175.00    0.53872   1.52521   -2.000
 7176.00    0.54637   1.52255   -2.000
 7177.00    0.55052   1.51933   -2.000
 7178.00    0.54735   1.51604   -2.000
 7179.00    0.56364   1.51257   -2.000
 7180.00    0.61516   1.50916   -2.000
 7181.00    0.62773   1.50589   -2.000
 7182.00    0.57867   1.50269   -2.000
 7183.00    0.54904   1.49999   -2.000
 7184.00    0.54640   1.49728   -2.000
 7185.00    0.53973   1.49534   -2.000
 7186.00    0.52813   1.49353   -2.000
 7187.00    0.53189   1.49272   -2.000
 7188.00    0.55222   1.49223   -2.000
 7189.00    0.56201   1.49268   -2.000
 7190.00    0.56180   1.49363   -2.000
 7191.00    0.55641   1.49527   -2.000
 7192.00    0.54667   1.49745   -2.000
 7193.00    0.52605   1.49990   -2.000
 7194.00    0.49740   1.50261   -2.000
 7195.00    0.50863   1.50507   -2.000
 7196.00    0.54571   1.50750   -2.000
 7197.00    0.56587   1.50941   -2.000
 7198.00    0.57642   1.51098   -2.000
 7199.00    0.60006   1.51191   -2.000
 7200.00    0.63016   1.51235   -2.000
 7201.00    0.62937   1.51226   -2.000
 7202.00    0.61539   1.51174   -2.000
 7203.00    0.60945   1.51113   -2.000
 7204.00    0.60644   1.51035   -2.000
 7205.00    0.56185   1.51006   -2.000
 7206.00    0.50437   1.50988   -2.000
 7207.00    0.50231   1.51058   -2.000
 7208.00    0.51456   1.51156   -2.000
 7209.00    0.51488   1.51341   -2.000
 7210.00    0.51269   1.51565   -2.000
 7211.00    0.53415   1.51835   -2.000
 7212.00    0.55955   1.52149   -2.000
 7213.00    0.55260   1.52461   -2.000
 7214.00    0.54161   1.52806   -2.000
 7215.00    0.55273   1.53125   -2.000
 7216.00    0.56577   1.53455   -2.000
 7217.00    0.53152   1.53767   -2.000
 7218.00    0.49486   1.54078   -2.000
