###################################################################
## OUTPUT of StarlightChains_v04.for    [Cid@UFSC - 01/Apr/2007] ##
###################################################################

## Some input info
KUG0210-078._27_35.txt                   [arq_obs]
Base.CB07.vall.4m                        [arq_base]
Masks.EmLines.NEW.gm                     [arq_masks]
StCv04.C11.config                        [arq_config]
   66                                    [N_base]
    0                                    [N_YAV_components = # of components with extra extinction!]
    0                                    [i_FitPowerLaw (1/0 = Yes/No)]
-9.99                                    [alpha_PowerLaw]
CCM                                      [red_law_option]
 1.458241                                [q_norm = A(l_norm)/A(V)]

## (Re)Sampling Parameters
 3741.00                                 [l_ini (A)]
 7218.00                                 [l_fin (A)]
    1.00                                 [dl    (A)]     (OBS: dl_cushion =    50.00 A)

## Normalization info
 4020.00                                 [l_norm (A) - for base]
 4010.00                                 [llow_norm (A) - window for f_obs]
 4060.00                                 [lupp_norm (A) - window for f_obs]
6.291847E-17                             [fobs_norm (in input units)]

## S/N
 3691.00                                 [llow_SN (A) - window for S/N]
 7268.00                                 [lupp_SN (A) - window for S/N]
   5.718                                 [S/N in S/N window]
   3.798                                 [S/N in norm. window]
   0.171                                 [S/N_err in S/N window]
   0.114                                 [S/N_err in norm. window]
  1.0000                                 [fscale_chi2]

## etc...
    -2007355                             [idum_orig]
  2432                                   [NOl_eff]
  2088                                   [Nl_eff]
   344    NSIGMA                         [Ntot_cliped & clip_method]
 15711150                                [Nglobal_steps]
   7                                     [N_chains]
  32                                     [NEX0s_base = N_base in EX0s-fits]
 0   0   1      344   2.0   5.193E+04    [Clip-Bug, RC-Crash & Burn-In warning-flags, n_censored_weights, wei_nsig_threshold & wei_limit]
    81     80.657     80.185      0.473  [idt_all, wdt_TotTime, wdt_UsrTime & wdt_SysTime (sec)]

## Synthesis Results - Best model ##

 3.25642E-04                             [chi2/Nl_eff]
     5.47679                             [adev (%)]

   129.99998                             [sum-of-x (%)]
 5.63899E-15                             [Flux_tot (units of input spectrum!)]
 9.87527E-13                             [Mini_tot (???)]
 7.45567E-13                             [Mcor_tot (???)]

-253.35                                  [v0_min  (km/s)]
 273.47                                  [vd_min  (km/s)]
 3.1519                                  [AV_min  (mag)]
 0.0000                                  [YAV_min (mag)]

# j     x_j(%)      Mini_j(%)     Mcor_j(%)     age_j(yr)     Z_j      (L/M)_j    YAV?  Mstars   component_j        a/Fe...       SSP_chi2r SSP_adev(%)   SSP_AV   SSP_x(%)
  1     76.2450     3.0613E+01    4.0548E+01    1.000000E+06  0.00400  1.094E-02    0   1.0000   age020_m42            0.0000     2.9990E-04     6.2052   3.1628   139.0705
  2      0.0000     0.0000E+00    0.0000E+00    3.160000E+06  0.00400  4.007E-02    0   0.9999   age045_m42            0.0000     2.8947E-04     5.3514   2.5145   143.4306
  3      0.0000     0.0000E+00    0.0000E+00    5.010000E+06  0.00400  2.539E-02    0   0.9488   age055_m42            0.0000     2.8478E-04     5.6281   2.7959   142.4415
  4      0.0000     0.0000E+00    0.0000E+00    6.610000E+06  0.00400  2.620E-02    0   0.9220   age061_m42            0.0000     2.8213E-04     5.1209   2.4391   143.8836
  5      0.0000     0.0000E+00    0.0000E+00    1.000000E+07  0.00400  1.322E-02    0   0.8862   age070_m42            0.0000     2.6743E-04     4.0350   2.1294   148.9980
  6     13.5600     7.5557E+00    8.5777E+00    1.445000E+07  0.00400  7.883E-03    0   0.8571   age078_m42            0.0000     2.6336E-04     4.3324   2.4397   146.3178
  7      0.0000     0.0000E+00    0.0000E+00    2.512000E+07  0.00400  5.251E-03    0   0.8174   age090_m42            0.0000     2.6800E-04     3.8555   2.0015   149.7251
  8      0.0000     0.0000E+00    0.0000E+00    4.000000E+07  0.00400  3.649E-03    0   0.7851   age104_m42            0.0000     2.7231E-04     3.8519   1.7909   149.7929
  9      0.0000     0.0000E+00    0.0000E+00    5.500000E+07  0.00400  3.098E-03    0   0.7629   age110_m42            0.0000     2.7835E-04     4.1297   1.9691   148.0251
 10      0.0000     0.0000E+00    0.0000E+00    1.015200E+08  0.00400  2.228E-03    0   0.7207   age116_m42            0.0000     2.8016E-04     4.3052   2.0029   147.3249
 11      0.0000     0.0000E+00    0.0000E+00    2.861200E+08  0.00400  1.093E-03    0   0.6648   age125_m42            0.0000     2.9178E-04     4.1033   1.4361   151.2475
 12      0.0000     0.0000E+00    0.0000E+00    5.088000E+08  0.00400  6.597E-04    0   0.6365   age130_m42            0.0000     2.9963E-04     4.2472   1.4561   150.3960
 13      0.0000     0.0000E+00    0.0000E+00    1.434000E+09  0.00400  2.132E-04    0   0.5798   age139_m42            0.0000     3.0478E-04     4.2207   0.5234   150.7817
 14      0.0000     0.0000E+00    0.0000E+00    4.250000E+09  0.00400  5.895E-05    0   0.5377   age158_m42            0.0000     2.9719E-04     4.9236   0.0699   145.8034
 15      0.0000     0.0000E+00    0.0000E+00    7.500000E+09  0.00400  3.510E-05    0   0.5212   age171_m42            0.0000     3.1495E-04     5.2358  -0.1069   144.0194
 16      0.0000     0.0000E+00    0.0000E+00    1.300000E+10  0.00400  2.005E-05    0   0.5034   age193_m42            0.0000     3.3877E-04     5.5551  -0.2634   142.5740
 17      0.1229     3.5413E+01    2.3298E+01    1.800000E+10  0.00400  1.525E-05    0   0.4967   age213_m42            0.0000     3.3115E-04     5.5159  -0.2930   142.3750
 18     11.7412     4.1658E+00    5.5178E+00    1.000000E+06  0.00800  1.238E-02    0   1.0000   age020_m52            0.0000     2.9990E-04     6.2080   3.1592   139.3343
 19      0.0000     0.0000E+00    0.0000E+00    3.160000E+06  0.00800  3.074E-02    0   0.9966   age045_m52            0.0000     2.9580E-04     6.1649   3.0883   140.2295
 20      0.0000     0.0000E+00    0.0000E+00    5.010000E+06  0.00800  2.668E-02    0   0.9443   age055_m52            0.0000     2.8276E-04     5.6631   2.8685   141.8333
 21      0.0000     0.0000E+00    0.0000E+00    6.610000E+06  0.00800  2.136E-02    0   0.9177   age061_m52            0.0000     2.7097E-04     4.1382   1.6303   150.6736
 22      0.0000     0.0000E+00    0.0000E+00    1.000000E+07  0.00800  1.215E-02    0   0.8827   age070_m52            0.0000     2.6581E-04     3.9691   2.2898   149.8962
 23      4.3965     2.2154E+00    2.5095E+00    1.445000E+07  0.00800  8.717E-03    0   0.8552   age078_m52            0.0000     2.6329E-04     4.2066   2.4109   147.9604
 24      0.0000     0.0000E+00    0.0000E+00    2.512000E+07  0.00800  5.592E-03    0   0.8162   age090_m52            0.0000     2.6983E-04     3.8607   2.0687   151.1912
 25      0.0000     0.0000E+00    0.0000E+00    4.000000E+07  0.00800  3.896E-03    0   0.7841   age104_m52            0.0000     2.7279E-04     3.9130   2.0015   150.8493
 26      0.0000     0.0000E+00    0.0000E+00    1.015200E+08  0.00800  2.148E-03    0   0.7226   age116_m52            0.0000     2.7432E-04     4.0806   1.9623   149.0194
 27      0.0000     0.0000E+00    0.0000E+00    2.861200E+08  0.00800  9.925E-04    0   0.6683   age125_m52            0.0000     2.9656E-04     4.2458   1.5202   151.8930
 28      0.0000     0.0000E+00    0.0000E+00    9.047900E+08  0.00800  3.141E-04    0   0.6138   age135_m52            0.0000     3.0403E-04     4.4036   0.7823   153.6768
 29      0.0000     0.0000E+00    0.0000E+00    1.434000E+09  0.00800  1.719E-04    0   0.5853   age139_m52            0.0000     2.9816E-04     4.6815   0.1781   152.0763
 30      0.0000     0.0000E+00    0.0000E+00    2.500000E+09  0.00800  7.872E-05    0   0.5600   age150_m52            0.0000     3.0466E-04     5.3028  -0.0804   147.5427
 31      0.0000     0.0000E+00    0.0000E+00    4.250000E+09  0.00800  4.336E-05    0   0.5426   age158_m52            0.0000     3.0668E-04     5.3220  -0.0952   146.1396
 32      0.0000     0.0000E+00    0.0000E+00    6.250000E+09  0.00800  3.159E-05    0   0.5319   age166_m52            0.0000     3.3053E-04     5.7474  -0.2837   145.1766
 33      0.0000     0.0000E+00    0.0000E+00    1.300000E+10  0.00800  1.361E-05    0   0.5073   age193_m52            0.0000     3.6475E-04     6.4053  -0.7381   143.2982
 34      0.0000     0.0000E+00    0.0000E+00    1.800000E+10  0.00800  9.886E-06    0   0.4990   age213_m52            0.0000     3.8902E-04     6.8599  -0.8347   141.8334
 35     20.1730     5.7389E+00    7.6014E+00    1.000000E+06  0.02000  1.544E-02    0   1.0000   age020_m62            0.0000     3.0021E-04     6.2292   3.1533   139.7839
 36      0.0000     0.0000E+00    0.0000E+00    3.160000E+06  0.02000  3.762E-02    0   0.9858   age045_m62            0.0000     2.9651E-04     6.2323   3.0930   140.9562
 37      0.0000     0.0000E+00    0.0000E+00    5.010000E+06  0.02000  3.296E-02    0   0.9342   age055_m62            0.0000     2.8651E-04     5.6210   2.7694   143.2957
 38      2.2476     8.5550E-01    1.0041E+00    8.710000E+06  0.02000  1.154E-02    0   0.8861   age067_m62            0.0000     3.0859E-04     4.4433   1.6639   159.8615
 39      0.0000     0.0000E+00    0.0000E+00    1.445000E+07  0.02000  7.663E-03    0   0.8472   age078_m62            0.0000     2.7743E-04     3.9500   1.9194   154.3687
 40      0.0000     0.0000E+00    0.0000E+00    2.512000E+07  0.02000  4.532E-03    0   0.8099   age090_m62            0.0000     2.8141E-04     4.0422   1.9098   154.0217
 41      1.1819     1.8995E+00    1.9109E+00    5.500000E+07  0.02000  2.733E-03    0   0.7595   age110_m62            0.0000     2.6601E-04     3.9049   1.9719   150.6319
 42      0.0000     0.0000E+00    0.0000E+00    1.609000E+08  0.02000  1.369E-03    0   0.6985   age120_m62            0.0000     2.7653E-04     4.0802   1.8536   151.6340
 43      0.0000     0.0000E+00    0.0000E+00    2.861200E+08  0.02000  9.013E-04    0   0.6714   age125_m62            0.0000     2.8922E-04     4.1276   1.6379   153.5108
 44      0.0000     0.0000E+00    0.0000E+00    5.088000E+08  0.02000  5.028E-04    0   0.6449   age130_m62            0.0000     2.9899E-04     4.4456   1.3118   153.7831
 45      0.0000     0.0000E+00    0.0000E+00    9.047900E+08  0.02000  2.428E-04    0   0.6179   age135_m62            0.0000     2.8580E-04     4.6735   0.7317   152.3384
 46      0.3319     1.1544E+01    9.0332E+00    1.434000E+09  0.02000  1.263E-04    0   0.5908   age139_m62            0.0000     2.8563E-04     5.0262   0.2770   150.8194
 47      0.0000     0.0000E+00    0.0000E+00    2.500000E+09  0.02000  5.985E-05    0   0.5673   age150_m62            0.0000     3.0755E-04     5.7593  -0.0883   148.6904
 48      0.0000     0.0000E+00    0.0000E+00    4.250000E+09  0.02000  3.271E-05    0   0.5468   age158_m62            0.0000     3.5279E-04     6.4962  -0.3753   146.1823
 49      0.0000     0.0000E+00    0.0000E+00    1.000000E+10  0.02000  1.360E-05    0   0.5167   age181_m62            0.0000     3.9322E-04     7.2270  -0.7101   144.6261
 50      0.0000     0.0000E+00    0.0000E+00    1.800000E+10  0.02000  7.124E-06    0   0.5013   age213_m62            0.0000     4.2892E-04     7.8690  -0.9168   143.1830
 51      0.0000     0.0000E+00    0.0000E+00    1.000000E+06  0.05000  2.592E-02    0   0.9998   age020_m72            0.0000     2.9798E-04     6.2511   3.1361   140.3827
 52      0.0000     0.0000E+00    0.0000E+00    3.160000E+06  0.05000  4.845E-02    0   0.9577   age045_m72            0.0000     2.9142E-04     6.1024   2.9955   141.5426
 53      0.0000     0.0000E+00    0.0000E+00    5.010000E+06  0.05000  3.072E-02    0   0.9147   age055_m72            0.0000     2.7187E-04     4.7509   2.4922   149.0486
 54      0.0000     0.0000E+00    0.0000E+00    6.610000E+06  0.05000  1.455E-02    0   0.8877   age061_m72            0.0000     4.5235E-04     7.1872   1.6520   164.2439
 55      0.0000     0.0000E+00    0.0000E+00    1.000000E+07  0.05000  9.074E-03    0   0.8524   age070_m72            0.0000     3.2045E-04     6.0241   2.6534   149.1754
 56      0.0000     0.0000E+00    0.0000E+00    2.512000E+07  0.05000  4.250E-03    0   0.7902   age090_m72            0.0000     2.9089E-04     4.9441   2.3962   149.6599
 57      0.0000     0.0000E+00    0.0000E+00    4.000000E+07  0.05000  3.087E-03    0   0.7618   age104_m72            0.0000     3.0000E-04     4.8319   2.1788   151.4539
 58      0.0000     0.0000E+00    0.0000E+00    1.015200E+08  0.05000  1.700E-03    0   0.7096   age116_m72            0.0000     2.8076E-04     4.1072   1.9801   152.0038
 59      0.0000     0.0000E+00    0.0000E+00    2.861200E+08  0.05000  7.384E-04    0   0.6633   age125_m72            0.0000     2.8815E-04     4.2430   1.5329   153.6359
 60      0.0000     0.0000E+00    0.0000E+00    5.088000E+08  0.05000  3.819E-04    0   0.6372   age130_m72            0.0000     2.8082E-04     4.6737   1.0724   153.9043
 61      0.0000     0.0000E+00    0.0000E+00    9.047900E+08  0.05000  1.676E-04    0   0.6110   age135_m72            0.0000     2.9308E-04     5.6810   0.3807   150.9213
 62      0.0000     0.0000E+00    0.0000E+00    1.434000E+09  0.05000  8.837E-05    0   0.5874   age139_m72            0.0000     3.1470E-04     5.8740  -0.0767   149.9682
 63      0.0000     0.0000E+00    0.0000E+00    2.500000E+09  0.05000  4.233E-05    0   0.5598   age150_m72            0.0000     3.5182E-04     6.7714  -0.3796   147.6657
 64      0.0000     0.0000E+00    0.0000E+00    6.250000E+09  0.05000  1.435E-05    0   0.5249   age166_m72            0.0000     4.0750E-04     7.5836  -0.8089   144.1026
 65      0.0000     0.0000E+00    0.0000E+00    1.300000E+10  0.05000  6.513E-06    0   0.5036   age193_m72            0.0000     4.7060E-04     8.2017  -1.0000   140.9881
 66      0.0000     0.0000E+00    0.0000E+00    1.800000E+10  0.05000  4.527E-06    0   0.4945   age213_m72            0.0000     5.6302E-04     8.5506  -1.0000   132.7345


## Synthesis Results - Average & Chains ##

# j      x_j: min, <> & last-chain-values for 1 ...  7 chains
  1     76.2450     10.2377      1.8879      4.4725      5.6634      2.7055      2.2508      7.5383     12.2071
  2      0.0000      1.7286      0.0000      3.5037      0.0000      0.6375      2.3118      0.1970      1.8878
  3      0.0000      0.3875      0.4308      6.8640      0.0000      0.3492      0.9398      0.0000      0.0963
  4      0.0000      0.4159      3.3372      0.3989      0.0000      7.5420      0.0000      0.0000      0.1371
  5      0.0000      0.4395      7.0823      0.0000      2.4530      0.0000      0.0000      0.8833      0.1176
  6     13.5600      0.3228      0.4388      3.3857      0.5639      0.9788      0.0000      1.5836      0.0000
  7      0.0000      0.3753      0.4856      0.0731      3.1290      0.0000      0.0000      0.0000      0.0384
  8      0.0000      0.4140      1.9023      1.6691      0.6866      0.0000      0.0000      0.0000      0.0000
  9      0.0000      0.4670      0.0000      0.1778      0.0875      0.0000      0.0000      1.3958      0.0112
 10      0.0000      0.4491      0.2339      0.0000      1.5038      0.3077      0.0455      0.0000      0.2281
 11      0.0000      0.4484      0.4178      0.0000      0.0000      3.0243      0.0000      0.0000      0.1584
 12      0.0000      0.4044      1.7067      0.0000      2.1798      1.1451      0.0608      2.6723      0.0000
 13      0.0000     22.1872      0.6226      2.9371      8.6596      3.6696      7.2486     18.9260     29.9526
 14      0.0000      0.4152      0.5905      0.0000      0.3577      0.0612      0.4859      0.9047      0.1958
 15      0.0000      0.4297      3.4193      2.0020      0.6510      0.9619      0.0000      0.2084      0.1924
 16      0.0000      0.4465      0.0000      3.5420      2.0993      0.0000      0.0000      1.4531      0.0137
 17      0.1229      0.4781      0.0000      3.2125      0.0000      0.0000      0.0000      0.0000      0.1942
 18     11.7412     16.9075     12.5580     15.4634     12.6678     17.3201     10.4030     16.0348     15.3292
 19      0.0000      0.4382      3.4525      0.0000      0.0756      2.2013      0.0000      0.0000      0.0000
 20      0.0000      0.3968      2.8577      0.0000      4.2721      0.0000      2.7457      0.1398      0.0023
 21      0.0000      0.4256      2.3810      1.3131      0.0000      0.2803      0.0000      0.0000      0.1312
 22      0.0000      0.3991      0.0000      0.0000      0.0000      2.2716      1.7244      0.2304      0.0000
 23      4.3965      0.4568      2.8342      6.7368      1.0212      3.5731      2.6152      2.0504      0.0414
 24      0.0000      0.4234      1.2721      0.0000      3.3592      3.4338      0.0000      0.5061      0.0993
 25      0.0000      0.3690      0.0000      0.1992      0.3472      2.3326      1.2983      0.6840      0.1636
 26      0.0000      0.3432      0.1900      1.0235      0.0782      0.0000      0.0000      0.2142      0.0501
 27      0.0000      0.4791      3.0118      0.8287      0.6815      9.0883      1.8688      0.0000      0.1702
 28      0.0000      0.4086      0.0000      0.0000      2.9584      0.0000      0.4193      0.0000      0.0830
 29      0.0000      0.3319      0.0000      0.0000      0.0000      0.0000      0.0000      0.4589      0.0000
 30      0.0000      0.3517      1.0492      4.9735      0.0000      0.0000      2.7692      1.9912      0.0000
 31      0.0000      0.4439      4.4448      0.0273      0.0000      0.0000      0.0000      0.0000      0.4712
 32      0.0000      0.4221      0.0000      0.8393      4.3389      0.0000      0.9057      0.8860      0.1883
 33      0.0000      1.5578      1.3653      0.0000      0.8368      2.3368      3.2491      0.6157      1.0804
 34      0.0000      8.6864      6.6195      5.0503     10.5531      1.7488      8.6943      6.6131     15.4259
 35     20.1730      3.5117      4.2418      3.6655      0.8207      2.0892      0.3250      1.4184      4.2722
 36      0.0000      0.4180      0.0000      0.3318      0.0000      2.9931      1.9601      3.7123      0.1949
 37      0.0000      0.4953      0.0000      4.1097      0.0000      1.6377      2.8963      0.0000      0.0874
 38      2.2476      0.4656      0.0000      1.8336      2.7307      1.9658      2.2195      0.0000      0.1381
 39      0.0000      0.4468      0.0403      0.0000      0.7245      0.0000      0.0000      0.0000      0.0156
 40      0.0000      0.4409      3.1990      3.0750      0.0000      0.4506      0.5464      0.7303      0.0883
 41      1.1819      0.4145      0.0000      3.8695      0.0000      0.9271      0.0000      0.2421      0.4604
 42      0.0000      0.5758      0.0000      0.0000      0.0000      0.3100      7.0545      4.4681      0.2046
 43      0.0000      0.3985      0.5209      0.3777      0.0000      5.9705      0.0805      0.3551      0.0985
 44      0.0000      0.3844      0.0000      0.0000      1.1795      3.0997      0.3012      1.7675      0.1354
 45      0.0000      0.3562      1.5460      3.6414      0.5907      2.9977      0.0000      0.8317      0.1440
 46      0.3319      0.4266      2.4775      2.8218      0.0000      1.6646      0.0000      0.0000      0.0000
 47      0.0000      0.4117      3.6386      0.0000      3.4259      0.7646      0.2655      1.7802      0.0744
 48      0.0000      0.4651      1.2325      1.5720      3.6965      3.0624      0.0000      0.0000      0.1042
 49      0.0000      0.5806      2.4125      2.6841      2.7397      0.9673      2.7548      0.6089      0.2490
 50      0.0000      1.4264      1.1445      1.8168      5.7781      0.0000      2.3140      2.1904      2.7326
 51      0.0000      2.5681      0.0000      0.0000      1.9528      0.0000      0.0000      0.0000      4.9577
 52      0.0000      0.3797      3.1871      0.1967      0.0000      1.1695      0.0000      0.7606      0.1595
 53      0.0000      0.4890      0.1755      0.0000      1.8477      0.7094      1.5176      0.0000      0.1604
 54      0.0000      0.4132      0.0000      4.4375      0.0000      0.0000      2.5944      0.6257      0.0230
 55      0.0000      0.4285      1.8258      0.0000      0.0000      2.0974      2.5805      0.0000      0.0706
 56      0.0000      0.4335      0.0000      0.0000      0.0000      1.4693      0.0000      2.4183      0.3446
 57      0.0000      0.4499      0.0000      0.0000      2.2655      0.0000      0.0000      0.0000      0.0907
 58      0.0000      0.5658      3.4029      3.7160      2.9083      0.0000      1.4024      1.2720      0.1526
 59      0.0000      0.4574      4.0318      0.6708      1.1399      0.0000      0.0000      0.0000      0.0000
 60      0.0000      0.4692      0.0000      0.2566      2.5228      0.0000      2.3510      1.6471      0.1675
 61      0.0000      0.5598      3.6257      0.0000      0.0000      0.1827      0.3364      0.2548      0.0589
 62      0.0000      0.4335      1.5541      0.0000      0.0000      3.1278      0.2187      0.1722      0.0491
 63      0.0000      0.5440      1.1977      1.8150      0.2251      0.1529      2.7663      0.0319      0.2101
 64      0.0000     12.4120      0.0000      5.2026      1.9576      2.9773     13.1064     12.4121     10.3628
 65      0.0000      1.4929      3.8343      0.0000      3.1955      1.2984      6.4709      2.5667      1.5032
 66      0.0000      1.5775      2.0511      0.0000      0.0000      1.6628      4.9364      2.0928      1.6074

# j      m_j: min, <> & last-chain-values for 1 ...  7 chains
  1  4.0548E+01  6.1998E-02  1.3050E-02  3.9361E-02  3.0900E-02  3.3069E-02  8.3608E-03  4.3580E-02  6.1858E-02
  2  0.0000E+00  2.8577E-03  0.0000E+00  8.4177E-03  0.0000E+00  2.1273E-03  2.3443E-03  3.1091E-04  2.6115E-03
  3  0.0000E+00  9.5944E-04  1.2175E-03  2.4696E-02  0.0000E+00  1.7449E-03  1.4271E-03  0.0000E+00  1.9957E-04
  4  0.0000E+00  9.6966E-04  8.8808E-03  1.3516E-03  0.0000E+00  3.5490E-02  0.0000E+00  0.0000E+00  2.6754E-04
  5  0.0000E+00  1.9519E-03  3.5902E-02  0.0000E+00  9.8151E-03  0.0000E+00  0.0000E+00  3.7451E-03  4.3697E-04
  6  8.5777E+00  2.3255E-03  3.6081E-03  3.5443E-02  3.6595E-03  1.4231E-02  0.0000E+00  1.0890E-02  0.0000E+00
  7  0.0000E+00  3.8707E-03  5.7161E-03  1.0951E-03  2.9074E-02  0.0000E+00  0.0000E+00  0.0000E+00  3.3100E-04
  8  0.0000E+00  5.9009E-03  3.0951E-02  3.4575E-02  8.8184E-03  0.0000E+00  0.0000E+00  0.0000E+00  0.0000E+00
  9  0.0000E+00  7.6193E-03  0.0000E+00  4.2149E-03  1.2855E-03  0.0000E+00  0.0000E+00  2.1739E-02  1.5322E-04
 10  0.0000E+00  9.6250E-03  5.7210E-03  0.0000E+00  2.9037E-02  1.3310E-02  5.9818E-04  0.0000E+00  4.0899E-03
 11  0.0000E+00  1.8068E-02  1.9216E-02  0.0000E+00  0.0000E+00  2.4597E-01  0.0000E+00  0.0000E+00  5.3408E-03
 12  0.0000E+00  2.5852E-02  1.2453E-01  0.0000E+00  1.2554E-01  1.4774E-01  2.3832E-03  1.6307E-01  0.0000E+00
 13  0.0000E+00  3.9975E+00  1.2805E-01  7.6904E-01  1.4057E+00  1.3345E+00  8.0108E-01  3.2552E+00  4.5157E+00
 14  0.0000E+00  2.5089E-01  4.0728E-01  0.0000E+00  1.9472E-01  7.4619E-02  1.8011E-01  5.2190E-01  9.9005E-02
 15  0.0000E+00  4.2271E-01  3.8396E+00  2.8621E+00  5.7698E-01  1.9098E+00  0.0000E+00  1.9568E-01  1.5839E-01
 16  0.0000E+00  7.4276E-01  0.0000E+00  8.5621E+00  3.1461E+00  0.0000E+00  0.0000E+00  2.3073E+00  1.9014E-02
 17  2.3298E+01  1.0317E+00  0.0000E+00  1.0074E+01  0.0000E+00  0.0000E+00  0.0000E+00  0.0000E+00  3.5061E-01
 18  5.5178E+00  9.0480E-02  7.6709E-02  1.2026E-01  6.1078E-02  1.8708E-01  3.4148E-02  8.1917E-02  6.8643E-02
 19  0.0000E+00  9.4124E-04  8.4645E-03  0.0000E+00  1.4629E-04  9.5433E-03  0.0000E+00  0.0000E+00  0.0000E+00
 20  0.0000E+00  9.3048E-04  7.6487E-03  0.0000E+00  9.0256E-03  0.0000E+00  3.9492E-03  3.1304E-04  4.5129E-06
 21  0.0000E+00  1.2115E-03  7.7357E-03  5.4318E-03  0.0000E+00  1.6102E-03  0.0000E+00  0.0000E+00  3.1246E-04
 22  0.0000E+00  1.9211E-03  0.0000E+00  0.0000E+00  0.0000E+00  2.2067E-02  5.0909E-03  1.0586E-03  0.0000E+00
 23  2.5095E+00  2.9693E-03  2.1027E-02  6.3634E-02  5.9801E-03  4.6875E-02  1.0426E-02  1.2722E-02  2.2510E-04
 24  0.0000E+00  4.0943E-03  1.4040E-02  0.0000E+00  2.9266E-02  6.7019E-02  0.0000E+00  4.6719E-03  8.0385E-04
 25  0.0000E+00  4.9201E-03  0.0000E+00  3.8608E-03  4.1706E-03  6.2776E-02  1.0618E-02  8.7058E-03  1.8257E-03
 26  0.0000E+00  7.6490E-03  4.8342E-03  3.3150E-02  1.5698E-03  0.0000E+00  0.0000E+00  4.5578E-03  9.3443E-04
 27  0.0000E+00  2.1371E-02  1.5336E-01  5.3723E-02  2.7391E-02  8.1830E-01  5.1138E-02  0.0000E+00  6.3550E-03
 28  0.0000E+00  5.2900E-02  0.0000E+00  0.0000E+00  3.4508E-01  0.0000E+00  3.3298E-02  0.0000E+00  8.9911E-03
 29  0.0000E+00  7.4859E-02  0.0000E+00  0.0000E+00  0.0000E+00  0.0000E+00  0.0000E+00  9.8814E-02  0.0000E+00
 30  0.0000E+00  1.6575E-01  5.6442E-01  3.4064E+00  0.0000E+00  0.0000E+00  8.0056E-01  8.9586E-01  0.0000E+00
 31  0.0000E+00  3.6803E-01  4.2062E+00  3.2849E-02  0.0000E+00  0.0000E+00  0.0000E+00  0.0000E+00  3.2685E-01
 32  0.0000E+00  4.7081E-01  0.0000E+00  1.3606E+00  4.3608E+00  0.0000E+00  6.1971E-01  9.4349E-01  1.7580E-01
 33  0.0000E+00  3.8469E+00  3.8485E+00  0.0000E+00  1.8619E+00  1.1647E+01  4.9216E+00  1.4515E+00  2.2325E+00
 34  0.0000E+00  2.9048E+01  2.5267E+01  2.4543E+01  3.1796E+01  1.1803E+01  1.7834E+01  2.1111E+01  4.3165E+01
 35  7.6014E+00  1.5068E-02  2.0776E-02  2.2857E-02  3.1727E-03  1.8094E-02  8.5547E-04  5.8101E-03  1.5339E-02
 36  0.0000E+00  7.2560E-04  0.0000E+00  8.3700E-04  0.0000E+00  1.0488E-02  2.0873E-03  6.1524E-03  2.8305E-04
 37  0.0000E+00  9.3006E-04  0.0000E+00  1.1215E-02  0.0000E+00  6.2069E-03  3.3361E-03  0.0000E+00  1.3726E-04
 38  1.0041E+00  2.3684E-03  0.0000E+00  1.3556E-02  1.2516E-02  2.0184E-02  6.9258E-03  0.0000E+00  5.8772E-04
 39  0.0000E+00  3.2727E-03  3.3678E-04  0.0000E+00  4.7810E-03  0.0000E+00  0.0000E+00  0.0000E+00  9.5904E-05
 40  0.0000E+00  5.2198E-03  4.3231E-02  5.2907E-02  0.0000E+00  1.0768E-02  3.9681E-03  8.2542E-03  8.7451E-04
 41  1.9109E+00  7.6311E-03  0.0000E+00  1.0353E-01  0.0000E+00  3.4453E-02  0.0000E+00  4.2553E-03  7.0932E-03
 42  0.0000E+00  1.9464E-02  0.0000E+00  0.0000E+00  0.0000E+00  2.1153E-02  1.4627E-01  1.4418E-01  5.7872E-03
 43  0.0000E+00  1.9665E-02  2.9345E-02  2.7090E-02  0.0000E+00  5.9473E-01  2.4355E-03  1.6731E-02  4.0685E-03
 44  0.0000E+00  3.2666E-02  0.0000E+00  0.0000E+00  9.0304E-02  5.3164E-01  1.5699E-02  1.4338E-01  9.6272E-03
 45  0.0000E+00  6.0055E-02  2.9753E-01  8.9222E-01  8.9736E-02  1.0201E+00  0.0000E+00  1.3386E-01  2.0314E-02
 46  9.0332E+00  1.3220E-01  8.7638E-01  1.2709E+00  0.0000E+00  1.0412E+00  0.0000E+00  0.0000E+00  0.0000E+00
 47  0.0000E+00  2.5853E-01  2.6081E+00  0.0000E+00  1.9383E+00  9.6912E-01  1.0227E-01  1.0672E+00  3.9105E-02
 48  0.0000E+00  5.1507E-01  1.5580E+00  2.5302E+00  3.6884E+00  6.8455E+00  0.0000E+00  0.0000E+00  9.6597E-02
 49  0.0000E+00  1.4615E+00  6.9314E+00  9.8180E+00  6.2130E+00  4.9140E+00  4.2533E+00  1.4631E+00  5.2447E-01
 50  0.0000E+00  6.6497E+00  6.0905E+00  1.2309E+01  2.4270E+01  0.0000E+00  6.6170E+00  9.7480E+00  1.0660E+01
 51  0.0000E+00  6.5628E-03  0.0000E+00  0.0000E+00  4.4963E-03  0.0000E+00  0.0000E+00  0.0000E+00  1.0601E-02
 52  0.0000E+00  4.9720E-04  4.7640E-03  3.7438E-04  0.0000E+00  3.0913E-03  0.0000E+00  9.5081E-04  1.7479E-04
 53  0.0000E+00  9.6472E-04  3.9511E-04  0.0000E+00  3.2840E-03  2.8243E-03  1.8363E-03  0.0000E+00  2.6472E-04
 54  0.0000E+00  1.6700E-03  0.0000E+00  2.6066E-02  0.0000E+00  0.0000E+00  6.4324E-03  2.4144E-03  7.7943E-05
 55  0.0000E+00  2.6668E-03  1.2970E-02  0.0000E+00  0.0000E+00  2.6347E-02  9.8508E-03  0.0000E+00  3.6749E-04
 56  0.0000E+00  5.3395E-03  0.0000E+00  0.0000E+00  0.0000E+00  3.6529E-02  0.0000E+00  2.8437E-02  3.5524E-03
 57  0.0000E+00  7.3548E-03  0.0000E+00  0.0000E+00  3.3371E-02  0.0000E+00  0.0000E+00  0.0000E+00  1.2413E-03
 58  0.0000E+00  1.5647E-02  1.0741E-01  1.4934E-01  7.2461E-02  0.0000E+00  2.3788E-02  3.3580E-02  3.5313E-03
 59  0.0000E+00  2.7222E-02  2.7388E-01  5.8020E-02  6.1122E-02  0.0000E+00  0.0000E+00  0.0000E+00  0.0000E+00
 60  0.0000E+00  5.1867E-02  0.0000E+00  4.1213E-02  2.5126E-01  0.0000E+00  1.5941E-01  1.7381E-01  1.5489E-02
 61  0.0000E+00  1.3520E-01  9.9954E-01  0.0000E+00  0.0000E+00  8.9047E-02  4.9832E-02  5.8759E-02  1.1905E-02
 62  0.0000E+00  1.9092E-01  7.8120E-01  0.0000E+00  0.0000E+00  2.7801E+00  5.9070E-02  7.2411E-02  1.8093E-02
 63  0.0000E+00  4.7661E-01  1.1978E+00  2.3110E+00  1.7771E-01  2.7035E-01  1.4867E+00  2.6663E-02  1.5400E-01
 64  0.0000E+00  3.0079E+01  0.0000E+00  1.8322E+01  4.2741E+00  1.4563E+01  1.9482E+01  2.8714E+01  2.1014E+01
 65  0.0000E+00  7.6476E+00  2.2420E+01  0.0000E+00  1.4748E+01  1.3425E+01  2.0333E+01  1.2552E+01  6.4433E+00
 66  0.0000E+00  1.1416E+01  1.6943E+01  0.0000E+00  0.0000E+00  2.4288E+01  2.1913E+01  1.4458E+01  9.7339E+00

# AV, chi2 & Mass for <> & i_chain = 1 ...  7 solutions
AV       3.1519      1.1384      1.3950      1.4562      1.1623      1.8300      0.8588      1.1864      1.0794
chi2 3.2564E-04  1.1125E-03  1.0120E-03  8.6274E-04  1.0350E-03  1.0246E-03  1.0346E-03  1.0540E-03  1.0765E-03
Mass 7.4557E-13  4.3815E-12  5.4175E-12  4.6202E-12  5.0215E-12  5.4955E-12  4.9064E-12  4.8951E-12  4.8369E-12
-253.35                                  [v0_min (km/s) before EX0s...]
 273.47                                  [vd_min (km/s) before EX0s...]


## Synthetic spectrum (Best Model) ##l_obs f_obs f_syn wei
 3478    [Nl_obs]
 3741.00    0.67974   1.14602    0.000
 3742.00    0.70905   1.13419    0.000
 3743.00    0.71898   1.11998    0.000
 3744.00    0.71067   1.10588    0.000
 3745.00    0.69174   1.09429   -1.000
 3746.00    0.70144   1.08640   -1.000
 3747.00    0.72569   1.08337   -1.000
 3748.00    0.72709   1.08644   -1.000
 3749.00    0.71844   1.09540   -1.000
 3750.00    0.73332   1.10827   -1.000
 3751.00    0.75709   1.12327   -1.000
 3752.00    0.76878   1.13942   -1.000
 3753.00    0.77661   1.15483   -1.000
 3754.00    0.79084   1.16805   -1.000
 3755.00    0.80679   1.17878   -1.000
 3756.00    0.81396   1.18606   -1.000
 3757.00    0.81920   1.18926   -1.000
 3758.00    0.79496   1.18886   -1.000
 3759.00    0.76557   1.18439   -1.000
 3760.00    0.78210   1.17481   -1.000
 3761.00    0.80472   1.16093   -1.000
 3762.00    0.76031   1.14391   -1.000
 3763.00    0.70960   1.12416   -1.000
 3764.00    0.67470   1.10352   -1.000
 3765.00    0.64072   1.08550   -1.000
 3766.00    0.66320   1.07249   -1.000
 3767.00    0.68680   1.06538   -1.000
 3768.00    0.68197   1.06580   -1.000
 3769.00    0.67576   1.07486   -1.000
 3770.00    0.63595   1.09073   -1.000
 3771.00    0.59942   1.11070   -1.000
 3772.00    0.60591   1.13339   -1.000
 3773.00    0.61070   1.15695   -1.000
 3774.00    0.60053   1.17891   -1.000
 3775.00    0.59075   1.19793   -1.000
 3776.00    0.58351   1.21386   -1.000
 3777.00    0.57846   1.22652   -1.000
 3778.00    0.58455   1.23575   -1.000
 3779.00    0.60625   1.24186   -1.000
 3780.00    0.69186   1.24532   -1.000
 3781.00    0.76646   1.24611   -1.000
 3782.00    0.80373   1.24414   -1.000
 3783.00    0.82682   1.23966   -1.000
 3784.00    0.80934   1.23225   -1.000
 3785.00    0.80827   1.22136   -1.000
 3786.00    0.84731   1.20718   -1.000
 3787.00    0.87776   1.18942   -1.000
 3788.00    0.89010   1.16769   -1.000
 3789.00    0.89134   1.14311   -1.000
 3790.00    0.87226   1.11700   -1.000
 3791.00    0.84560   1.09041   -1.000
 3792.00    0.80683   1.06647   -1.000
 3793.00    0.79008   1.04895   -1.000
 3794.00    0.80426   1.03882   -1.000
 3795.00    0.81065   1.03692   -1.000
 3796.00    0.80742   1.04480   -1.000
 3797.00    0.79141   1.06155   -1.000
 3798.00    0.76148   1.08386   -1.000
 3799.00    0.74359   1.10931   -1.000
 3800.00    0.73727   1.13617   -1.000
 3801.00    0.72202   1.16224   -1.000
 3802.00    0.69922   1.18558   -1.000
 3803.00    0.69527   1.20528   -1.000
 3804.00    0.70539   1.22180   -1.000
 3805.00    0.74955   1.23525   -1.000
 3806.00    0.81601   1.24538   -1.000
 3807.00    0.82610   1.25243   -1.000
 3808.00    0.80382   1.25704   -1.000
 3809.00    0.79005   1.25883   -1.000
 3810.00    0.78052   1.25773   -1.000
 3811.00    0.78235   1.25479   -1.000
 3812.00    0.78909   1.24981   -1.000
 3813.00    0.78979   1.24228   -1.000
 3814.00    0.78826   1.23531   -1.000
 3815.00    0.77277   1.23088   -1.000
 3816.00    0.75291   1.22660   -1.000
 3817.00    0.71515   1.22326   -1.000
 3818.00    0.67271   1.22338   -1.000
 3819.00    0.68392   1.22466   -1.000
 3820.00    0.70663   1.22388   -1.000
 3821.00    0.70883   1.22135   -1.000
 3822.00    0.70754   1.21638   -1.000
 3823.00    0.63775   1.20645   -1.000
 3824.00    0.55916   1.19111   -1.000
 3825.00    0.53771   1.17071   -1.000
 3826.00    0.52139   1.14571   -1.000
 3827.00    0.58403   1.11754   -1.000
 3828.00    0.65092   1.08777   -1.000
 3829.00    0.63983   1.05891   -1.000
 3830.00    0.62734   1.03536   -1.000
 3831.00    0.62855   1.01987   -1.000
 3832.00    0.63047   1.01303   -1.000
 3833.00    0.64791   1.01653   -1.000
 3834.00    0.66426   1.03113   -1.000
 3835.00    0.66690   1.05376   -1.000
 3836.00    0.67482   1.08114   -1.000
 3837.00    0.72729   1.11150   -1.000
 3838.00    0.77536   1.14211   -1.000
 3839.00    0.79579   1.17015   -1.000
 3840.00    0.80745   1.19468   -1.000
 3841.00    0.77586   1.21551   -1.000
 3842.00    0.74490   1.23248   -1.000
 3843.00    0.71648   1.24602   -1.000
 3844.00    0.71149   1.25670   -1.000
 3845.00    0.78444   1.26501   -1.000
 3846.00    0.83017   1.27133   -1.000
 3847.00    0.79944   1.27607    0.000
 3848.00    0.78281   1.27962    0.000
 3849.00    0.80002   1.28210    0.000
 3850.00    0.79626   1.28372    0.000
 3851.00    0.74899   1.28487    0.000
 3852.00    0.71047   1.28575    0.000
 3853.00    0.68774   1.28624    0.000
 3854.00    0.68131   1.28661    0.000
 3855.00    0.70057   1.28715    0.000
 3856.00    0.72062   1.28754    0.000
 3857.00    0.74175   1.28759    0.000
 3858.00    0.75216   1.28735    0.000
 3859.00    0.74950   1.28699    0.000
 3860.00    0.74043   1.28621    0.000
 3861.00    0.72446   1.28446    0.000
 3862.00    0.70954   1.28251    0.000
 3863.00    0.69561   1.28100    0.000
 3864.00    0.67111   1.27904    0.000
 3865.00    0.63777   1.27632    0.000
 3866.00    0.60392   1.27429    0.000
 3867.00    0.56969   1.27293    0.000
 3868.00    0.51024   1.27076    0.000
 3869.00    0.43449   1.26809    0.000
 3870.00    0.41995   1.26560    0.000
 3871.00    0.44000   1.26262    0.000
 3872.00    0.47438   1.25793    0.000
 3873.00    0.51580   1.25155    0.000
 3874.00    0.55831   1.24360    0.000
 3875.00    0.60128   1.23301    0.000
 3876.00    0.62396   1.21881    0.000
 3877.00    0.63926   1.20097    0.000
 3878.00    0.66655   1.17934    0.000
 3879.00    0.69754   1.15316    0.000
 3880.00    0.71986   1.12343    0.000
 3881.00    0.73995   1.09232   -1.000
 3882.00    0.75056   1.06096   -1.000
 3883.00    0.75918   1.03195   -1.000
 3884.00    0.80328   1.01014   -1.000
 3885.00    0.85322   0.99773   -1.000
 3886.00    0.84181   0.99469   -1.000
 3887.00    0.82280   1.00299   -1.000
 3888.00    0.81890   1.02251   -1.000
 3889.00    0.81630   1.04883   -1.000
 3890.00    0.77360   1.07893   -1.000
 3891.00    0.72891   1.11133   -1.000
 3892.00    0.73092   1.14274   -1.000
 3893.00    0.73339   1.17062   -1.000
 3894.00    0.71673   1.19471   -1.000
 3895.00    0.70172   1.21508   -1.000
 3896.00    0.72031   1.23161   -1.000
 3897.00    0.73531   1.24483   -1.000
 3898.00    0.70791   1.25563   -1.000
 3899.00    0.67781   1.26433   -1.000
 3900.00    0.62577   1.27121   -1.000
 3901.00    0.58041   1.27685   -1.000
 3902.00    0.57584   1.28148   -1.000
 3903.00    0.56060   1.28516   -1.000
 3904.00    0.49397   1.28810   -1.000
 3905.00    0.44252   1.29049   -1.000
 3906.00    0.45051   1.29227   -1.000
 3907.00    0.47771   1.29358   -1.000
 3908.00    0.56752   1.29445   -1.000
 3909.00    0.64514   1.29476   -1.000
 3910.00    0.68914   1.29450   -1.000
 3911.00    0.72882   1.29371   -1.000
 3912.00    0.75831   1.29224   -1.000
 3913.00    0.77188   1.29000   -1.000
 3914.00    0.75299   1.28711   -1.000
 3915.00    0.74618   1.28381   -1.000
 3916.00    0.76081   1.28029   -1.000
 3917.00    0.77029   1.27641   -1.000
 3918.00    0.77175   1.27287   -1.000
 3919.00    0.77279   1.27038   -1.000
 3920.00    0.77325   1.26828   -1.000
 3921.00    0.78686   1.26691   -1.000
 3922.00    0.81625   1.26741   -1.000
 3923.00    0.85519   1.26889   -1.000
 3924.00    0.90426   1.27041   -1.000
 3925.00    0.92706   1.27314   -1.000
 3926.00    0.92534   1.27645   -1.000
 3927.00    0.92792   1.27883   -1.000
 3928.00    0.93405   1.28112   -1.000
 3929.00    0.91483   1.28357   -1.000
 3930.00    0.87724   1.28545   -1.000
 3931.00    0.83879   1.28708   -1.000
 3932.00    0.79981   1.28895   -1.000
 3933.00    0.78721   1.29091   -1.000
 3934.00    0.78930   1.29272   -1.000
 3935.00    0.81913   1.29445   -1.000
 3936.00    0.86239   1.29593   -1.000
 3937.00    0.87102   1.29706   -1.000
 3938.00    0.86518   1.29773   -1.000
 3939.00    0.86482   1.29787   -1.000
 3940.00    0.86643   1.29777   -1.000
 3941.00    0.89482   1.29743   -1.000
 3942.00    0.93131   1.29664   -1.000
 3943.00    0.86995   1.29574   -1.000
 3944.00    0.78402   1.29483   -1.000
 3945.00    0.82906   1.29343   -1.000
 3946.00    0.90081   1.29167   -1.000
 3947.00    0.93510   1.28975   -1.000
 3948.00    0.96340   1.28720   -1.000
 3949.00    0.97279   1.28395   -1.000
 3950.00    0.97992   1.28018   -1.000
 3951.00    0.99850   1.27554   -1.000
 3952.00    1.01800   1.26956   -1.000
 3953.00    1.02833   1.26230   -1.000
 3954.00    1.03824   1.25339   -1.000
 3955.00    0.98095   1.24182   -1.000
 3956.00    0.92374   1.22740   -1.000
 3957.00    0.91540   1.21016   -1.000
 3958.00    0.90760   1.18909   -1.000
 3959.00    0.90996   1.16372   -1.000
 3960.00    0.91219   1.13545    0.000
 3961.00    0.91307   1.10466    0.000
 3962.00    0.91981   1.07195    0.000
 3963.00    0.97262   1.04084    0.000
 3964.00    1.00455   1.01357    0.000
 3965.00    0.91258   0.99259    0.000
 3966.00    0.83499   0.98169    0.000
 3967.00    0.82492   0.98111    0.000
 3968.00    0.82504   0.99094    0.000
 3969.00    0.86426   1.01184    0.000
 3970.00    0.90055   1.03980    0.000
 3971.00    0.92750   1.07117    0.000
 3972.00    0.95768   1.10481    0.000
 3973.00    0.99662   1.13743    0.000
 3974.00    1.02751   1.16639    0.000
 3975.00    1.03973   1.19156    0.000
 3976.00    1.02792   1.21275    0.000
 3977.00    0.96787   1.22993    0.000
 3978.00    0.92822   1.24382    0.000
 3979.00    0.92429   1.25504    0.000
 3980.00    0.94600   1.26409    0.000
 3981.00    1.00698   1.27145   -1.000
 3982.00    1.02655   1.27757   -1.000
 3983.00    0.99040   1.28266   -1.000
 3984.00    0.97024   1.28681   -1.000
 3985.00    0.96900   1.29027   -1.000
 3986.00    0.96771   1.29311   -1.000
 3987.00    0.96637   1.29535   -1.000
 3988.00    0.96000   1.29715   -1.000
 3989.00    0.94899   1.29849   -1.000
 3990.00    0.98285   1.29954   -1.000
 3991.00    1.05312   1.30053   -1.000
 3992.00    1.06140   1.30118   -1.000
 3993.00    1.02540   1.30164   -1.000
 3994.00    0.99509   1.30222   -1.000
 3995.00    0.96836   1.30249   -1.000
 3996.00    0.99306   1.30230   -1.000
 3997.00    1.04595   1.30195   -1.000
 3998.00    1.06359   1.30119   -1.000
 3999.00    1.06444   1.29982   -1.000
 4000.00    1.03565   1.29795   -1.000
 4001.00    0.99469   1.29581   -1.000
 4002.00    1.00405   1.29367   -1.000
 4003.00    1.03109   1.29140   -1.000
 4004.00    1.06521   1.28956   -1.000
 4005.00    1.10144   1.28889   -1.000
 4006.00    1.06044   1.28886   -1.000
 4007.00    1.00046   1.28951   -1.000
 4008.00    1.03159   1.29135   -1.000
 4009.00    1.08084   1.29355   -1.000
 4010.00    1.04673   1.29534   -1.000
 4011.00    0.99966   1.29676   -1.000
 4012.00    0.98442   1.29725   -1.000
 4013.00    0.97284   1.29597   -1.000
 4014.00    0.97202   1.29261   -1.000
 4015.00    0.97203   1.28710   -1.000
 4016.00    0.95969   1.27918   -1.000
 4017.00    0.94684   1.26860   -1.000
 4018.00    0.98394   1.25656   -1.000
 4019.00    1.02005   1.24451   -1.000
 4020.00    0.99306   1.23246   -1.000
 4021.00    0.97055   1.22281   -1.000
 4022.00    1.02703   1.21869   -1.000
 4023.00    1.08142   1.21837   -1.000
 4024.00    1.11342   1.22198   -1.000
 4025.00    1.13454   1.23175   -1.000
 4026.00    1.07309   1.24399   -1.000
 4027.00    1.01949   1.25615   -1.000
 4028.00    1.01116   1.26934   -1.000
 4029.00    1.00000   1.28147   -1.000
 4030.00    0.97590   1.29086   -1.000
 4031.00    0.94650   1.29852   -1.000
 4032.00    0.89716   1.30438   -1.000
 4033.00    0.86211   1.30836   -1.000
 4034.00    0.87183   1.31128   -1.000
 4035.00    0.87886   1.31318   -1.000
 4036.00    0.87875   1.31425   -1.000
 4037.00    0.87849   1.31500   -1.000
 4038.00    0.87791   1.31539   -1.000
 4039.00    0.89224   1.31554   -1.000
 4040.00    0.93607   1.31568   -1.000
 4041.00    0.97310   1.31587   -1.000
 4042.00    0.99843   1.31616   -1.000
 4043.00    1.01298   1.31642   -1.000
 4044.00    1.01125   1.31682   -1.000
 4045.00    1.00638   1.31732   -1.000
 4046.00    0.99737   1.31765   -1.000
 4047.00    1.00805   1.31798   -1.000
 4048.00    1.04172   1.31831   -1.000
 4049.00    1.07719   1.31848   -1.000
 4050.00    1.11452   1.31860   -1.000
 4051.00    1.10234   1.31862   -1.000
 4052.00    1.04520   1.31863   -1.000
 4053.00    1.00810   1.31856   -1.000
 4054.00    0.98704   1.31817   -1.000
 4055.00    1.01099   1.31775   -1.000
 4056.00    1.06663   1.31720   -1.000
 4057.00    1.09864   1.31618   -1.000
 4058.00    1.11603   1.31500   -1.000
 4059.00    1.12477   1.31360   -1.000
 4060.00    1.12884   1.31175   -1.000
 4061.00    1.09879   1.30960   -1.000
 4062.00    1.05275   1.30719   -1.000
 4063.00    1.02638   1.30473   -1.000
 4064.00    1.00795   1.30218   -1.000
 4065.00    1.00422   1.29999   -1.000
 4066.00    1.00557   1.29856   -1.000
 4067.00    1.02152   1.29725   -1.000
 4068.00    1.04172   1.29681   -1.000
 4069.00    1.02661   1.29743   -1.000
 4070.00    1.00301   1.29758   -1.000
 4071.00    0.99899   1.29826   -1.000
 4072.00    0.99877   1.29973   -1.000
 4073.00    1.03870   1.30020   -1.000
 4074.00    1.08469   1.30062   -1.000
 4075.00    1.08914   1.30147   -1.000
 4076.00    1.08899   1.30120   -1.000
 4077.00    1.08006   1.30031   -1.000
 4078.00    1.07049   1.29930   -1.000
 4079.00    1.08428   1.29715   -1.000
 4080.00    1.09898   1.29401   -1.000
 4081.00    1.08512   1.29030   -1.000
 4082.00    1.07186   1.28582   -1.000
 4083.00    1.08674   1.28010   -1.000
 4084.00    1.09948   1.27337   -1.000
 4085.00    1.07683   1.26602   -1.000
 4086.00    1.05777   1.25668   -1.000
 4087.00    1.07556   1.24492   -1.000
 4088.00    1.08929   1.23124   -1.000
 4089.00    1.07332   1.21393   -1.000
 4090.00    1.05915   1.19233   -1.000
 4091.00    1.05507   1.16734   -1.000
 4092.00    1.05812   1.13868    0.000
 4093.00    1.09304   1.10690    0.000
 4094.00    1.11252   1.07511    0.000
 4095.00    1.07524   1.04571    0.000
 4096.00    1.04159   1.02019    0.000
 4097.00    1.01908   1.00295    0.000
 4098.00    1.00536   0.99682    0.000
 4099.00    1.01462   1.00017    0.000
 4100.00    1.01576   1.01395    0.000
 4101.00    0.99867   1.03793    0.000
 4102.00    0.99377   1.06696    0.000
 4103.00    1.01262   1.09862    0.000
 4104.00    1.02245   1.13144    0.000
 4105.00    1.01695   1.16190    0.000
 4106.00    1.02097   1.18870    0.000
 4107.00    1.03913   1.21167    0.000
 4108.00    1.05376   1.23033    0.000
 4109.00    1.06378   1.24523    0.000
 4110.00    1.08685   1.25663    0.000
 4111.00    1.12494   1.26517    0.000
 4112.00    1.12801   1.27169    0.000
 4113.00    1.09555   1.27635   -1.000
 4114.00    1.10600   1.28018   -1.000
 4115.00    1.15488   1.28330   -1.000
 4116.00    1.15218   1.28595   -1.000
 4117.00    1.10878   1.28967   -1.000
 4118.00    1.08473   1.29320   -1.000
 4119.00    1.07410   1.29642   -1.000
 4120.00    1.06900   1.30089   -1.000
 4121.00    1.06726   1.30482   -1.000
 4122.00    1.06122   1.30767   -1.000
 4123.00    1.05289   1.31068   -1.000
 4124.00    1.08280   1.31323   -1.000
 4125.00    1.13034   1.31475   -1.000
 4126.00    1.16119   1.31604   -1.000
 4127.00    1.18540   1.31754   -1.000
 4128.00    1.15924   1.31861   -1.000
 4129.00    1.11604   1.31945   -1.000
 4130.00    1.09049   1.32049   -1.000
 4131.00    1.06996   1.32102   -1.000
 4132.00    1.06000   1.32076   -1.000
 4133.00    1.05251   1.32003   -1.000
 4134.00    1.05901   1.31848   -1.000
 4135.00    1.06814   1.31554   -1.000
 4136.00    1.06864   1.31228   -1.000
 4137.00    1.06787   1.30933   -1.000
 4138.00    1.09015   1.30558   -1.000
 4139.00    1.11488   1.30295   -1.000
 4140.00    1.09742   1.30295   -1.000
 4141.00    1.07705   1.30311   -1.000
 4142.00    1.09089   1.30467   -1.000
 4143.00    1.10592   1.30892   -1.000
 4144.00    1.10715   1.31284   -1.000
 4145.00    1.10757   1.31652   -1.000
 4146.00    1.08209   1.32095   -1.000
 4147.00    1.06104   1.32439   -1.000
 4148.00    1.10861   1.32678   -1.000
 4149.00    1.15433   1.32918   -1.000
 4150.00    1.18183   1.33101   -1.000
 4151.00    1.19910   1.33213   -1.000
 4152.00    1.14380   1.33340   -1.000
 4153.00    1.08930   1.33458   -1.000
 4154.00    1.03918   1.33531   -1.000
 4155.00    0.99372   1.33607   -1.000
 4156.00    0.96863   1.33680   -1.000
 4157.00    0.95655   1.33710   -1.000
 4158.00    0.99128   1.33727   -1.000
 4159.00    1.09202   1.33739    1.366
 4160.00    1.39195   1.33710    0.272
 4161.00    1.59891   1.33670    0.173
 4162.00    1.56712   1.33644    0.173
 4163.00    1.54893   1.33591    0.173
 4164.00    1.56076   1.33537    0.171
 4165.00    1.56698   1.33538    0.171
 4166.00    1.56243   1.33531    0.171
 4167.00    1.57966   1.33522    0.174
 4168.00    1.63332   1.33584    0.180
 4169.00    1.66500   1.33651    0.183
 4170.00    1.66449   1.33699    0.179
 4171.00    1.64160   1.33781    0.178
 4172.00    1.58989   1.33868    0.182
 4173.00    1.55119   1.33933    0.186
 4174.00    1.52727   1.33996    0.192
 4175.00    1.55557   1.34060    0.192
 4176.00    1.63611   1.34101    0.187
 4177.00    1.64638   1.34123    0.183
 4178.00    1.59459   1.34141    0.180
 4179.00    1.55974   1.34137    0.178
 4180.00    1.53805   1.34114    0.176
 4181.00    1.53814   1.34085    0.173
 4182.00    1.55312   1.34041    0.170
 4183.00    1.57359   1.33998    0.170
 4184.00    1.59734   1.33934    0.171
 4185.00    1.63079   1.33843    0.173
 4186.00    1.66932   1.33746    0.176
 4187.00    1.67748   1.33574    0.174
 4188.00    1.67187   1.33322    0.168
 4189.00    1.66663   1.33008    0.168
 4190.00    1.66154   1.32585    0.170
 4191.00    1.63072   1.32070    0.170
 4192.00    1.59136   1.31523    0.169
 4193.00    1.58074   1.30990    0.168
 4194.00    1.57814   1.30500    0.166
 4195.00    1.60884   1.30162    0.165
 4196.00    1.64719   1.30053    0.164
 4197.00    1.65423   1.30116    0.166
 4198.00    1.65551   1.30393    0.169
 4199.00    1.68083   1.30900    0.167
 4200.00    1.70956   1.31492    0.165
 4201.00    1.62662   1.32117    0.161
 4202.00    1.53229   1.32754    0.156
 4203.00    1.48565   1.33322    0.155
 4204.00    1.44212   1.33791    0.153
 4205.00    1.47484   1.34172    0.154
 4206.00    1.50983   1.34467    0.155
 4207.00    1.50346   1.34672    0.156
 4208.00    1.49936   1.34830    0.158
 4209.00    1.56202   1.34964    0.157
 4210.00    1.62288   1.35049    0.157
 4211.00    1.65748   1.35134    0.156
 4212.00    1.68966   1.35231    0.155
 4213.00    1.69892   1.35294    0.157
 4214.00    1.69822   1.35354    0.159
 4215.00    1.62907   1.35418    0.153
 4216.00    1.56951   1.35452    0.149
 4217.00    1.56091   1.35466    0.149
 4218.00    1.55775   1.35473    0.148
 4219.00    1.57782   1.35464    0.150
 4220.00    1.58979   1.35444    0.150
 4221.00    1.57320   1.35433    0.150
 4222.00    1.55894   1.35427    0.151
 4223.00    1.55160   1.35435    0.153
 4224.00    1.54222   1.35463    0.154
 4225.00    1.52770   1.35491    0.152
 4226.00    1.51210   1.35540    0.151
 4227.00    1.49416   1.35595    0.147
 4228.00    1.47733   1.35629    0.145
 4229.00    1.46259   1.35675    0.146
 4230.00    1.45978   1.35719    0.145
 4231.00    1.47659   1.35739    0.143
 4232.00    1.46067   1.35776    0.143
 4233.00    1.39751   1.35821    0.144
 4234.00    1.36230   1.35851    0.144
 4235.00    1.36257   1.35897    0.143
 4236.00    1.35778   1.35953    0.141
 4237.00    1.34730   1.35998    0.139
 4238.00    1.33933   1.36051    0.138
 4239.00    1.33384   1.36102    0.138
 4240.00    1.36308   1.36138    0.139
 4241.00    1.42255   1.36174    0.141
 4242.00    1.43229   1.36199    0.141
 4243.00    1.40390   1.36210    0.141
 4244.00    1.46229   1.36216    0.144
 4245.00    1.57915   1.36211    0.149
 4246.00    1.60484   1.36206    0.152
 4247.00    1.57670   1.36211    0.153
 4248.00    1.57559   1.36203    0.157
 4249.00    1.58838   1.36211    0.162
 4250.00    1.61748   1.36246    0.163
 4251.00    1.65385   1.36265    0.162
 4252.00    1.61159   1.36298    0.160
 4253.00    1.53917   1.36350    0.157
 4254.00    1.57925   1.36380    0.154
 4255.00    1.65598   1.36410    0.151
 4256.00    1.61007   1.36425    0.151
 4257.00    1.53069   1.36412    0.151
 4258.00    1.57703   1.36394    0.153
 4259.00    1.65155   1.36338    0.155
 4260.00    1.67035   1.36276    0.153
 4261.00    1.67919   1.36221    0.151
 4262.00    1.65837   1.36134    0.152
 4263.00    1.63350   1.36109    0.154
 4264.00    1.55483   1.36105    0.151
 4265.00    1.47092   1.36069    0.148
 4266.00    1.46238   1.36131    0.149
 4267.00    1.45846   1.36210    0.150
 4268.00    1.39954   1.36247    0.148
 4269.00    1.33930   1.36325    0.146
 4270.00    1.31272   1.36401    0.144
 4271.00    1.28794   1.36465    0.142
 4272.00    1.31102   1.36533    0.144
 4273.00    1.33099   1.36593    0.145
 4274.00    1.30816   1.36657    0.145
 4275.00    1.29818   1.36714    0.145
 4276.00    1.40484   1.36767    0.148
 4277.00    1.50180   1.36810    0.150
 4278.00    1.53418   1.36835    0.149
 4279.00    1.56029   1.36863    0.148
 4280.00    1.55396   1.36877    0.148
 4281.00    1.54954   1.36887    0.148
 4282.00    1.55302   1.36909   -2.000
 4283.00    1.56075   1.36920   -2.000
 4284.00    1.58316   1.36938   -2.000
 4285.00    1.60380   1.36970   -2.000
 4286.00    1.61932   1.36992   -2.000
 4287.00    1.62457   1.37017   -2.000
 4288.00    1.60437   1.37049   -2.000
 4289.00    1.60507   1.37071   -2.000
 4290.00    1.65045   1.37088   -2.000
 4291.00    1.68527   1.37108   -2.000
 4292.00    1.70049   1.37100   -2.000
 4293.00    1.69382   1.37083   -2.000
 4294.00    1.65168   1.37071   -2.000
 4295.00    1.62382   1.37033   -2.000
 4296.00    1.61627   1.36993   -2.000
 4297.00    1.62627   1.36953   -2.000
 4298.00    1.65822   1.36905    0.146
 4299.00    1.67381   1.36877    0.146
 4300.00    1.67136   1.36853    0.147
 4301.00    1.65212   1.36824    0.146
 4302.00    1.61654   1.36819    0.144
 4303.00    1.57484   1.36821    0.145
 4304.00    1.52790   1.36823    0.147
 4305.00    1.54231   1.36828    0.148
 4306.00    1.60308   1.36832    0.147
 4307.00    1.64755   1.36834    0.147
 4308.00    1.68118   1.36834    0.147
 4309.00    1.64915   1.36818    0.145
 4310.00    1.57893   1.36795    0.143
 4311.00    1.57946   1.36762    0.141
 4312.00    1.61585   1.36702    0.139
 4313.00    1.62400   1.36636    0.138
 4314.00    1.61976   1.36543    0.136
 4315.00    1.60709   1.36404    0.136
 4316.00    1.59124   1.36250    0.136
 4317.00    1.62554   1.36046    0.137
 4318.00    1.67587   1.35779    0.138
 4319.00    1.68497   1.35471    0.138
 4320.00    1.68306   1.35087    0.138
 4321.00    1.69852   1.34616    0.139
 4322.00    1.71779   1.34053    0.140
 4323.00    1.71738   1.33354    0.142
 4324.00    1.71354   1.32489    0.143
 4325.00    1.68647   1.31420    0.142
 4326.00    1.65633   1.30079    0.140
 4327.00    1.64384   1.28408    0.139
 4328.00    1.63299   1.26381    0.137
 4329.00    1.68894   1.23961    0.137
 4330.00    1.74871   1.21147    0.000
 4331.00    1.73363   1.18114    0.000
 4332.00    1.71704   1.14983    0.000
 4333.00    1.72765   1.11894    0.000
 4334.00    1.73729   1.09210    0.000
 4335.00    1.72354   1.07164    0.000
 4336.00    1.71209   1.05958    0.000
 4337.00    1.73069   1.05774    0.000
 4338.00    1.74635   1.06536    0.000
 4339.00    1.73624   1.08275    0.000
 4340.00    1.72330   1.10840    0.000
 4341.00    1.69209   1.13781    0.000
 4342.00    1.66113   1.16915    0.000
 4343.00    1.63143   1.20089    0.000
 4344.00    1.61848   1.23024    0.000
 4345.00    1.67388   1.25627    0.000
 4346.00    1.71312   1.27896    0.000
 4347.00    1.69774   1.29810    0.000
 4348.00    1.69801   1.31420    0.000
 4349.00    1.74298   1.32757    0.000
 4350.00    1.76908   1.33872    0.000
 4351.00    1.74919   1.34821    0.141
 4352.00    1.74408   1.35608    0.139
 4353.00    1.77004   1.36273    0.140
 4354.00    1.78739   1.36834    0.140
 4355.00    1.78900   1.37308    0.139
 4356.00    1.75919   1.37704    0.138
 4357.00    1.67916   1.38029    0.137
 4358.00    1.64257   1.38315    0.137
 4359.00    1.66687   1.38542    0.136
 4360.00    1.69254   1.38732    0.137
 4361.00    1.71991   1.38904    0.137
 4362.00    1.73250   1.39036    0.138
 4363.00    1.72903   1.39166    0.138
 4364.00    1.70764   1.39279    0.137
 4365.00    1.66907   1.39373    0.135
 4366.00    1.67543   1.39483    0.135
 4367.00    1.71980   1.39579    0.138
 4368.00    1.73461   1.39667    0.139
 4369.00    1.72740   1.39756    0.140
 4370.00    1.73575   1.39835    0.141
 4371.00    1.75428   1.39903    0.141
 4372.00    1.73211   1.39938    0.140
 4373.00    1.68663   1.39942    0.140
 4374.00    1.64351   1.39911    0.139
 4375.00    1.60158   1.39808    0.137
 4376.00    1.65199   1.39635    0.138
 4377.00    1.74225   1.39362    0.140
 4378.00    1.75210   1.39016    0.141
 4379.00    1.73220   1.38656    0.141
 4380.00    1.71947   1.38192    0.142
 4381.00    1.70898   1.37745    0.143
 4382.00    1.66613   1.37462    0.141
 4383.00    1.61481   1.37254    0.138
 4384.00    1.59134   1.37221    0.139
 4385.00    1.57382   1.37357    0.139
 4386.00    1.57361   1.37622    0.138
 4387.00    1.57632   1.38128    0.136
 4388.00    1.63176   1.38673    0.135
 4389.00    1.69392   1.39187    0.135
 4390.00    1.67189   1.39755    0.134
 4391.00    1.64234   1.40242    0.133
 4392.00    1.66970   1.40635    0.134
 4393.00    1.70010   1.40949    0.135
 4394.00    1.72334   1.41183    0.134
 4395.00    1.74624   1.41373    0.133
 4396.00    1.75254   1.41499    0.133
 4397.00    1.75790   1.41578    0.134
 4398.00    1.74288   1.41642    0.135
 4399.00    1.72725   1.41688    0.136
 4400.00    1.70411   1.41730    0.136
 4401.00    1.68240   1.41759    0.136
 4402.00    1.67262   1.41785    0.135
 4403.00    1.66750   1.41821    0.135
 4404.00    1.69155   1.41843    0.136
 4405.00    1.71320   1.41864    0.136
 4406.00    1.72304   1.41881    0.137
 4407.00    1.72656   1.41865    0.137
 4408.00    1.70482   1.41857    0.136
 4409.00    1.69228   1.41848    0.135
 4410.00    1.71028   1.41834    0.133
 4411.00    1.71106   1.41857    0.132
 4412.00    1.66358   1.41887    0.132
 4413.00    1.63749   1.41936    0.132
 4414.00    1.66269   1.42042    0.133
 4415.00    1.68513   1.42143    0.133
 4416.00    1.70186   1.42262    0.133
 4417.00    1.70404   1.42400    0.134
 4418.00    1.68003   1.42509    0.135
 4419.00    1.67636   1.42616    0.135
 4420.00    1.70474   1.42697    0.133
 4421.00    1.71713   1.42757    0.132
 4422.00    1.70745   1.42810    0.130
 4423.00    1.71307   1.42826    0.130
 4424.00    1.73731   1.42833    0.132
 4425.00    1.72980   1.42828    0.133
 4426.00    1.68827   1.42802    0.132
 4427.00    1.69795   1.42766    0.133
 4428.00    1.75606   1.42715    0.134
 4429.00    1.78080   1.42663    0.134
 4430.00    1.77770   1.42590    0.133
 4431.00    1.75968   1.42542    0.132
 4432.00    1.73070   1.42535    0.132
 4433.00    1.70613   1.42517    0.132
 4434.00    1.68441   1.42532    0.131
 4435.00    1.70468   1.42576    0.132
 4436.00    1.74864   1.42656    0.134
 4437.00    1.74138   1.42774    0.135
 4438.00    1.70896   1.42889    0.134
 4439.00    1.72535   1.43007    0.135
 4440.00    1.76245   1.43138    0.137
 4441.00    1.78112   1.43269    0.137
 4442.00    1.79310   1.43382    0.137
 4443.00    1.76808   1.43484    0.135
 4444.00    1.73168   1.43574    0.132
 4445.00    1.75931   1.43642    0.133
 4446.00    1.80334   1.43707    0.134
 4447.00    1.79402   1.43758    0.134
 4448.00    1.77357   1.43785    0.133
 4449.00    1.72513   1.43819    0.133
 4450.00    1.67210   1.43842    0.132
 4451.00    1.66670   1.43858    0.130
 4452.00    1.66718   1.43866    0.128
 4453.00    1.66957   1.43860    0.127
 4454.00    1.67212   1.43842    0.126
 4455.00    1.65489   1.43790    0.127
 4456.00    1.63668   1.43700    0.129
 4457.00    1.62261   1.43548    0.129
 4458.00    1.60878   1.43304    0.128
 4459.00    1.60671   1.42932    0.127
 4460.00    1.60519   1.42456    0.126
 4461.00    1.61503   1.41852    0.000
 4462.00    1.62629   1.41125    0.000
 4463.00    1.65416   1.40316    0.000
 4464.00    1.67608   1.39399    0.000
 4465.00    1.64975   1.38685    0.000
 4466.00    1.63595   1.38260    0.000
 4467.00    1.69844   1.37939    0.000
 4468.00    1.74905   1.37945    0.000
 4469.00    1.74261   1.38257    0.000
 4470.00    1.73602   1.38837    0.000
 4471.00    1.72885   1.39685    0.000
 4472.00    1.72454   1.40492    0.000
 4473.00    1.72956   1.41270    0.000
 4474.00    1.73351   1.42051    0.000
 4475.00    1.73455   1.42708    0.000
 4476.00    1.71388   1.43243    0.000
 4477.00    1.64207   1.43648    0.000
 4478.00    1.60567   1.43994    0.000
 4479.00    1.64139   1.44299    0.000
 4480.00    1.65931   1.44574    0.000
 4481.00    1.64570   1.44824    0.000
 4482.00    1.63508   1.45008    0.123
 4483.00    1.62909   1.45194    0.124
 4484.00    1.64685   1.45350    0.125
 4485.00    1.69696   1.45466    0.125
 4486.00    1.72096   1.45565    0.125
 4487.00    1.71366   1.45630    0.124
 4488.00    1.72036   1.45700    0.124
 4489.00    1.74187   1.45759    0.125
 4490.00    1.72840   1.45813    0.125
 4491.00    1.68233   1.45875    0.124
 4492.00    1.66663   1.45932    0.124
 4493.00    1.67589   1.45999    0.123
 4494.00    1.69196   1.46064    0.124
 4495.00    1.71295   1.46136    0.125
 4496.00    1.73043   1.46216    0.126
 4497.00    1.74569   1.46290    0.126
 4498.00    1.74149   1.46362    0.126
 4499.00    1.72649   1.46431    0.125
 4500.00    1.71814   1.46491    0.125
 4501.00    1.71299   1.46543    0.125
 4502.00    1.73295   1.46581    0.125
 4503.00    1.76338   1.46601    0.125
 4504.00    1.76424   1.46614    0.125
 4505.00    1.75455   1.46614    0.125
 4506.00    1.74162   1.46608    0.125
 4507.00    1.72772   1.46601    0.124
 4508.00    1.68872   1.46588    0.122
 4509.00    1.64344   1.46593    0.119
 4510.00    1.68567   1.46600    0.121
 4511.00    1.74568   1.46613    0.124
 4512.00    1.74544   1.46647    0.124
 4513.00    1.73558   1.46675    0.124
 4514.00    1.71412   1.46716    0.124
 4515.00    1.69128   1.46751    0.123
 4516.00    1.69753   1.46767    0.123
 4517.00    1.70614   1.46790    0.123
 4518.00    1.72812   1.46790    0.123
 4519.00    1.75071   1.46774    0.123
 4520.00    1.70534   1.46751    0.122
 4521.00    1.66081   1.46709    0.122
 4522.00    1.70195   1.46662    0.122
 4523.00    1.73980   1.46614    0.123
 4524.00    1.71612   1.46544    0.122
 4525.00    1.69717   1.46463    0.122
 4526.00    1.73125   1.46354    0.123
 4527.00    1.75896   1.46195    0.123
 4528.00    1.73673   1.45991    0.122
 4529.00    1.71794   1.45694    0.121
 4530.00    1.71952   1.45313    0.122
 4531.00    1.71785   1.44832    0.122
 4532.00    1.70092   1.44253    0.123
 4533.00    1.68967   1.43630    0.123
 4534.00    1.70008   1.42995    0.123
 4535.00    1.70476   1.42445    0.123
 4536.00    1.69118   1.42034    0.123
 4537.00    1.68472   1.41771    0.123
 4538.00    1.69754   1.41755    0.122
 4539.00    1.69635   1.41996    0.122
 4540.00    1.66274   1.42440    0.122
 4541.00    1.65518   1.43055    0.122
 4542.00    1.69984   1.43729    0.122
 4543.00    1.72703   1.44415    0.122
 4544.00    1.72372   1.45101    0.122
 4545.00    1.71104   1.45686    0.123
 4546.00    1.68407   1.46183    0.122
 4547.00    1.67542   1.46605    0.122
 4548.00    1.69139   1.46922    0.122
 4549.00    1.70765   1.47201    0.122
 4550.00    1.72425   1.47442    0.000
 4551.00    1.72962   1.47646    0.000
 4552.00    1.72329   1.47849    0.000
 4553.00    1.70711   1.48026    0.000
 4554.00    1.68188   1.48173    0.000
 4555.00    1.68227   1.48316    0.000
 4556.00    1.70342   1.48422    0.000
 4557.00    1.70935   1.48502    0.000
 4558.00    1.70444   1.48563    0.000
 4559.00    1.70004   1.48589    0.000
 4560.00    1.69597   1.48607    0.000
 4561.00    1.69643   1.48618    0.000
 4562.00    1.69935   1.48627    0.000
 4563.00    1.66060   1.48643    0.000
 4564.00    1.60204   1.48664    0.000
 4565.00    1.63265   1.48698    0.000
 4566.00    1.69983   1.48752    0.000
 4567.00    1.69887   1.48813    0.000
 4568.00    1.67402   1.48879    0.000
 4569.00    1.67824   1.48956    0.000
 4570.00    1.69104   1.49023    0.000
 4571.00    1.71088   1.49092    0.000
 4572.00    1.73245   1.49158    0.000
 4573.00    1.71410   1.49211    0.000
 4574.00    1.68783   1.49263    0.000
 4575.00    1.69465   1.49304    0.000
 4576.00    1.70660   1.49335    0.000
 4577.00    1.70645   1.49368    0.000
 4578.00    1.70492   1.49398    0.000
 4579.00    1.73555   1.49422    0.000
 4580.00    1.76866   1.49450    0.000
 4581.00    1.74295   1.49468    0.000
 4582.00    1.71479   1.49484    0.000
 4583.00    1.73120   1.49503    0.000
 4584.00    1.74700   1.49514    0.000
 4585.00    1.71980   1.49537    0.000
 4586.00    1.69492   1.49541    0.000
 4587.00    1.71057   1.49549    0.000
 4588.00    1.72458   1.49576    0.000
 4589.00    1.72094   1.49609    0.000
 4590.00    1.71798   1.49657    0.000
 4591.00    1.72012   1.49703    0.000
 4592.00    1.71239   1.49745    0.000
 4593.00    1.64786   1.49809    0.000
 4594.00    1.60278   1.49876    0.000
 4595.00    1.64653   1.49943    0.000
 4596.00    1.68092   1.50012    0.000
 4597.00    1.68031   1.50065    0.000
 4598.00    1.68698   1.50134    0.000
 4599.00    1.71642   1.50199    0.000
 4600.00    1.72829   1.50270    0.000
 4601.00    1.69356   1.50341    0.000
 4602.00    1.67646   1.50410    0.000
 4603.00    1.69956   1.50486    0.000
 4604.00    1.72078   1.50554    0.000
 4605.00    1.73829   1.50625    0.000
 4606.00    1.74409   1.50685    0.000
 4607.00    1.72977   1.50742    0.000
 4608.00    1.73545   1.50800    0.000
 4609.00    1.77125   1.50838    0.000
 4610.00    1.77118   1.50872    0.000
 4611.00    1.72365   1.50907    0.000
 4612.00    1.69820   1.50935    0.000
 4613.00    1.69847   1.50970    0.000
 4614.00    1.70133   1.51001    0.000
 4615.00    1.70685   1.51034    0.000
 4616.00    1.72472   1.51081    0.000
 4617.00    1.75378   1.51136    0.000
 4618.00    1.75695   1.51193    0.000
 4619.00    1.73945   1.51250    0.000
 4620.00    1.72463   1.51289    0.000
 4621.00    1.71168   1.51317    0.000
 4622.00    1.71455   1.51328    0.000
 4623.00    1.72715   1.51329    0.000
 4624.00    1.73990   1.51326    0.000
 4625.00    1.75271   1.51307    0.000
 4626.00    1.73359   1.51290    0.000
 4627.00    1.69954   1.51275    0.000
 4628.00    1.69810   1.51275    0.000
 4629.00    1.70982   1.51283    0.000
 4630.00    1.72951   1.51296    0.000
 4631.00    1.75194   1.51313    0.000
 4632.00    1.73630   1.51319    0.000
 4633.00    1.70964   1.51316    0.000
 4634.00    1.70893   1.51307    0.000
 4635.00    1.71445   1.51283    0.000
 4636.00    1.71420   1.51254    0.000
 4637.00    1.71284   1.51181    0.000
 4638.00    1.65445   1.51095    0.000
 4639.00    1.58751   1.51015    0.000
 4640.00    1.64693   1.50914    0.000
 4641.00    1.72026   1.50816    0.000
 4642.00    1.74413   1.50711    0.000
 4643.00    1.76441   1.50636    0.000
 4644.00    1.75139   1.50627    0.000
 4645.00    1.73712   1.50652    0.000
 4646.00    1.74126   1.50735    0.000
 4647.00    1.74580   1.50885    0.000
 4648.00    1.76179   1.51081    0.000
 4649.00    1.77441   1.51325    0.000
 4650.00    1.73196   1.51555    0.000
 4651.00    1.69560   1.51788    0.000
 4652.00    1.72147   1.51993    0.000
 4653.00    1.74119   1.52167    0.000
 4654.00    1.71590   1.52312    0.000
 4655.00    1.69588   1.52408    0.000
 4656.00    1.70529   1.52469    0.000
 4657.00    1.71683   1.52486    0.000
 4658.00    1.73790   1.52488    0.000
 4659.00    1.75194   1.52489    0.000
 4660.00    1.74025   1.52485    0.000
 4661.00    1.73581   1.52491    0.000
 4662.00    1.75358   1.52505    0.000
 4663.00    1.75701   1.52530    0.000
 4664.00    1.72302   1.52564    0.000
 4665.00    1.70482   1.52607    0.000
 4666.00    1.72199   1.52654    0.000
 4667.00    1.72560   1.52686    0.000
 4668.00    1.70285   1.52690    0.000
 4669.00    1.68797   1.52644    0.000
 4670.00    1.68643   1.52551    0.000
 4671.00    1.69350   1.52387    0.000
 4672.00    1.71334   1.52130    0.000
 4673.00    1.71930   1.51752    0.000
 4674.00    1.70713   1.51237    0.000
 4675.00    1.70430   1.50574    0.000
 4676.00    1.71220   1.49759    0.000
 4677.00    1.72738   1.48912    0.000
 4678.00    1.74995   1.48113    0.000
 4679.00    1.74522   1.47382    0.000
 4680.00    1.71608   1.46777    0.000
 4681.00    1.69826   1.46316    0.000
 4682.00    1.68935   1.46236    0.000
 4683.00    1.68811   1.46647    0.000
 4684.00    1.69219   1.47294    0.000
 4685.00    1.68414   1.48088    0.000
 4686.00    1.66872   1.49009    0.000
 4687.00    1.67355   1.49918    0.000
 4688.00    1.68912   1.50850    0.000
 4689.00    1.67522   1.51652    0.000
 4690.00    1.64776   1.52325    0.000
 4691.00    1.62962   1.52856    0.000
 4692.00    1.61518   1.53214    0.000
 4693.00    1.63751   1.53475    0.000
 4694.00    1.67225   1.53630    0.000
 4695.00    1.68702   1.53732    0.000
 4696.00    1.69612   1.53800    0.000
 4697.00    1.69609   1.53839    0.000
 4698.00    1.69392   1.53850    0.000
 4699.00    1.64013   1.53843    0.000
 4700.00    1.57662   1.53822    0.000
 4701.00    1.62737   1.53753    0.000
 4702.00    1.69474   1.53673    0.000
 4703.00    1.70133   1.53543    0.000
 4704.00    1.70149   1.53388    0.000
 4705.00    1.68340   1.53241    0.000
 4706.00    1.66405   1.53094    0.000
 4707.00    1.67436   1.53013    0.000
 4708.00    1.68567   1.52901    0.000
 4709.00    1.70503   1.52870    0.000
 4710.00    1.72227   1.52992    0.000
 4711.00    1.67055   1.53288    0.000
 4712.00    1.62330   1.53519    0.000
 4713.00    1.64470   1.53848    0.000
 4714.00    1.66192   1.54146    0.000
 4715.00    1.63823   1.54456    0.000
 4716.00    1.62011   1.54744    0.000
 4717.00    1.64129   1.54960    0.000
 4718.00    1.65747   1.55158    0.000
 4719.00    1.64645   1.55267    0.000
 4720.00    1.63870   1.55355    0.000
 4721.00    1.64525   1.55402    0.000
 4722.00    1.65572   1.55430    0.000
 4723.00    1.68026   1.55439    0.000
 4724.00    1.69677   1.55446    0.000
 4725.00    1.68909   1.55462    0.000
 4726.00    1.68003   1.55484    0.000
 4727.00    1.66744   1.55516    0.000
 4728.00    1.66867   1.55553    0.000
 4729.00    1.70040   1.55606    0.000
 4730.00    1.71759   1.55650    0.000
 4731.00    1.70699   1.55711    0.000
 4732.00    1.70717   1.55761    0.000
 4733.00    1.72532   1.55814    0.000
 4734.00    1.72601   1.55871    0.000
 4735.00    1.70114   1.55923    0.000
 4736.00    1.70189   1.55975    0.000
 4737.00    1.73557   1.56024    0.000
 4738.00    1.76326   1.56078    0.000
 4739.00    1.78418   1.56133    0.000
 4740.00    1.81882   1.56187    0.000
 4741.00    1.86717   1.56234    0.000
 4742.00    1.88331   1.56284    0.000
 4743.00    1.87108   1.56328    0.000
 4744.00    1.82523   1.56364    0.000
 4745.00    1.75328   1.56398    0.000
 4746.00    1.72044   1.56422    0.000
 4747.00    1.71429   1.56447    0.000
 4748.00    1.70668   1.56459    0.000
 4749.00    1.69820   1.56476    0.000
 4750.00    1.68991   1.56489    0.000
 4751.00    1.68172   1.56499    0.000
 4752.00    1.70007   1.56512    0.000
 4753.00    1.73043   1.56520    0.000
 4754.00    1.70060   1.56532    0.000
 4755.00    1.64733   1.56541    0.000
 4756.00    1.63950   1.56549    0.000
 4757.00    1.64672   1.56561    0.000
 4758.00    1.64008   1.56568    0.000
 4759.00    1.62958   1.56584    0.000
 4760.00    1.66039   1.56606    0.000
 4761.00    1.70064   1.56634    0.113
 4762.00    1.70257   1.56671    0.113
 4763.00    1.69748   1.56718    0.113
 4764.00    1.70481   1.56770    0.114
 4765.00    1.71390   1.56827    0.115
 4766.00    1.65641   1.56886    0.113
 4767.00    1.59217   1.56941    0.111
 4768.00    1.62971   1.56992    0.111
 4769.00    1.67383   1.57046    0.110
 4770.00    1.66820   1.57096    0.110
 4771.00    1.66112   1.57137    0.111
 4772.00    1.67611   1.57169    0.110
 4773.00    1.69111   1.57194    0.110
 4774.00    1.70631   1.57217    0.111
 4775.00    1.71647   1.57224    0.112
 4776.00    1.65378   1.57237    0.112
 4777.00    1.59354   1.57246    0.111
 4778.00    1.55631   1.57253    0.109
 4779.00    1.51301   1.57263    0.107
 4780.00    1.42808   1.57275    0.106
 4781.00    1.35367   1.57304    0.105
 4782.00    1.33494   1.57328    0.105
 4783.00    1.31966   1.57369    0.105
 4784.00    1.31911   1.57419    0.105
 4785.00    1.32525   1.57474    0.105
 4786.00    1.35490   1.57538    0.104
 4787.00    1.39221   1.57605    0.104
 4788.00    1.45215   1.57673    0.105
 4789.00    1.50783   1.57738    0.107
 4790.00    1.55282   1.57803    0.109
 4791.00    1.59166   1.57855    0.110
 4792.00    1.61717   1.57903    0.110
 4793.00    1.62849   1.57933    0.109
 4794.00    1.61310   1.57962    0.109
 4795.00    1.61608   1.57980    0.108
 4796.00    1.64926   1.57995    0.108
 4797.00    1.66824   1.58011    0.109
 4798.00    1.66675   1.58020    0.111
 4799.00    1.66395   1.58030    0.111
 4800.00    1.65949   1.58035    0.110
 4801.00    1.65068   1.58044    0.109
 4802.00    1.63701   1.58047    0.109
 4803.00    1.64842   1.58058    0.110
 4804.00    1.68453   1.58063    0.110
 4805.00    1.67569   1.58073    0.109
 4806.00    1.62780   1.58079    0.108
 4807.00    1.60039   1.58091    0.108
 4808.00    1.58866   1.58097    0.110
 4809.00    1.59869   1.58110    0.109
 4810.00    1.62334   1.58122    0.108
 4811.00    1.62993   1.58140    0.108
 4812.00    1.62588   1.58150    0.108
 4813.00    1.63839   1.58159    0.109
 4814.00    1.65941   1.58165    0.111
 4815.00    1.67648   1.58156    0.112
 4816.00    1.69179   1.58148    0.113
 4817.00    1.69513   1.58129    0.112
 4818.00    1.69389   1.58109    0.111
 4819.00    1.67463   1.58076    0.111
 4820.00    1.64952   1.58040    0.111
 4821.00    1.67188   1.58009    0.112
 4822.00    1.70717   1.57967    0.112
 4823.00    1.69995   1.57928    0.112
 4824.00    1.68324   1.57883    0.113
 4825.00    1.66997   1.57840    0.113
 4826.00    1.65732   1.57793    0.114
 4827.00    1.65967   1.57747    0.114
 4828.00    1.66406   1.57685    0.115
 4829.00    1.67630   1.57619    0.116
 4830.00    1.68931   1.57535    0.116
 4831.00    1.65960   1.57432    0.114
 4832.00    1.62730   1.57307    0.112
 4833.00    1.64314   1.57158    0.113
 4834.00    1.66017   1.56982    0.115
 4835.00    1.65998   1.56769    0.114
 4836.00    1.66119   1.56521    0.113
 4837.00    1.69935   1.56234    0.114
 4838.00    1.72874   1.55892    0.115
 4839.00    1.63841   1.55488    0.114
 4840.00    1.56001   1.55003    0.114
 4841.00    1.58948   1.54422    0.114
 4842.00    1.62055   1.53710    0.114
 4843.00    1.66215   1.52838    0.114
 4844.00    1.69766   1.51776    0.114
 4845.00    1.70169   1.50467    0.115
 4846.00    1.70567   1.48890    0.115
 4847.00    1.70946   1.46973    0.115
 4848.00    1.71171   1.44723    0.000
 4849.00    1.70866   1.42141    0.000
 4850.00    1.70802   1.39281    0.000
 4851.00    1.71436   1.36229    0.000
 4852.00    1.71182   1.33084    0.000
 4853.00    1.68727   1.30079    0.000
 4854.00    1.66690   1.27331    0.000
 4855.00    1.65546   1.25151    0.000
 4856.00    1.63634   1.23714    0.000
 4857.00    1.60298   1.23221    0.000
 4858.00    1.58897   1.23673    0.000
 4859.00    1.60628   1.25065    0.000
 4860.00    1.60574   1.27166    0.000
 4861.00    1.57984   1.29810    0.000
 4862.00    1.56646   1.32805    0.000
 4863.00    1.56870   1.35939    0.000
 4864.00    1.58670   1.39047    0.000
 4865.00    1.62203   1.41987    0.000
 4866.00    1.62392   1.44681    0.000
 4867.00    1.59334   1.47025    0.000
 4868.00    1.59226   1.49028    0.000
 4869.00    1.61645   1.50720    0.000
 4870.00    1.62063   1.52135    0.000
 4871.00    1.60972   1.53322    0.000
 4872.00    1.60368   1.54307    0.000
 4873.00    1.60087   1.55140    0.000
 4874.00    1.61716   1.55830    0.000
 4875.00    1.64455   1.56412    0.115
 4876.00    1.61202   1.56906    0.115
 4877.00    1.54917   1.57317    0.113
 4878.00    1.57824   1.57673    0.113
 4879.00    1.64757   1.57969    0.113
 4880.00    1.65007   1.58238    0.113
 4881.00    1.62744   1.58467    0.113
 4882.00    1.63350   1.58684    0.113
 4883.00    1.64871   1.58882    0.113
 4884.00    1.64112   1.59073    0.113
 4885.00    1.62746   1.59257    0.114
 4886.00    1.65836   1.59447    0.116
 4887.00    1.69897   1.59639    0.117
 4888.00    1.66748   1.59826    0.116
 4889.00    1.62348   1.60018    0.114
 4890.00    1.65697   1.60188    0.114
 4891.00    1.70067   1.60353    0.113
 4892.00    1.71951   1.60493    0.112
 4893.00    1.73604   1.60614    0.112
 4894.00    1.71725   1.60712    0.112
 4895.00    1.69646   1.60798    0.112
 4896.00    1.67305   1.60869    0.114
 4897.00    1.64967   1.60921    0.117
 4898.00    1.63745   1.60969    0.115
 4899.00    1.62511   1.61009    0.113
 4900.00    1.61013   1.61043    0.113
 4901.00    1.59859   1.61074    0.112
 4902.00    1.63153   1.61093    0.111
 4903.00    1.65982   1.61108    0.111
 4904.00    1.64769   1.61098    0.110
 4905.00    1.63584   1.61084    0.110
 4906.00    1.62579   1.61016    0.110
 4907.00    1.61849   1.60928    0.110
 4908.00    1.62504   1.60761    0.111
 4909.00    1.63517   1.60552    0.111
 4910.00    1.65987   1.60253    0.112
 4911.00    1.67577   1.59884    0.113
 4912.00    1.66196   1.59472    0.111
 4913.00    1.65184   1.58970    0.110
 4914.00    1.65219   1.58557    0.112
 4915.00    1.64845   1.58039    0.112
 4916.00    1.63480   1.57781    0.112
 4917.00    1.62172   1.57563    0.111
 4918.00    1.60987   1.57673    0.111
 4919.00    1.61467   1.57811    0.111
 4920.00    1.64985   1.58216    0.111
 4921.00    1.66486   1.58657    0.110
 4922.00    1.64768   1.59196    0.110
 4923.00    1.63175   1.59766    0.111
 4924.00    1.61756   1.60275    0.112
 4925.00    1.61426   1.60779    0.112
 4926.00    1.62438   1.61170    0.110
 4927.00    1.62842   1.61516    0.109
 4928.00    1.62585   1.61728    0.109
 4929.00    1.64231   1.61904    0.109
 4930.00    1.67700   1.62004    0.110
 4931.00    1.67834   1.62071    0.110
 4932.00    1.65152   1.62109    0.109
 4933.00    1.62546   1.62143    0.109
 4934.00    1.59996   1.62174    0.109
 4935.00    1.58689   1.62222    0.109
 4936.00    1.58194   1.62266    0.108
 4937.00    1.58468   1.62334    0.109
 4938.00    1.59181   1.62407    0.110
 4939.00    1.60004   1.62495    0.110
 4940.00    1.60880   1.62571    0.000
 4941.00    1.62524   1.62663    0.000
 4942.00    1.64498   1.62735    0.000
 4943.00    1.66431   1.62811    0.000
 4944.00    1.68347   1.62865    0.000
 4945.00    1.69616   1.62909    0.000
 4946.00    1.70682   1.62933    0.000
 4947.00    1.70643   1.62940    0.000
 4948.00    1.70317   1.62943    0.000
 4949.00    1.68908   1.62922    0.000
 4950.00    1.67270   1.62911    0.000
 4951.00    1.66339   1.62879    0.000
 4952.00    1.65528   1.62869    0.000
 4953.00    1.64918   1.62872    0.000
 4954.00    1.64333   1.62885    0.000
 4955.00    1.64133   1.62904    0.000
 4956.00    1.63967   1.62929    0.000
 4957.00    1.63833   1.62963    0.000
 4958.00    1.63702   1.62996    0.000
 4959.00    1.64867   1.63028    0.000
 4960.00    1.66009   1.63056    0.000
 4961.00    1.63394   1.63091    0.000
 4962.00    1.60942   1.63122    0.000
 4963.00    1.62032   1.63160    0.000
 4964.00    1.63115   1.63194    0.000
 4965.00    1.64089   1.63235    0.000
 4966.00    1.64917   1.63275    0.000
 4967.00    1.64516   1.63314    0.000
 4968.00    1.63963   1.63347    0.000
 4969.00    1.62461   1.63372    0.000
 4970.00    1.61166   1.63382    0.000
 4971.00    1.60889   1.63384    0.000
 4972.00    1.61038   1.63363    0.000
 4973.00    1.62886   1.63339    0.000
 4974.00    1.64437   1.63297    0.000
 4975.00    1.65005   1.63261    0.000
 4976.00    1.65279   1.63211    0.000
 4977.00    1.64732   1.63185    0.000
 4978.00    1.63577   1.63163    0.000
 4979.00    1.60966   1.63170    0.000
 4980.00    1.59663   1.63180    0.000
 4981.00    1.61063   1.63217    0.000
 4982.00    1.62268   1.63258    0.000
 4983.00    1.63122   1.63306    0.000
 4984.00    1.62591   1.63363    0.000
 4985.00    1.59886   1.63407    0.000
 4986.00    1.59075   1.63463    0.000
 4987.00    1.60878   1.63499    0.000
 4988.00    1.62341   1.63535    0.000
 4989.00    1.63392   1.63554    0.000
 4990.00    1.64510   1.63566    0.000
 4991.00    1.65700   1.63561    0.000
 4992.00    1.65104   1.63539    0.000
 4993.00    1.62823   1.63514    0.000
 4994.00    1.60806   1.63463    0.000
 4995.00    1.59008   1.63429    0.000
 4996.00    1.58232   1.63370    0.000
 4997.00    1.58206   1.63339    0.000
 4998.00    1.59486   1.63282    0.000
 4999.00    1.61607   1.63244    0.000
 5000.00    1.63255   1.63188    0.000
 5001.00    1.64637   1.63135    0.000
 5002.00    1.63227   1.63057    0.000
 5003.00    1.60450   1.62949    0.000
 5004.00    1.60555   1.62816    0.000
 5005.00    1.61880   1.62624    0.000
 5006.00    1.62151   1.62444    0.000
 5007.00    1.62040   1.62161    0.000
 5008.00    1.61902   1.61980    0.000
 5009.00    1.61756   1.61712    0.000
 5010.00    1.60475   1.61628    0.000
 5011.00    1.58905   1.61547    0.000
 5012.00    1.56564   1.61632    0.000
 5013.00    1.54063   1.61721    0.000
 5014.00    1.55129   1.61949    0.000
 5015.00    1.56780   1.62197    0.000
 5016.00    1.59630   1.62495    0.000
 5017.00    1.62628   1.62804    0.000
 5018.00    1.61628   1.63089    0.000
 5019.00    1.60289   1.63364    0.000
 5020.00    1.59989   1.63592    0.000
 5021.00    1.59741   1.63795    0.000
 5022.00    1.62717   1.63942    0.000
 5023.00    1.65641   1.64071    0.000
 5024.00    1.62256   1.64157    0.000
 5025.00    1.59052   1.64227    0.000
 5026.00    1.59454   1.64271    0.000
 5027.00    1.59849   1.64299    0.000
 5028.00    1.60169   1.64298    0.000
 5029.00    1.60550   1.64291    0.111
 5030.00    1.61424   1.64247    0.110
 5031.00    1.62384   1.64211    0.108
 5032.00    1.63863   1.64133    0.109
 5033.00    1.64556   1.64074    0.110
 5034.00    1.61483   1.63988    0.110
 5035.00    1.59392   1.63933    0.110
 5036.00    1.61128   1.63864    0.111
 5037.00    1.61942   1.63823    0.112
 5038.00    1.59765   1.63789    0.112
 5039.00    1.59217   1.63738    0.111
 5040.00    1.63142   1.63748    0.111
 5041.00    1.64990   1.63718    0.110
 5042.00    1.61954   1.63793    0.110
 5043.00    1.59339   1.63795    0.109
 5044.00    1.57581   1.63924    0.109
 5045.00    1.56759   1.63970    0.109
 5046.00    1.57591   1.64128    0.109
 5047.00    1.58071   1.64204    0.109
 5048.00    1.58007   1.64359    0.110
 5049.00    1.57081   1.64454    0.111
 5050.00    1.54983   1.64594    0.111
 5051.00    1.56261   1.64686    0.112
 5052.00    1.61580   1.64797    0.113
 5053.00    1.63294   1.64878    0.113
 5054.00    1.61204   1.64952    0.112
 5055.00    1.61460   1.65012    0.112
 5056.00    1.63902   1.65051    0.112
 5057.00    1.65677   1.65081    0.113
 5058.00    1.66906   1.65098    0.113
 5059.00    1.65081   1.65109    0.112
 5060.00    1.61049   1.65108    0.110
 5061.00    1.61085   1.65109    0.110
 5062.00    1.63700   1.65104    0.110
 5063.00    1.63326   1.65105    0.110
 5064.00    1.61295   1.65100    0.111
 5065.00    1.60682   1.65105    0.112
 5066.00    1.60751   1.65107    0.113
 5067.00    1.59821   1.65113    0.113
 5068.00    1.58475   1.65116    0.112
 5069.00    1.57582   1.65118    0.112
 5070.00    1.56849   1.65122    0.111
 5071.00    1.58484   1.65110    0.112
 5072.00    1.60830   1.65109    0.113
 5073.00    1.61115   1.65099    0.112
 5074.00    1.60886   1.65104    0.111
 5075.00    1.60566   1.65102    0.112
 5076.00    1.60229   1.65119    0.112
 5077.00    1.58586   1.65140    0.112
 5078.00    1.56736   1.65174    0.111
 5079.00    1.54641   1.65217    0.110
 5080.00    1.52517   1.65268    0.109
 5081.00    1.52449   1.65328    0.108
 5082.00    1.52546   1.65386    0.107
 5083.00    1.50235   1.65447    0.106
 5084.00    1.47815   1.65501    0.106
 5085.00    1.45348   1.65551    0.104
 5086.00    1.42927   1.65590    0.102
 5087.00    1.42857   1.65617    0.101
 5088.00    1.42918   1.65632    0.101
 5089.00    1.45400   1.65633    0.101
 5090.00    1.47994   1.65626    0.102
 5091.00    1.51838   1.65609    0.104
 5092.00    1.55405   1.65591    0.106
 5093.00    1.56812   1.65573    0.106
 5094.00    1.58528   1.65555    0.106
 5095.00    1.62056   1.65544    0.107
 5096.00    1.64303   1.65535    0.107
 5097.00    1.60574   1.65537    0.106
 5098.00    1.56759   1.65540    0.106
 5099.00    1.52620   1.65552    0.107
 5100.00    1.49446   1.65561    0.107
 5101.00    1.49343   1.65583    0.104
 5102.00    1.49410   1.65599    0.103
 5103.00    1.49935   1.65626    0.104
 5104.00    1.51059   1.65654    0.105
 5105.00    1.53567   1.65688    0.105
 5106.00    1.55389   1.65728    0.106
 5107.00    1.55838   1.65772    0.107
 5108.00    1.55902   1.65820    0.108
 5109.00    1.55293   1.65866    0.107
 5110.00    1.55054   1.65912    0.106
 5111.00    1.55380   1.65943    0.106
 5112.00    1.55807   1.65972    0.107
 5113.00    1.56370   1.65977    0.108
 5114.00    1.57891   1.65976    0.109
 5115.00    1.60541   1.65954    0.111
 5116.00    1.61458   1.65924    0.111
 5117.00    1.60571   1.65885    0.111
 5118.00    1.58542   1.65840    0.111
 5119.00    1.55465   1.65802    0.111
 5120.00    1.55213   1.65761    0.111
 5121.00    1.57246   1.65744    0.110
 5122.00    1.56857   1.65725    0.109
 5123.00    1.54743   1.65735    0.108
 5124.00    1.52910   1.65743    0.108
 5125.00    1.51254   1.65777    0.110
 5126.00    1.54631   1.65809    0.111
 5127.00    1.60756   1.65850    0.112
 5128.00    1.61889   1.65890    0.113
 5129.00    1.60654   1.65923    0.113
 5130.00    1.59842   1.65956    0.113
 5131.00    1.59203   1.65974    0.112
 5132.00    1.61074   1.65985    0.112
 5133.00    1.63822   1.65986    0.114
 5134.00    1.63145   1.65978    0.113
 5135.00    1.61459   1.65967    0.112
 5136.00    1.63004   1.65945    0.114
 5137.00    1.65337   1.65936    0.115
 5138.00    1.63974   1.65911    0.114
 5139.00    1.61881   1.65909    0.112
 5140.00    1.60511   1.65893    0.112
 5141.00    1.59252   1.65898    0.112
 5142.00    1.53729   1.65898    0.111
 5143.00    1.47720   1.65909    0.109
 5144.00    1.48587   1.65928    0.109
 5145.00    1.49977   1.65946    0.109
 5146.00    1.52843   1.65989    0.111
 5147.00    1.55770   1.66018    0.113
 5148.00    1.57015   1.66083    0.112
 5149.00    1.58165   1.66124    0.111
 5150.00    1.55923   1.66200    0.110
 5151.00    1.53991   1.66248    0.109
 5152.00    1.57416   1.66312    0.110
 5153.00    1.60528   1.66347    0.110
 5154.00    1.60319   1.66372    0.109
 5155.00    1.60214   1.66368    0.108
 5156.00    1.60900   1.66327    0.109
 5157.00    1.61283   1.66266    0.109
 5158.00    1.59930   1.66160    0.107
 5159.00    1.59106   1.66050    0.106
 5160.00    1.60694   1.65904    0.107
 5161.00    1.61806   1.65772    0.108
 5162.00    1.61145   1.65626    0.109
 5163.00    1.60420   1.65515    0.109
 5164.00    1.59491   1.65422    0.108
 5165.00    1.58328   1.65370    0.108
 5166.00    1.56546   1.65351    0.109
 5167.00    1.55588   1.65369    0.109
 5168.00    1.56500   1.65420    0.109
 5169.00    1.57470   1.65492    0.110
 5170.00    1.58557   1.65579    0.111
 5171.00    1.58375   1.65666    0.110
 5172.00    1.56016   1.65748    0.108
 5173.00    1.55054   1.65817    0.107
 5174.00    1.56189   1.65870    0.107
 5175.00    1.56533   1.65911    0.107
 5176.00    1.55831   1.65939    0.105
 5177.00    1.56345   1.65963    0.105
 5178.00    1.58274   1.65989    0.106
 5179.00    1.57613   1.66020    0.107
 5180.00    1.54295   1.66068    0.107
 5181.00    1.50591   1.66118    0.107
 5182.00    1.46537   1.66190    0.106
 5183.00    1.44027   1.66254    0.106
 5184.00    1.42747   1.66334    0.105
 5185.00    1.44028   1.66397    0.106
 5186.00    1.47108   1.66464    0.107
 5187.00    1.49190   1.66517    0.109
 5188.00    1.50658   1.66564    0.109
 5189.00    1.51847   1.66606    0.109
 5190.00    1.52885   1.66633    0.000
 5191.00    1.54712   1.66665    0.000
 5192.00    1.56906   1.66671    0.000
 5193.00    1.58557   1.66686    0.000
 5194.00    1.59989   1.66670    0.000
 5195.00    1.57851   1.66660    0.000
 5196.00    1.54487   1.66621    0.000
 5197.00    1.55806   1.66586    0.000
 5198.00    1.58479   1.66536    0.000
 5199.00    1.57521   1.66493    0.000
 5200.00    1.55696   1.66452    0.000
 5201.00    1.59146   1.66426    0.000
 5202.00    1.63611   1.66420    0.000
 5203.00    1.61540   1.66432    0.000
 5204.00    1.58491   1.66472    0.000
 5205.00    1.57733   1.66530    0.000
 5206.00    1.57226   1.66613    0.000
 5207.00    1.54610   1.66705    0.000
 5208.00    1.51843   1.66811    0.000
 5209.00    1.55719   1.66916    0.000
 5210.00    1.59843   1.67021    0.000
 5211.00    1.61619   1.67114    0.112
 5212.00    1.63256   1.67195    0.111
 5213.00    1.60252   1.67259    0.110
 5214.00    1.57501   1.67302    0.110
 5215.00    1.58859   1.67326    0.110
 5216.00    1.60111   1.67329    0.110
 5217.00    1.60298   1.67319    0.109
 5218.00    1.60215   1.67292    0.108
 5219.00    1.58172   1.67264    0.109
 5220.00    1.56708   1.67231    0.110
 5221.00    1.58469   1.67211    0.108
 5222.00    1.60199   1.67198    0.107
 5223.00    1.61789   1.67205    0.109
 5224.00    1.62825   1.67226    0.110
 5225.00    1.61838   1.67265    0.110
 5226.00    1.60762   1.67319    0.109
 5227.00    1.59413   1.67381    0.108
 5228.00    1.58745   1.67454    0.108
 5229.00    1.59847   1.67529    0.109
 5230.00    1.61160   1.67608    0.109
 5231.00    1.62945   1.67687    0.108
 5232.00    1.63956   1.67759    0.107
 5233.00    1.63467   1.67833    0.105
 5234.00    1.63243   1.67889    0.104
 5235.00    1.63468   1.67948    0.104
 5236.00    1.63709   1.67977    0.105
 5237.00    1.63977   1.68009    0.106
 5238.00    1.63297   1.68008    0.107
 5239.00    1.61384   1.68008    0.106
 5240.00    1.59734   1.67980    0.105
 5241.00    1.58386   1.67952    0.104
 5242.00    1.57613   1.67911    0.104
 5243.00    1.57420   1.67872    0.104
 5244.00    1.57201   1.67837    0.104
 5245.00    1.56959   1.67805    0.106
 5246.00    1.59980   1.67790    0.107
 5247.00    1.65566   1.67777    0.108
 5248.00    1.66126   1.67785    0.108
 5249.00    1.63212   1.67788    0.109
 5250.00    1.60833   1.67804    0.109
 5251.00    1.58777   1.67806    0.107
 5252.00    1.59190   1.67806    0.106
 5253.00    1.60908   1.67783    0.107
 5254.00    1.62115   1.67746    0.107
 5255.00    1.63085   1.67684    0.108
 5256.00    1.64502   1.67608    0.108
 5257.00    1.66096   1.67515    0.109
 5258.00    1.63570   1.67417    0.109
 5259.00    1.59657   1.67316    0.110
 5260.00    1.58789   1.67227    0.110
 5261.00    1.58783   1.67150    0.109
 5262.00    1.58453   1.67099    0.110
 5263.00    1.58047   1.67071    0.112
 5264.00    1.54122   1.67075    0.114
 5265.00    1.49537   1.67103    0.115
 5266.00    1.51331   1.67162    0.114
 5267.00    1.54050   1.67241    0.113
 5268.00    1.56454   1.67341    0.115
 5269.00    1.58825   1.67452    0.117
 5270.00    1.57478   1.67570    0.116
 5271.00    1.55878   1.67690    0.114
 5272.00    1.57914   1.67804    0.115
 5273.00    1.60072   1.67912    0.116
 5274.00    1.61321   1.68009    0.114
 5275.00    1.62491   1.68097    0.113
 5276.00    1.61187   1.68176    0.112
 5277.00    1.60135   1.68249    0.112
 5278.00    1.62908   1.68317    0.110
 5279.00    1.65248   1.68382    0.109
 5280.00    1.63353   1.68445    0.109
 5281.00    1.61647   1.68504    0.109
 5282.00    1.61267   1.68557    0.109
 5283.00    1.60934   1.68600    0.108
 5284.00    1.60860   1.68632    0.107
 5285.00    1.60583   1.68647    0.106
 5286.00    1.59421   1.68646    0.105
 5287.00    1.59519   1.68626    0.105
 5288.00    1.64128   1.68592    0.106
 5289.00    1.67410   1.68546    0.107
 5290.00    1.66706   1.68497    0.107
 5291.00    1.65041   1.68448    0.107
 5292.00    1.60921   1.68407    0.106
 5293.00    1.58673   1.68381    0.105
 5294.00    1.60546   1.68373    0.105
 5295.00    1.61666   1.68385    0.106
 5296.00    1.61349   1.68417    0.107
 5297.00    1.62738   1.68466    0.107
 5298.00    1.66967   1.68527    0.106
 5299.00    1.69409   1.68597    0.105
 5300.00    1.69246   1.68667    0.104
 5301.00    1.67308   1.68734    0.104
 5302.00    1.63092   1.68791    0.104
 5303.00    1.60613   1.68837    0.104
 5304.00    1.60097   1.68867    0.103
 5305.00    1.60487   1.68884    0.103
 5306.00    1.61781   1.68885    0.103
 5307.00    1.62666   1.68875    0.103
 5308.00    1.63190   1.68850    0.104
 5309.00    1.61931   1.68820    0.104
 5310.00    1.59290   1.68779    0.104
 5311.00    1.59509   1.68738    0.104
 5312.00    1.61677   1.68687    0.104
 5313.00    1.60604   1.68638    0.104
 5314.00    1.57597   1.68581    0.106
 5315.00    1.58931   1.68525    0.106
 5316.00    1.62528   1.68462    0.107
 5317.00    1.60486   1.68398    0.107
 5318.00    1.55897   1.68330    0.107
 5319.00    1.55410   1.68265    0.106
 5320.00    1.56518   1.68204    0.106
 5321.00    1.57155   1.68152    0.106
 5322.00    1.57636   1.68118    0.107
 5323.00    1.55948   1.68098    0.106
 5324.00    1.53658   1.68103    0.106
 5325.00    1.54647   1.68125    0.106
 5326.00    1.56384   1.68171    0.106
 5327.00    1.57287   1.68225    0.107
 5328.00    1.58038   1.68292    0.107
 5329.00    1.58100   1.68354    0.107
 5330.00    1.58066   1.68417    0.107
 5331.00    1.58349   1.68465    0.108
 5332.00    1.58665   1.68505    0.109
 5333.00    1.60910   1.68529    0.107
 5334.00    1.63280   1.68547    0.106
 5335.00    1.62230   1.68552    0.106
 5336.00    1.61080   1.68558    0.106
 5337.00    1.60377   1.68560    0.105
 5338.00    1.59727   1.68569    0.103
 5339.00    1.60560   1.68583    0.102
 5340.00    1.61322   1.68606    0.102
 5341.00    1.61061   1.68640    0.103
 5342.00    1.60730   1.68683    0.104
 5343.00    1.59748   1.68740    0.103
 5344.00    1.59036   1.68803    0.102
 5345.00    1.60169   1.68878    0.102
 5346.00    1.60933   1.68954    0.101
 5347.00    1.59753   1.69037    0.101
 5348.00    1.58587   1.69113    0.101
 5349.00    1.57476   1.69188    0.102
 5350.00    1.56786   1.69248    0.102
 5351.00    1.57575   1.69297    0.103
 5352.00    1.58763   1.69327    0.103
 5353.00    1.61130   1.69339    0.102
 5354.00    1.62989   1.69332    0.101
 5355.00    1.63569   1.69305    0.102
 5356.00    1.63340   1.69264    0.102
 5357.00    1.61362   1.69208    0.101
 5358.00    1.60163   1.69144    0.100
 5359.00    1.60429   1.69072    0.100
 5360.00    1.60330   1.69001    0.100
 5361.00    1.59633   1.68931    0.100
 5362.00    1.59592   1.68871    0.101
 5363.00    1.60497   1.68822    0.103
 5364.00    1.61501   1.68788    0.104
 5365.00    1.62633   1.68771    0.104
 5366.00    1.61999   1.68773    0.103
 5367.00    1.59396   1.68793    0.103
 5368.00    1.58836   1.68827   -2.000
 5369.00    1.60286   1.68872   -2.000
 5370.00    1.61440   1.68923   -2.000
 5371.00    1.62339   1.68976   -2.000
 5372.00    1.63171   1.69024   -2.000
 5373.00    1.63954   1.69065   -2.000
 5374.00    1.63802   1.69094   -2.000
 5375.00    1.63023   1.69112   -2.000
 5376.00    1.65396   1.69117   -2.000
 5377.00    1.69624   1.69112   -2.000
 5378.00    1.67631   1.69096   -2.000
 5379.00    1.62446   1.69071   -2.000
 5380.00    1.60895   1.69038   -2.000
 5381.00    1.60958   1.68997   -2.000
 5382.00    1.62428   1.68949   -2.000
 5383.00    1.64434   1.68895    0.105
 5384.00    1.62558   1.68834    0.104
 5385.00    1.59423   1.68767    0.104
 5386.00    1.59548   1.68696    0.103
 5387.00    1.60559   1.68620    0.103
 5388.00    1.59514   1.68539    0.102
 5389.00    1.58011   1.68452    0.101
 5390.00    1.60822   1.68357    0.100
 5391.00    1.64399   1.68249    0.100
 5392.00    1.63812   1.68119    0.100
 5393.00    1.62660   1.67958    0.100
 5394.00    1.63151   1.67753    0.101
 5395.00    1.63801   1.67490    0.103
 5396.00    1.62230   1.67155    0.101
 5397.00    1.60525   1.66738    0.100
 5398.00    1.60810   1.66234    0.100
 5399.00    1.61158   1.65644    0.100
 5400.00    1.63296   1.64987    0.098
 5401.00    1.65280   1.64285    0.098
 5402.00    1.63320   1.63585    0.098
 5403.00    1.61326   1.62926    0.098
 5404.00    1.58875   1.62374    0.098
 5405.00    1.56593   1.61965    0.098
 5406.00    1.55835   1.61752    0.099
 5407.00    1.55168   1.61749    0.099
 5408.00    1.55109   1.61968    0.100
 5409.00    1.55487   1.62382    0.100
 5410.00    1.58110   1.62964    0.100
 5411.00    1.60671   1.63657    0.099
 5412.00    1.62975   1.64411    0.098
 5413.00    1.64024   1.65167    0.098
 5414.00    1.60763   1.65884    0.099
 5415.00    1.58268   1.66526    0.100
 5416.00    1.57988   1.67072    0.099
 5417.00    1.57860   1.67516    0.099
 5418.00    1.58107   1.67858    0.100
 5419.00    1.58650   1.68109    0.100
 5420.00    1.59823   1.68283    0.099
 5421.00    1.60965   1.68395    0.099
 5422.00    1.62051   1.68460    0.101
 5423.00    1.62907   1.68493    0.101
 5424.00    1.63391   1.68506    0.101
 5425.00    1.64202   1.68511    0.102
 5426.00    1.65476   1.68517    0.102
 5427.00    1.65471   1.68528    0.103
 5428.00    1.63872   1.68552    0.103
 5429.00    1.63747   1.68589    0.103
 5430.00    1.65243   1.68640    0.102
 5431.00    1.64910   1.68701    0.102
 5432.00    1.62803   1.68769    0.102
 5433.00    1.63944   1.68837    0.103
 5434.00    1.67860   1.68900    0.103
 5435.00    1.68434   1.68951    0.103
 5436.00    1.66491   1.68988    0.102
 5437.00    1.63102   1.69006    0.101
 5438.00    1.58755   1.69007    0.099
 5439.00    1.57711   1.68991    0.098
 5440.00    1.58580   1.68963    0.098
 5441.00    1.60411   1.68926    0.098
 5442.00    1.62728   1.68884    0.097
 5443.00    1.63044   1.68842    0.097
 5444.00    1.62485   1.68801    0.097
 5445.00    1.61747   1.68767    0.097
 5446.00    1.60941   1.68736    0.097
 5447.00    1.62171   1.68716    0.097
 5448.00    1.64048   1.68699    0.098
 5449.00    1.64130   1.68694    0.097
 5450.00    1.63735   1.68693    0.097
 5451.00    1.61909   1.68703    0.096
 5452.00    1.59772   1.68716    0.096
 5453.00    1.58811   1.68736    0.095
 5454.00    1.58052   1.68755    0.095
 5455.00    1.59711   1.68777    0.096
 5456.00    1.61686   1.68796    0.097
 5457.00    1.62411   1.68812    0.097
 5458.00    1.63020   1.68822    0.097
 5459.00    1.63421   1.68828    0.097
 5460.00    1.63810   1.68828    0.098
 5461.00    1.64062   1.68823    0.098
 5462.00    1.64304   1.68809    0.099
 5463.00    1.63855   1.68791    0.098
 5464.00    1.63391   1.68765    0.098
 5465.00    1.62560   1.68736    0.098
 5466.00    1.61866   1.68700    0.099
 5467.00    1.62930   1.68663    0.099
 5468.00    1.64013   1.68625    0.099
 5469.00    1.65268   1.68590    0.098
 5470.00    1.66251   1.68561    0.098
 5471.00    1.65496   1.68540    0.099
 5472.00    1.64383   1.68529    0.100
 5473.00    1.61478   1.68527    0.099
 5474.00    1.58972   1.68538    0.100
 5475.00    1.58084   1.68555    0.101
 5476.00    1.57838   1.68583    0.103
 5477.00    1.59752   1.68614    0.103
 5478.00    1.61468   1.68651   -2.000
 5479.00    1.62621   1.68685   -2.000
 5480.00    1.63597   1.68722   -2.000
 5481.00    1.64144   1.68752   -2.000
 5482.00    1.64249   1.68783   -2.000
 5483.00    1.63432   1.68806   -2.000
 5484.00    1.62519   1.68828   -2.000
 5485.00    1.61432   1.68843   -2.000
 5486.00    1.58377   1.68858   -2.000
 5487.00    1.52188   1.68867   -2.000
 5488.00    1.48026   1.68875   -2.000
 5489.00    1.46696   1.68877   -2.000
 5490.00    1.47769   1.68878   -2.000
 5491.00    1.51796   1.68873   -2.000
 5492.00    1.56091   1.68865   -2.000
 5493.00    1.60674   1.68853   -2.000
 5494.00    1.63224   1.68835   -2.000
 5495.00    1.63830   1.68816   -2.000
 5496.00    1.64114   1.68787   -2.000
 5497.00    1.64127   1.68764   -2.000
 5498.00    1.63589   1.68728   -2.000
 5499.00    1.62642   1.68704   -2.000
 5500.00    1.61127   1.68667   -2.000
 5501.00    1.59243   1.68646   -2.000
 5502.00    1.58380   1.68615    0.093
 5503.00    1.58101   1.68602    0.093
 5504.00    1.58940   1.68583    0.093
 5505.00    1.60335   1.68581    0.093
 5506.00    1.62090   1.68581    0.094
 5507.00    1.64001   1.68593    0.095
 5508.00    1.63073   1.68614    0.095
 5509.00    1.61099   1.68643    0.095
 5510.00    1.59541   1.68680    0.096
 5511.00    1.58112   1.68721    0.097
 5512.00    1.57386   1.68766    0.096
 5513.00    1.56844   1.68807    0.095
 5514.00    1.57009   1.68844    0.095
 5515.00    1.57323   1.68871    0.096
 5516.00    1.60092   1.68887    0.097
 5517.00    1.63274   1.68892    0.098
 5518.00    1.62367   1.68884    0.098
 5519.00    1.60943   1.68868    0.098
 5520.00    1.60471   1.68844    0.098
 5521.00    1.60084   1.68817    0.097
 5522.00    1.58594   1.68790    0.098
 5523.00    1.57047   1.68766    0.098
 5524.00    1.57002   1.68750    0.097
 5525.00    1.56963   1.68738    0.096
 5526.00    1.55228   1.68738    0.095
 5527.00    1.53713   1.68742    0.095
 5528.00    1.56944   1.68757    0.095
 5529.00    1.60121   1.68773    0.096
 5530.00    1.62641   1.68799    0.097
 5531.00    1.64660   1.68822    0.097
 5532.00    1.62517   1.68851    0.096
 5533.00    1.60539   1.68876    0.095
 5534.00    1.59589   1.68904    0.095
 5535.00    1.58886   1.68926    0.094
 5536.00    1.59392   1.68950    0.094
 5537.00    1.59910   1.68967    0.094
 5538.00    1.60469   1.68987    0.093
 5539.00    1.61070   1.69001    0.105
 5540.00    1.61814   1.69017    0.247
 5541.00    1.62188   1.69028   -1.000
 5542.00    1.61531   1.69041   -1.000
 5543.00    1.61196   1.69048   -1.000
 5544.00    1.61631   1.69055   -1.000
 5545.00    1.61861   1.69055   -1.000
 5546.00    1.61670   1.69053   -1.000
 5547.00    1.61607   1.69045    0.536
 5548.00    1.61773   1.69032    0.141
 5549.00    1.62281   1.69015    0.097
 5550.00    1.63325   1.68992    0.096
 5551.00    1.63361   1.68967    0.095
 5552.00    1.62009   1.68936    0.094
 5553.00    1.60676   1.68906    0.094
 5554.00    1.59367   1.68870    0.094
 5555.00    1.59536   1.68836    0.095
 5556.00    1.61283   1.68797    0.094
 5557.00    1.61971   1.68763    0.094
 5558.00    1.61660   1.68725    0.094
 5559.00    1.61176   1.68694    0.094
 5560.00    1.60548   1.68662    0.095
 5561.00    1.60400   1.68640    0.095
 5562.00    1.60602   1.68618    0.096
 5563.00    1.61031   1.68609    0.095
 5564.00    1.61607   1.68598    0.094
 5565.00    1.60895   1.68603    0.095
 5566.00    1.59461   1.68603    0.095
 5567.00    1.58557   1.68618    0.095
 5568.00    1.57912   1.68623    0.095
 5569.00    1.57747   1.68643    0.094
 5570.00    1.57786   1.68646    0.093
 5571.00    1.59070   1.68660    0.094
 5572.00    1.60806   1.68651    0.095
 5573.00    1.61045   1.68650    0.095
 5574.00    1.60827   1.68618    0.094
 5575.00    1.60678   1.68593    0.094
 5576.00    1.60547   1.68531    0.095
 5577.00    1.61327   1.68478    0.094
 5578.00    1.62295   1.68384    0.094
 5579.00    1.61273   1.68308    0.093
 5580.00    1.59926   1.68190    0.092
 5581.00    1.60430   1.68107    0.093
 5582.00    1.61160   1.67984    0.094
 5583.00    1.61491   1.67915    0.093
 5584.00    1.61788   1.67812    0.093
 5585.00    1.59725   1.67777    0.092
 5586.00    1.57547   1.67717    0.091
 5587.00    1.58606   1.67725    0.091
 5588.00    1.59703   1.67714    0.092
 5589.00    1.60162   1.67758    0.093
 5590.00    1.60535   1.67789    0.093
 5591.00    1.59200   1.67854    0.093
 5592.00    1.58036   1.67907    0.093
 5593.00    1.58843   1.67979    0.095
 5594.00    1.59649   1.68037    0.097
 5595.00    1.60450   1.68109    0.097
 5596.00    1.61214   1.68166    0.097
 5597.00    1.61760   1.68238    0.097
 5598.00    1.62055   1.68293    0.097
 5599.00    1.61161   1.68364    0.098
 5600.00    1.60350   1.68414    0.098
 5601.00    1.59868   1.68476    0.099
 5602.00    1.59376   1.68513    0.099
 5603.00    1.58850   1.68555    0.097
 5604.00    1.58370   1.68567    0.096
 5605.00    1.58012   1.68578    0.095
 5606.00    1.58243   1.68562    0.095
 5607.00    1.59855   1.68544    0.095
 5608.00    1.61438   1.68505    0.096
 5609.00    1.62965   1.68468    0.095
 5610.00    1.63897   1.68420    0.096
 5611.00    1.63777   1.68378    0.102
 5612.00    1.62903   1.68336    0.107
 5613.00    1.60863   1.68301    0.109
 5614.00    1.59125   1.68274    0.110
 5615.00    1.57798   1.68252    0.108
 5616.00    1.56673   1.68242    0.103
 5617.00    1.55788   1.68235    0.095
 5618.00    1.55968   1.68239    0.092
 5619.00    1.57268   1.68247    0.092
 5620.00    1.57950   1.68262    0.091
 5621.00    1.58055   1.68280    0.090
 5622.00    1.58502   1.68302    0.090
 5623.00    1.59228   1.68323    0.090
 5624.00    1.58691   1.68341    0.090
 5625.00    1.57242   1.68356    0.088
 5626.00    1.56769   1.68360    0.087
 5627.00    1.56914   1.68359    0.087
 5628.00    1.57929   1.68340    0.087
 5629.00    1.59427   1.68322    0.088
 5630.00    1.60454   1.68282    0.089
 5631.00    1.61255   1.68251    0.090
 5632.00    1.60229   1.68200    0.090
 5633.00    1.58443   1.68166    0.089
 5634.00    1.58224   1.68119    0.089
 5635.00    1.58563   1.68092    0.088
 5636.00    1.60685   1.68061    0.089
 5637.00    1.63342   1.68046    0.091
 5638.00    1.62917   1.68037    0.090
 5639.00    1.61724   1.68035    0.090
 5640.00    1.60932   1.68043    0.091
 5641.00    1.60220   1.68049    0.092
 5642.00    1.60355   1.68064    0.091
 5643.00    1.60624   1.68072    0.090
 5644.00    1.60852   1.68080    0.091
 5645.00    1.61075   1.68079    0.091
 5646.00    1.61273   1.68071    0.092
 5647.00    1.61469   1.68053    0.092
 5648.00    1.61881   1.68022    0.091
 5649.00    1.62303   1.67989    0.091
 5650.00    1.61872   1.67939    0.092
 5651.00    1.61431   1.67894    0.093
 5652.00    1.61034   1.67838    0.093
 5653.00    1.60551   1.67796    0.092
 5654.00    1.58485   1.67747    0.093
 5655.00    1.56431   1.67718    0.093
 5656.00    1.54517   1.67690    0.092
 5657.00    1.53018   1.67680    0.091
 5658.00    1.54736   1.67677    0.091
 5659.00    1.56473   1.67686    0.090
 5660.00    1.58314   1.67706    0.089
 5661.00    1.59596   1.67728    0.089
 5662.00    1.58272   1.67765    0.089
 5663.00    1.57200   1.67793    0.090
 5664.00    1.57088   1.67836    0.090
 5665.00    1.57128   1.67863    0.090
 5666.00    1.57649   1.67903    0.089
 5667.00    1.58230   1.67922    0.088
 5668.00    1.58968   1.67948    0.088
 5669.00    1.59010   1.67954    0.088
 5670.00    1.57447   1.67962    0.088
 5671.00    1.56684   1.67954    0.088
 5672.00    1.57519   1.67941    0.088
 5673.00    1.58769   1.67923    0.089
 5674.00    1.60738   1.67894    0.090
 5675.00    1.61645   1.67874    0.091
 5676.00    1.60933   1.67838    0.091
 5677.00    1.60229   1.67821    0.091
 5678.00    1.59533   1.67788    0.093
 5679.00    1.59230   1.67781    0.093
 5680.00    1.59389   1.67757    0.093
 5681.00    1.58748   1.67759    0.092
 5682.00    1.57278   1.67746    0.092
 5683.00    1.57801   1.67752    0.092
 5684.00    1.60150   1.67744    0.092
 5685.00    1.61426   1.67747    0.092
 5686.00    1.61836   1.67733    0.092
 5687.00    1.61606   1.67724    0.092
 5688.00    1.60923   1.67701    0.091
 5689.00    1.59939   1.67677    0.090
 5690.00    1.58766   1.67642    0.090
 5691.00    1.59281   1.67603    0.091
 5692.00    1.60715   1.67558    0.091
 5693.00    1.61837   1.67511    0.091
 5694.00    1.62812   1.67461    0.090
 5695.00    1.62953   1.67413    0.090
 5696.00    1.62753   1.67363    0.091
 5697.00    1.62543   1.67314    0.091
 5698.00    1.62329   1.67266    0.091
 5699.00    1.61385   1.67222    0.091
 5700.00    1.60227   1.67182    0.090
 5701.00    1.59283   1.67149    0.090
 5702.00    1.58391   1.67129    0.090
 5703.00    1.58960   1.67112    0.089
 5704.00    1.59817   1.67121    0.088
 5705.00    1.59758   1.67134    0.088
 5706.00    1.59558   1.67171    0.089
 5707.00    1.60353   1.67212    0.089
 5708.00    1.61261   1.67273    0.090
 5709.00    1.60849   1.67334    0.090
 5710.00    1.60336   1.67409    0.090
 5711.00    1.60734   1.67474    0.090
 5712.00    1.61168   1.67547    0.089
 5713.00    1.61769   1.67598    0.089
 5714.00    1.62339   1.67659    0.089
 5715.00    1.61593   1.67686    0.089
 5716.00    1.60944   1.67728    0.090
 5717.00    1.61968   1.67729    0.091
 5718.00    1.62837   1.67748    0.091
 5719.00    1.62070   1.67732    0.090
 5720.00    1.61463   1.67733    0.089
 5721.00    1.62054   1.67712    0.090
 5722.00    1.62582   1.67699    0.091
 5723.00    1.62753   1.67678    0.092
 5724.00    1.63006   1.67661    0.092
 5725.00    1.63638   1.67644    0.092
 5726.00    1.64311   1.67628    0.091
 5727.00    1.65140   1.67613    0.092
 5728.00    1.65761   1.67597    0.092
 5729.00    1.65741   1.67582    0.091
 5730.00    1.65205   1.67561    0.090
 5731.00    1.63310   1.67548    0.090
 5732.00    1.62075   1.67523    0.090
 5733.00    1.62338   1.67516    0.088
 5734.00    1.62193   1.67490    0.087
 5735.00    1.61248   1.67491    0.088
 5736.00    1.61094   1.67469    0.088
 5737.00    1.62293   1.67473    0.088
 5738.00    1.63405   1.67459    0.088
 5739.00    1.64384   1.67458    0.089
 5740.00    1.65176   1.67452    0.000
 5741.00    1.65720   1.67442    0.000
 5742.00    1.65758   1.67440    0.000
 5743.00    1.65209   1.67423    0.000
 5744.00    1.64930   1.67418    0.000
 5745.00    1.64928   1.67396    0.000
 5746.00    1.64631   1.67388    0.000
 5747.00    1.64066   1.67373    0.000
 5748.00    1.64205   1.67364    0.000
 5749.00    1.64904   1.67361    0.000
 5750.00    1.65365   1.67350    0.000
 5751.00    1.65659   1.67355    0.000
 5752.00    1.65455   1.67345    0.000
 5753.00    1.64946   1.67353    0.000
 5754.00    1.64001   1.67345    0.000
 5755.00    1.62823   1.67356    0.000
 5756.00    1.62203   1.67352    0.000
 5757.00    1.61843   1.67369    0.000
 5758.00    1.61719   1.67370    0.000
 5759.00    1.61690   1.67386    0.000
 5760.00    1.62512   1.67387    0.000
 5761.00    1.63624   1.67399    0.000
 5762.00    1.64330   1.67394    0.000
 5763.00    1.64918   1.67394    0.000
 5764.00    1.63562   1.67380    0.000
 5765.00    1.61743   1.67360    0.000
 5766.00    1.63712   1.67332    0.000
 5767.00    1.66408   1.67291    0.000
 5768.00    1.66537   1.67245    0.000
 5769.00    1.66285   1.67185    0.000
 5770.00    1.65733   1.67123    0.000
 5771.00    1.65148   1.67047    0.000
 5772.00    1.66254   1.66972    0.000
 5773.00    1.67481   1.66890    0.000
 5774.00    1.67168   1.66809    0.000
 5775.00    1.66797   1.66736    0.000
 5776.00    1.67555   1.66674    0.000
 5777.00    1.68283   1.66620    0.000
 5778.00    1.67764   1.66582    0.000
 5779.00    1.67225   1.66557    0.000
 5780.00    1.66358   1.66556    0.000
 5781.00    1.65452   1.66559    0.000
 5782.00    1.64141   1.66582    0.000
 5783.00    1.63056   1.66608    0.000
 5784.00    1.63608   1.66636    0.000
 5785.00    1.63984   1.66677    0.000
 5786.00    1.63384   1.66705    0.000
 5787.00    1.63289   1.66740    0.000
 5788.00    1.65436   1.66760    0.000
 5789.00    1.67412   1.66774    0.000
 5790.00    1.68764   1.66786    0.000
 5791.00    1.68956   1.66772   -2.000
 5792.00    1.65604   1.66790   -2.000
 5793.00    1.62303   1.66756   -2.000
 5794.00    1.59134   1.66774   -2.000
 5795.00    1.57050   1.66737   -2.000
 5796.00    1.57390   1.66765   -2.000
 5797.00    1.58121   1.66733   -2.000
 5798.00    1.59609   1.66755   -2.000
 5799.00    1.61101   1.66739   -2.000
 5800.00    1.62599   1.66751   -2.000
 5801.00    1.63288   1.66749   -2.000
 5802.00    1.62779   1.66747   -2.000
 5803.00    1.63117   1.66760   -2.000
 5804.00    1.64553   1.66740   -2.000
 5805.00    1.64947   1.66768   -2.000
 5806.00    1.64145   1.66742   -2.000
 5807.00    1.63176   1.66791   -2.000
 5808.00    1.62040   1.66770   -2.000
 5809.00    1.61813   1.66829   -2.000
 5810.00    1.62396   1.66826   -2.000
 5811.00    1.62372   1.66890    0.000
 5812.00    1.61873   1.66909    0.000
 5813.00    1.61968   1.66970    0.000
 5814.00    1.62473   1.67006    0.000
 5815.00    1.63304   1.67055    0.000
 5816.00    1.64331   1.67099    0.000
 5817.00    1.64442   1.67129    0.000
 5818.00    1.64067   1.67174    0.000
 5819.00    1.63776   1.67185    0.000
 5820.00    1.63522   1.67215    0.000
 5821.00    1.64573   1.67207    0.000
 5822.00    1.66140   1.67212    0.000
 5823.00    1.66409   1.67190    0.000
 5824.00    1.66243   1.67173    0.000
 5825.00    1.66769   1.67144    0.000
 5826.00    1.67490   1.67113    0.000
 5827.00    1.67115   1.67082    0.000
 5828.00    1.66486   1.67045    0.000
 5829.00    1.66193   1.67019    0.000
 5830.00    1.65962   1.66984    0.000
 5831.00    1.66382   1.66964    0.000
 5832.00    1.66896   1.66934    0.000
 5833.00    1.66574   1.66917    0.000
 5834.00    1.66165   1.66890    0.000
 5835.00    1.63517   1.66874    0.000
 5836.00    1.60718   1.66843    0.000
 5837.00    1.60439   1.66818    0.000
 5838.00    1.60244   1.66778    0.000
 5839.00    1.61525   1.66740    0.000
 5840.00    1.62788   1.66690    0.000
 5841.00    1.63421   1.66639    0.000
 5842.00    1.64077   1.66580    0.000
 5843.00    1.65072   1.66520    0.000
 5844.00    1.65982   1.66458    0.000
 5845.00    1.66066   1.66391    0.000
 5846.00    1.66159   1.66329    0.000
 5847.00    1.66319   1.66264    0.000
 5848.00    1.66378   1.66210    0.000
 5849.00    1.65893   1.66156    0.000
 5850.00    1.65073   1.66115    0.000
 5851.00    1.62806   1.66073    0.000
 5852.00    1.60945   1.66040    0.000
 5853.00    1.60533   1.66009    0.000
 5854.00    1.60035   1.65975    0.000
 5855.00    1.59281   1.65941    0.000
 5856.00    1.58843   1.65875    0.000
 5857.00    1.59213   1.65802    0.000
 5858.00    1.60350   1.65673    0.000
 5859.00    1.63175   1.65505    0.000
 5860.00    1.65021   1.65280    0.000
 5861.00    1.65002   1.64952    0.000
 5862.00    1.65076   1.64620    0.000
 5863.00    1.65306   1.64100    0.000
 5864.00    1.65061   1.63687    0.000
 5865.00    1.64125   1.63012    0.000
 5866.00    1.63663   1.62570    0.000
 5867.00    1.63808   1.61893    0.000
 5868.00    1.63705   1.61443    0.000
 5869.00    1.63323   1.61034    0.000
 5870.00    1.63256   1.60595    0.000
 5871.00    1.63505   1.60722    0.000
 5872.00    1.63348   1.60540    0.000
 5873.00    1.62835   1.61140    0.000
 5874.00    1.63200   1.61138    0.000
 5875.00    1.64244   1.61786    0.000
 5876.00    1.64027   1.62006    0.000
 5877.00    1.62954   1.62544    0.000
 5878.00    1.62608   1.62839    0.000
 5879.00    1.62697   1.63161    0.000
 5880.00    1.62885   1.63393    0.000
 5881.00    1.63123   1.63508    0.000
 5882.00    1.63676   1.63612    0.000
 5883.00    1.64370   1.63586    0.000
 5884.00    1.64196   1.63581    0.000
 5885.00    1.63686   1.63514    0.000
 5886.00    1.62403   1.63497    0.000
 5887.00    1.60866   1.63495    0.000
 5888.00    1.59401   1.63493    0.000
 5889.00    1.57957   1.63544    0.000
 5890.00    1.56175   1.63597    0.000
 5891.00    1.54317   1.63695    0.000
 5892.00    1.53306   1.63835    0.000
 5893.00    1.52449   1.64001    0.000
 5894.00    1.54026   1.64173    0.000
 5895.00    1.55942   1.64344    0.000
 5896.00    1.55717   1.64527    0.000
 5897.00    1.55277   1.64683    0.000
 5898.00    1.55053   1.64844    0.000
 5899.00    1.54843   1.64967    0.000
 5900.00    1.56570   1.65090    0.000
 5901.00    1.58351   1.65170    0.088
 5902.00    1.58872   1.65250    0.088
 5903.00    1.59361   1.65293    0.088
 5904.00    1.58956   1.65330    0.087
 5905.00    1.58647   1.65339    0.085
 5906.00    1.59711   1.65350    0.085
 5907.00    1.60766   1.65338    0.086
 5908.00    1.61742   1.65331    0.086
 5909.00    1.62401   1.65306    0.086
 5910.00    1.60908   1.65299    0.084
 5911.00    1.59811   1.65283    0.083
 5912.00    1.60796   1.65279    0.083
 5913.00    1.61621   1.65277    0.083
 5914.00    1.61770   1.65270    0.083
 5915.00    1.61893   1.65280    0.083
 5916.00    1.61925   1.65275    0.083
 5917.00    1.62061   1.65283    0.083
 5918.00    1.62503   1.65280    0.083
 5919.00    1.62872   1.65284    0.083
 5920.00    1.63056   1.65281    0.084
 5921.00    1.63061   1.65275    0.084
 5922.00    1.62679   1.65270    0.084
 5923.00    1.62120   1.65250    0.084
 5924.00    1.61227   1.65245    0.083
 5925.00    1.60944   1.65219    0.083
 5926.00    1.61656   1.65213    0.084
 5927.00    1.61619   1.65194    0.085
 5928.00    1.60505   1.65180    0.085
 5929.00    1.59530   1.65164    0.086
 5930.00    1.58729   1.65139    0.087
 5931.00    1.58708   1.65135    0.087
 5932.00    1.59555   1.65108    0.087
 5933.00    1.59908   1.65104    0.087
 5934.00    1.59776   1.65076    0.086
 5935.00    1.59781   1.65069    0.086
 5936.00    1.59904   1.65038    0.086
 5937.00    1.60337   1.65029    0.086
 5938.00    1.61006   1.65014    0.086
 5939.00    1.60927   1.64995    0.086
 5940.00    1.60347   1.64988    0.085
 5941.00    1.59969   1.64959    0.084
 5942.00    1.59709   1.64953    0.084
 5943.00    1.60720   1.64919    0.084
 5944.00    1.62380   1.64905    0.085
 5945.00    1.63042   1.64878    0.085
 5946.00    1.63262   1.64867    0.085
 5947.00    1.62005   1.64844    0.084
 5948.00    1.60185   1.64831    0.083
 5949.00    1.60287   1.64826    0.082
 5950.00    1.61012   1.64826    0.083
 5951.00    1.62345   1.64831    0.083
 5952.00    1.63844   1.64837    0.083
 5953.00    1.63875   1.64861    0.083
 5954.00    1.63580   1.64879    0.084
 5955.00    1.63156   1.64917    0.083
 5956.00    1.62708   1.64936    0.083
 5957.00    1.62530   1.64969    0.082
 5958.00    1.62389   1.64990    0.082
 5959.00    1.63004   1.65008    0.084
 5960.00    1.63691   1.65023    0.086
 5961.00    1.64009   1.65024    0.085
 5962.00    1.64306   1.65029    0.085
 5963.00    1.65909   1.65018    0.086
 5964.00    1.67534   1.65002    0.087
 5965.00    1.67363   1.64978    0.086
 5966.00    1.67109   1.64942    0.085
 5967.00    1.64744   1.64900    0.086
 5968.00    1.62458   1.64849    0.087
 5969.00    1.61240   1.64793    0.086
 5970.00    1.60247   1.64736    0.084
 5971.00    1.61267   1.64674    0.085
 5972.00    1.62424   1.64623    0.085
 5973.00    1.64479   1.64564    0.084
 5974.00    1.65965   1.64529    0.084
 5975.00    1.64535   1.64490    0.083
 5976.00    1.63304   1.64475    0.082
 5977.00    1.62891   1.64455    0.082
 5978.00    1.62409   1.64450    0.082
 5979.00    1.61689   1.64444    0.081
 5980.00    1.60893   1.64452    0.080
 5981.00    1.59872   1.64464    0.082
 5982.00    1.58819   1.64481    0.083
 5983.00    1.57684   1.64496    0.083
 5984.00    1.57286   1.64515    0.083
 5985.00    1.58455   1.64526    0.083
 5986.00    1.59816   1.64537    0.083
 5987.00    1.61532   1.64542    0.083
 5988.00    1.62777   1.64542    0.083
 5989.00    1.63263   1.64539    0.083
 5990.00    1.63655   1.64523    0.083
 5991.00    1.63912   1.64507    0.084
 5992.00    1.64043   1.64475    0.085
 5993.00    1.64017   1.64447    0.085
 5994.00    1.63845   1.64410    0.085
 5995.00    1.63512   1.64377    0.085
 5996.00    1.63684   1.64341    0.085
 5997.00    1.64345   1.64302    0.085
 5998.00    1.64469   1.64265    0.085
 5999.00    1.64134   1.64234    0.085
 6000.00    1.63036   1.64201    0.085
 6001.00    1.61365   1.64177    0.084
 6002.00    1.59712   1.64147    0.083
 6003.00    1.58070   1.64128    0.082
 6004.00    1.57886   1.64104    0.082
 6005.00    1.58544   1.64097    0.082
 6006.00    1.59066   1.64077    0.082
 6007.00    1.59519   1.64071    0.081
 6008.00    1.59404   1.64052    0.081
 6009.00    1.59041   1.64043    0.081
 6010.00    1.59432   1.64033    0.081
 6011.00    1.60105   1.64022    0.082
 6012.00    1.60785   1.64021    0.082
 6013.00    1.61467   1.64012    0.083
 6014.00    1.61979   1.64018    0.083
 6015.00    1.62446   1.64015    0.084
 6016.00    1.62609   1.64031    0.084
 6017.00    1.62706   1.64035    0.084
 6018.00    1.62992   1.64057    0.084
 6019.00    1.63311   1.64071    0.084
 6020.00    1.62103   1.64094    0.085
 6021.00    1.60696   1.64117    0.085
 6022.00    1.59732   1.64135    0.097
 6023.00    1.58809   1.64159    0.113
 6024.00    1.60160   1.64176    0.115
 6025.00    1.61638   1.64190    0.116
 6026.00    1.62010   1.64205    0.116
 6027.00    1.62350   1.64210    0.115
 6028.00    1.61949   1.64222    0.097
 6029.00    1.61562   1.64221    0.085
 6030.00    1.61510   1.64227    0.085
 6031.00    1.61461   1.64226    0.084
 6032.00    1.61453   1.64224    0.083
 6033.00    1.61514   1.64225    0.083
 6034.00    1.62162   1.64222    0.082
 6035.00    1.62559   1.64224    0.081
 6036.00    1.61358   1.64224    0.080
 6037.00    1.60151   1.64226    0.079
 6038.00    1.58907   1.64231    0.079
 6039.00    1.57774   1.64231    0.080
 6040.00    1.57093   1.64235    0.080
 6041.00    1.56751   1.64229    0.080
 6042.00    1.57547   1.64226    0.080
 6043.00    1.58563   1.64213    0.081
 6044.00    1.60205   1.64199    0.081
 6045.00    1.61588   1.64180    0.081
 6046.00    1.62344   1.64155    0.082
 6047.00    1.63098   1.64130    0.082
 6048.00    1.63849   1.64096    0.083
 6049.00    1.64284   1.64064    0.084
 6050.00    1.64145   1.64024    0.083
 6051.00    1.63564   1.63988    0.083
 6052.00    1.62282   1.63949    0.084
 6053.00    1.61145   1.63917    0.084
 6054.00    1.60210   1.63884    0.083
 6055.00    1.60083   1.63860    0.084
 6056.00    1.60949   1.63832    0.084
 6057.00    1.61570   1.63816    0.085
 6058.00    1.61929   1.63795    0.085
 6059.00    1.61317   1.63785    0.085
 6060.00    1.59779   1.63775    0.084
 6061.00    1.58943   1.63770    0.083
 6062.00    1.58699   1.63778    0.082
 6063.00    1.59609   1.63776    0.082
 6064.00    1.61374   1.63789    0.083
 6065.00    1.62657   1.63784    0.083
 6066.00    1.63626   1.63782    0.082
 6067.00    1.63660   1.63772    0.081
 6068.00    1.63160   1.63748    0.080
 6069.00    1.62383   1.63729    0.079
 6070.00    1.61468   1.63696    0.079
 6071.00    1.60622   1.63658    0.079
 6072.00    1.59806   1.63620    0.080
 6073.00    1.60729   1.63574    0.081
 6074.00    1.62291   1.63532    0.081
 6075.00    1.64246   1.63488    0.081
 6076.00    1.66324   1.63444    0.081
 6077.00    1.66680   1.63410    0.082
 6078.00    1.66590   1.63373    0.083
 6079.00    1.66430   1.63348    0.083
 6080.00    1.66256   1.63320    0.083
 6081.00    1.65205   1.63309    0.084
 6082.00    1.64007   1.63289    0.084
 6083.00    1.62364   1.63279    0.084
 6084.00    1.60665   1.63271    0.084
 6085.00    1.60488   1.63261    0.084
 6086.00    1.60443   1.63258    0.085
 6087.00    1.61306   1.63248    0.084
 6088.00    1.62215   1.63241    0.084
 6089.00    1.63535   1.63234    0.083
 6090.00    1.64842   1.63226    0.082
 6091.00    1.64622   1.63212    0.083
 6092.00    1.64457   1.63198    0.083
 6093.00    1.65462   1.63177    0.083
 6094.00    1.66354   1.63153    0.082
 6095.00    1.65873   1.63129    0.082
 6096.00    1.65265   1.63105    0.082
 6097.00    1.63606   1.63076    0.082
 6098.00    1.62102   1.63051    0.081
 6099.00    1.61559   1.63029    0.081
 6100.00    1.60934   1.63010    0.080
 6101.00    1.59908   1.63009    0.081
 6102.00    1.59140   1.63004    0.082
 6103.00    1.59400   1.62992    0.083
 6104.00    1.59994   1.62985    0.084
 6105.00    1.61685   1.62967    0.084
 6106.00    1.63117   1.62955    0.084
 6107.00    1.63827   1.62929    0.084
 6108.00    1.64249   1.62899    0.084
 6109.00    1.63986   1.62857    0.084
 6110.00    1.63538   1.62825    0.084
 6111.00    1.62714   1.62777    0.085
 6112.00    1.61904   1.62736    0.085
 6113.00    1.61123   1.62680    0.084
 6114.00    1.60609   1.62638    0.084
 6115.00    1.60511   1.62593    0.084
 6116.00    1.60670   1.62566    0.083
 6117.00    1.61182   1.62525    0.082
 6118.00    1.60936   1.62518    0.082
 6119.00    1.59773   1.62501    0.083
 6120.00    1.58830   1.62502    0.083
 6121.00    1.58120   1.62509    0.082
 6122.00    1.58203   1.62501    0.082
 6123.00    1.59033   1.62491    0.082
 6124.00    1.60328   1.62479    0.082
 6125.00    1.62010   1.62459    0.081
 6126.00    1.62667   1.62440    0.080
 6127.00    1.62576   1.62421    0.080
 6128.00    1.62629   1.62389    0.080
 6129.00    1.62774   1.62358    0.080
 6130.00    1.62976   1.62319    0.080
 6131.00    1.63210   1.62295    0.082
 6132.00    1.63117   1.62261    0.083
 6133.00    1.62864   1.62257    0.083
 6134.00    1.62782   1.62249    0.084
 6135.00    1.62770   1.62272    0.085
 6136.00    1.62822   1.62300    0.085
 6137.00    1.62897   1.62321    0.085
 6138.00    1.62910   1.62342    0.085
 6139.00    1.62904   1.62354    0.086
 6140.00    1.62393   1.62383    0.085
 6141.00    1.61755   1.62392    0.085
 6142.00    1.62330   1.62397    0.084
 6143.00    1.63157   1.62381    0.084
 6144.00    1.64588   1.62366    0.085
 6145.00    1.66117   1.62329    0.087
 6146.00    1.65717   1.62289    0.086
 6147.00    1.65082   1.62231    0.084
 6148.00    1.63636   1.62166    0.083
 6149.00    1.62122   1.62092    0.082
 6150.00    1.61805   1.61996    0.080
 6151.00    1.61545   1.61908    0.079
 6152.00    1.60965   1.61789    0.079
 6153.00    1.60376   1.61698    0.079
 6154.00    1.59497   1.61579    0.079
 6155.00    1.58644   1.61479    0.079
 6156.00    1.58299   1.61379    0.079
 6157.00    1.57926   1.61274    0.080
 6158.00    1.57237   1.61191    0.081
 6159.00    1.56741   1.61116    0.082
 6160.00    1.57789   1.61087    0.082
 6161.00    1.58930   1.61053    0.082
 6162.00    1.60629   1.61053    0.083
 6163.00    1.61996   1.61058    0.084
 6164.00    1.61782   1.61071    0.083
 6165.00    1.61287   1.61105    0.082
 6166.00    1.59697   1.61136    0.083
 6167.00    1.58464   1.61189    0.084
 6168.00    1.58380   1.61249    0.083
 6169.00    1.59065   1.61327    0.082
 6170.00    1.61854   1.61381    0.083
 6171.00    1.63903   1.61446    0.083
 6172.00    1.64217   1.61498    0.083
 6173.00    1.64355   1.61548    0.084
 6174.00    1.64140   1.61575    0.084
 6175.00    1.63788   1.61607    0.083
 6176.00    1.63196   1.61621    0.083
 6177.00    1.61850   1.61620    0.082
 6178.00    1.59340   1.61615    0.081
 6179.00    1.57174   1.61586    0.081
 6180.00    1.55475   1.61559    0.080
 6181.00    1.54931   1.61527    0.079
 6182.00    1.55767   1.61497    0.079
 6183.00    1.57427   1.61457    0.079
 6184.00    1.59953   1.61429    0.080
 6185.00    1.61251   1.61407    0.081
 6186.00    1.61411   1.61386    0.082
 6187.00    1.61376   1.61377    0.082
 6188.00    1.61181   1.61365    0.083
 6189.00    1.61238   1.61370    0.083
 6190.00    1.61476   1.61401    0.084
 6191.00    1.61206   1.61417    0.083
 6192.00    1.60614   1.61441    0.082
 6193.00    1.59698   1.61451    0.082
 6194.00    1.58603   1.61478    0.083
 6195.00    1.56216   1.61481    0.085
 6196.00    1.53208   1.61493   -2.000
 6197.00    1.51571   1.61491   -2.000
 6198.00    1.50502   1.61499   -2.000
 6199.00    1.52545   1.61496   -2.000
 6200.00    1.55691   1.61474   -2.000
 6201.00    1.59663   1.61443   -2.000
 6202.00    1.63881   1.61387   -2.000
 6203.00    1.65869   1.61344   -2.000
 6204.00    1.67303   1.61268   -2.000
 6205.00    1.65836   1.61210   -2.000
 6206.00    1.63784   1.61127   -2.000
 6207.00    1.62029   1.61053   -2.000
 6208.00    1.60320   1.60970    0.082
 6209.00    1.60931   1.60893    0.081
 6210.00    1.61814   1.60822    0.081
 6211.00    1.61378   1.60745    0.080
 6212.00    1.60836   1.60702    0.080
 6213.00    1.59859   1.60646    0.080
 6214.00    1.58862   1.60616    0.081
 6215.00    1.58621   1.60574    0.081
 6216.00    1.58405   1.60538    0.081
 6217.00    1.58990   1.60493    0.081
 6218.00    1.59559   1.60456    0.082
 6219.00    1.59830   1.60413    0.083
 6220.00    1.60114   1.60374    0.084
 6221.00    1.60539   1.60323    0.085
 6222.00    1.60933   1.60283    0.085
 6223.00    1.61084   1.60247    0.084
 6224.00    1.61044   1.60205    0.084
 6225.00    1.59883   1.60171    0.083
 6226.00    1.58874   1.60130    0.082
 6227.00    1.58567   1.60098    0.083
 6228.00    1.58359   1.60055    0.083
 6229.00    1.58524   1.60058    0.083
 6230.00    1.59049   1.60034    0.083
 6231.00    1.60711   1.60031    0.083
 6232.00    1.62097   1.60028    0.083
 6233.00    1.62743   1.60009    0.081
 6234.00    1.63053   1.60002    0.080
 6235.00    1.62591   1.59985    0.078
 6236.00    1.61843   1.59985    0.078
 6237.00    1.60526   1.59966    0.078
 6238.00    1.59530   1.59985    0.079
 6239.00    1.59090   1.59982    0.079
 6240.00    1.58564   1.59966    0.080
 6241.00    1.57910   1.59968    0.080
 6242.00    1.57869   1.59956    0.080
 6243.00    1.58647   1.59949    0.080
 6244.00    1.59736   1.59921    0.081
 6245.00    1.61187   1.59921    0.081
 6246.00    1.62135   1.59874    0.082
 6247.00    1.62560   1.59847    0.081
 6248.00    1.62989   1.59815    0.082
 6249.00    1.63422   1.59764    0.082
 6250.00    1.62986   1.59762    0.082
 6251.00    1.61850   1.59736    0.082
 6252.00    1.60620   1.59754    0.082
 6253.00    1.59324   1.59744    0.083
 6254.00    1.59270   1.59766    0.083
 6255.00    1.59988   1.59785    0.084
 6256.00    1.59917   1.59813    0.083
 6257.00    1.59417   1.59884    0.082
 6258.00    1.58412   1.59912    0.083
 6259.00    1.57168   1.59973    0.085
 6260.00    1.56820   1.60014    0.088
 6261.00    1.56838   1.60062    0.092
 6262.00    1.58495   1.60086    0.094
 6263.00    1.60722   1.60114    0.095
 6264.00    1.62103   1.60155    0.094
 6265.00    1.63237   1.60163    0.092
 6266.00    1.63339   1.60184    0.088
 6267.00    1.63192   1.60187    0.083
 6268.00    1.63228   1.60193    0.081
 6269.00    1.63299   1.60192    0.080
 6270.00    1.63557   1.60178    0.081
 6271.00    1.63842   1.60175    0.084
 6272.00    1.63707   1.60159    0.084
 6273.00    1.63524   1.60157    0.084
 6274.00    1.63012   1.60148    0.084
 6275.00    1.62476   1.60138    0.084
 6276.00    1.61701   1.60142    0.084
 6277.00    1.60917   1.60134    0.084
 6278.00    1.59790   1.60139    0.083
 6279.00    1.58674   1.60149    0.082
 6280.00    1.58068   1.60152    0.000
 6281.00    1.57546   1.60156    0.000
 6282.00    1.58432   1.60152    0.000
 6283.00    1.59359   1.60141    0.000
 6284.00    1.60715   1.60139    0.000
 6285.00    1.62022   1.60112    0.000
 6286.00    1.62962   1.60084    0.000
 6287.00    1.63659   1.60042    0.000
 6288.00    1.62984   1.59993    0.000
 6289.00    1.62221   1.59957    0.000
 6290.00    1.61065   1.59893    0.000
 6291.00    1.60099   1.59855    0.000
 6292.00    1.59835   1.59800    0.000
 6293.00    1.59439   1.59749    0.000
 6294.00    1.58627   1.59703    0.000
 6295.00    1.57931   1.59667    0.000
 6296.00    1.57539   1.59638    0.000
 6297.00    1.57697   1.59612    0.000
 6298.00    1.59102   1.59585    0.000
 6299.00    1.60602   1.59558    0.000
 6300.00    1.62286   1.59540    0.000
 6301.00    1.63226   1.59516    0.000
 6302.00    1.62893   1.59500    0.000
 6303.00    1.62311   1.59476    0.000
 6304.00    1.61355   1.59473    0.000
 6305.00    1.60993   1.59450    0.000
 6306.00    1.61413   1.59435    0.000
 6307.00    1.61875   1.59433    0.000
 6308.00    1.62385   1.59406    0.000
 6309.00    1.62319   1.59422    0.000
 6310.00    1.61663   1.59426    0.000
 6311.00    1.60588   1.59456    0.000
 6312.00    1.59134   1.59475    0.000
 6313.00    1.57977   1.59504    0.000
 6314.00    1.57055   1.59569    0.000
 6315.00    1.57097   1.59581    0.000
 6316.00    1.57812   1.59657    0.000
 6317.00    1.58652   1.59693    0.000
 6318.00    1.59569   1.59747    0.000
 6319.00    1.59546   1.59798    0.000
 6320.00    1.59019   1.59815    0.000
 6321.00    1.59532   1.59871    0.080
 6322.00    1.60528   1.59872    0.081
 6323.00    1.61300   1.59900    0.081
 6324.00    1.61982   1.59895    0.082
 6325.00    1.62033   1.59873    0.083
 6326.00    1.61869   1.59865    0.084
 6327.00    1.61798   1.59826    0.083
 6328.00    1.61753   1.59817    0.081
 6329.00    1.61197   1.59771    0.081
 6330.00    1.60521   1.59746    0.081
 6331.00    1.60364   1.59704    0.081
 6332.00    1.60306   1.59654    0.081
 6333.00    1.60486   1.59612    0.081
 6334.00    1.60701   1.59560    0.081
 6335.00    1.60990   1.59555    0.080
 6336.00    1.61286   1.59482    0.080
 6337.00    1.61264   1.59476    0.079
 6338.00    1.61219   1.59429    0.079
 6339.00    1.62029   1.59428    0.079
 6340.00    1.62870   1.59412    0.079
 6341.00    1.63194   1.59376    0.079
 6342.00    1.63508   1.59404    0.078
 6343.00    1.63555   1.59354    0.078
 6344.00    1.63594   1.59374    0.078
 6345.00    1.63507   1.59342    0.079
 6346.00    1.63469   1.59363    0.079
 6347.00    1.63929   1.59351    0.079
 6348.00    1.64352   1.59312    0.080
 6349.00    1.64509   1.59298    0.081
 6350.00    1.64653   1.59248    0.083
 6351.00    1.64727   1.59220    0.083
 6352.00    1.64781   1.59168    0.084
 6353.00    1.64749   1.59140    0.085
 6354.00    1.64213   1.59112    0.085
 6355.00    1.61843   1.59075    0.083
 6356.00    1.59668   1.59058    0.081
 6357.00    1.58087   1.59052    0.082
 6358.00    1.56930   1.59054    0.081
 6359.00    1.56874   1.59070    0.080
 6360.00    1.57293   1.59067    0.080
 6361.00    1.58773   1.59099    0.081
 6362.00    1.59848   1.59118    0.082
 6363.00    1.60141   1.59155    0.081
 6364.00    1.60238   1.59200    0.081
 6365.00    1.60005   1.59218    0.080
 6366.00    1.60459   1.59268    0.079
 6367.00    1.61925   1.59264    0.079
 6368.00    1.63287   1.59291    0.079
 6369.00    1.64514   1.59298    0.080
 6370.00    1.64930   1.59316    0.080
 6371.00    1.64416   1.59332    0.080
 6372.00    1.63631   1.59322    0.080
 6373.00    1.62572   1.59337    0.081
 6374.00    1.61436   1.59320    0.080
 6375.00    1.60233   1.59314    0.079
 6376.00    1.59450   1.59299    0.079
 6377.00    1.58995   1.59289    0.080
 6378.00    1.59154   1.59280    0.081
 6379.00    1.59735   1.59262    0.082
 6380.00    1.60376   1.59253    0.082
 6381.00    1.61054   1.59227    0.081
 6382.00    1.61745   1.59197    0.081
 6383.00    1.62444   1.59152    0.081
 6384.00    1.62092   1.59113    0.080
 6385.00    1.61258   1.59073    0.079
 6386.00    1.60509   1.59028    0.079
 6387.00    1.59792   1.58989    0.078
 6388.00    1.59461   1.58932    0.078
 6389.00    1.59258   1.58878    0.077
 6390.00    1.58936   1.58790    0.077
 6391.00    1.58579   1.58743    0.077
 6392.00    1.58255   1.58700    0.078
 6393.00    1.57938   1.58646    0.079
 6394.00    1.58767   1.58622    0.080
 6395.00    1.59809   1.58560    0.081
 6396.00    1.60433   1.58525    0.082
 6397.00    1.60996   1.58465    0.082
 6398.00    1.61939   1.58436    0.082
 6399.00    1.62922   1.58443    0.083
 6400.00    1.63979   1.58419    0.083
 6401.00    1.65041   1.58431    0.083
 6402.00    1.63731   1.58422    0.083
 6403.00    1.62345   1.58425    0.083
 6404.00    1.60987   1.58440    0.083
 6405.00    1.59691   1.58453    0.083
 6406.00    1.60307   1.58498    0.083
 6407.00    1.60920   1.58529    0.083
 6408.00    1.61502   1.58560    0.081
 6409.00    1.61968   1.58589    0.080
 6410.00    1.61306   1.58620    0.080
 6411.00    1.60611   1.58645    0.080
 6412.00    1.59683   1.58686    0.079
 6413.00    1.59018   1.58720    0.079
 6414.00    1.59777   1.58753    0.078
 6415.00    1.60301   1.58780    0.078
 6416.00    1.59804   1.58795    0.078
 6417.00    1.59500   1.58822    0.078
 6418.00    1.59883   1.58828    0.079
 6419.00    1.60231   1.58856    0.080
 6420.00    1.60475   1.58861    0.079
 6421.00    1.60459   1.58861    0.078
 6422.00    1.59778   1.58858    0.079
 6423.00    1.59583   1.58846    0.081
 6424.00    1.60453   1.58847    0.082
 6425.00    1.61586   1.58833    0.083
 6426.00    1.63216   1.58832    0.083
 6427.00    1.64121   1.58812    0.084
 6428.00    1.63822   1.58794    0.084
 6429.00    1.63545   1.58788    0.085
 6430.00    1.63303   1.58784    0.085
 6431.00    1.62527   1.58793    0.084
 6432.00    1.61070   1.58789    0.082
 6433.00    1.60752   1.58799    0.081
 6434.00    1.61716   1.58785    0.080
 6435.00    1.62629   1.58769    0.079
 6436.00    1.63490   1.58761    0.078
 6437.00    1.63217   1.58748    0.078
 6438.00    1.61949   1.58744    0.079
 6439.00    1.61211   1.58702    0.079
 6440.00    1.60881   1.58659    0.078
 6441.00    1.61172   1.58616    0.078
 6442.00    1.61886   1.58563    0.079
 6443.00    1.61991   1.58539    0.079
 6444.00    1.61734   1.58506    0.079
 6445.00    1.60754   1.58470    0.079
 6446.00    1.59397   1.58428    0.081
 6447.00    1.58034   1.58376    0.081
 6448.00    1.56667   1.58368    0.082
 6449.00    1.55044   1.58370    0.082
 6450.00    1.53321   1.58373    0.082
 6451.00    1.51210   1.58379    0.081
 6452.00    1.48970   1.58357    0.081
 6453.00    1.44648   1.58341    0.080
 6454.00    1.39751   1.58337    0.080
 6455.00    1.35419   1.58334    0.079
 6456.00    1.31215   1.58355    0.079
 6457.00    1.31019   1.58353    0.079
 6458.00    1.31550   1.58350    0.079
 6459.00    1.34421   1.58332    0.086
 6460.00    1.37617   1.58313    0.097
 6461.00    1.41118   1.58322    0.097
 6462.00    1.44650   1.58321    0.095
 6463.00    1.48574   1.58322    0.092
 6464.00    1.52522   1.58319    0.088
 6465.00    1.54801   1.58308    0.083
 6466.00    1.57028   1.58289    0.078
 6467.00    1.57925   1.58267    0.079
 6468.00    1.58809   1.58249    0.079
 6469.00    1.59345   1.58238    0.079
 6470.00    1.59906   1.58219    0.079
 6471.00    1.60799   1.58191    0.081
 6472.00    1.61652   1.58156    0.083
 6473.00    1.62134   1.58116    0.084
 6474.00    1.62487   1.58083    0.085
 6475.00    1.61961   1.58045    0.084
 6476.00    1.61367   1.58012    0.083
 6477.00    1.60414   1.57976    0.082
 6478.00    1.59519   1.57917    0.081
 6479.00    1.58867   1.57847    0.081
 6480.00    1.58396   1.57776    0.080
 6481.00    1.58552   1.57706    0.079
 6482.00    1.58874   1.57627    0.078
 6483.00    1.59678   1.57533    0.078
 6484.00    1.60545   1.57431    0.078
 6485.00    1.61568   1.57323    0.078
 6486.00    1.62155   1.57205    0.079
 6487.00    1.61803   1.57104    0.078
 6488.00    1.61367   1.57026    0.078
 6489.00    1.60773   1.56955    0.079
 6490.00    1.60488   1.56911    0.080
 6491.00    1.60708   1.56863    0.080
 6492.00    1.60908   1.56854    0.081
 6493.00    1.61078   1.56872    0.082
 6494.00    1.60846   1.56900    0.082
 6495.00    1.60107   1.56964    0.081
 6496.00    1.59425   1.57019    0.082
 6497.00    1.58808   1.57089    0.084
 6498.00    1.58550   1.57156    0.084
 6499.00    1.58646   1.57214    0.084
 6500.00    1.59120   1.57275    0.083
 6501.00    1.59921   1.57318    0.082
 6502.00    1.60860   1.57354    0.082
 6503.00    1.61903   1.57375    0.081
 6504.00    1.63056   1.57372    0.081
 6505.00    1.64282   1.57365    0.080
 6506.00    1.64819   1.57337    0.080
 6507.00    1.64951   1.57298    0.080
 6508.00    1.64821   1.57250    0.079
 6509.00    1.64557   1.57185    0.078
 6510.00    1.64342   1.57121    0.077
 6511.00    1.64147   1.57034    0.077
 6512.00    1.63127   1.56959    0.077
 6513.00    1.61792   1.56868    0.078
 6514.00    1.60679   1.56779    0.078
 6515.00    1.59637   1.56691    0.078
 6516.00    1.59746   1.56584    0.079
 6517.00    1.60165   1.56512    0.081
 6518.00    1.60487   1.56407    0.082
 6519.00    1.60788   1.56332    0.082
 6520.00    1.61178   1.56259    0.082
 6521.00    1.61583   1.56183    0.082
 6522.00    1.61845   1.56140    0.082
 6523.00    1.62086   1.56057    0.082
 6524.00    1.62122   1.56018    0.081
 6525.00    1.62138   1.55967    0.080
 6526.00    1.61124   1.55922    0.080
 6527.00    1.60050   1.55889    0.081
 6528.00    1.59432   1.55815    0.000
 6529.00    1.58837   1.55749    0.000
 6530.00    1.59776   1.55649    0.000
 6531.00    1.60730   1.55535    0.000
 6532.00    1.62043   1.55402    0.000
 6533.00    1.63284   1.55221    0.000
 6534.00    1.63574   1.55000    0.000
 6535.00    1.63822   1.54730    0.000
 6536.00    1.63702   1.54401    0.000
 6537.00    1.63634   1.54015    0.000
 6538.00    1.63910   1.53546    0.000
 6539.00    1.64221   1.52997    0.000
 6540.00    1.64709   1.52360    0.000
 6541.00    1.65056   1.51592    0.000
 6542.00    1.64822   1.50695    0.000
 6543.00    1.64347   1.49642    0.000
 6544.00    1.63048   1.48459    0.000
 6545.00    1.62003   1.47108    0.000
 6546.00    1.61688   1.45587    0.000
 6547.00    1.61525   1.43888    0.000
 6548.00    1.61737   1.42051    0.000
 6549.00    1.61612   1.40175    0.000
 6550.00    1.60773   1.38205    0.000
 6551.00    1.60352   1.36351    0.000
 6552.00    1.60703   1.34509    0.000
 6553.00    1.61060   1.32836    0.000
 6554.00    1.61425   1.31385    0.000
 6555.00    1.61575   1.30223    0.000
 6556.00    1.61421   1.29711    0.000
 6557.00    1.61170   1.29511    0.000
 6558.00    1.60797   1.29754    0.000
 6559.00    1.61016   1.30315    0.000
 6560.00    1.61883   1.31224    0.000
 6561.00    1.62486   1.32620    0.000
 6562.00    1.62835   1.34221    0.000
 6563.00    1.62746   1.36082    0.000
 6564.00    1.62284   1.37957    0.000
 6565.00    1.61490   1.39820    0.000
 6566.00    1.60445   1.41636    0.000
 6567.00    1.59180   1.43361    0.000
 6568.00    1.57769   1.45035    0.000
 6569.00    1.57091   1.46509    0.000
 6570.00    1.56836   1.47840    0.000
 6571.00    1.57641   1.48962    0.000
 6572.00    1.58981   1.49966    0.000
 6573.00    1.60554   1.50822    0.000
 6574.00    1.62230   1.51528    0.000
 6575.00    1.62359   1.52203    0.000
 6576.00    1.61912   1.52706    0.000
 6577.00    1.61298   1.53205    0.000
 6578.00    1.60631   1.53576    0.000
 6579.00    1.62030   1.53903    0.000
 6580.00    1.63975   1.54226    0.000
 6581.00    1.64652   1.54445    0.000
 6582.00    1.65054   1.54700    0.000
 6583.00    1.64561   1.54861    0.000
 6584.00    1.63914   1.55013    0.000
 6585.00    1.63859   1.55140    0.000
 6586.00    1.63881   1.55246    0.000
 6587.00    1.64043   1.55386    0.000
 6588.00    1.64218   1.55476    0.000
 6589.00    1.63593   1.55556    0.000
 6590.00    1.62924   1.55616    0.000
 6591.00    1.62704   1.55678    0.000
 6592.00    1.62495   1.55765    0.000
 6593.00    1.62401   1.55840    0.000
 6594.00    1.62259   1.55892    0.000
 6595.00    1.61044   1.55945    0.000
 6596.00    1.59911   1.55970    0.000
 6597.00    1.59814   1.56015    0.000
 6598.00    1.59838   1.56058    0.000
 6599.00    1.60912   1.56089    0.000
 6600.00    1.61832   1.56127    0.000
 6601.00    1.61775   1.56120    0.000
 6602.00    1.61683   1.56166    0.000
 6603.00    1.61421   1.56197    0.000
 6604.00    1.61121   1.56233    0.000
 6605.00    1.60664   1.56262    0.000
 6606.00    1.60225   1.56274    0.000
 6607.00    1.59847   1.56335    0.000
 6608.00    1.59602   1.56360    0.000
 6609.00    1.59732   1.56405    0.080
 6610.00    1.60105   1.56424    0.081
 6611.00    1.61064   1.56444    0.082
 6612.00    1.61935   1.56466    0.083
 6613.00    1.62625   1.56474    0.083
 6614.00    1.62679   1.56487    0.084
 6615.00    1.61578   1.56476    0.084
 6616.00    1.60463   1.56457    0.083
 6617.00    1.59327   1.56429    0.081
 6618.00    1.58777   1.56418    0.079
 6619.00    1.59041   1.56397    0.079
 6620.00    1.59635   1.56369    0.079
 6621.00    1.60633   1.56332    0.079
 6622.00    1.61246   1.56304    0.079
 6623.00    1.61442   1.56287    0.080
 6624.00    1.61482   1.56268    0.080
 6625.00    1.61372   1.56248    0.080
 6626.00    1.61328   1.56228    0.080
 6627.00    1.61339   1.56229    0.080
 6628.00    1.60599   1.56225    0.080
 6629.00    1.59304   1.56231    0.082
 6630.00    1.58710   1.56224    0.083
 6631.00    1.58573   1.56220    0.083
 6632.00    1.59044   1.56229    0.083
 6633.00    1.59862   1.56236    0.083
 6634.00    1.60055   1.56249    0.083
 6635.00    1.59940   1.56240    0.082
 6636.00    1.60361   1.56236    0.082
 6637.00    1.61012   1.56251    0.081
 6638.00    1.61355   1.56252    0.081
 6639.00    1.61585   1.56260    0.081
 6640.00    1.61393   1.56258    0.081
 6641.00    1.61069   1.56261    0.080
 6642.00    1.61239   1.56271    0.080
 6643.00    1.61537   1.56269    0.080
 6644.00    1.61091   1.56276    0.080
 6645.00    1.60489   1.56273    0.080
 6646.00    1.60562   1.56268    0.080
 6647.00    1.60747   1.56260    0.079
 6648.00    1.61293   1.56241    0.079
 6649.00    1.61885   1.56228    0.080
 6650.00    1.61654   1.56197    0.080
 6651.00    1.61352   1.56168    0.081
 6652.00    1.61102   1.56133    0.082
 6653.00    1.60854   1.56087    0.083
 6654.00    1.61384   1.56045    0.082
 6655.00    1.61916   1.55980    0.082
 6656.00    1.61665   1.55930    0.082
 6657.00    1.61409   1.55876    0.082
 6658.00    1.61056   1.55797    0.083
 6659.00    1.60740   1.55708    0.083
 6660.00    1.60864   1.55608    0.082
 6661.00    1.61041   1.55492    0.081
 6662.00    1.61658   1.55385    0.081
 6663.00    1.61915   1.55230    0.081
 6664.00    1.59942   1.54991    0.080
 6665.00    1.58037   1.54804    0.080
 6666.00    1.56463   1.54553    0.080
 6667.00    1.55497   1.54400    0.080
 6668.00    1.56936   1.54196    0.080
 6669.00    1.58408   1.53856    0.080
 6670.00    1.59993   1.53694    0.081
 6671.00    1.60932   1.53456    0.081
 6672.00    1.60078   1.53442    0.082
 6673.00    1.59281   1.53412    0.082
 6674.00    1.58616   1.53307    0.082
 6675.00    1.58039   1.53402    0.083
 6676.00    1.57645   1.53399    0.083
 6677.00    1.57710   1.53615    0.083
 6678.00    1.58595   1.53809    0.084
 6679.00    1.59510   1.53985    0.084
 6680.00    1.60470   1.54241    0.084
 6681.00    1.61323   1.54383    0.084
 6682.00    1.62028   1.54630    0.084
 6683.00    1.62038   1.54820    0.083
 6684.00    1.61207   1.55008    0.083
 6685.00    1.60514   1.55184    0.082
 6686.00    1.59968   1.55284    0.081
 6687.00    1.59205   1.55413    0.080
 6688.00    1.58237   1.55488    0.080
 6689.00    1.57797   1.55572    0.080
 6690.00    1.57796   1.55627    0.080
 6691.00    1.58442   1.55657    0.081
 6692.00    1.59560   1.55700    0.082
 6693.00    1.60043   1.55711    0.083
 6694.00    1.60118   1.55735    0.083
 6695.00    1.60022   1.55740    0.083
 6696.00    1.59829   1.55739    0.000
 6697.00    1.59452   1.55744    0.000
 6698.00    1.58985   1.55737    0.000
 6699.00    1.58049   1.55735    0.000
 6700.00    1.56915   1.55722    0.000
 6701.00    1.56448   1.55704    0.000
 6702.00    1.56222   1.55683    0.000
 6703.00    1.57432   1.55658    0.000
 6704.00    1.59080   1.55629    0.000
 6705.00    1.58853   1.55599    0.000
 6706.00    1.58152   1.55578    0.000
 6707.00    1.56801   1.55539    0.000
 6708.00    1.55316   1.55511    0.000
 6709.00    1.56006   1.55473    0.000
 6710.00    1.57048   1.55450    0.000
 6711.00    1.58203   1.55450    0.000
 6712.00    1.59372   1.55426    0.000
 6713.00    1.59508   1.55430    0.000
 6714.00    1.59558   1.55413    0.000
 6715.00    1.59827   1.55425    0.000
 6716.00    1.60107   1.55445    0.000
 6717.00    1.59569   1.55450    0.000
 6718.00    1.59017   1.55479    0.000
 6719.00    1.58307   1.55477    0.000
 6720.00    1.57607   1.55503    0.000
 6721.00    1.57101   1.55512    0.000
 6722.00    1.56753   1.55525    0.000
 6723.00    1.58221   1.55541    0.000
 6724.00    1.59535   1.55530    0.000
 6725.00    1.59630   1.55532    0.000
 6726.00    1.59621   1.55518    0.000
 6727.00    1.58987   1.55511    0.000
 6728.00    1.58286   1.55499    0.000
 6729.00    1.57272   1.55475    0.000
 6730.00    1.56554   1.55439    0.000
 6731.00    1.56979   1.55414    0.000
 6732.00    1.57103   1.55380    0.000
 6733.00    1.56258   1.55355    0.000
 6734.00    1.55412   1.55332    0.000
 6735.00    1.54565   1.55278    0.000
 6736.00    1.54065   1.55267    0.000
 6737.00    1.54373   1.55229    0.000
 6738.00    1.54968   1.55220    0.000
 6739.00    1.56144   1.55216    0.000
 6740.00    1.57120   1.55184    0.000
 6741.00    1.57745   1.55204    0.000
 6742.00    1.58263   1.55186    0.000
 6743.00    1.58619   1.55208    0.000
 6744.00    1.58656   1.55227    0.000
 6745.00    1.58263   1.55230    0.000
 6746.00    1.57661   1.55271    0.000
 6747.00    1.56810   1.55280    0.000
 6748.00    1.56001   1.55316    0.000
 6749.00    1.55236   1.55339    0.000
 6750.00    1.55172   1.55358    0.000
 6751.00    1.55758   1.55386    0.000
 6752.00    1.56780   1.55401    0.000
 6753.00    1.58159   1.55410    0.088
 6754.00    1.57724   1.55412    0.090
 6755.00    1.55987   1.55413    0.091
 6756.00    1.53808   1.55401    0.092
 6757.00    1.51351   1.55403    0.092
 6758.00    1.51389   1.55375    0.092
 6759.00    1.52802   1.55358    0.092
 6760.00    1.59783   1.55342    0.094
 6761.00    1.69433   1.55317    0.097
 6762.00    1.78251   1.55323    0.100
 6763.00    1.86725   1.55298    0.104
 6764.00    1.88627   1.55294    0.104
 6765.00    1.88205   1.55292    0.104
 6766.00    1.87493   1.55282    0.102
 6767.00    1.86694   1.55301    0.100
 6768.00    1.86118   1.55292    0.098
 6769.00    1.85598   1.55294    0.095
 6770.00    1.82179   1.55293    0.094
 6771.00    1.78178   1.55275    0.094
 6772.00    1.74011   1.55274    0.091
 6773.00    1.69817   1.55253    0.089
 6774.00    1.66772   1.55234    0.087
 6775.00    1.63862   1.55214    0.085
 6776.00    1.62291   1.55180    0.086
 6777.00    1.60825   1.55158    0.087
 6778.00    1.64223   1.55134    0.089
 6779.00    1.67833   1.55113    0.092
 6780.00    1.66921   1.55100    0.093
 6781.00    1.65936   1.55083    0.093
 6782.00    1.63820   1.55071    0.093
 6783.00    1.61983   1.55071    0.092
 6784.00    1.65208   1.55069    0.093
 6785.00    1.68166   1.55078    0.094
 6786.00    1.68207   1.55083    0.094
 6787.00    1.67996   1.55087    0.093
 6788.00    1.65842   1.55101    0.093
 6789.00    1.64082   1.55110    0.092
 6790.00    1.64618   1.55126    0.092
 6791.00    1.65343   1.55131    0.091
 6792.00    1.66944   1.55142    0.091
 6793.00    1.68469   1.55149    0.090
 6794.00    1.69711   1.55154    0.090
 6795.00    1.69973   1.55167    0.089
 6796.00    1.67138   1.55158    0.088
 6797.00    1.65149   1.55165    0.088
 6798.00    1.65425   1.55158    0.088
 6799.00    1.65579   1.55150    0.089
 6800.00    1.65451   1.55155    0.089
 6801.00    1.65362   1.55135    0.090
 6802.00    1.65350   1.55132    0.091
 6803.00    1.64056   1.55119    0.092
 6804.00    1.60539   1.55107    0.091
 6805.00    1.58017   1.55109    0.091
 6806.00    1.57002   1.55098    0.090
 6807.00    1.57339   1.55091    0.090
 6808.00    1.59479   1.55087    0.091
 6809.00    1.60534   1.55086    0.091
 6810.00    1.60318   1.55091    0.090
 6811.00    1.60178   1.55099    0.091
 6812.00    1.60118   1.55093    0.091
 6813.00    1.61242   1.55099    0.091
 6814.00    1.63448   1.55102    0.091
 6815.00    1.63721   1.55106    0.091
 6816.00    1.62439   1.55113    0.090
 6817.00    1.61539   1.55100    0.089
 6818.00    1.60908   1.55104    0.088
 6819.00    1.62099   1.55093    0.088
 6820.00    1.64422   1.55087    0.089
 6821.00    1.65651   1.55076    0.089
 6822.00    1.66287   1.55050    0.089
 6823.00    1.64803   1.55046    0.089
 6824.00    1.62321   1.55019    0.089
 6825.00    1.61061   1.55000    0.089
 6826.00    1.60298   1.54974    0.089
 6827.00    1.61027   1.54939    0.090
 6828.00    1.62274   1.54925    0.092
 6829.00    1.63089   1.54887    0.092
 6830.00    1.63778   1.54861    0.092
 6831.00    1.64991   1.54827    0.092
 6832.00    1.66332   1.54797    0.093
 6833.00    1.65402   1.54779    0.090
 6834.00    1.64028   1.54748    0.087
 6835.00    1.63993   1.54733    0.088
 6836.00    1.64162   1.54713    0.090
 6837.00    1.64804   1.54707    0.091
 6838.00    1.65498   1.54701    0.092
 6839.00    1.65215   1.54693    0.093
 6840.00    1.64859   1.54695    0.093
 6841.00    1.63319   1.54690    0.093
 6842.00    1.61733   1.54696    0.093
 6843.00    1.59732   1.54690    0.091
 6844.00    1.57777   1.54682    0.089
 6845.00    1.57715   1.54675    0.088
 6846.00    1.57725   1.54665    0.087
 6847.00    1.58946   1.54653    0.089
 6848.00    1.60184   1.54636    0.091
 6849.00    1.61587   1.54618    0.091
 6850.00    1.62989   1.54594    0.091
 6851.00    1.64378   1.54587    0.090
 6852.00    1.65265   1.54567    0.090
 6853.00    1.63311   1.54555    0.088
 6854.00    1.61621   1.54546    0.087
 6855.00    1.61122   1.54525    0.087
 6856.00    1.60626   1.54527    0.087
 6857.00    1.60144   1.54518    0.087
 6858.00    1.59363   1.54517    0.087
 6859.00    1.57659   1.54517    0.088
 6860.00    1.56473   1.54504    0.088
 6861.00    1.56652   1.54498    0.088
 6862.00    1.56551   1.54500    0.088
 6863.00    1.55817   1.54498    0.087
 6864.00    1.55394   1.54491    0.087
 6865.00    1.55580   1.54483    0.089
 6866.00    1.55908   1.54456    0.091
 6867.00    1.56479   1.54458    0.092
 6868.00    1.56355   1.54440    0.092
 6869.00    1.55192   1.54409    0.091
 6870.00    1.55889   1.54386    0.091
 6871.00    1.59030   1.54327    0.091
 6872.00    1.61150   1.54298    0.090
 6873.00    1.62087   1.54243    0.089
 6874.00    1.61878   1.54171    0.088
 6875.00    1.60498   1.54109    0.088
 6876.00    1.58682   1.54017    0.087
 6877.00    1.56476   1.53952    0.086
 6878.00    1.55128   1.53874    0.086
 6879.00    1.54462   1.53789    0.085
 6880.00    1.54338   1.53728    0.086
 6881.00    1.54590   1.53661    0.087
 6882.00    1.55699   1.53622    0.087
 6883.00    1.57331   1.53600    0.088
 6884.00    1.57565   1.53577    0.089
 6885.00    1.57052   1.53589    0.090
 6886.00    1.56257   1.53627    0.090
 6887.00    1.55333   1.53663    0.090
 6888.00    1.55616   1.53740    0.090
 6889.00    1.56382   1.53804    0.089
 6890.00    1.55016   1.53884    0.089
 6891.00    1.52924   1.54003    0.088
 6892.00    1.51737   1.54079    0.088
 6893.00    1.50810   1.54185    0.088
 6894.00    1.51969   1.54269    0.088
 6895.00    1.53622   1.54346    0.088
 6896.00    1.54833   1.54448    0.088
 6897.00    1.55961   1.54494    0.088
 6898.00    1.57020   1.54553    0.088
 6899.00    1.58068   1.54594    0.088
 6900.00    1.58515   1.54627    0.089
 6901.00    1.58896   1.54658    0.091
 6902.00    1.58736   1.54663    0.090
 6903.00    1.58537   1.54664    0.090
 6904.00    1.57934   1.54663    0.090
 6905.00    1.57318   1.54671    0.090
 6906.00    1.56471   1.54648    0.090
 6907.00    1.55611   1.54647    0.090
 6908.00    1.54273   1.54628    0.091
 6909.00    1.53025   1.54613    0.092
 6910.00    1.53209   1.54630    0.091
 6911.00    1.53516   1.54597    0.091
 6912.00    1.55052   1.54607    0.090
 6913.00    1.56347   1.54599    0.089
 6914.00    1.55914   1.54580    0.089
 6915.00    1.55509   1.54607    0.089
 6916.00    1.55266   1.54589    0.088
 6917.00    1.55257   1.54590    0.087
 6918.00    1.56275   1.54596    0.087
 6919.00    1.57057   1.54581    0.086
 6920.00    1.56979   1.54604    0.087
 6921.00    1.56778   1.54602    0.088
 6922.00    1.56206   1.54591    0.088
 6923.00    1.56128   1.54611    0.088
 6924.00    1.57326   1.54608    0.088
 6925.00    1.57631   1.54625    0.089
 6926.00    1.55953   1.54632    0.090
 6927.00    1.54489   1.54619    0.091
 6928.00    1.53439   1.54643    0.091
 6929.00    1.53114   1.54639    0.091
 6930.00    1.54006   1.54650    0.091
 6931.00    1.54604   1.54652    0.091
 6932.00    1.54768   1.54636    0.091
 6933.00    1.55580   1.54648    0.092
 6934.00    1.57230   1.54626    0.092
 6935.00    1.57454   1.54626    0.092
 6936.00    1.56049   1.54623    0.090
 6937.00    1.55208   1.54598    0.090
 6938.00    1.54933   1.54599    0.090
 6939.00    1.53924   1.54575    0.089
 6940.00    1.52262   1.54564    0.088
 6941.00    1.52265   1.54570    0.088
 6942.00    1.53571   1.54554    0.089
 6943.00    1.54864   1.54548    0.090
 6944.00    1.56149   1.54553    0.091
 6945.00    1.55435   1.54544    0.091
 6946.00    1.53515   1.54560    0.091
 6947.00    1.54351   1.54571    0.091
 6948.00    1.56639   1.54566    0.092
 6949.00    1.56201   1.54593    0.092
 6950.00    1.54520   1.54600    0.093
 6951.00    1.54474   1.54614    0.093
 6952.00    1.55070   1.54642    0.092
 6953.00    1.54581   1.54644    0.092
 6954.00    1.53729   1.54663    0.091
 6955.00    1.53285   1.54673    0.090
 6956.00    1.52955   1.54675    0.089
 6957.00    1.52774   1.54694    0.089
 6958.00    1.52627   1.54689    0.089
 6959.00    1.53025   1.54675    0.089
 6960.00    1.53524   1.54663    0.090
 6961.00    1.52684   1.54643    0.089
 6962.00    1.51654   1.54630    0.089
 6963.00    1.52510   1.54594    0.089
 6964.00    1.53563   1.54550    0.089
 6965.00    1.51502   1.54515    0.091
 6966.00    1.49235   1.54474    0.093
 6967.00    1.49171   1.54432    0.094
 6968.00    1.49179   1.54376    0.095
 6969.00    1.51424   1.54350    0.094
 6970.00    1.53610   1.54326    0.094
 6971.00    1.54002   1.54301    0.094
 6972.00    1.54303   1.54283    0.093
 6973.00    1.53244   1.54263    0.093
 6974.00    1.52340   1.54283    0.093
 6975.00    1.52921   1.54303    0.092
 6976.00    1.53481   1.54320    0.092
 6977.00    1.53892   1.54342    0.091
 6978.00    1.54128   1.54361    0.091
 6979.00    1.53425   1.54403    0.091
 6980.00    1.52800   1.54435    0.091
 6981.00    1.52511   1.54468    0.090
 6982.00    1.52257   1.54490    0.089
 6983.00    1.52129   1.54498    0.091
 6984.00    1.52239   1.54520    0.092
 6985.00    1.53062   1.54536    0.092
 6986.00    1.53698   1.54544    0.093
 6987.00    1.53860   1.54551    0.093
 6988.00    1.53476   1.54530    0.093
 6989.00    1.51898   1.54523    0.094
 6990.00    1.51106   1.54527    0.095
 6991.00    1.51807   1.54514    0.094
 6992.00    1.52733   1.54509    0.094
 6993.00    1.54033   1.54477    0.094
 6994.00    1.55521   1.54460    0.094
 6995.00    1.57282   1.54454    0.094
 6996.00    1.57916   1.54445    0.093
 6997.00    1.57112   1.54432    0.093
 6998.00    1.55929   1.54408    0.093
 6999.00    1.54318   1.54405    0.093
 7000.00    1.53952   1.54381    0.093
 7001.00    1.54821   1.54377    0.093
 7002.00    1.55971   1.54376    0.093
 7003.00    1.57369   1.54352    0.094
 7004.00    1.55150   1.54359    0.094
 7005.00    1.50143   1.54314    0.093
 7006.00    1.41696   1.54310    0.094
 7007.00    1.30916   1.54334    0.094
 7008.00    1.30925   1.54304    0.096
 7009.00    1.37340   1.54313    0.098
 7010.00    1.38307   1.54280    0.098
 7011.00    1.36454   1.54285    0.098
 7012.00    1.38246   1.54321    0.097
 7013.00    1.41674   1.54292    0.097
 7014.00    1.41951   1.54316    0.097
 7015.00    1.41011   1.54323    0.097
 7016.00    1.41186   1.54334    0.096
 7017.00    1.41726   1.54362    0.095
 7018.00    1.41630   1.54345    0.094
 7019.00    1.41358   1.54382    0.094
 7020.00    1.40200   1.54410    0.095
 7021.00    1.38842   1.54422    0.097
 7022.00    1.38437   1.54442    0.095
 7023.00    1.38204   1.54449    0.094
 7024.00    1.38714   1.54487    0.096
 7025.00    1.39327   1.54518    0.098
 7026.00    1.40268   1.54546    0.099
 7027.00    1.41241   1.54555    0.100
 7028.00    1.41935   1.54584    0.101
 7029.00    1.42612   1.54643    0.101
 7030.00    1.42652   1.54672    0.101
 7031.00    1.42679   1.54727    0.101
 7032.00    1.44116   1.54741    0.101
 7033.00    1.45500   1.54773    0.100
 7034.00    1.45421   1.54853    0.101
 7035.00    1.45341   1.54869    0.102
 7036.00    1.45243   1.54921    0.100
 7037.00    1.44997   1.54947    0.099
 7038.00    1.43395   1.54948    0.097
 7039.00    1.41997   1.54989    0.096
 7040.00    1.41984   1.54970    0.096
 7041.00    1.42253   1.54971    0.097
 7042.00    1.43995   1.54960    0.097
 7043.00    1.45214   1.54918    0.097
 7044.00    1.44230   1.54900    0.100
 7045.00    1.43994   1.54847    0.102
 7046.00    1.46363   1.54798    0.103
 7047.00    1.47973   1.54746    0.104
 7048.00    1.47360   1.54692    0.104
 7049.00    1.46544   1.54644    0.103
 7050.00    1.45219   1.54594   -2.000
 7051.00    1.44931   1.54554   -2.000
 7052.00    1.46875   1.54503   -2.000
 7053.00    1.48641   1.54473   -2.000
 7054.00    1.50077   1.54430   -2.000
 7055.00    1.50796   1.54398   -2.000
 7056.00    1.50343   1.54405   -2.000
 7057.00    1.51093   1.54364   -2.000
 7058.00    1.53564   1.54372   -2.000
 7059.00    1.56150   1.54369   -2.000
 7060.00    1.58882   1.54355   -2.000
 7061.00    1.61297   1.54396   -2.000
 7062.00    1.63358   1.54380   -2.000
 7063.00    1.65270   1.54395   -2.000
 7064.00    1.67036   1.54432   -2.000
 7065.00    1.64313   1.54436   -2.000
 7066.00    1.57719   1.54454   -2.000
 7067.00    1.54442   1.54461   -2.000
 7068.00    1.53686   1.54453   -2.000
 7069.00    1.54804   1.54455   -2.000
 7070.00    1.57175   1.54435   -2.000
 7071.00    1.57973   1.54394   -2.000
 7072.00    1.57852   1.54362   -2.000
 7073.00    1.58542   1.54301   -2.000
 7074.00    1.59645   1.54230   -2.000
 7075.00    1.62615   1.54175   -2.000
 7076.00    1.66409   1.54080   -2.000
 7077.00    1.65605   1.53999   -2.000
 7078.00    1.63057   1.53914   -2.000
 7079.00    1.60555   1.53800   -2.000
 7080.00    1.58068   1.53759   -2.000
 7081.00    1.58087   1.53679   -2.000
 7082.00    1.58780   1.53602   -2.000
 7083.00    1.56883   1.53571   -2.000
 7084.00    1.54413   1.53495   -2.000
 7085.00    1.52923   1.53498   -2.000
 7086.00    1.51604   1.53487   -2.000
 7087.00    1.52532   1.53453   -2.000
 7088.00    1.53761   1.53501   -2.000
 7089.00    1.56634   1.53485   -2.000
 7090.00    1.59664   1.53533   -2.000
 7091.00    1.55327   1.53565   -2.000
 7092.00    1.50558   1.53560   -2.000
 7093.00    1.51075   1.53654   -2.000
 7094.00    1.51718   1.53669   -2.000
 7095.00    1.51684   1.53716   -2.000
 7096.00    1.51510   1.53749   -2.000
 7097.00    1.47868   1.53747   -2.000
 7098.00    1.44494   1.53821   -2.000
 7099.00    1.44683   1.53837   -2.000
 7100.00    1.44556   1.53852   -2.000
 7101.00    1.41622   1.53872   -2.000
 7102.00    1.39222   1.53875   -2.000
 7103.00    1.40309   1.53919   -2.000
 7104.00    1.41200   1.53916   -2.000
 7105.00    1.41098   1.53915   -2.000
 7106.00    1.41318   1.53935   -2.000
 7107.00    1.42866   1.53947   -2.000
 7108.00    1.43927   1.53964   -2.000
 7109.00    1.43329   1.53957   -2.000
 7110.00    1.42590   1.53971   -2.000
 7111.00    1.41447   1.53962   -2.000
 7112.00    1.41080   1.53971   -2.000
 7113.00    1.42615   1.53965   -2.000
 7114.00    1.43286   1.53945   -2.000
 7115.00    1.42126   1.53957   -2.000
 7116.00    1.41451   1.53907   -2.000
 7117.00    1.41665   1.53904   -2.000
 7118.00    1.43175   1.53908   -2.000
 7119.00    1.46769   1.53859   -2.000
 7120.00    1.50305   1.53857   -2.000
 7121.00    1.53759   1.53830   -2.000
 7122.00    1.53475   1.53828   -2.000
 7123.00    1.48554   1.53850   -2.000
 7124.00    1.47690   1.53809   -2.000
 7125.00    1.51261   1.53814   -2.000
 7126.00    1.52933   1.53846   -2.000
 7127.00    1.52773   1.53851   -2.000
 7128.00    1.50973   1.53882   -2.000
 7129.00    1.47779   1.53886   -2.000
 7130.00    1.47422   1.53902   -2.000
 7131.00    1.49190   1.53949   -2.000
 7132.00    1.50354   1.53958   -2.000
 7133.00    1.51119   1.53966   -2.000
 7134.00    1.47687   1.53988   -2.000
 7135.00    1.41837   1.54014   -2.000
 7136.00    1.42384   1.54036   -2.000
 7137.00    1.46140   1.54030   -2.000
 7138.00    1.48873   1.54049   -2.000
 7139.00    1.51160   1.54065   -2.000
 7140.00    1.52726   1.54083   -2.000
 7141.00    1.54024   1.54099   -2.000
 7142.00    1.49744   1.54089   -2.000
 7143.00    1.43702   1.54132   -2.000
 7144.00    1.42154   1.54162   -2.000
 7145.00    1.41791   1.54164   -2.000
 7146.00    1.40573   1.54195   -2.000
 7147.00    1.39170   1.54219   -2.000
 7148.00    1.37986   1.54250   -2.000
 7149.00    1.36839   1.54257   -2.000
 7150.00    1.38264   1.54258   -2.000
 7151.00    1.40022   1.54292   -2.000
 7152.00    1.42380   1.54304   -2.000
 7153.00    1.44794   1.54308   -2.000
 7154.00    1.43048   1.54295   -2.000
 7155.00    1.41075   1.54299   -2.000
 7156.00    1.42183   1.54325   -2.000
 7157.00    1.43317   1.54316   -2.000
 7158.00    1.41022   1.54314   -2.000
 7159.00    1.39050   1.54307   -2.000
 7160.00    1.44400   1.54327   -2.000
 7161.00    1.49903   1.54355   -2.000
 7162.00    1.57336   1.54341   -2.000
 7163.00    1.63709   1.54354   -2.000
 7164.00    1.61027   1.54365   -2.000
 7165.00    1.57839   1.54371   -2.000
 7166.00    1.51434   1.54382   -2.000
 7167.00    1.46523   1.54366   -2.000
 7168.00    1.49023   1.54362   -2.000
 7169.00    1.50964   1.54367   -2.000
 7170.00    1.50656   1.54333   -2.000
 7171.00    1.49894   1.54311   -2.000
 7172.00    1.47617   1.54307   -2.000
 7173.00    1.44839   1.54266   -2.000
 7174.00    1.40647   1.54231   -2.000
 7175.00    1.38830   1.54198   -2.000
 7176.00    1.42738   1.54158   -2.000
 7177.00    1.46343   1.54171   -2.000
 7178.00    1.49313   1.54132   -2.000
 7179.00    1.50832   1.54088   -2.000
 7180.00    1.49724   1.54098   -2.000
 7181.00    1.46244   1.54073   -2.000
 7182.00    1.39007   1.54065   -2.000
 7183.00    1.35266   1.54068   -2.000
 7184.00    1.36381   1.54060   -2.000
 7185.00    1.37190   1.54103   -2.000
 7186.00    1.37622   1.54117   -2.000
 7187.00    1.38576   1.54106   -2.000
 7188.00    1.40094   1.54136   -2.000
 7189.00    1.42383   1.54170   -2.000
 7190.00    1.45407   1.54198   -2.000
 7191.00    1.44103   1.54215   -2.000
 7192.00    1.39172   1.54228   -2.000
 7193.00    1.36771   1.54247   -2.000
 7194.00    1.36237   1.54279   -2.000
 7195.00    1.35638   1.54282   -2.000
 7196.00    1.34996   1.54279   -2.000
 7197.00    1.36735   1.54313   -2.000
 7198.00    1.39824   1.54318   -2.000
 7199.00    1.40002   1.54330   -2.000
 7200.00    1.38742   1.54345   -2.000
 7201.00    1.41442   1.54330   -2.000
 7202.00    1.45831   1.54367   -2.000
 7203.00    1.45499   1.54396   -2.000
 7204.00    1.43440   1.54411   -2.000
 7205.00    1.38199   1.54462   -2.000
 7206.00    1.31972   1.54480   -2.000
 7207.00    1.31347   1.54512   -2.000
 7208.00    1.32168   1.54565   -2.000
 7209.00    1.29825   1.54597   -2.000
 7210.00    1.26816   1.54643   -2.000
 7211.00    1.28624   1.54701   -2.000
 7212.00    1.31232   1.54748   -2.000
 7213.00    1.33226   1.54797   -2.000
 7214.00    1.35144   1.54838   -2.000
 7215.00    1.34681   1.54871   -2.000
 7216.00    1.34012   1.54940   -2.000
 7217.00    1.36487   1.54979   -2.000
 7218.00    1.39122   1.55019   -2.000
