###################################################################
## OUTPUT of StarlightChains_v04.for    [Cid@UFSC - 01/Apr/2007] ##
###################################################################

## Some input info
KUG0210-078._32_30.txt                   [arq_obs]
Base.CB07.vall.4m                        [arq_base]
Masks.EmLines.NEW.gm                     [arq_masks]
StCv04.C11.config                        [arq_config]
   66                                    [N_base]
    0                                    [N_YAV_components = # of components with extra extinction!]
    0                                    [i_FitPowerLaw (1/0 = Yes/No)]
-9.99                                    [alpha_PowerLaw]
CCM                                      [red_law_option]
 1.458241                                [q_norm = A(l_norm)/A(V)]

## (Re)Sampling Parameters
 3741.00                                 [l_ini (A)]
 7218.00                                 [l_fin (A)]
    1.00                                 [dl    (A)]     (OBS: dl_cushion =    50.00 A)

## Normalization info
 4020.00                                 [l_norm (A) - for base]
 4010.00                                 [llow_norm (A) - window for f_obs]
 4060.00                                 [lupp_norm (A) - window for f_obs]
8.553458E-17                             [fobs_norm (in input units)]

## S/N
 3691.00                                 [llow_SN (A) - window for S/N]
 7268.00                                 [lupp_SN (A) - window for S/N]
   6.832                                 [S/N in S/N window]
   6.649                                 [S/N in norm. window]
   0.170                                 [S/N_err in S/N window]
   0.165                                 [S/N_err in norm. window]
  1.0000                                 [fscale_chi2]

## etc...
    -2007478                             [idum_orig]
  2431                                   [NOl_eff]
  2074                                   [Nl_eff]
   357    NSIGMA                         [Ntot_cliped & clip_method]
 15985200                                [Nglobal_steps]
   7                                     [N_chains]
  25                                     [NEX0s_base = N_base in EX0s-fits]
 0   0   1      357   2.0   7.198E+04    [Clip-Bug, RC-Crash & Burn-In warning-flags, n_censored_weights, wei_nsig_threshold & wei_limit]
   104    103.398    102.438      0.961  [idt_all, wdt_TotTime, wdt_UsrTime & wdt_SysTime (sec)]

## Synthesis Results - Best model ##

 4.76129E-05                             [chi2/Nl_eff]
     2.70822                             [adev (%)]

   109.15226                             [sum-of-x (%)]
 4.47638E-17                             [Flux_tot (units of input spectrum!)]
 1.64537E-12                             [Mini_tot (???)]
 8.66036E-13                             [Mcor_tot (???)]

  63.86                                  [v0_min  (km/s)]
 112.92                                  [vd_min  (km/s)]
-0.5473                                  [AV_min  (mag)]
 0.0000                                  [YAV_min (mag)]

# j     x_j(%)      Mini_j(%)     Mcor_j(%)     age_j(yr)     Z_j      (L/M)_j    YAV?  Mstars   component_j        a/Fe...       SSP_chi2r SSP_adev(%)   SSP_AV   SSP_x(%)
  1      0.1511     3.4429E-04    6.5412E-04    1.000000E+06  0.00400  1.094E-02    0   1.0000   age020_m42            0.0000     1.9624E-04     5.6065   2.9010   103.2636
  2      2.6037     1.6196E-03    3.0767E-03    3.160000E+06  0.00400  4.007E-02    0   0.9999   age045_m42            0.0000     1.8292E-04     5.5365   2.2770   105.3982
  3      0.0000     0.0000E+00    0.0000E+00    5.010000E+06  0.00400  2.539E-02    0   0.9488   age055_m42            0.0000     1.8323E-04     5.4406   2.5492   105.0901
  4      0.0000     0.0000E+00    0.0000E+00    6.610000E+06  0.00400  2.620E-02    0   0.9220   age061_m42            0.0000     1.7770E-04     5.4367   2.2039   105.6467
  5      0.0000     0.0000E+00    0.0000E+00    1.000000E+07  0.00400  1.322E-02    0   0.8862   age070_m42            0.0000     1.8450E-04     5.6485   1.9253   107.8990
  6      0.0000     0.0000E+00    0.0000E+00    1.445000E+07  0.00400  7.883E-03    0   0.8571   age078_m42            0.0000     1.8570E-04     5.5335   2.2231   106.5324
  7      0.0000     0.0000E+00    0.0000E+00    2.512000E+07  0.00400  5.251E-03    0   0.8174   age090_m42            0.0000     1.9043E-04     5.8197   1.8051   108.0445
  8      0.0000     0.0000E+00    0.0000E+00    4.000000E+07  0.00400  3.649E-03    0   0.7851   age104_m42            0.0000     1.8463E-04     5.7685   1.5927   108.1826
  9      0.0000     0.0000E+00    0.0000E+00    5.500000E+07  0.00400  3.098E-03    0   0.7629   age110_m42            0.0000     1.8094E-04     5.6201   1.7590   107.4555
 10      0.0000     0.0000E+00    0.0000E+00    1.015200E+08  0.00400  2.228E-03    0   0.7207   age116_m42            0.0000     1.7784E-04     5.5074   1.7887   107.1871
 11      0.0000     0.0000E+00    0.0000E+00    2.861200E+08  0.00400  1.093E-03    0   0.6648   age125_m42            0.0000     1.8314E-04     5.8657   1.2542   108.7813
 12      0.0000     0.0000E+00    0.0000E+00    5.088000E+08  0.00400  6.597E-04    0   0.6365   age130_m42            0.0000     1.6594E-04     5.4977   1.2661   108.5459
 13     10.7270     1.2541E+00    1.3814E+00    1.434000E+09  0.00400  2.132E-04    0   0.5798   age139_m42            0.0000     1.0978E-04     4.5089   0.3252   109.2495
 14      0.0000     0.0000E+00    0.0000E+00    4.250000E+09  0.00400  5.895E-05    0   0.5377   age158_m42            0.0000     6.8739E-05     3.5185  -0.1614   107.2285
 15     16.5584     1.1758E+01    1.1643E+01    7.500000E+09  0.00400  3.510E-05    0   0.5212   age171_m42            0.0000     5.8386E-05     3.1855  -0.3496   106.4649
 16      0.0000     0.0000E+00    0.0000E+00    1.300000E+10  0.00400  2.005E-05    0   0.5034   age193_m42            0.0000     5.3197E-05     3.0039  -0.5111   105.6637
 17      0.0000     0.0000E+00    0.0000E+00    1.800000E+10  0.00400  1.525E-05    0   0.4967   age213_m42            0.0000     5.4586E-05     3.0118  -0.5449   105.7718
 18      0.0000     0.0000E+00    0.0000E+00    1.000000E+06  0.00800  1.238E-02    0   1.0000   age020_m52            0.0000     1.9655E-04     5.5968   2.8959   103.5445
 19      0.0000     0.0000E+00    0.0000E+00    3.160000E+06  0.00800  3.074E-02    0   0.9966   age045_m52            0.0000     1.9276E-04     5.5443   2.8247   104.2080
 20      0.0000     0.0000E+00    0.0000E+00    5.010000E+06  0.00800  2.668E-02    0   0.9443   age055_m52            0.0000     1.8172E-04     5.3569   2.6173   104.8493
 21      0.0000     0.0000E+00    0.0000E+00    6.610000E+06  0.00800  2.136E-02    0   0.9177   age061_m52            0.0000     1.4725E-04     5.0762   1.4219   109.2878
 22      0.0000     0.0000E+00    0.0000E+00    1.000000E+07  0.00800  1.215E-02    0   0.8827   age070_m52            0.0000     1.8966E-04     5.7431   2.0952   108.1953
 23      0.0000     0.0000E+00    0.0000E+00    1.445000E+07  0.00800  8.717E-03    0   0.8552   age078_m52            0.0000     1.8175E-04     5.5025   2.2025   107.3545
 24      0.0000     0.0000E+00    0.0000E+00    2.512000E+07  0.00800  5.592E-03    0   0.8162   age090_m52            0.0000     1.8844E-04     5.8049   1.8796   108.8478
 25      0.0000     0.0000E+00    0.0000E+00    4.000000E+07  0.00800  3.896E-03    0   0.7841   age104_m52            0.0000     1.8442E-04     5.7669   1.8093   108.7722
 26      0.0000     0.0000E+00    0.0000E+00    1.015200E+08  0.00800  2.148E-03    0   0.7226   age116_m52            0.0000     1.7324E-04     5.5333   1.7599   107.9265
 27      0.0000     0.0000E+00    0.0000E+00    2.861200E+08  0.00800  9.925E-04    0   0.6683   age125_m52            0.0000     1.6160E-04     5.3563   1.3305   109.6416
 28      1.0734     8.5178E-02    9.9330E-02    9.047900E+08  0.00800  3.141E-04    0   0.6138   age135_m52            0.0000     1.1890E-04     4.6901   0.5888   111.2583
 29      0.0000     0.0000E+00    0.0000E+00    1.434000E+09  0.00800  1.719E-04    0   0.5853   age139_m52            0.0000     7.6932E-05     3.7549  -0.0252   110.8334
 30      0.0000     0.0000E+00    0.0000E+00    2.500000E+09  0.00800  7.872E-05    0   0.5600   age150_m52            0.0000     5.4057E-05     3.0020  -0.3200   108.9730
 31      1.6012     9.2044E-01    9.4886E-01    4.250000E+09  0.00800  4.336E-05    0   0.5426   age158_m52            0.0000     5.3840E-05     3.0151  -0.3406   108.1738
 32     32.5893     2.5713E+01    2.5984E+01    6.250000E+09  0.00800  3.159E-05    0   0.5319   age166_m52            0.0000     4.9043E-05     2.8229  -0.5382   107.9180
 33      5.6008     1.0257E+01    9.8859E+00    1.300000E+10  0.00800  1.361E-05    0   0.5073   age193_m52            0.0000     5.3028E-05     2.8243  -1.0000   107.2037
 34      0.0000     0.0000E+00    0.0000E+00    1.800000E+10  0.00800  9.886E-06    0   0.4990   age213_m52            0.0000     8.7155E-05     4.0338  -1.0000   103.9332
 35      0.0000     0.0000E+00    0.0000E+00    1.000000E+06  0.02000  1.544E-02    0   1.0000   age020_m62            0.0000     1.9726E-04     5.6011   2.8891   103.9411
 36      0.0000     0.0000E+00    0.0000E+00    3.160000E+06  0.02000  3.762E-02    0   0.9858   age045_m62            0.0000     1.9139E-04     5.5519   2.8315   104.6602
 37      0.0000     0.0000E+00    0.0000E+00    5.010000E+06  0.02000  3.296E-02    0   0.9342   age055_m62            0.0000     1.7877E-04     5.3660   2.5255   105.5893
 38      0.0000     0.0000E+00    0.0000E+00    8.710000E+06  0.02000  1.154E-02    0   0.8861   age067_m62            0.0000     2.5798E-04     7.4885   1.5324   112.4475
 39      0.0000     0.0000E+00    0.0000E+00    1.445000E+07  0.02000  7.663E-03    0   0.8472   age078_m62            0.0000     1.9722E-04     6.1715   1.7576   110.0682
 40      0.0000     0.0000E+00    0.0000E+00    2.512000E+07  0.02000  4.532E-03    0   0.8099   age090_m62            0.0000     2.0594E-04     6.3447   1.7525   109.6597
 41      0.0000     0.0000E+00    0.0000E+00    5.500000E+07  0.02000  2.733E-03    0   0.7595   age110_m62            0.0000     1.7319E-04     5.5397   1.7796   108.6420
 42      0.0000     0.0000E+00    0.0000E+00    1.609000E+08  0.02000  1.369E-03    0   0.6985   age120_m62            0.0000     1.6956E-04     5.4245   1.6571   109.5784
 43      0.0000     0.0000E+00    0.0000E+00    2.861200E+08  0.02000  9.013E-04    0   0.6714   age125_m62            0.0000     1.6747E-04     5.3648   1.4420   110.8725
 44      0.0000     0.0000E+00    0.0000E+00    5.088000E+08  0.02000  5.028E-04    0   0.6449   age130_m62            0.0000     1.5094E-04     5.0284   1.1075   111.5004
 45      0.0000     0.0000E+00    0.0000E+00    9.047900E+08  0.02000  2.428E-04    0   0.6179   age135_m62            0.0000     9.2640E-05     4.0263   0.5148   111.2338
 46      0.0000     0.0000E+00    0.0000E+00    1.434000E+09  0.02000  1.263E-04    0   0.5908   age139_m62            0.0000     6.3076E-05     3.3092   0.0491   110.6712
 47      0.0000     0.0000E+00    0.0000E+00    2.500000E+09  0.02000  5.985E-05    0   0.5673   age150_m62            0.0000     5.3542E-05     2.8847  -0.3484   110.6841
 48      6.1032     4.6505E+00    4.8313E+00    4.250000E+09  0.02000  3.271E-05    0   0.5468   age158_m62            0.0000     5.4870E-05     2.9020  -0.6594   109.9665
 49      7.5212     1.3784E+01    1.3531E+01    1.000000E+10  0.02000  1.360E-05    0   0.5167   age181_m62            0.0000     8.2683E-05     3.4335  -1.0000   109.6014
 50      0.7032     2.4602E+00    2.3432E+00    1.800000E+10  0.02000  7.124E-06    0   0.5013   age213_m62            0.0000     2.1928E-04     6.1862  -1.0000   103.4694
 51      0.0000     0.0000E+00    0.0000E+00    1.000000E+06  0.05000  2.592E-02    0   0.9998   age020_m72            0.0000     2.0138E-04     5.6192   2.8676   104.5820
 52      0.0000     0.0000E+00    0.0000E+00    3.160000E+06  0.05000  4.845E-02    0   0.9577   age045_m72            0.0000     1.8615E-04     5.4584   2.7420   104.7414
 53      0.0000     0.0000E+00    0.0000E+00    5.010000E+06  0.05000  3.072E-02    0   0.9147   age055_m72            0.0000     1.8242E-04     5.6054   2.3112   107.4729
 54      0.0000     0.0000E+00    0.0000E+00    6.610000E+06  0.05000  1.455E-02    0   0.8877   age061_m72            0.0000     3.4103E-04     9.2385   1.6046   113.0483
 55      0.0000     0.0000E+00    0.0000E+00    1.000000E+07  0.05000  9.074E-03    0   0.8524   age070_m72            0.0000     1.9663E-04     5.9853   2.5136   106.7034
 56      0.0000     0.0000E+00    0.0000E+00    2.512000E+07  0.05000  4.250E-03    0   0.7902   age090_m72            0.0000     1.9791E-04     6.0183   2.2364   107.2170
 57      0.0000     0.0000E+00    0.0000E+00    4.000000E+07  0.05000  3.087E-03    0   0.7618   age104_m72            0.0000     2.0443E-04     6.2429   2.0267   108.1441
 58      0.0000     0.0000E+00    0.0000E+00    1.015200E+08  0.05000  1.700E-03    0   0.7096   age116_m72            0.0000     1.8519E-04     5.7442   1.7991   109.2340
 59      0.4036     1.3625E-02    1.7170E-02    2.861200E+08  0.05000  7.384E-04    0   0.6633   age125_m72            0.0000     1.5411E-04     5.0788   1.3260   111.4970
 60      2.1170     1.3816E-01    1.6726E-01    5.088000E+08  0.05000  3.819E-04    0   0.6372   age130_m72            0.0000     1.1094E-04     4.2995   0.8545   112.1489
 61      0.0000     0.0000E+00    0.0000E+00    9.047900E+08  0.05000  1.676E-04    0   0.6110   age135_m72            0.0000     6.8044E-05     3.3358   0.1216   112.0002
 62      0.0000     0.0000E+00    0.0000E+00    1.434000E+09  0.05000  8.837E-05    0   0.5874   age139_m72            0.0000     5.3781E-05     2.8917  -0.3332   111.4837
 63      7.1469     4.2082E+00    4.4757E+00    2.500000E+09  0.05000  4.233E-05    0   0.5598   age150_m72            0.0000     6.3228E-05     3.0872  -0.6680   111.2854
 64     14.2523     2.4755E+01    2.4687E+01    6.250000E+09  0.05000  1.435E-05    0   0.5249   age166_m72            0.0000     1.2069E-04     4.3866  -1.0000   106.7433
 65      0.0000     0.0000E+00    0.0000E+00    1.300000E+10  0.05000  6.513E-06    0   0.5036   age193_m72            0.0000     4.6682E-04     9.4218  -1.0000   100.4570
 66      0.0000     0.0000E+00    0.0000E+00    1.800000E+10  0.05000  4.527E-06    0   0.4945   age213_m72            0.0000     8.1019E-04    12.4335  -1.0000    95.7188


## Synthesis Results - Average & Chains ##

# j      x_j: min, <> & last-chain-values for 1 ...  7 chains
  1      0.1511      4.4486      5.1329      4.8007      3.9911      3.4614      5.7024      4.8211      5.2395
  2      2.6037      1.6974      1.4254      1.5096      0.4732      1.2408      1.5511      1.7383      1.5212
  3      0.0000      0.3108      0.1192      0.8147      0.7136      0.0000      0.0328      0.3030      0.4513
  4      0.0000      0.2248      0.0000      0.4426      0.0000      0.0000      0.0008      0.0000      0.0328
  5      0.0000      0.2640      0.9380      0.0453      1.6543      0.0497      0.0000      0.0682      0.9128
  6      0.0000      0.2493      0.3871      0.0632      0.5988      0.0250      0.0160      0.1302      0.3355
  7      0.0000      0.3475      0.0000      0.2690      0.6100      0.1706      0.2701      0.7481      0.0802
  8      0.0000      0.2282      0.0000      0.1569      0.1108      0.0162      0.0184      0.0218      0.0000
  9      0.0000      0.2675      0.0846      0.0000      1.4643      0.0041      0.0653      0.1784      0.0000
 10      0.0000      0.1869      0.0000      0.4897      0.5313      0.0493      0.0131      0.5971      0.3860
 11      0.0000      0.2176      0.0000      0.5810      0.7478      0.0000      0.0039      0.0000      0.1336
 12      0.0000      0.3677      0.3365      0.0000      1.3469      0.0132      0.0157      0.1429      0.2716
 13     10.7270      1.2477      1.0094      1.7266      2.0456      1.1964      1.2913      1.6713      0.7994
 14      0.0000      0.3075      0.2922      0.3469      1.0301      0.0085      0.0269      0.3442      0.4298
 15     16.5584      1.2459      1.5366      1.3787      2.3770      0.6201      1.8321      1.5516      0.8131
 16      0.0000      0.2998      0.0893      1.2254      0.0000      0.1090      0.1039      0.0526      0.0727
 17      0.0000      0.5946      1.1829      0.7599      0.7347      0.3137      0.4004      0.7402      0.4715
 18      0.0000      1.2240      1.0573      1.7980      1.9004      1.1500      1.3220      1.0968      1.5282
 19      0.0000      0.3059      0.1116      0.3183      0.0000      0.1490      0.1849      0.0000      0.1739
 20      0.0000      0.1808      0.0000      0.3207      0.0000      0.0217      0.0265      0.1025      1.2275
 21      0.0000      0.4061      0.7453      0.5592      0.0000      0.2872      0.3874      0.7263      0.0000
 22      0.0000      0.2623      0.2993      0.3070      0.0000      0.0521      0.0095      0.8005      0.0000
 23      0.0000      0.2020      0.5428      0.4270      2.0054      0.0084      0.0034      0.1456      0.5363
 24      0.0000      0.2313      0.0000      0.0000      0.2430      0.0137      0.0021      0.1201      0.4039
 25      0.0000      0.3120      0.2426      0.0000      0.1818      0.0310      0.0000      0.5181      0.3412
 26      0.0000      0.2775      0.4502      0.0000      0.2667      0.0652      0.0153      0.0000      0.4078
 27      0.0000      0.2022      0.0093      0.0000      0.0000      0.0000      0.0047      0.2303      0.4021
 28      1.0734      0.6500      0.5236      0.7690      0.7264      0.7483      0.6633      0.4275      0.0000
 29      0.0000      0.2289      0.1193      0.0000      0.1370      0.0153      0.0327      0.2189      0.3272
 30      0.0000      0.3026      0.5329      0.2134      1.9853      0.0394      0.0253      0.8171      0.5569
 31      1.6012     10.0223     13.4895     11.2967      6.8425      2.5148     11.6956     10.5047     11.3325
 32     32.5893      2.8475      2.7176      2.7027      3.4647      1.7527      3.2367      3.0061      3.8715
 33      5.6008      0.4461      0.7634      0.7964      1.8268      0.3206      0.2913      0.7338      0.8187
 34      0.0000      1.2481      1.4923      1.4779      0.1063      0.8630      1.2985      1.1556      1.6973
 35      0.0000      3.1140      2.9632      2.5931      4.8242      6.0441      2.7705      0.7193      0.2492
 36      0.0000      0.2218      0.0691      0.1830      0.2597      0.0000      0.0283      0.0000      0.0000
 37      0.0000      0.3522      0.0000      0.7305      1.7866      0.0056      0.0072      0.0633      0.6285
 38      0.0000      0.1924      0.1012      0.0000      0.0000      0.0034      0.0570      0.1348      0.1186
 39      0.0000      0.2570      0.0000      0.1738      0.3121      0.0000      0.0000      0.0694      0.2718
 40      0.0000      0.2788      0.1377      0.0715      0.3255      0.0000      0.0385      0.2955      0.8174
 41      0.0000      0.3068      0.0000      0.1916      2.3741      0.0518      0.0128      0.4248      0.0000
 42      0.0000      0.2454      0.5201      0.0000      0.0000      0.0136      0.0739      0.2760      0.0177
 43      0.0000      0.2987      0.0052      0.1796      0.0000      0.0349      0.0070      0.0000      0.0065
 44      0.0000      2.3499      1.6462      2.4682      0.0000      1.8388      2.7076      3.1682      1.9867
 45      0.0000      1.8967      1.7826      2.6208      1.6006      0.4163      2.8981      1.4017      1.8564
 46      0.0000      0.7350      1.2367      0.8575      0.0000      0.2596      0.7653      0.9652      1.6006
 47      0.0000      2.5068      2.7863      2.5941      1.9464      0.8614      3.5501      2.6773      1.6056
 48      6.1032     13.8058     13.6737     12.7211     10.7104     21.8446     14.7933     14.5159     13.6747
 49      7.5212      5.1670      5.6332      5.2228      2.3927      3.7393      6.2508      5.1484      7.4453
 50      0.7032      5.9204      6.0931      6.1211      4.1066      5.5369      6.5014      6.8887      6.9240
 51      0.0000      1.6979      1.8964      1.1290      1.6134      1.3744      1.8010      1.4986      0.7116
 52      0.0000      0.2855      0.0000      0.0000      0.2031      0.0279      0.0183      0.0000      0.2203
 53      0.0000      0.2747      0.0000      0.5412      1.9814      0.0633      0.0102      0.0708      0.0000
 54      0.0000      0.1968      0.1311      0.0000      0.9144      0.0111      0.0192      0.2224      0.0000
 55      0.0000      0.4110      0.0000      0.0000      0.0000      0.0160      0.0535      0.0000      0.0000
 56      0.0000      0.2961      0.0000      0.4571      0.4933      0.0000      0.0319      0.0669      0.4374
 57      0.0000      0.2106      0.3055      0.0000      1.4286      0.0216      0.0166      0.2689      0.3239
 58      0.0000      0.1925      0.6391      0.0158      0.5265      0.0532      0.0082      0.1597      0.0000
 59      0.4036      0.9922      0.8811      1.5264      0.1528      1.6655      0.8378      1.4608      0.0451
 60      2.1170      0.4743      0.0000      0.8865      0.0000      0.7338      0.2721      0.0704      0.4579
 61      0.0000     10.1925      5.0438      9.0261     10.8183     15.8922      9.7985     11.9935     10.1911
 62      0.0000      0.2236      0.1791      0.8087      0.1042      0.0330      0.0228      0.3215      0.0218
 63      7.1469     14.7536     18.4927     13.4613     16.4786     23.4374     15.9362     12.6712     14.5316
 64     14.2523      2.7598      3.1149      2.9224      1.8406      2.6234      2.8082      2.5494      3.2301
 65      0.0000      1.2213      0.8421      0.8724      1.4933      1.1193      1.1267      1.7796      0.6162
 66      0.0000      1.5293      1.6538      1.5476      0.0000      3.7264      1.2295      1.8034      1.5598

# j      m_j: min, <> & last-chain-values for 1 ...  7 chains
  1  6.5412E-04  2.2740E-02  2.4315E-02  2.4075E-02  2.7317E-02  1.5703E-02  2.7595E-02  2.2756E-02  2.4422E-02
  2  3.0767E-03  2.3687E-03  1.8433E-03  2.0667E-03  8.8410E-04  1.5367E-03  2.0491E-03  2.2399E-03  1.9357E-03
  3  0.0000E+00  6.4960E-04  2.3091E-04  1.6702E-03  1.9968E-03  0.0000E+00  6.4979E-05  5.8458E-04  8.6007E-04
  4  0.0000E+00  4.4246E-04  0.0000E+00  8.5458E-04  0.0000E+00  0.0000E+00  1.5091E-06  0.0000E+00  5.8870E-05
  5  0.0000E+00  9.8969E-04  3.2584E-03  1.6661E-04  8.3034E-03  1.6523E-04  0.0000E+00  2.3620E-04  3.1203E-03
  6  0.0000E+00  1.5160E-03  2.1814E-03  3.7703E-04  4.8750E-03  1.3478E-04  9.2036E-05  7.3074E-04  1.8600E-03
  7  0.0000E+00  3.0254E-03  0.0000E+00  2.2977E-03  7.1104E-03  1.3180E-03  2.2256E-03  6.0135E-03  6.3650E-04
  8  0.0000E+00  2.7455E-03  0.0000E+00  1.8515E-03  1.7848E-03  1.7275E-04  2.0921E-04  2.4210E-04  0.0000E+00
  9  0.0000E+00  3.6842E-03  1.0799E-03  0.0000E+00  2.7001E-02  4.9704E-05  8.5188E-04  2.2679E-03  0.0000E+00
 10  0.0000E+00  3.3811E-03  0.0000E+00  8.6902E-03  1.2870E-02  7.9196E-04  2.2469E-04  9.9727E-03  6.3668E-03
 11  0.0000E+00  7.4000E-03  0.0000E+00  1.9389E-02  3.4058E-02  0.0000E+00  1.2422E-04  0.0000E+00  4.1430E-03
 12  0.0000E+00  1.9840E-02  1.6826E-02  0.0000E+00  9.7308E-02  6.3023E-04  8.0354E-04  7.1218E-03  1.3361E-02
 13  1.3814E+00  1.8975E-01  1.4225E-01  2.5761E-01  4.1655E-01  1.6148E-01  1.8591E-01  2.3470E-01  1.1086E-01
 14  0.0000E+00  1.5683E-01  1.3814E-01  1.7361E-01  7.0354E-01  3.8469E-03  1.3004E-02  1.6212E-01  1.9990E-01
 15  1.1643E+01  1.0346E+00  1.1824E+00  1.1232E+00  2.6429E+00  4.5701E-01  1.4402E+00  1.1897E+00  6.1569E-01
 16  0.0000E+00  4.2092E-01  1.1623E-01  1.6879E+00  0.0000E+00  1.3577E-01  1.3816E-01  6.8174E-02  9.3096E-02
 17  0.0000E+00  1.0830E+00  1.9966E+00  1.3578E+00  1.7918E+00  5.0714E-01  6.9039E-01  1.2449E+00  7.8316E-01
 18  0.0000E+00  5.5288E-03  4.4258E-03  7.9676E-03  1.1494E-02  4.6101E-03  5.6531E-03  4.5745E-03  6.2948E-03
 19  0.0000E+00  5.5460E-04  1.8756E-04  5.6623E-04  0.0000E+00  2.3972E-04  3.1732E-04  0.0000E+00  2.8747E-04
 20  0.0000E+00  3.5786E-04  0.0000E+00  6.2281E-04  0.0000E+00  3.8068E-05  4.9691E-05  1.8728E-04  2.2155E-03
 21  0.0000E+00  9.7581E-04  1.6594E-03  1.3181E-03  0.0000E+00  6.1247E-04  8.8125E-04  1.6112E-03  0.0000E+00
 22  0.0000E+00  1.0658E-03  1.1269E-03  1.2234E-03  0.0000E+00  1.8789E-04  3.6410E-05  3.0031E-03  0.0000E+00
 23  0.0000E+00  1.1081E-03  2.7598E-03  2.2980E-03  1.4732E-02  4.0920E-05  1.7528E-05  7.3764E-04  2.6828E-03
 24  0.0000E+00  1.8882E-03  2.9029E-08  0.0000E+00  2.6559E-03  9.9590E-05  1.6473E-05  9.0525E-04  3.0064E-03
 25  0.0000E+00  3.5111E-03  2.5299E-03  0.0000E+00  2.7391E-03  3.1004E-04  0.0000E+00  5.3846E-03  3.5015E-03
 26  0.0000E+00  5.2212E-03  7.8476E-03  0.0000E+00  6.7170E-03  1.0894E-03  2.7318E-04  0.0000E+00  6.9956E-03
 27  0.0000E+00  7.6155E-03  3.2322E-04  0.0000E+00  0.0000E+00  0.0000E+00  1.6639E-04  8.0087E-03  1.3805E-02
 28  9.9330E-02  7.1030E-02  5.3029E-02  8.2448E-02  1.0629E-01  7.2572E-02  6.8619E-02  4.3142E-02  0.0000E+00
 29  0.0000E+00  4.3576E-02  2.1058E-02  0.0000E+00  3.4935E-02  2.5849E-03  5.8973E-03  3.8480E-02  5.6812E-02
 30  0.0000E+00  1.2037E-01  1.9647E-01  8.3291E-02  1.0575E+00  1.3917E-02  9.5168E-03  3.0013E-01  2.0202E-01
 31  9.4886E-01  7.0137E+00  8.7479E+00  7.7556E+00  6.4115E+00  1.5619E+00  7.7483E+00  6.7878E+00  7.2315E+00
 32  2.5984E+01  2.6812E+00  2.3713E+00  2.4966E+00  4.3682E+00  1.4647E+00  2.8852E+00  2.6136E+00  3.3241E+00
 33  9.8859E+00  9.2991E-01  1.4745E+00  1.6286E+00  5.0987E+00  5.9309E-01  5.7490E-01  1.4124E+00  1.5561E+00
 34  0.0000E+00  3.5231E+00  3.9036E+00  4.0925E+00  4.0182E-01  2.1620E+00  3.4699E+00  3.0119E+00  4.3686E+00
 35  0.0000E+00  1.1279E-02  9.9456E-03  9.2141E-03  2.3396E-02  1.9428E-02  9.4996E-03  2.4056E-03  8.2312E-04
 36  0.0000E+00  3.2498E-04  9.3824E-05  2.6313E-04  5.0955E-04  0.0000E+00  3.9206E-05  0.0000E+00  0.0000E+00
 37  0.0000E+00  5.5829E-04  0.0000E+00  1.1358E-03  3.7918E-03  7.9045E-06  1.0744E-05  9.2582E-05  9.0837E-04
 38  0.0000E+00  8.2636E-04  4.0263E-04  0.0000E+00  0.0000E+00  1.3082E-05  2.3188E-04  5.3455E-04  4.6424E-04
 39  0.0000E+00  1.5889E-03  0.0000E+00  1.0539E-03  2.5833E-03  0.0000E+00  0.0000E+00  3.9606E-04  1.5324E-03
 40  0.0000E+00  2.7867E-03  1.2757E-03  7.0096E-04  4.3562E-03  0.0000E+00  3.6379E-04  2.7271E-03  7.4493E-03
 41  0.0000E+00  4.7685E-03  0.0000E+00  2.9219E-03  4.9401E-02  7.1471E-04  1.8764E-04  6.0951E-03  0.0000E+00
 42  0.0000E+00  7.0024E-03  1.3751E-02  0.0000E+00  0.0000E+00  3.4422E-04  1.9972E-03  7.2708E-03  4.5970E-04
 43  0.0000E+00  1.2443E-02  2.0220E-04  7.3386E-03  0.0000E+00  1.2920E-03  2.7491E-04  0.0000E+00  2.4618E-04
 44  0.0000E+00  1.6855E-01  1.0942E-01  1.7368E-01  0.0000E+00  1.1705E-01  1.8385E-01  2.0983E-01  1.2994E-01
 45  0.0000E+00  2.6994E-01  2.3510E-01  3.6591E-01  3.0500E-01  5.2585E-02  3.9047E-01  1.8419E-01  2.4091E-01
 46  0.0000E+00  1.9227E-01  2.9979E-01  2.2005E-01  0.0000E+00  6.0278E-02  1.8953E-01  2.3314E-01  3.8181E-01
 47  0.0000E+00  1.3288E+00  1.3687E+00  1.3490E+00  1.3814E+00  4.0521E-01  1.7815E+00  1.3104E+00  7.7605E-01
 48  4.8313E+00  1.2906E+01  1.1845E+01  1.1667E+01  1.3406E+01  1.8123E+01  1.3092E+01  1.2530E+01  1.1657E+01
 49  1.3531E+01  1.0978E+01  1.1091E+01  1.0886E+01  6.8068E+00  7.0507E+00  1.2573E+01  1.0100E+01  1.4424E+01
 50  2.3432E+00  2.3298E+01  2.2219E+01  2.3631E+01  2.1638E+01  1.9337E+01  2.4220E+01  2.5030E+01  2.4845E+01
 51  0.0000E+00  3.6625E-03  3.7908E-03  2.3892E-03  4.6598E-03  2.6311E-03  3.6779E-03  2.9848E-03  1.3997E-03
 52  0.0000E+00  3.1563E-04  0.0000E+00  0.0000E+00  3.0063E-04  2.7325E-05  1.9099E-05  0.0000E+00  2.2206E-04
 53  0.0000E+00  4.5745E-04  0.0000E+00  8.8414E-04  4.4175E-03  9.3555E-05  1.6031E-05  1.0886E-04  0.0000E+00
 54  0.0000E+00  6.7151E-04  4.1445E-04  0.0000E+00  4.1772E-03  3.3614E-05  6.1965E-05  7.0059E-04  0.0000E+00
 55  0.0000E+00  2.1589E-03  0.0000E+00  0.0000E+00  0.0000E+00  7.4544E-05  2.6602E-04  0.0000E+00  0.0000E+00
 56  0.0000E+00  3.0785E-03  0.0000E+00  4.6622E-03  6.8678E-03  0.0000E+00  3.1366E-04  6.4195E-04  4.1471E-03
 57  0.0000E+00  2.9064E-03  3.9074E-03  0.0000E+00  2.6398E-02  2.6462E-04  2.1648E-04  3.4263E-03  4.0765E-03
 58  0.0000E+00  4.4942E-03  1.3824E-02  3.6284E-04  1.6455E-02  1.1015E-03  1.8152E-04  3.4424E-03  0.0000E+00
 59  1.7170E-02  4.9841E-02  4.1019E-02  7.5222E-02  1.0278E-02  7.4253E-02  3.9845E-02  6.7759E-02  2.0675E-03
 60  1.6726E-01  4.4254E-02  0.0000E+00  8.1152E-02  0.0000E+00  6.0762E-02  2.4034E-02  6.0676E-03  3.8962E-02
 61  0.0000E+00  2.0780E+00  9.5288E-01  1.8053E+00  2.9531E+00  2.8754E+00  1.8911E+00  2.2577E+00  1.8945E+00
 62  0.0000E+00  8.3133E-02  6.1679E-02  2.9492E-01  5.1840E-02  1.0874E-02  8.0085E-03  1.1036E-01  7.3859E-03
 63  4.4757E+00  1.0911E+01  1.2674E+01  9.7666E+00  1.6318E+01  1.5383E+01  1.1157E+01  8.6529E+00  9.7996E+00
 64  2.4687E+01  5.6454E+00  5.9045E+00  5.8645E+00  5.0413E+00  4.7626E+00  5.4381E+00  4.8153E+00  6.0250E+00
 65  0.0000E+00  5.2809E+00  3.3742E+00  3.7006E+00  8.6459E+00  4.2953E+00  4.6122E+00  7.1055E+00  2.4298E+00
 66  0.0000E+00  9.3417E+00  9.3617E+00  9.2742E+00  0.0000E+00  2.0202E+01  7.1103E+00  1.0172E+01  8.6885E+00

# AV, chi2 & Mass for <> & i_chain = 1 ...  7 solutions
AV      -0.5473     -0.1739     -0.2093     -0.1252      0.0852     -0.2694     -0.1994     -0.1806     -0.2015
chi2 4.7613E-05  1.2831E-04  9.9519E-05  1.0348E-04  1.0083E-04  8.8574E-05  1.0700E-04  1.0335E-04  1.0540E-04
Mass 8.6604E-13  1.2109E-12  1.2461E-12  1.3178E-12  1.2808E-12  1.2002E-12  1.2360E-12  1.2996E-12  1.2796E-12
  63.86                                  [v0_min (km/s) before EX0s...]
 112.92                                  [vd_min (km/s) before EX0s...]


## Synthetic spectrum (Best Model) ##l_obs f_obs f_syn wei
 3478    [Nl_obs]
 3741.00    0.49387   0.64304    0.000
 3742.00    0.48967   0.65178    0.000
 3743.00    0.48514   0.62888    0.000
 3744.00    0.45765   0.58809    0.000
 3745.00    0.41678   0.54459   -1.000
 3746.00    0.44541   0.50620   -1.000
 3747.00    0.50933   0.47201   -1.000
 3748.00    0.52573   0.43994   -1.000
 3749.00    0.52124   0.41608   -1.000
 3750.00    0.51715   0.41558   -1.000
 3751.00    0.51323   0.45059   -1.000
 3752.00    0.53877   0.51578   -1.000
 3753.00    0.57376   0.59149   -1.000
 3754.00    0.59707   0.65880   -1.000
 3755.00    0.61723   0.70416   -1.000
 3756.00    0.59676   0.71501   -1.000
 3757.00    0.56736   0.68601   -1.000
 3758.00    0.55113   0.63268   -1.000
 3759.00    0.53719   0.58718   -1.000
 3760.00    0.53494   0.57323   -1.000
 3761.00    0.53423   0.58776   -1.000
 3762.00    0.56332   0.60965   -1.000
 3763.00    0.59521   0.62320   -1.000
 3764.00    0.63028   0.62729   -1.000
 3765.00    0.66554   0.62571   -1.000
 3766.00    0.64566   0.61933   -1.000
 3767.00    0.62465   0.60872   -1.000
 3768.00    0.62610   0.59839   -1.000
 3769.00    0.62954   0.59429   -1.000
 3770.00    0.68152   0.59835   -1.000
 3771.00    0.72826   0.61081   -1.000
 3772.00    0.70630   0.63384   -1.000
 3773.00    0.68317   0.66522   -1.000
 3774.00    0.64982   0.69433   -1.000
 3775.00    0.62496   0.71272   -1.000
 3776.00    0.65520   0.72280   -1.000
 3777.00    0.68208   0.73230   -1.000
 3778.00    0.69200   0.74625   -1.000
 3779.00    0.70545   0.76549   -1.000
 3780.00    0.73339   0.78770   -1.000
 3781.00    0.75584   0.80826   -1.000
 3782.00    0.75970   0.82265   -1.000
 3783.00    0.75448   0.82926   -1.000
 3784.00    0.72332   0.82612   -1.000
 3785.00    0.70666   0.80708   -1.000
 3786.00    0.72548   0.76868   -1.000
 3787.00    0.73828   0.71914   -1.000
 3788.00    0.73844   0.67505   -1.000
 3789.00    0.71193   0.64853   -1.000
 3790.00    0.63656   0.64022   -1.000
 3791.00    0.58166   0.64334   -1.000
 3792.00    0.55951   0.64709   -1.000
 3793.00    0.55815   0.64001   -1.000
 3794.00    0.58601   0.61798   -1.000
 3795.00    0.58678   0.58728   -1.000
 3796.00    0.55405   0.55568   -1.000
 3797.00    0.54207   0.52656   -1.000
 3798.00    0.55272   0.50506   -1.000
 3799.00    0.57395   0.50270   -1.000
 3800.00    0.60535   0.52943   -1.000
 3801.00    0.64742   0.58166   -1.000
 3802.00    0.69852   0.64328   -1.000
 3803.00    0.73877   0.69775   -1.000
 3804.00    0.77091   0.73520   -1.000
 3805.00    0.78347   0.75088   -1.000
 3806.00    0.78317   0.74640   -1.000
 3807.00    0.78375   0.73412   -1.000
 3808.00    0.78482   0.73098   -1.000
 3809.00    0.74478   0.74517   -1.000
 3810.00    0.68420   0.76859   -1.000
 3811.00    0.62797   0.78249   -1.000
 3812.00    0.57363   0.77249   -1.000
 3813.00    0.55054   0.73822   -1.000
 3814.00    0.53904   0.69145   -1.000
 3815.00    0.53411   0.64965   -1.000
 3816.00    0.53124   0.62743   -1.000
 3817.00    0.55816   0.62632   -1.000
 3818.00    0.59289   0.63283   -1.000
 3819.00    0.56941   0.62872   -1.000
 3820.00    0.53346   0.60907   -1.000
 3821.00    0.52992   0.58866   -1.000
 3822.00    0.53188   0.58275   -1.000
 3823.00    0.55623   0.58600   -1.000
 3824.00    0.58344   0.57911   -1.000
 3825.00    0.52087   0.55391   -1.000
 3826.00    0.45023   0.52274   -1.000
 3827.00    0.46205   0.50210   -1.000
 3828.00    0.47831   0.49645   -1.000
 3829.00    0.48182   0.49931   -1.000
 3830.00    0.48491   0.50093   -1.000
 3831.00    0.47362   0.49271   -1.000
 3832.00    0.46444   0.47097   -1.000
 3833.00    0.50200   0.44091   -1.000
 3834.00    0.53458   0.41563   -1.000
 3835.00    0.50516   0.40615   -1.000
 3836.00    0.47513   0.41142   -1.000
 3837.00    0.43987   0.42199   -1.000
 3838.00    0.41307   0.43024   -1.000
 3839.00    0.43947   0.43692   -1.000
 3840.00    0.46007   0.45133   -1.000
 3841.00    0.45199   0.48275   -1.000
 3842.00    0.45611   0.53062   -1.000
 3843.00    0.50905   0.58477   -1.000
 3844.00    0.55660   0.63142   -1.000
 3845.00    0.58621   0.66192   -1.000
 3846.00    0.60685   0.67896   -1.000
 3847.00    0.60234   0.68874    0.000
 3848.00    0.59589   0.69252    0.000
 3849.00    0.58481   0.68896    0.000
 3850.00    0.57050   0.68130    0.000
 3851.00    0.54951   0.67846    0.000
 3852.00    0.53369   0.68551    0.000
 3853.00    0.52721   0.69545    0.000
 3854.00    0.54892   0.69600    0.000
 3855.00    0.61510   0.68369    0.000
 3856.00    0.63090   0.66488    0.000
 3857.00    0.57693   0.64437    0.000
 3858.00    0.54289   0.62228    0.000
 3859.00    0.53313   0.60067    0.000
 3860.00    0.53336   0.58865    0.000
 3861.00    0.54434   0.59912    0.000
 3862.00    0.54792   0.63444    0.000
 3863.00    0.54449   0.67854    0.000
 3864.00    0.56120   0.71010    0.000
 3865.00    0.59473   0.72050    0.000
 3866.00    0.63544   0.71650    0.000
 3867.00    0.68143   0.70868    0.000
 3868.00    0.68245   0.70095    0.000
 3869.00    0.65442   0.68933    0.000
 3870.00    0.62789   0.66916    0.000
 3871.00    0.60222   0.64238    0.000
 3872.00    0.61457   0.61957    0.000
 3873.00    0.64564   0.61464    0.000
 3874.00    0.64623   0.63264    0.000
 3875.00    0.63387   0.66262    0.000
 3876.00    0.62360   0.68264    0.000
 3877.00    0.61408   0.67736    0.000
 3878.00    0.59375   0.65277    0.000
 3879.00    0.57010   0.62844    0.000
 3880.00    0.56755   0.61729    0.000
 3881.00    0.57041   0.61700   -1.000
 3882.00    0.62050   0.61812   -1.000
 3883.00    0.68046   0.61730   -1.000
 3884.00    0.65151   0.61501   -1.000
 3885.00    0.60789   0.60522   -1.000
 3886.00    0.60247   0.58058   -1.000
 3887.00    0.60178   0.54599   -1.000
 3888.00    0.57174   0.51913   -1.000
 3889.00    0.53919   0.51513   -1.000
 3890.00    0.60223   0.53716   -1.000
 3891.00    0.67004   0.58022   -1.000
 3892.00    0.68924   0.63202   -1.000
 3893.00    0.70753   0.67487   -1.000
 3894.00    0.71810   0.69827   -1.000
 3895.00    0.72741   0.70643   -1.000
 3896.00    0.71080   0.71120   -1.000
 3897.00    0.70254   0.71916   -1.000
 3898.00    0.79295   0.72843   -1.000
 3899.00    0.87599   0.73451   -1.000
 3900.00    0.89906   0.73827   -1.000
 3901.00    0.90664   0.74407   -1.000
 3902.00    0.81960   0.75026   -1.000
 3903.00    0.74285   0.74997   -1.000
 3904.00    0.71569   0.73908   -1.000
 3905.00    0.70361   0.72404   -1.000
 3906.00    0.75063   0.71697   -1.000
 3907.00    0.79168   0.72644   -1.000
 3908.00    0.81327   0.75466   -1.000
 3909.00    0.83346   0.79278   -1.000
 3910.00    0.84977   0.82663   -1.000
 3911.00    0.85933   0.84943   -1.000
 3912.00    0.85292   0.86160   -1.000
 3913.00    0.85785   0.86490   -1.000
 3914.00    0.88591   0.86005   -1.000
 3915.00    0.90198   0.84879   -1.000
 3916.00    0.89676   0.83490   -1.000
 3917.00    0.87248   0.81938   -1.000
 3918.00    0.81858   0.79994   -1.000
 3919.00    0.76289   0.77544   -1.000
 3920.00    0.70475   0.74718   -1.000
 3921.00    0.67075   0.72108   -1.000
 3922.00    0.66574   0.70538   -1.000
 3923.00    0.66613   0.70288   -1.000
 3924.00    0.67225   0.70617   -1.000
 3925.00    0.66693   0.70240   -1.000
 3926.00    0.65091   0.68180   -1.000
 3927.00    0.62966   0.64163   -1.000
 3928.00    0.60408   0.58699   -1.000
 3929.00    0.55769   0.52531   -1.000
 3930.00    0.49622   0.46250   -1.000
 3931.00    0.44956   0.40247   -1.000
 3932.00    0.41232   0.34767   -1.000
 3933.00    0.37368   0.30313   -1.000
 3934.00    0.33427   0.27759   -1.000
 3935.00    0.34718   0.27941   -1.000
 3936.00    0.38540   0.31089   -1.000
 3937.00    0.43383   0.36589   -1.000
 3938.00    0.48653   0.43308   -1.000
 3939.00    0.57141   0.50079   -1.000
 3940.00    0.66782   0.55936   -1.000
 3941.00    0.67904   0.60215   -1.000
 3942.00    0.66450   0.62664   -1.000
 3943.00    0.66607   0.63776   -1.000
 3944.00    0.67168   0.64787   -1.000
 3945.00    0.68890   0.66828   -1.000
 3946.00    0.70850   0.70053   -1.000
 3947.00    0.75496   0.73530   -1.000
 3948.00    0.80572   0.76153   -1.000
 3949.00    0.78811   0.77886   -1.000
 3950.00    0.76235   0.79468   -1.000
 3951.00    0.85404   0.80992   -1.000
 3952.00    0.95531   0.81941   -1.000
 3953.00    0.94007   0.82279   -1.000
 3954.00    0.91949   0.82437   -1.000
 3955.00    0.89806   0.82484   -1.000
 3956.00    0.87582   0.81915   -1.000
 3957.00    0.81166   0.80607   -1.000
 3958.00    0.75123   0.79266   -1.000
 3959.00    0.76111   0.78005   -1.000
 3960.00    0.76545   0.75604    0.000
 3961.00    0.70724   0.71055    0.000
 3962.00    0.65503   0.64934    0.000
 3963.00    0.64993   0.58834    0.000
 3964.00    0.63691   0.53651    0.000
 3965.00    0.57691   0.48737    0.000
 3966.00    0.51329   0.43063    0.000
 3967.00    0.43265   0.36684    0.000
 3968.00    0.38002   0.30852    0.000
 3969.00    0.43468   0.27209    0.000
 3970.00    0.48739   0.26854    0.000
 3971.00    0.53387   0.29849    0.000
 3972.00    0.57086   0.35315    0.000
 3973.00    0.58213   0.42045    0.000
 3974.00    0.62117   0.49093    0.000
 3975.00    0.72470   0.55934    0.000
 3976.00    0.81821   0.62358    0.000
 3977.00    0.89159   0.68294    0.000
 3978.00    0.93796   0.73783    0.000
 3979.00    0.93709   0.78818    0.000
 3980.00    0.91403   0.82950    0.000
 3981.00    0.85698   0.85533    0.321
 3982.00    0.84376   0.86474    0.229
 3983.00    0.88948   0.86500    0.232
 3984.00    0.89820   0.86713    0.231
 3985.00    0.86309   0.87676    0.226
 3986.00    0.85648   0.89251    0.224
 3987.00    0.87964   0.91095    0.225
 3988.00    0.92248   0.92815    0.228
 3989.00    0.98345   0.94162    0.232
 3990.00    0.99806   0.95072    0.230
 3991.00    0.97504   0.95751    0.223
 3992.00    0.97097   0.96641    0.221
 3993.00    0.98043   0.97579    0.223
 3994.00    0.99484   0.97825    0.225
 3995.00    1.01235   0.96928    0.226
 3996.00    0.99614   0.95160    0.228
 3997.00    0.96145   0.93467    0.231
 3998.00    0.94232   0.92983    0.228
 3999.00    0.93060   0.94319    0.223
 4000.00    0.93690   0.97117    0.225
 4001.00    0.95061   1.00203    0.228
 4002.00    0.93991   1.02292    0.232
 4003.00    0.92064   1.02564    0.237
 4004.00    0.92639   1.00696    0.236
 4005.00    0.93955   0.97188    0.232
 4006.00    0.93831   0.93824    0.230
 4007.00    0.93354   0.92785    0.227
 4008.00    0.92580   0.94694    0.227
 4009.00    0.91747   0.98032    0.228
 4010.00    0.98186   1.00895    0.229
 4011.00    1.05754   1.02572    0.230
 4012.00    1.06475   1.03391    0.232
 4013.00    1.06409   1.03867    0.233
 4014.00    1.06395   1.04363    0.231
 4015.00    1.06386   1.04917    0.228
 4016.00    1.08429   1.05247    0.227
 4017.00    1.10558   1.05271    0.225
 4018.00    1.07685   1.05260    0.223
 4019.00    1.04778   1.05596    0.222
 4020.00    1.02440   1.06277    0.221
 4021.00    1.00226   1.06669    0.220
 4022.00    1.00211   1.06276    0.220
 4023.00    1.00530   1.05303    0.220
 4024.00    1.04457   1.04352    0.222
 4025.00    1.07658   1.04054    0.224
 4026.00    1.05354   1.04879    0.227
 4027.00    1.02845   1.06673    0.230
 4028.00    0.99156   1.08129    0.233
 4029.00    0.96302   1.07472    0.236
 4030.00    0.97277   1.04038    0.239
 4031.00    0.96177   0.98796    0.238
 4032.00    0.87295   0.93788    0.221
 4033.00    0.81481   0.90923    0.213
 4034.00    0.85283   0.90870    0.224
 4035.00    0.89750   0.93438    0.235
 4036.00    0.95985   0.98037    0.244
 4037.00    1.00247   1.03445    0.246
 4038.00    1.00000   1.08014    0.231
 4039.00    1.01501   1.10370    0.223
 4040.00    1.06458   1.10343    0.228
 4041.00    1.08411   1.08933    0.229
 4042.00    1.05190   1.06976    0.225
 4043.00    1.01863   1.04126    0.223
 4044.00    0.98378   0.99427    0.222
 4045.00    0.95182   0.93345    0.223
 4046.00    0.92372   0.88690    0.225
 4047.00    0.91371   0.88360    0.225
 4048.00    0.92482   0.92654    0.222
 4049.00    0.96337   0.98998    0.222
 4050.00    1.03017   1.04274    0.226
 4051.00    1.03182   1.07073    0.227
 4052.00    0.97433   1.07479    0.225
 4053.00    0.95556   1.06068    0.228
 4054.00    0.96779   1.03719    0.236
 4055.00    0.95141   1.01329    0.235
 4056.00    0.91489   0.99297    0.227
 4057.00    0.89760   0.97784    0.225
 4058.00    0.89219   0.97062    0.225
 4059.00    0.90433   0.97466    0.226
 4060.00    0.92595   0.98853    0.228
 4061.00    0.92824   0.99807    0.229
 4062.00    0.92147   0.98531    0.229
 4063.00    0.89523   0.95013    0.225
 4064.00    0.86113   0.91438    0.219
 4065.00    0.89400   0.90181    0.220
 4066.00    0.94996   0.91794    0.224
 4067.00    0.94252   0.94955    0.224
 4068.00    0.91668   0.98204    0.223
 4069.00    0.91219   1.00729    0.221
 4070.00    0.91283   1.01664    0.219
 4071.00    0.90030   1.00591    0.217
 4072.00    0.88522   0.98651    0.216
 4073.00    0.94210   0.97736    0.216
 4074.00    1.00983   0.98283    0.216
 4075.00    0.98377   0.98455    0.213
 4076.00    0.94734   0.96469    0.210
 4077.00    0.95456   0.93009    0.211
 4078.00    0.96498   0.90603    0.214
 4079.00    0.99391   0.91411    0.217
 4080.00    1.02356   0.95471    0.221
 4081.00    1.04510   1.00635    0.220
 4082.00    1.06684   1.04345    0.219
 4083.00    1.09772   1.05343    0.217
 4084.00    1.12614   1.04254    0.214
 4085.00    1.11389   1.02977    0.217
 4086.00    1.10273   1.03203    0.219
 4087.00    1.10284   1.05343    0.219
 4088.00    1.10267   1.08493    0.220
 4089.00    1.10043   1.11125    0.219
 4090.00    1.09503   1.12072    0.219
 4091.00    1.07191   1.11229    0.223
 4092.00    1.04535   1.09459    0.000
 4093.00    1.00338   1.07572    0.000
 4094.00    0.96134   1.05588    0.000
 4095.00    0.91905   1.03045    0.000
 4096.00    0.88580   0.99656    0.000
 4097.00    0.88036   0.95899    0.000
 4098.00    0.88684   0.92424    0.000
 4099.00    0.92449   0.88925    0.000
 4100.00    0.95613   0.84653    0.000
 4101.00    0.97426   0.79928    0.000
 4102.00    0.98052   0.76471    0.000
 4103.00    0.96367   0.76235    0.000
 4104.00    0.95508   0.79728    0.000
 4105.00    0.96053   0.85464    0.000
 4106.00    0.97420   0.91306    0.000
 4107.00    1.00009   0.95783    0.000
 4108.00    1.00361   0.98256    0.000
 4109.00    0.97790   0.98923    0.000
 4110.00    0.98599   0.98604    0.000
 4111.00    1.03297   0.98292    0.000
 4112.00    1.05292   0.98820    0.000
 4113.00    1.04541   1.00421    0.226
 4114.00    1.03676   1.02705    0.223
 4115.00    1.02707   1.04965    0.215
 4116.00    1.01911   1.06403    0.209
 4117.00    1.01252   1.06470    0.205
 4118.00    1.01983   1.05189    0.204
 4119.00    1.03680   1.03285    0.207
 4120.00    1.02544   1.01819    0.206
 4121.00    0.99683   1.01426    0.202
 4122.00    1.02774   1.01833    0.207
 4123.00    1.09026   1.02555    0.217
 4124.00    1.07518   1.03494    0.218
 4125.00    1.02432   1.04471    0.215
 4126.00    1.01881   1.04944    0.216
 4127.00    1.03133   1.04409    0.218
 4128.00    1.00918   1.03047    0.220
 4129.00    0.97530   1.01443    0.220
 4130.00    0.95867   0.99842    0.219
 4131.00    0.94693   0.97992    0.217
 4132.00    0.93908   0.95877    0.216
 4133.00    0.93213   0.94161    0.215
 4134.00    0.96064   0.94042    0.216
 4135.00    0.99583   0.96100    0.216
 4136.00    1.00825   0.99632    0.215
 4137.00    1.01734   1.03434    0.213
 4138.00    0.99532   1.06402    0.216
 4139.00    0.96999   1.08117    0.219
 4140.00    0.98770   1.08391    0.222
 4141.00    1.00837   1.06627    0.226
 4142.00    0.93427   1.02634    0.219
 4143.00    0.85689   0.97562    0.213
 4144.00    0.93448   0.93731    0.213
 4145.00    1.00967   0.93097    0.213
 4146.00    0.99528   0.95602    0.214
 4147.00    0.97997   0.99158    0.215
 4148.00    0.95064   1.01593    0.215
 4149.00    0.92608   1.02210    0.214
 4150.00    0.94865   1.01586    0.212
 4151.00    0.96541   1.00636    0.210
 4152.00    0.94101   0.99896    0.212
 4153.00    0.92604   0.99202    0.214
 4154.00    0.96249   0.98381    0.218
 4155.00    0.99884   0.97587    0.221
 4156.00    1.03472   0.97287    0.217
 4157.00    1.05131   0.97930    0.213
 4158.00    0.99855   0.99534    0.210
 4159.00    0.95199   1.01773    0.206
 4160.00    0.92413   1.04039    0.204
 4161.00    0.92200   1.05934    0.203
 4162.00    0.98591   1.07380    0.205
 4163.00    1.02400   1.08343    0.207
 4164.00    1.00505   1.08614    0.209
 4165.00    0.98854   1.07883    0.210
 4166.00    0.97673   1.06296    0.211
 4167.00    0.97398   1.04519    0.262
 4168.00    0.98640   1.03231    0.703
 4169.00    0.98794   1.02685   -1.000
 4170.00    0.97355   1.02253   -1.000
 4171.00    0.96060   1.00694   -1.000
 4172.00    0.94953   0.97635   -1.000
 4173.00    0.93489   0.94200   -1.000
 4174.00    0.91620   0.92111   -1.000
 4175.00    0.91353   0.92140   -1.000
 4176.00    0.92690   0.93493   -1.000
 4177.00    0.92641   0.94953   -1.000
 4178.00    0.91369   0.96072   -1.000
 4179.00    0.88949   0.97098   -1.000
 4180.00    0.85634   0.98188   -1.000
 4181.00    0.86478   0.99020   -1.000
 4182.00    0.90165   0.99350   -1.000
 4183.00    0.93085   0.99567   -1.000
 4184.00    0.95547   1.00273   -1.000
 4185.00    0.95948   1.01189   -1.000
 4186.00    0.95272   1.01380   -1.000
 4187.00    0.97183   1.00497   -1.000
 4188.00    1.00266   0.99296   -1.000
 4189.00    1.01549   0.99020   -1.000
 4190.00    1.02128   1.00017   -1.000
 4191.00    0.99660   1.01662   -1.000
 4192.00    0.96179   1.03367   -1.000
 4193.00    0.96136   1.04812   -1.000
 4194.00    0.97051   1.05401   -1.000
 4195.00    0.92772   1.04312   -1.000
 4196.00    0.87301   1.01454   -1.000
 4197.00    0.86062   0.97801   -1.000
 4198.00    0.85599   0.94678   -1.000
 4199.00    0.87246   0.92824   -1.000
 4200.00    0.89191   0.92223   -1.000
 4201.00    0.93258   0.92485   -1.000
 4202.00    0.97542   0.93189   -1.000
 4203.00    0.96277   0.94291   -1.000
 4204.00    0.94651   0.96081   -1.000
 4205.00    0.97738   0.98510   -1.000
 4206.00    1.00971   1.01187   -1.000
 4207.00    1.04685   1.03764   -1.000
 4208.00    1.08293   1.05769   -1.000
 4209.00    1.08801   1.06846   -1.000
 4210.00    1.09281   1.07096   -1.000
 4211.00    1.09347   1.06993   -1.000
 4212.00    1.08895   1.06878    4.166
 4213.00    1.03544   1.06366    0.364
 4214.00    0.99035   1.04710    0.202
 4215.00    1.00305   1.02147    0.201
 4216.00    1.01409   1.00156    0.200
 4217.00    1.01630   1.00320    0.198
 4218.00    1.01887   1.02956    0.198
 4219.00    1.02293   1.06696    0.198
 4220.00    1.02833   1.09744    0.198
 4221.00    1.03844   1.10933    0.200
 4222.00    1.02120   1.09722    0.200
 4223.00    0.92299   1.05865    0.196
 4224.00    0.84119   0.99546    0.193
 4225.00    0.80081   0.91623    0.190
 4226.00    0.77837   0.84002    0.188
 4227.00    0.79492   0.79455    0.187
 4228.00    0.81789   0.80147    0.186
 4229.00    0.85295   0.85991    0.186
 4230.00    0.88845   0.94143    0.187
 4231.00    0.92467   1.00924    0.187
 4232.00    0.93272   1.04337    0.188
 4233.00    0.90009   1.04531    0.188
 4234.00    0.89711   1.02823    0.190
 4235.00    0.93178   1.00703    0.192
 4236.00    0.94378   0.99053    0.193
 4237.00    0.93040   0.98131    0.191
 4238.00    0.92530   0.98172    0.190
 4239.00    0.92836   0.99176    0.189
 4240.00    0.95427   1.00922    0.189
 4241.00    1.00004   1.03131    0.189
 4242.00    1.00450   1.05532    0.190
 4243.00    0.97729   1.07845    0.191
 4244.00    1.00182   1.09749    0.193
 4245.00    1.06122   1.10844    0.196
 4246.00    1.07912   1.10407    0.200
 4247.00    1.07253   1.08104    0.204
 4248.00    1.03436   1.04561    0.206
 4249.00    0.97992   1.00940    0.205
 4250.00    0.93105   0.98371    0.203
 4251.00    0.88465   0.97417    0.200
 4252.00    0.88484   0.97905    0.199
 4253.00    0.90288   0.98917    0.199
 4254.00    0.94925   0.99462    0.196
 4255.00    1.00486   0.99665    0.194
 4256.00    0.99672   1.00451    0.194
 4257.00    0.97118   1.01852    0.195
 4258.00    0.99734   1.02543    0.197
 4259.00    1.03510   1.01215    0.199
 4260.00    1.04686   0.98502    0.200
 4261.00    1.05397   0.96712    0.201
 4262.00    1.04905   0.97772    0.202
 4263.00    1.04250   1.01737    0.202
 4264.00    0.98115   1.06820    0.200
 4265.00    0.91446   1.10922    0.197
 4266.00    0.95324   1.12828    0.198
 4267.00    0.99847   1.12344    0.199
 4268.00    1.00328   1.09726    0.198
 4269.00    1.00700   1.05426    0.198
 4270.00    1.01079   0.99958    0.199
 4271.00    1.01251   0.94144    0.200
 4272.00    0.95932   0.89282    0.197
 4273.00    0.90719   0.86667    0.194
 4274.00    0.86954   0.86857    0.192
 4275.00    0.84000   0.89394    0.191
 4276.00    0.88403   0.93612    0.194
 4277.00    0.92608   0.98741    0.197
 4278.00    0.95486   1.03302    0.196
 4279.00    0.98568   1.05739    0.196
 4280.00    1.02699   1.05678    0.198
 4281.00    1.05179   1.04131    0.198
 4282.00    1.00761   1.02746   -2.000
 4283.00    0.98768   1.02250   -2.000
 4284.00    1.05144   1.02109   -2.000
 4285.00    1.08840   1.01558   -2.000
 4286.00    1.04750   1.00220   -2.000
 4287.00    1.01062   0.98255   -2.000
 4288.00    0.98374   0.95769   -2.000
 4289.00    0.95713   0.92836   -2.000
 4290.00    0.93112   0.90183   -2.000
 4291.00    0.91313   0.89236   -2.000
 4292.00    0.91003   0.90793   -2.000
 4293.00    0.90966   0.93868   -2.000
 4294.00    0.91371   0.96598   -2.000
 4295.00    0.90104   0.97576   -2.000
 4296.00    0.86458   0.96623   -2.000
 4297.00    0.84919   0.93994   -2.000
 4298.00    0.86015   0.89788    0.189
 4299.00    0.84819   0.84632    0.188
 4300.00    0.81095   0.79788    0.186
 4301.00    0.77339   0.76633    0.185
 4302.00    0.73552   0.75738    0.184
 4303.00    0.71348   0.76436    0.183
 4304.00    0.70501   0.77605    0.184
 4305.00    0.70746   0.78353    0.185
 4306.00    0.71814   0.77963    0.186
 4307.00    0.73401   0.76318    0.186
 4308.00    0.75331   0.74163    0.185
 4309.00    0.75864   0.72812    0.185
 4310.00    0.75585   0.73504    0.186
 4311.00    0.76686   0.76442    0.185
 4312.00    0.78486   0.80904    0.183
 4313.00    0.85206   0.86052    0.183
 4314.00    0.94083   0.91699    0.184
 4315.00    0.99316   0.98176    0.186
 4316.00    1.03177   1.05469    0.188
 4317.00    1.06590   1.12614    0.189
 4318.00    1.09860   1.17861    0.190
 4319.00    1.12010   1.20094    0.190
 4320.00    1.13860   1.19458    0.191
 4321.00    1.13246   1.16756    0.193
 4322.00    1.12092   1.12419    0.195
 4323.00    1.05341   1.06581    0.195
 4324.00    0.97616   0.99550    0.196
 4325.00    0.95740   0.92951    0.193
 4326.00    0.94637   0.89432    0.191
 4327.00    0.98040   0.90825    0.192
 4328.00    1.01865   0.96593    0.193
 4329.00    1.06113   1.03771    0.194
 4330.00    1.10385   1.09333    0.000
 4331.00    1.11129   1.12212    0.000
 4332.00    1.11805   1.13301    0.000
 4333.00    1.14153   1.13896    0.000
 4334.00    1.16417   1.14309    0.000
 4335.00    1.16681   1.13804    0.000
 4336.00    1.16374   1.11147    0.000
 4337.00    1.08618   1.05581    0.000
 4338.00    1.01540   0.97609    0.000
 4339.00    1.00390   0.89193    0.000
 4340.00    0.99284   0.82851    0.000
 4341.00    0.98466   0.80398    0.000
 4342.00    0.98281   0.82346    0.000
 4343.00    1.01296   0.87535    0.000
 4344.00    1.04354   0.93809    0.000
 4345.00    1.07594   0.99496    0.000
 4346.00    1.09671   1.04079    0.000
 4347.00    1.07814   1.07624    0.000
 4348.00    1.07678   1.10271    0.000
 4349.00    1.12453   1.11708    0.000
 4350.00    1.14275   1.11066    0.000
 4351.00    1.08899   1.07974    0.193
 4352.00    1.05644   1.03731    0.190
 4353.00    1.06848   1.00881    0.191
 4354.00    1.06960   1.01113    0.192
 4355.00    1.05076   1.03935    0.190
 4356.00    1.05781   1.07585    0.190
 4357.00    1.10621   1.10514    0.193
 4358.00    1.14288   1.11955    0.194
 4359.00    1.16308   1.12145    0.194
 4360.00    1.17763   1.12174    0.194
 4361.00    1.18520   1.13153    0.194
 4362.00    1.20304   1.15201    0.194
 4363.00    1.23206   1.17596    0.196
 4364.00    1.23186   1.19579    0.196
 4365.00    1.20364   1.20673    0.194
 4366.00    1.18624   1.20421    0.195
 4367.00    1.17799   1.18622    0.196
 4368.00    1.16196   1.15936    0.197
 4369.00    1.14013   1.13579    0.196
 4370.00    1.11844   1.12338    0.194
 4371.00    1.09683   1.11890    0.190
 4372.00    1.09990   1.11305    0.191
 4373.00    1.11711   1.09745    0.195
 4374.00    1.09915   1.07185    0.194
 4375.00    1.06365   1.04753    0.191
 4376.00    1.05136   1.04082    0.191
 4377.00    1.04907   1.05905    0.192
 4378.00    1.04514   1.09223    0.192
 4379.00    1.04059   1.11987    0.192
 4380.00    1.01568   1.12470    0.191
 4381.00    0.98439   1.09845    0.189
 4382.00    0.95159   1.04189    0.186
 4383.00    0.91840   0.96691    0.184
 4384.00    0.92867   0.89916    0.183
 4385.00    0.94823   0.86950    0.183
 4386.00    0.94881   0.88952    0.183
 4387.00    0.94619   0.94144    0.183
 4388.00    0.99651   0.99387    0.184
 4389.00    1.05360   1.02678    0.185
 4390.00    1.09176   1.04097    0.185
 4391.00    1.12822   1.04781    0.185
 4392.00    1.07393   1.05650    0.185
 4393.00    1.01480   1.06723    0.184
 4394.00    1.04357   1.07593    0.184
 4395.00    1.07423   1.08371    0.184
 4396.00    1.11828   1.09706    0.185
 4397.00    1.16013   1.11818    0.186
 4398.00    1.15378   1.13733    0.187
 4399.00    1.14704   1.14057    0.188
 4400.00    1.13548   1.12618    0.188
 4401.00    1.11783   1.10475    0.188
 4402.00    1.04898   1.08631    0.184
 4403.00    0.99120   1.06867    0.182
 4404.00    1.00285   1.04320    0.184
 4405.00    1.01418   1.01264    0.185
 4406.00    1.02391   0.99244    0.185
 4407.00    1.03309   0.99371    0.184
 4408.00    1.04003   1.01366    0.183
 4409.00    1.05024   1.04567    0.182
 4410.00    1.07128   1.08649    0.182
 4411.00    1.10119   1.13087    0.181
 4412.00    1.15596   1.16635    0.183
 4413.00    1.19865   1.17853    0.184
 4414.00    1.21236   1.16157    0.186
 4415.00    1.21373   1.12513    0.186
 4416.00    1.18953   1.09185    0.186
 4417.00    1.16561   1.08338    0.185
 4418.00    1.14221   1.10353    0.185
 4419.00    1.12915   1.13922    0.183
 4420.00    1.13239   1.17067    0.182
 4421.00    1.14597   1.18236    0.181
 4422.00    1.17383   1.17322    0.182
 4423.00    1.19284   1.15442    0.183
 4424.00    1.20108   1.13994    0.183
 4425.00    1.18951   1.13576    0.182
 4426.00    1.15670   1.13821    0.183
 4427.00    1.14700   1.14256    0.183
 4428.00    1.15918   1.14596    0.183
 4429.00    1.17404   1.14681    0.182
 4430.00    1.19116   1.14445    0.181
 4431.00    1.17948   1.13917    0.180
 4432.00    1.14668   1.13305    0.178
 4433.00    1.12153   1.12315    0.178
 4434.00    1.10131   1.10562    0.181
 4435.00    1.11969   1.08634    0.182
 4436.00    1.15984   1.07991    0.184
 4437.00    1.16060   1.09846    0.186
 4438.00    1.14202   1.13772    0.188
 4439.00    1.15512   1.17725    0.188
 4440.00    1.18164   1.19612    0.187
 4441.00    1.20911   1.18550    0.187
 4442.00    1.23691   1.15481    0.188
 4443.00    1.19127   1.12521    0.185
 4444.00    1.12305   1.11591    0.182
 4445.00    1.13675   1.13228    0.182
 4446.00    1.17141   1.16368    0.184
 4447.00    1.20745   1.19306    0.183
 4448.00    1.24377   1.20954    0.183
 4449.00    1.23803   1.21351    0.184
 4450.00    1.22537   1.20917    0.186
 4451.00    1.20569   1.19963    0.184
 4452.00    1.18516   1.18597    0.181
 4453.00    1.16929   1.16462    0.179
 4454.00    1.15381   1.13313    0.178
 4455.00    1.12873   1.09665    0.177
 4456.00    1.10316   1.06622    0.177
 4457.00    1.08055   1.05077    0.176
 4458.00    1.05864   1.04795    0.175
 4459.00    1.07859   1.04898    0.177
 4460.00    1.09840   1.04791    0.179
 4461.00    1.11546   1.04661    0.000
 4462.00    1.13156   1.05149    0.000
 4463.00    1.13656   1.06801    0.000
 4464.00    1.14215   1.09506    0.000
 4465.00    1.15260   1.12193    0.000
 4466.00    1.16257   1.13943    0.000
 4467.00    1.16964   1.14495    0.000
 4468.00    1.17695   1.14133    0.000
 4469.00    1.18543   1.13511    0.000
 4470.00    1.20035   1.13321    0.000
 4471.00    1.24040   1.14269    0.000
 4472.00    1.27323   1.16485    0.000
 4473.00    1.28257   1.19458    0.000
 4474.00    1.29285   1.22362    0.000
 4475.00    1.30571   1.24593    0.000
 4476.00    1.30349   1.26061    0.000
 4477.00    1.26571   1.26908    0.000
 4478.00    1.24196   1.26853    0.000
 4479.00    1.24677   1.25204    0.000
 4480.00    1.25170   1.21800    0.000
 4481.00    1.25684   1.17722    0.000
 4482.00    1.25821   1.14908    0.182
 4483.00    1.25377   1.14817    0.182
 4484.00    1.24865   1.17475    0.181
 4485.00    1.24261   1.21394    0.182
 4486.00    1.22828   1.24604    0.180
 4487.00    1.20400   1.25719    0.177
 4488.00    1.20629   1.24423    0.176
 4489.00    1.23665   1.21642    0.180
 4490.00    1.25272   1.19009    0.181
 4491.00    1.25546   1.17842    0.180
 4492.00    1.24034   1.18169    0.180
 4493.00    1.21056   1.18799    0.180
 4494.00    1.18521   1.18547    0.180
 4495.00    1.16308   1.17355    0.181
 4496.00    1.17358   1.16436    0.181
 4497.00    1.20483   1.16897    0.180
 4498.00    1.24326   1.18854    0.180
 4499.00    1.28569   1.21382    0.180
 4500.00    1.27232   1.23313    0.181
 4501.00    1.23200   1.24412    0.182
 4502.00    1.24535   1.25361    0.182
 4503.00    1.28111   1.27117    0.181
 4504.00    1.31458   1.29691    0.181
 4505.00    1.34723   1.31986    0.180
 4506.00    1.39162   1.33029    0.182
 4507.00    1.43954   1.32680    0.185
 4508.00    1.40626   1.31666    0.182
 4509.00    1.35264   1.30868    0.179
 4510.00    1.32149   1.30539    0.179
 4511.00    1.29491   1.30279    0.181
 4512.00    1.26976   1.29458    0.178
 4513.00    1.24485   1.27863    0.174
 4514.00    1.23864   1.25956    0.177
 4515.00    1.23466   1.24381    0.180
 4516.00    1.25237   1.23480    0.181
 4517.00    1.27184   1.23191    0.182
 4518.00    1.26578   1.23263    0.180
 4519.00    1.25856   1.23736    0.179
 4520.00    1.28277   1.24665    0.180
 4521.00    1.30627   1.25511    0.180
 4522.00    1.27404   1.25608    0.180
 4523.00    1.24217   1.24470    0.179
 4524.00    1.21722   1.22303    0.177
 4525.00    1.19488   1.19604    0.175
 4526.00    1.20173   1.16462    0.176
 4527.00    1.20505   1.13130    0.177
 4528.00    1.18069   1.10102    0.176
 4529.00    1.15497   1.08085    0.174
 4530.00    1.12122   1.07588    0.175
 4531.00    1.09740   1.08457    0.175
 4532.00    1.12003   1.09791    0.176
 4533.00    1.13871   1.10697    0.176
 4534.00    1.14233   1.10698    0.176
 4535.00    1.14774   1.10597    0.175
 4536.00    1.15888   1.11774    0.178
 4537.00    1.17496   1.14832    0.180
 4538.00    1.20437   1.18901    0.177
 4539.00    1.23346   1.22020    0.176
 4540.00    1.26182   1.23162    0.177
 4541.00    1.27567   1.22778    0.178
 4542.00    1.26042   1.22019    0.175
 4543.00    1.24717   1.21640    0.175
 4544.00    1.23741   1.21424    0.177
 4545.00    1.22799   1.20890    0.179
 4546.00    1.21909   1.20054    0.178
 4547.00    1.21522   1.19164    0.178
 4548.00    1.21809   1.18205    0.178
 4549.00    1.21026   1.17223    0.177
 4550.00    1.18978   1.16435    0.000
 4551.00    1.19202   1.16256    0.000
 4552.00    1.21794   1.16556    0.000
 4553.00    1.22893   1.16610    0.000
 4554.00    1.22620   1.16289    0.000
 4555.00    1.23202   1.16108    0.000
 4556.00    1.24476   1.16951    0.000
 4557.00    1.25833   1.19224    0.000
 4558.00    1.27249   1.22357    0.000
 4559.00    1.29122   1.25249    0.000
 4560.00    1.31282   1.27159    0.000
 4561.00    1.33845   1.27829    0.000
 4562.00    1.36629   1.27307    0.000
 4563.00    1.37538   1.25725    0.000
 4564.00    1.37557   1.23437    0.000
 4565.00    1.33557   1.21469    0.000
 4566.00    1.27909   1.20935    0.000
 4567.00    1.27755   1.22171    0.000
 4568.00    1.29525   1.24424    0.000
 4569.00    1.29270   1.26157    0.000
 4570.00    1.28416   1.26386    0.000
 4571.00    1.30648   1.25330    0.000
 4572.00    1.33637   1.24021    0.000
 4573.00    1.33918   1.23745    0.000
 4574.00    1.33663   1.24798    0.000
 4575.00    1.33102   1.26187    0.000
 4576.00    1.32493   1.27014    0.000
 4577.00    1.31574   1.26852    0.000
 4578.00    1.30620   1.25576    0.000
 4579.00    1.28051   1.23373    0.000
 4580.00    1.25358   1.20727    0.000
 4581.00    1.28144   1.18451    0.000
 4582.00    1.31157   1.17239    0.000
 4583.00    1.30267   1.17128    0.000
 4584.00    1.29345   1.17518    0.000
 4585.00    1.28513   1.17993    0.000
 4586.00    1.27607   1.18688    0.000
 4587.00    1.25428   1.19907    0.000
 4588.00    1.23491   1.21811    0.000
 4589.00    1.24146   1.23770    0.000
 4590.00    1.25063   1.24844    0.000
 4591.00    1.27965   1.24522    0.000
 4592.00    1.29773   1.23050    0.000
 4593.00    1.25292   1.21246    0.000
 4594.00    1.21904   1.19871    0.000
 4595.00    1.23517   1.19148    0.000
 4596.00    1.24806   1.18952    0.000
 4597.00    1.24890   1.19179    0.000
 4598.00    1.24942   1.19611    0.000
 4599.00    1.24898   1.19975    0.000
 4600.00    1.24771   1.20147    0.000
 4601.00    1.24420   1.20010    0.000
 4602.00    1.24546   1.19929    0.000
 4603.00    1.25759   1.20146    0.000
 4604.00    1.26987   1.20507    0.000
 4605.00    1.28243   1.21042    0.000
 4606.00    1.30529   1.21905    0.000
 4607.00    1.34585   1.23502    0.000
 4608.00    1.34956   1.25836    0.000
 4609.00    1.29781   1.28291    0.000
 4610.00    1.27087   1.29930    0.000
 4611.00    1.27679   1.30130    0.000
 4612.00    1.29444   1.29173    0.000
 4613.00    1.32576   1.27949    0.000
 4614.00    1.35642   1.27154    0.000
 4615.00    1.38640   1.27107    0.000
 4616.00    1.37709   1.27562    0.000
 4617.00    1.33218   1.27898    0.000
 4618.00    1.29345   1.27991    0.000
 4619.00    1.25966   1.27857    0.000
 4620.00    1.28154   1.27698    0.000
 4621.00    1.34256   1.27942    0.000
 4622.00    1.36468   1.28521    0.000
 4623.00    1.36282   1.28948    0.000
 4624.00    1.36305   1.29021    0.000
 4625.00    1.36440   1.28746    0.000
 4626.00    1.34606   1.28216    0.000
 4627.00    1.31850   1.27702    0.000
 4628.00    1.31389   1.27361    0.000
 4629.00    1.31852   1.27151    0.000
 4630.00    1.30661   1.27061    0.000
 4631.00    1.28901   1.27168    0.000
 4632.00    1.29546   1.27258    0.000
 4633.00    1.30886   1.26829    0.000
 4634.00    1.28708   1.25809    0.000
 4635.00    1.25686   1.24607    0.000
 4636.00    1.25162   1.23432    0.000
 4637.00    1.25121   1.22281    0.000
 4638.00    1.23461   1.21102    0.000
 4639.00    1.21558   1.20162    0.000
 4640.00    1.18781   1.19899    0.000
 4641.00    1.15908   1.20431    0.000
 4642.00    1.17073   1.21530    0.000
 4643.00    1.18531   1.22335    0.000
 4644.00    1.18055   1.21986    0.000
 4645.00    1.17507   1.20332    0.000
 4646.00    1.15855   1.17828    0.000
 4647.00    1.14273   1.15347    0.000
 4648.00    1.15483   1.14046    0.000
 4649.00    1.16740   1.14492    0.000
 4650.00    1.18756   1.16389    0.000
 4651.00    1.20737   1.18898    0.000
 4652.00    1.22357   1.20982    0.000
 4653.00    1.23562   1.21984    0.000
 4654.00    1.21726   1.21809    0.000
 4655.00    1.20934   1.20783    0.000
 4656.00    1.25982   1.19976    0.000
 4657.00    1.29806   1.20419    0.000
 4658.00    1.28169   1.22422    0.000
 4659.00    1.26774   1.25443    0.000
 4660.00    1.26268   1.28108    0.000
 4661.00    1.26369   1.29191    0.000
 4662.00    1.28334   1.28328    0.000
 4663.00    1.29114   1.26048    0.000
 4664.00    1.26808   1.23127    0.000
 4665.00    1.24295   1.19975    0.000
 4666.00    1.21317   1.16572    0.000
 4667.00    1.19215   1.13028    0.000
 4668.00    1.18811   1.10302    0.000
 4669.00    1.17952   1.09719    0.000
 4670.00    1.16320   1.11576    0.000
 4671.00    1.15923   1.14827    0.000
 4672.00    1.17355   1.18039    0.000
 4673.00    1.18774   1.20214    0.000
 4674.00    1.20174   1.21378    0.000
 4675.00    1.20480   1.22172    0.000
 4676.00    1.19529   1.22949    0.000
 4677.00    1.18448   1.23506    0.000
 4678.00    1.17235   1.23218    0.000
 4679.00    1.16498   1.21861    0.000
 4680.00    1.16186   1.19995    0.000
 4681.00    1.17578   1.18456    0.000
 4682.00    1.20312   1.17870    0.000
 4683.00    1.21198   1.18406    0.000
 4684.00    1.20803   1.19731    0.000
 4685.00    1.20129   1.21076    0.000
 4686.00    1.19284   1.21862    0.000
 4687.00    1.18532   1.22029    0.000
 4688.00    1.17829   1.21724    0.000
 4689.00    1.18528   1.21243    0.000
 4690.00    1.19871   1.20853    0.000
 4691.00    1.20831   1.20593    0.000
 4692.00    1.21639   1.20583    0.000
 4693.00    1.19239   1.21113    0.000
 4694.00    1.15756   1.22173    0.000
 4695.00    1.16109   1.23408    0.000
 4696.00    1.17550   1.24271    0.000
 4697.00    1.17501   1.24134    0.000
 4698.00    1.17104   1.22764    0.000
 4699.00    1.18120   1.20574    0.000
 4700.00    1.19403   1.18435    0.000
 4701.00    1.18765   1.16913    0.000
 4702.00    1.17848   1.15921    0.000
 4703.00    1.16330   1.15391    0.000
 4704.00    1.14748   1.15407    0.000
 4705.00    1.16709   1.16000    0.000
 4706.00    1.18913   1.16668    0.000
 4707.00    1.15704   1.16787    0.000
 4708.00    1.12311   1.16345    0.000
 4709.00    1.14599   1.16009    0.000
 4710.00    1.16822   1.16428    0.000
 4711.00    1.16671   1.17720    0.000
 4712.00    1.16688   1.19328    0.000
 4713.00    1.19253   1.20302    0.000
 4714.00    1.21642   1.20418    0.000
 4715.00    1.22295   1.20260    0.000
 4716.00    1.22499   1.20741    0.000
 4717.00    1.19534   1.22330    0.000
 4718.00    1.17872   1.24515    0.000
 4719.00    1.23298   1.26571    0.000
 4720.00    1.27721   1.28072    0.000
 4721.00    1.27769   1.28789    0.000
 4722.00    1.27794   1.28834    0.000
 4723.00    1.27733   1.28582    0.000
 4724.00    1.26856   1.28367    0.000
 4725.00    1.23520   1.28045    0.000
 4726.00    1.20805   1.26957    0.000
 4727.00    1.19676   1.24635    0.000
 4728.00    1.19092   1.21354    0.000
 4729.00    1.19705   1.18242    0.000
 4730.00    1.19437   1.16401    0.000
 4731.00    1.17481   1.16106    0.000
 4732.00    1.17681   1.17017    0.000
 4733.00    1.21480   1.18606    0.000
 4734.00    1.23523   1.20170    0.000
 4735.00    1.22998   1.21231    0.000
 4736.00    1.22620   1.21792    0.000
 4737.00    1.22429   1.21946    0.000
 4738.00    1.22179   1.22168    0.000
 4739.00    1.21862   1.22824    0.000
 4740.00    1.22400   1.23479    0.000
 4741.00    1.23792   1.23796    0.000
 4742.00    1.25285   1.23973    0.000
 4743.00    1.26865   1.24276    0.000
 4744.00    1.28245   1.24789    0.000
 4745.00    1.29469   1.25361    0.000
 4746.00    1.30162   1.25901    0.000
 4747.00    1.30493   1.26523    0.000
 4748.00    1.30540   1.27102    0.000
 4749.00    1.30417   1.27408    0.000
 4750.00    1.28879   1.27390    0.000
 4751.00    1.26603   1.26989    0.000
 4752.00    1.26088   1.26114    0.000
 4753.00    1.26369   1.24828    0.000
 4754.00    1.26205   1.23463    0.000
 4755.00    1.25866   1.22307    0.000
 4756.00    1.25050   1.21631    0.000
 4757.00    1.24076   1.21505    0.000
 4758.00    1.26439   1.21843    0.000
 4759.00    1.29729   1.22373    0.000
 4760.00    1.24281   1.22630    0.000
 4761.00    1.16835   1.22181    0.158
 4762.00    1.17176   1.20774    0.159
 4763.00    1.18945   1.18679    0.162
 4764.00    1.17876   1.16608    0.163
 4765.00    1.16407   1.15065    0.164
 4766.00    1.17685   1.14321    0.163
 4767.00    1.19241   1.14647    0.163
 4768.00    1.19916   1.16092    0.162
 4769.00    1.20533   1.18141    0.161
 4770.00    1.23554   1.20087    0.162
 4771.00    1.26649   1.21387    0.164
 4772.00    1.30242   1.21923    0.165
 4773.00    1.33545   1.22306    0.166
 4774.00    1.28436   1.23124    0.164
 4775.00    1.23668   1.24388    0.163
 4776.00    1.23819   1.25605    0.164
 4777.00    1.23895   1.26347    0.165
 4778.00    1.23253   1.26618    0.161
 4779.00    1.23158   1.26406    0.158
 4780.00    1.26809   1.25705    0.160
 4781.00    1.29482   1.24690    0.161
 4782.00    1.26973   1.23517    0.159
 4783.00    1.24985   1.22256    0.157
 4784.00    1.25213   1.21045    0.158
 4785.00    1.24581   1.20172    0.158
 4786.00    1.20925   1.19615    0.158
 4787.00    1.18433   1.19069    0.157
 4788.00    1.19381   1.18759    0.157
 4789.00    1.20213   1.18841    0.158
 4790.00    1.20752   1.19183    0.159
 4791.00    1.21884   1.20042    0.159
 4792.00    1.24299   1.21558    0.158
 4793.00    1.25829   1.23558    0.158
 4794.00    1.25693   1.25803    0.160
 4795.00    1.26180   1.27723    0.161
 4796.00    1.27692   1.28597    0.159
 4797.00    1.27506   1.28100    0.159
 4798.00    1.24873   1.26536    0.160
 4799.00    1.24389   1.24628    0.160
 4800.00    1.26629   1.23261    0.162
 4801.00    1.28024   1.23039    0.162
 4802.00    1.28476   1.23858    0.162
 4803.00    1.28085   1.24949    0.161
 4804.00    1.26863   1.25433    0.159
 4805.00    1.26379   1.24923    0.159
 4806.00    1.26535   1.23682    0.162
 4807.00    1.25143   1.22415    0.162
 4808.00    1.22566   1.21539    0.159
 4809.00    1.23029   1.21251    0.159
 4810.00    1.25536   1.21631    0.160
 4811.00    1.25144   1.22369    0.161
 4812.00    1.23043   1.23107    0.161
 4813.00    1.22574   1.23736    0.160
 4814.00    1.22942   1.24299    0.157
 4815.00    1.24997   1.24939    0.157
 4816.00    1.27803   1.25746    0.159
 4817.00    1.27844   1.26691    0.161
 4818.00    1.26828   1.27610    0.163
 4819.00    1.25715   1.28245    0.163
 4820.00    1.24571   1.28372    0.161
 4821.00    1.25540   1.27686    0.161
 4822.00    1.27084   1.26150    0.161
 4823.00    1.25522   1.24124    0.159
 4824.00    1.23264   1.22189    0.157
 4825.00    1.21553   1.21188    0.156
 4826.00    1.19940   1.21403    0.155
 4827.00    1.20195   1.22135    0.155
 4828.00    1.20704   1.22630    0.155
 4829.00    1.20589   1.22559    0.156
 4830.00    1.20414   1.22008    0.157
 4831.00    1.19679   1.21340    0.156
 4832.00    1.18910   1.20764    0.154
 4833.00    1.21252   1.20543    0.156
 4834.00    1.23664   1.20973    0.158
 4835.00    1.23955   1.21810    0.157
 4836.00    1.24137   1.22491    0.155
 4837.00    1.21456   1.22636    0.156
 4838.00    1.18850   1.22159    0.157
 4839.00    1.17249   1.21124    0.156
 4840.00    1.15889   1.19844    0.155
 4841.00    1.16704   1.18828    0.153
 4842.00    1.17598   1.18419    0.152
 4843.00    1.19026   1.18588    0.153
 4844.00    1.20495   1.19154    0.155
 4845.00    1.22184   1.20069    0.154
 4846.00    1.23304   1.20988    0.154
 4847.00    1.22060   1.21324    0.154
 4848.00    1.21419   1.20929    0.000
 4849.00    1.22854   1.20114    0.000
 4850.00    1.23565   1.19472    0.000
 4851.00    1.22174   1.19308    0.000
 4852.00    1.20119   1.19113    0.000
 4853.00    1.16419   1.18293    0.000
 4854.00    1.14189   1.16672    0.000
 4855.00    1.15095   1.14327    0.000
 4856.00    1.14958   1.11733    0.000
 4857.00    1.12890   1.09438    0.000
 4858.00    1.09939   1.07086    0.000
 4859.00    1.05561   1.03640    0.000
 4860.00    1.02788   0.98910    0.000
 4861.00    1.02295   0.93999    0.000
 4862.00    1.03654   0.90779    0.000
 4863.00    1.07326   0.90950    0.000
 4864.00    1.08637   0.94377    0.000
 4865.00    1.07348   0.99271    0.000
 4866.00    1.06219   1.04152    0.000
 4867.00    1.05245   1.08085    0.000
 4868.00    1.05936   1.10491    0.000
 4869.00    1.08055   1.11290    0.000
 4870.00    1.09171   1.10748    0.000
 4871.00    1.09532   1.09281    0.000
 4872.00    1.09523   1.07733    0.000
 4873.00    1.09267   1.07326    0.000
 4874.00    1.11452   1.08492    0.000
 4875.00    1.15053   1.10540    0.150
 4876.00    1.15486   1.12726    0.150
 4877.00    1.14317   1.14815    0.151
 4878.00    1.15394   1.16711    0.150
 4879.00    1.17455   1.18247    0.150
 4880.00    1.17615   1.19395    0.150
 4881.00    1.17061   1.19816    0.151
 4882.00    1.15567   1.19275    0.150
 4883.00    1.13773   1.18271    0.150
 4884.00    1.14426   1.17158    0.150
 4885.00    1.15730   1.15823    0.150
 4886.00    1.15640   1.14380    0.151
 4887.00    1.15245   1.13181    0.151
 4888.00    1.13260   1.12342    0.150
 4889.00    1.10999   1.11607    0.149
 4890.00    1.11617   1.10857    0.150
 4891.00    1.12616   1.10432    0.151
 4892.00    1.13614   1.11104    0.151
 4893.00    1.14612   1.13763    0.150
 4894.00    1.17282   1.18052    0.152
 4895.00    1.20047   1.22591    0.154
 4896.00    1.19922   1.26249    0.153
 4897.00    1.19758   1.28276    0.153
 4898.00    1.22540   1.28578    0.154
 4899.00    1.25191   1.27673    0.155
 4900.00    1.24729   1.26070    0.153
 4901.00    1.24130   1.24357    0.152
 4902.00    1.21773   1.23119    0.152
 4903.00    1.19721   1.22420    0.152
 4904.00    1.20326   1.22229    0.152
 4905.00    1.20786   1.22717    0.152
 4906.00    1.20312   1.23637    0.153
 4907.00    1.19844   1.24196    0.153
 4908.00    1.19405   1.23654    0.152
 4909.00    1.18920   1.21978    0.151
 4910.00    1.18245   1.19828    0.153
 4911.00    1.17713   1.18135    0.153
 4912.00    1.17667   1.17739    0.150
 4913.00    1.17061   1.18769    0.148
 4914.00    1.14862   1.20542    0.150
 4915.00    1.13746   1.22168    0.151
 4916.00    1.15262   1.22773    0.151
 4917.00    1.15554   1.21530    0.151
 4918.00    1.13278   1.18215    0.151
 4919.00    1.11594   1.13599    0.151
 4920.00    1.10989   1.09249    0.150
 4921.00    1.10410   1.06704    0.150
 4922.00    1.09872   1.06622    0.150
 4923.00    1.09492   1.08528    0.149
 4924.00    1.09333   1.11220    0.149
 4925.00    1.09155   1.13856    0.148
 4926.00    1.08954   1.16481    0.149
 4927.00    1.12806   1.19293    0.152
 4928.00    1.21058   1.22008    0.156
 4929.00    1.25898   1.24292    0.158
 4930.00    1.27472   1.25863    0.156
 4931.00    1.26670   1.26205    0.154
 4932.00    1.23863   1.25235    0.151
 4933.00    1.21346   1.23346    0.150
 4934.00    1.19044   1.21005    0.151
 4935.00    1.17278   1.18990    0.151
 4936.00    1.15863   1.17679    0.149
 4937.00    1.13320   1.16476    0.149
 4938.00    1.10133   1.15066    0.150
 4939.00    1.10867   1.14012    0.152
 4940.00    1.13552   1.14169    0.000
 4941.00    1.15132   1.16043    0.000
 4942.00    1.16235   1.19073    0.000
 4943.00    1.19091   1.22027    0.000
 4944.00    1.22595   1.24172    0.000
 4945.00    1.23729   1.25320    0.000
 4946.00    1.24122   1.25605    0.000
 4947.00    1.27138   1.25648    0.000
 4948.00    1.30838   1.26041    0.000
 4949.00    1.28877   1.26751    0.000
 4950.00    1.25710   1.27436    0.000
 4951.00    1.24198   1.27825    0.000
 4952.00    1.22965   1.27710    0.000
 4953.00    1.23561   1.26871    0.000
 4954.00    1.24388   1.25191    0.000
 4955.00    1.21453   1.22603    0.000
 4956.00    1.18185   1.19214    0.000
 4957.00    1.17766   1.15581    0.000
 4958.00    1.17498   1.12738    0.000
 4959.00    1.18519   1.12156    0.000
 4960.00    1.19575   1.14245    0.000
 4961.00    1.21415   1.17546    0.000
 4962.00    1.23102   1.20402    0.000
 4963.00    1.21451   1.21926    0.000
 4964.00    1.19746   1.21982    0.000
 4965.00    1.17365   1.20877    0.000
 4966.00    1.15314   1.19146    0.000
 4967.00    1.16015   1.17575    0.000
 4968.00    1.16864   1.16692    0.000
 4969.00    1.18636   1.16559    0.000
 4970.00    1.20071   1.17143    0.000
 4971.00    1.19852   1.18266    0.000
 4972.00    1.19774   1.19711    0.000
 4973.00    1.20258   1.21247    0.000
 4974.00    1.20952   1.22502    0.000
 4975.00    1.22340   1.23206    0.000
 4976.00    1.22917   1.23113    0.000
 4977.00    1.21226   1.22150    0.000
 4978.00    1.18620   1.20517    0.000
 4979.00    1.13830   1.18353    0.000
 4980.00    1.10691   1.15839    0.000
 4981.00    1.10960   1.13139    0.000
 4982.00    1.11036   1.10312    0.000
 4983.00    1.10766   1.07753    0.000
 4984.00    1.11170   1.06338    0.000
 4985.00    1.12636   1.06722    0.000
 4986.00    1.14554   1.08698    0.000
 4987.00    1.17097   1.11536    0.000
 4988.00    1.17188   1.14358    0.000
 4989.00    1.14303   1.16279    0.000
 4990.00    1.13567   1.17047    0.000
 4991.00    1.15130   1.17049    0.000
 4992.00    1.15734   1.16807    0.000
 4993.00    1.15432   1.16833    0.000
 4994.00    1.16114   1.17129    0.000
 4995.00    1.17616   1.17486    0.000
 4996.00    1.17969   1.17895    0.000
 4997.00    1.17480   1.17975    0.000
 4998.00    1.16208   1.17334    0.000
 4999.00    1.14433   1.15996    0.000
 5000.00    1.13304   1.14145    0.000
 5001.00    1.12538   1.12302    0.000
 5002.00    1.12806   1.10974    0.000
 5003.00    1.13580   1.10101    0.000
 5004.00    1.13958   1.09360    0.000
 5005.00    1.14169   1.08541    0.000
 5006.00    1.15288   1.07752    0.000
 5007.00    1.16735   1.07531    0.000
 5008.00    1.14737   1.08421    0.000
 5009.00    1.11681   1.10125    0.000
 5010.00    1.09796   1.11485    0.000
 5011.00    1.08208   1.11557    0.000
 5012.00    1.07286   1.10190    0.000
 5013.00    1.06503   1.07916    0.000
 5014.00    1.04566   1.05763    0.000
 5015.00    1.02441   1.04547    0.000
 5016.00    1.03041   1.04494    0.000
 5017.00    1.03976   1.05263    0.000
 5018.00    1.04078   1.06199    0.000
 5019.00    1.04110   1.07020    0.000
 5020.00    1.04592   1.07838    0.000
 5021.00    1.05095   1.08643    0.000
 5022.00    1.06825   1.09313    0.000
 5023.00    1.08530   1.09899    0.000
 5024.00    1.07545   1.10655    0.000
 5025.00    1.06679   1.11518    0.000
 5026.00    1.08229   1.12133    0.000
 5027.00    1.09846   1.12432    0.000
 5028.00    1.12244   1.12583    0.000
 5029.00    1.14174   1.13069    0.145
 5030.00    1.12332   1.14316    0.145
 5031.00    1.10879   1.16051    0.144
 5032.00    1.11789   1.17756    0.144
 5033.00    1.12512   1.18945    0.144
 5034.00    1.12335   1.19102    0.146
 5035.00    1.11715   1.17984    0.147
 5036.00    1.09372   1.15758    0.146
 5037.00    1.07387   1.13049    0.145
 5038.00    1.06566   1.10453    0.146
 5039.00    1.05820   1.07854    0.146
 5040.00    1.05276   1.05202    0.147
 5041.00    1.04787   1.03158    0.147
 5042.00    1.04427   1.02683    0.145
 5043.00    1.05222   1.04611    0.143
 5044.00    1.08365   1.08603    0.143
 5045.00    1.10058   1.13083    0.143
 5046.00    1.09186   1.16575    0.143
 5047.00    1.09608   1.18198    0.144
 5048.00    1.12035   1.17699    0.145
 5049.00    1.12624   1.15643    0.145
 5050.00    1.10714   1.13248    0.146
 5051.00    1.11115   1.11657    0.146
 5052.00    1.14284   1.11336    0.147
 5053.00    1.13969   1.12220    0.147
 5054.00    1.09979   1.14003    0.146
 5055.00    1.09916   1.16118    0.147
 5056.00    1.13508   1.17997    0.148
 5057.00    1.16296   1.19347    0.149
 5058.00    1.18423   1.20233    0.149
 5059.00    1.18786   1.20888    0.149
 5060.00    1.17874   1.21395    0.149
 5061.00    1.16693   1.21666    0.148
 5062.00    1.15342   1.21424    0.147
 5063.00    1.13739   1.20311    0.147
 5064.00    1.11997   1.18277    0.147
 5065.00    1.11649   1.15692    0.147
 5066.00    1.11974   1.13390    0.147
 5067.00    1.10458   1.12175    0.146
 5068.00    1.08177   1.12013    0.146
 5069.00    1.08063   1.12356    0.146
 5070.00    1.08721   1.12885    0.146
 5071.00    1.08212   1.13415    0.147
 5072.00    1.07352   1.13629    0.147
 5073.00    1.09110   1.13482    0.147
 5074.00    1.11523   1.13401    0.146
 5075.00    1.12185   1.13532    0.146
 5076.00    1.12493   1.13468    0.146
 5077.00    1.11010   1.12840    0.146
 5078.00    1.09242   1.11540    0.147
 5079.00    1.07335   1.09530    0.145
 5080.00    1.05411   1.07103    0.141
 5081.00    1.03566   1.05229    0.142
 5082.00    1.01726   1.04796    0.143
 5083.00    1.04570   1.05724    0.142
 5084.00    1.07623   1.07390    0.141
 5085.00    1.07421   1.09365    0.140
 5086.00    1.07212   1.11351    0.140
 5087.00    1.08584   1.13006    0.138
 5088.00    1.09954   1.14163    0.137
 5089.00    1.11255   1.14977    0.136
 5090.00    1.12376   1.15705    0.135
 5091.00    1.11480   1.16457    0.136
 5092.00    1.10756   1.17223    0.137
 5093.00    1.11365   1.17918    0.137
 5094.00    1.11729   1.18242    0.137
 5095.00    1.10650   1.17751    0.139
 5096.00    1.09609   1.16219    0.141
 5097.00    1.08749   1.13863    0.140
 5098.00    1.08326   1.11294    0.140
 5099.00    1.09568   1.09240    0.140
 5100.00    1.10425   1.08342    0.140
 5101.00    1.10062   1.08908    0.138
 5102.00    1.09207   1.10458    0.136
 5103.00    1.07025   1.11976    0.136
 5104.00    1.05635   1.12717    0.135
 5105.00    1.06075   1.12522    0.137
 5106.00    1.06309   1.11668    0.137
 5107.00    1.06133   1.10513    0.136
 5108.00    1.06401   1.09327    0.136
 5109.00    1.07444   1.08534    0.137
 5110.00    1.08065   1.08436    0.138
 5111.00    1.08041   1.08979    0.140
 5112.00    1.08323   1.10156    0.141
 5113.00    1.09014   1.11791    0.141
 5114.00    1.09325   1.13444    0.142
 5115.00    1.09186   1.14933    0.142
 5116.00    1.08948   1.16232    0.142
 5117.00    1.08607   1.17270    0.142
 5118.00    1.09364   1.17955    0.144
 5119.00    1.11128   1.18040    0.146
 5120.00    1.12097   1.17256    0.147
 5121.00    1.12423   1.15558    0.146
 5122.00    1.11085   1.13188    0.145
 5123.00    1.08564   1.10584    0.144
 5124.00    1.05818   1.08167    0.142
 5125.00    1.02932   1.06369    0.140
 5126.00    1.03344   1.05477    0.140
 5127.00    1.05557   1.05320    0.142
 5128.00    1.04602   1.05526    0.143
 5129.00    1.02143   1.05937    0.143
 5130.00    1.03513   1.06566    0.144
 5131.00    1.06450   1.07486    0.146
 5132.00    1.07178   1.08729    0.146
 5133.00    1.07133   1.10119    0.146
 5134.00    1.05636   1.11307    0.144
 5135.00    1.03711   1.12068    0.143
 5136.00    1.04038   1.12257    0.143
 5137.00    1.04914   1.11604    0.144
 5138.00    1.04833   1.10247    0.144
 5139.00    1.04562   1.08747    0.144
 5140.00    1.05262   1.07493    0.144
 5141.00    1.06112   1.06809    0.144
 5142.00    1.04697   1.06656    0.143
 5143.00    1.03023   1.06526    0.142
 5144.00    1.01327   1.06391    0.143
 5145.00    0.99628   1.06506    0.145
 5146.00    1.02131   1.06618    0.144
 5147.00    1.04806   1.06525    0.143
 5148.00    1.03736   1.06421    0.143
 5149.00    1.02675   1.06454    0.143
 5150.00    1.03283   1.06550    0.145
 5151.00    1.03768   1.06462    0.147
 5152.00    1.02117   1.06095    0.144
 5153.00    1.00739   1.05787    0.142
 5154.00    1.02275   1.05974    0.143
 5155.00    1.03772   1.06883    0.144
 5156.00    1.04974   1.08532    0.143
 5157.00    1.06196   1.10639    0.143
 5158.00    1.07531   1.12711    0.144
 5159.00    1.08323   1.14245    0.144
 5160.00    1.06637   1.14920    0.143
 5161.00    1.04908   1.14753    0.143
 5162.00    1.03016   1.13754    0.141
 5163.00    1.01027   1.11716    0.140
 5164.00    0.98736   1.08537    0.140
 5165.00    0.95199   1.04183    0.140
 5166.00    0.88366   0.98792    0.139
 5167.00    0.83228   0.93159    0.138
 5168.00    0.81941   0.88581    0.137
 5169.00    0.81269   0.85982    0.137
 5170.00    0.81805   0.85256    0.137
 5171.00    0.82455   0.85422    0.138
 5172.00    0.83300   0.85494    0.137
 5173.00    0.83980   0.85605    0.136
 5174.00    0.84411   0.87116    0.135
 5175.00    0.86276   0.90981    0.134
 5176.00    0.90035   0.96331    0.135
 5177.00    0.93220   1.01366    0.135
 5178.00    0.95737   1.04898    0.135
 5179.00    0.95891   1.06471    0.135
 5180.00    0.93620   1.05800    0.134
 5181.00    0.91411   1.02882    0.133
 5182.00    0.89259   0.98343    0.132
 5183.00    0.87764   0.93382    0.132
 5184.00    0.86794   0.89596    0.131
 5185.00    0.87632   0.88760    0.132
 5186.00    0.89740   0.91556    0.133
 5187.00    0.92227   0.96664    0.133
 5188.00    0.94946   1.01824    0.134
 5189.00    0.96851   1.05432    0.135
 5190.00    0.98317   1.07065    0.000
 5191.00    0.99154   1.07047    0.000
 5192.00    0.99697   1.05801    0.000
 5193.00    1.00559   1.04092    0.000
 5194.00    1.01550   1.03126    0.000
 5195.00    1.03617   1.03420    0.000
 5196.00    1.06053   1.04529    0.000
 5197.00    1.07327   1.06110    0.000
 5198.00    1.08265   1.08020    0.000
 5199.00    1.08519   1.09867    0.000
 5200.00    1.08608   1.11261    0.000
 5201.00    1.06648   1.11934    0.000
 5202.00    1.04293   1.11577    0.000
 5203.00    1.05539   1.10068    0.000
 5204.00    1.07323   1.07650    0.000
 5205.00    1.02992   1.04662    0.000
 5206.00    0.97991   1.01550    0.000
 5207.00    0.96838   0.99100    0.000
 5208.00    0.95962   0.97900    0.000
 5209.00    0.99070   0.97989    0.000
 5210.00    1.02328   0.99407    0.000
 5211.00    1.02799   1.02144    0.141
 5212.00    1.03314   1.05586    0.141
 5213.00    1.05900   1.08768    0.142
 5214.00    1.08449   1.10929    0.142
 5215.00    1.10414   1.11735    0.143
 5216.00    1.12322   1.11493    0.144
 5217.00    1.13668   1.11074    0.145
 5218.00    1.14763   1.11310    0.147
 5219.00    1.14032   1.12425    0.146
 5220.00    1.12963   1.13950    0.146
 5221.00    1.10016   1.15132    0.144
 5222.00    1.07517   1.15349    0.143
 5223.00    1.07017   1.14222    0.143
 5224.00    1.06055   1.11659    0.143
 5225.00    1.03405   1.08093    0.142
 5226.00    1.01468   1.04527    0.141
 5227.00    1.01716   1.02067    0.140
 5228.00    1.02379   1.01577    0.140
 5229.00    1.04122   1.03322    0.141
 5230.00    1.05182   1.06368    0.141
 5231.00    1.04715   1.09120    0.141
 5232.00    1.05216   1.10669    0.141
 5233.00    1.07591   1.10973    0.142
 5234.00    1.09570   1.10616    0.142
 5235.00    1.10880   1.10599    0.142
 5236.00    1.12081   1.11533    0.142
 5237.00    1.13120   1.13253    0.142
 5238.00    1.14316   1.15193    0.142
 5239.00    1.15716   1.16764    0.140
 5240.00    1.17814   1.17657    0.139
 5241.00    1.20713   1.18006    0.140
 5242.00    1.20933   1.18121    0.140
 5243.00    1.18443   1.18123    0.138
 5244.00    1.16010   1.17909    0.137
 5245.00    1.13627   1.17373    0.138
 5246.00    1.12093   1.16363    0.137
 5247.00    1.11227   1.14682    0.135
 5248.00    1.10933   1.12571    0.135
 5249.00    1.11033   1.10787    0.138
 5250.00    1.10695   1.09758    0.138
 5251.00    1.10092   1.09310    0.138
 5252.00    1.10011   1.09336    0.138
 5253.00    1.10208   1.09866    0.139
 5254.00    1.11040   1.10704    0.139
 5255.00    1.12164   1.11652    0.139
 5256.00    1.13074   1.12827    0.139
 5257.00    1.13901   1.14464    0.139
 5258.00    1.14986   1.16333    0.139
 5259.00    1.16159   1.17577    0.139
 5260.00    1.14243   1.17369    0.141
 5261.00    1.11452   1.15407    0.142
 5262.00    1.07792   1.11896    0.143
 5263.00    1.03928   1.07462    0.143
 5264.00    1.01182   1.03022    0.144
 5265.00    0.98646   0.99463    0.145
 5266.00    0.95557   0.97137    0.145
 5267.00    0.92388   0.95861    0.145
 5268.00    0.91717   0.95348    0.145
 5269.00    0.91309   0.95216    0.145
 5270.00    0.93489   0.95150    0.146
 5271.00    0.95845   0.95715    0.148
 5272.00    0.98682   0.97788    0.147
 5273.00    1.01535   1.00984    0.147
 5274.00    1.04470   1.04093    0.146
 5275.00    1.07375   1.06621    0.146
 5276.00    1.09302   1.08795    0.149
 5277.00    1.11199   1.10950    0.151
 5278.00    1.12637   1.13203    0.150
 5279.00    1.13850   1.15067    0.150
 5280.00    1.12871   1.15761    0.147
 5281.00    1.11986   1.15077    0.146
 5282.00    1.11768   1.13573    0.147
 5283.00    1.11657   1.12185    0.147
 5284.00    1.12131   1.11718    0.146
 5285.00    1.12910   1.12572    0.145
 5286.00    1.15022   1.14680    0.144
 5287.00    1.17408   1.17402    0.144
 5288.00    1.20775   1.19788    0.147
 5289.00    1.23550   1.21309    0.149
 5290.00    1.24550   1.22072    0.148
 5291.00    1.24833   1.22362    0.147
 5292.00    1.23282   1.22256    0.145
 5293.00    1.21910   1.21623    0.144
 5294.00    1.20934   1.20342    0.145
 5295.00    1.19123   1.18403    0.146
 5296.00    1.15722   1.15902    0.144
 5297.00    1.13294   1.13097    0.142
 5298.00    1.12489   1.10531    0.142
 5299.00    1.12117   1.08973    0.141
 5300.00    1.12380   1.08956    0.140
 5301.00    1.13132   1.10262    0.140
 5302.00    1.14512   1.12168    0.141
 5303.00    1.15767   1.14248    0.141
 5304.00    1.16882   1.16435    0.140
 5305.00    1.18940   1.18506    0.140
 5306.00    1.21937   1.20076    0.140
 5307.00    1.24284   1.20949    0.140
 5308.00    1.26058   1.21294    0.139
 5309.00    1.26242   1.21502    0.138
 5310.00    1.25194   1.21817    0.137
 5311.00    1.23753   1.22105    0.137
 5312.00    1.22045   1.22095    0.138
 5313.00    1.21282   1.21678    0.138
 5314.00    1.21083   1.20913    0.138
 5315.00    1.20658   1.19964    0.139
 5316.00    1.20115   1.19019    0.140
 5317.00    1.20550   1.18191    0.139
 5318.00    1.21429   1.17618    0.137
 5319.00    1.20349   1.17408    0.137
 5320.00    1.18509   1.17367    0.137
 5321.00    1.15909   1.17104    0.136
 5322.00    1.13057   1.16398    0.135
 5323.00    1.12579   1.15221    0.137
 5324.00    1.12758   1.13554    0.139
 5325.00    1.10327   1.11373    0.140
 5326.00    1.07300   1.08817    0.141
 5327.00    1.05981   1.06160    0.140
 5328.00    1.04974   1.03642    0.140
 5329.00    1.05319   1.01874    0.140
 5330.00    1.05852   1.01927    0.141
 5331.00    1.06883   1.04238    0.140
 5332.00    1.07964   1.07807    0.139
 5333.00    1.11330   1.11231    0.142
 5334.00    1.14842   1.13870    0.144
 5335.00    1.15009   1.15753    0.143
 5336.00    1.15077   1.16925    0.142
 5337.00    1.15861   1.17190    0.143
 5338.00    1.16613   1.16494    0.144
 5339.00    1.16454   1.15140    0.144
 5340.00    1.16347   1.13557    0.145
 5341.00    1.16979   1.12189    0.145
 5342.00    1.17185   1.11608    0.146
 5343.00    1.13402   1.12128    0.143
 5344.00    1.10584   1.13289    0.140
 5345.00    1.14349   1.14268    0.141
 5346.00    1.17274   1.14615    0.141
 5347.00    1.15759   1.14390    0.141
 5348.00    1.14456   1.13985    0.140
 5349.00    1.14054   1.13766    0.141
 5350.00    1.14391   1.13943    0.142
 5351.00    1.17323   1.14777    0.142
 5352.00    1.19586   1.16340    0.142
 5353.00    1.19879   1.18247    0.141
 5354.00    1.20712   1.20048    0.140
 5355.00    1.22905   1.21620    0.140
 5356.00    1.24607   1.22982    0.140
 5357.00    1.25250   1.23993    0.140
 5358.00    1.25290   1.24483    0.139
 5359.00    1.24200   1.24423    0.138
 5360.00    1.23162   1.23829    0.137
 5361.00    1.22211   1.22731    0.138
 5362.00    1.20986   1.21221    0.138
 5363.00    1.19368   1.19512    0.137
 5364.00    1.17465   1.17916    0.137
 5365.00    1.15201   1.16606    0.137
 5366.00    1.13981   1.15515    0.136
 5367.00    1.13925   1.14489    0.136
 5368.00    1.13297   1.13335   -2.000
 5369.00    1.12106   1.11841   -2.000
 5370.00    1.11619   1.10111   -2.000
 5371.00    1.11745   1.08637   -2.000
 5372.00    1.11676   1.08161   -2.000
 5373.00    1.11459   1.09297   -2.000
 5374.00    1.10576   1.11913   -2.000
 5375.00    1.09248   1.15038   -2.000
 5376.00    1.11990   1.17609   -2.000
 5377.00    1.17127   1.19167   -2.000
 5378.00    1.20285   1.19755   -2.000
 5379.00    1.22427   1.19698   -2.000
 5380.00    1.21654   1.19291   -2.000
 5381.00    1.19584   1.18641   -2.000
 5382.00    1.20696   1.17893   -2.000
 5383.00    1.23023   1.17306    0.141
 5384.00    1.21829   1.17047    0.142
 5385.00    1.19495   1.17134    0.143
 5386.00    1.17217   1.17458    0.142
 5387.00    1.14955   1.17660    0.141
 5388.00    1.15811   1.17383    0.140
 5389.00    1.17361   1.16576    0.140
 5390.00    1.14645   1.15392    0.139
 5391.00    1.11171   1.14069    0.139
 5392.00    1.10345   1.12886    0.140
 5393.00    1.09879   1.11951    0.140
 5394.00    1.08632   1.11124    0.139
 5395.00    1.07309   1.10253    0.138
 5396.00    1.05849   1.09357    0.140
 5397.00    1.04381   1.08583    0.141
 5398.00    1.07154   1.08184    0.141
 5399.00    1.10024   1.08563    0.140
 5400.00    1.10670   1.09757    0.140
 5401.00    1.11244   1.11005    0.140
 5402.00    1.09945   1.11482    0.139
 5403.00    1.08548   1.10924    0.138
 5404.00    1.05817   1.09415    0.138
 5405.00    1.03432   1.07289    0.137
 5406.00    1.04165   1.05308    0.138
 5407.00    1.04982   1.04272    0.139
 5408.00    1.06357   1.04444    0.138
 5409.00    1.07694   1.05461    0.137
 5410.00    1.08829   1.06738    0.136
 5411.00    1.10037   1.08070    0.135
 5412.00    1.11554   1.09680    0.136
 5413.00    1.12905   1.11632    0.136
 5414.00    1.13684   1.13535    0.136
 5415.00    1.14533   1.15025    0.136
 5416.00    1.15585   1.16094    0.135
 5417.00    1.16657   1.16906    0.135
 5418.00    1.17776   1.17479    0.134
 5419.00    1.18755   1.17638    0.134
 5420.00    1.19434   1.17316    0.134
 5421.00    1.19420   1.16676    0.134
 5422.00    1.18121   1.15970    0.133
 5423.00    1.17809   1.15421    0.134
 5424.00    1.19091   1.15095    0.135
 5425.00    1.18823   1.14934    0.136
 5426.00    1.16361   1.14973    0.135
 5427.00    1.14298   1.15140    0.134
 5428.00    1.12734   1.14972    0.132
 5429.00    1.12102   1.14045    0.131
 5430.00    1.12495   1.12448    0.133
 5431.00    1.12646   1.10808    0.133
 5432.00    1.12563   1.09811    0.133
 5433.00    1.12109   1.09386    0.135
 5434.00    1.11339   1.09020    0.137
 5435.00    1.10661   1.08807    0.138
 5436.00    1.10054   1.09237    0.139
 5437.00    1.13589   1.10612    0.141
 5438.00    1.19864   1.12844    0.142
 5439.00    1.21075   1.15495    0.142
 5440.00    1.19353   1.17990    0.141
 5441.00    1.19749   1.19798    0.141
 5442.00    1.21215   1.20611    0.143
 5443.00    1.20160   1.20310    0.142
 5444.00    1.18004   1.18914    0.140
 5445.00    1.16542   1.16619    0.140
 5446.00    1.15342   1.13888    0.140
 5447.00    1.15443   1.11492    0.140
 5448.00    1.15960   1.10240    0.141
 5449.00    1.16242   1.10571    0.140
 5450.00    1.16461   1.12092    0.139
 5451.00    1.15393   1.13683    0.140
 5452.00    1.14044   1.14420    0.141
 5453.00    1.13046   1.14025    0.141
 5454.00    1.12109   1.12753    0.141
 5455.00    1.12277   1.11176    0.139
 5456.00    1.12590   1.09990    0.137
 5457.00    1.11988   1.09810    0.137
 5458.00    1.11301   1.10869    0.137
 5459.00    1.13264   1.12562    0.137
 5460.00    1.15375   1.13821    0.138
 5461.00    1.13758   1.14079    0.136
 5462.00    1.12085   1.13478    0.135
 5463.00    1.13180   1.12557    0.133
 5464.00    1.14181   1.11855    0.132
 5465.00    1.12965   1.11764    0.131
 5466.00    1.11902   1.12361    0.130
 5467.00    1.12801   1.13214    0.130
 5468.00    1.13658   1.13850    0.131
 5469.00    1.14152   1.14160    0.133
 5470.00    1.14398   1.14107    0.134
 5471.00    1.13061   1.13637    0.132
 5472.00    1.12066   1.12850    0.131
 5473.00    1.12790   1.11873    0.132
 5474.00    1.13265   1.10665    0.133
 5475.00    1.12728   1.09238    0.133
 5476.00    1.11895   1.07913    0.133
 5477.00    1.10067   1.06964    0.133
 5478.00    1.08625   1.06551   -2.000
 5479.00    1.08281   1.06932   -2.000
 5480.00    1.07434   1.07938   -2.000
 5481.00    1.05369   1.08893   -2.000
 5482.00    1.12673   1.09488   -2.000
 5483.00    1.39604   1.10065   -2.000
 5484.00    1.51104   1.11012   -2.000
 5485.00    1.34501   1.12175   -2.000
 5486.00    1.16169   1.13103   -2.000
 5487.00    0.95088   1.13466   -2.000
 5488.00    0.86314   1.13247   -2.000
 5489.00    0.94733   1.12825   -2.000
 5490.00    1.02670   1.12681   -2.000
 5491.00    1.10014   1.12897   -2.000
 5492.00    1.19221   1.13224   -2.000
 5493.00    1.30446   1.13503   -2.000
 5494.00    1.31108   1.13600   -2.000
 5495.00    1.21671   1.13466   -2.000
 5496.00    1.17499   1.13299   -2.000
 5497.00    1.17764   1.13212   -2.000
 5498.00    1.17855   1.13120   -2.000
 5499.00    1.17817   1.13024   -2.000
 5500.00    1.16716   1.13028   -2.000
 5501.00    1.14922   1.12944   -2.000
 5502.00    1.13902   1.12483    0.139
 5503.00    1.13323   1.11764    0.137
 5504.00    1.12217   1.11154    0.136
 5505.00    1.10848   1.10781    0.135
 5506.00    1.10373   1.10549    0.134
 5507.00    1.10283   1.10409    0.134
 5508.00    1.09682   1.10419    0.134
 5509.00    1.08892   1.10656    0.134
 5510.00    1.10222   1.10859    0.135
 5511.00    1.12215   1.10600    0.136
 5512.00    1.11159   1.09871    0.132
 5513.00    1.09311   1.09004    0.129
 5514.00    1.10377   1.08425    0.129
 5515.00    1.12063   1.08553    0.131
 5516.00    1.11240   1.09463    0.132
 5517.00    1.09996   1.10911    0.133
 5518.00    1.10833   1.12558    0.134
 5519.00    1.11933   1.14094    0.134
 5520.00    1.13686   1.15301    0.133
 5521.00    1.15496   1.15990    0.132
 5522.00    1.15790   1.16144    0.133
 5523.00    1.16005   1.15902    0.135
 5524.00    1.14666   1.15337    0.133
 5525.00    1.13318   1.14413    0.131
 5526.00    1.13531   1.13135    0.132
 5527.00    1.13684   1.11663    0.133
 5528.00    1.12531   1.10356    0.131
 5529.00    1.11524   1.09615    0.130
 5530.00    1.12296   1.09708    0.133
 5531.00    1.13085   1.10586    0.135
 5532.00    1.14015   1.11714    0.136
 5533.00    1.14595   1.12477    0.136
 5534.00    1.12993   1.12709    0.135
 5535.00    1.11977   1.12622    0.134
 5536.00    1.13827   1.12503    0.135
 5537.00    1.15275   1.12597    0.136
 5538.00    1.15124   1.13053    0.136
 5539.00    1.14760   1.13743    0.136
 5540.00    1.13692   1.14449    0.136
 5541.00    1.12578   1.15039    0.136
 5542.00    1.11335   1.15347    0.135
 5543.00    1.11189   1.15249    0.135
 5544.00    1.13662   1.14838    0.137
 5545.00    1.16031   1.14419    0.138
 5546.00    1.18188   1.14318    0.138
 5547.00    1.19225   1.14620    0.138
 5548.00    1.18253   1.15230    0.139
 5549.00    1.17736   1.16021    0.139
 5550.00    1.17933   1.16749    0.136
 5551.00    1.17633   1.17100    0.135
 5552.00    1.16647   1.16964    0.137
 5553.00    1.15728   1.16430    0.137
 5554.00    1.14888   1.15674    0.136
 5555.00    1.14990   1.14935    0.135
 5556.00    1.16098   1.14437    0.134
 5557.00    1.15843   1.14260    0.134
 5558.00    1.14302   1.14277    0.134
 5559.00    1.14696   1.14272    0.132
 5560.00    1.16699   1.14146    0.130
 5561.00    1.16913   1.13870    0.130
 5562.00    1.15819   1.13394    0.131
 5563.00    1.13959   1.12750    0.131
 5564.00    1.11607   1.12049    0.131
 5565.00    1.11820   1.11428    0.131
 5566.00    1.13475   1.10972    0.131
 5567.00    1.13406   1.10647    0.131
 5568.00    1.12496   1.10445    0.130
 5569.00    1.12077   1.10393    0.130
 5570.00    1.11866   1.10430    0.130
 5571.00    1.12562   1.10489    0.131
 5572.00    1.13587   1.10604    0.131
 5573.00    1.11239   1.10786    0.130
 5574.00    1.07859   1.10983    0.129
 5575.00    1.09213   1.11339    0.131
 5576.00    1.11773   1.11956    0.133
 5577.00    1.13741   1.12596    0.135
 5578.00    1.15586   1.13084    0.136
 5579.00    1.13375   1.13461    0.136
 5580.00    1.10502   1.13680    0.136
 5581.00    1.10173   1.13686    0.136
 5582.00    1.10155   1.13469    0.135
 5583.00    1.11146   1.12930    0.136
 5584.00    1.12222   1.12001    0.137
 5585.00    1.09282   1.10665    0.138
 5586.00    1.06148   1.08891    0.138
 5587.00    1.07283   1.06845    0.140
 5588.00    1.08435   1.04954    0.141
 5589.00    1.06737   1.03727    0.139
 5590.00    1.05139   1.03479    0.136
 5591.00    1.05523   1.04108    0.137
 5592.00    1.05941   1.05242    0.137
 5593.00    1.06761   1.06477    0.139
 5594.00    1.07493   1.07548    0.140
 5595.00    1.07516   1.08427    0.141
 5596.00    1.07460   1.09141    0.142
 5597.00    1.06930   1.09638    0.140
 5598.00    1.06512   1.09689    0.138
 5599.00    1.06627   1.09077    0.139
 5600.00    1.06823   1.08009    0.139
 5601.00    1.07330   1.07028    0.136
 5602.00    1.07713   1.06520    0.134
 5603.00    1.07691   1.06684    0.134
 5604.00    1.07699   1.07671    0.134
 5605.00    1.07790   1.09444    0.134
 5606.00    1.09131   1.11652    0.133
 5607.00    1.13404   1.13717    0.132
 5608.00    1.16373   1.15212    0.131
 5609.00    1.16698   1.16058    0.130
 5610.00    1.16243   1.16384    0.130
 5611.00    1.14408   1.16303    0.130
 5612.00    1.13545   1.15787    0.131
 5613.00    1.14183   1.14726    0.132
 5614.00    1.14057   1.13070    0.133
 5615.00    1.12894   1.10992    0.134
 5616.00    1.10633   1.08961    0.134
 5617.00    1.07060   1.07622    0.134
 5618.00    1.06126   1.07447    0.134
 5619.00    1.07973   1.08232    0.133
 5620.00    1.08440   1.09283    0.133
 5621.00    1.07625   1.10079    0.132
 5622.00    1.06819   1.10443    0.132
 5623.00    1.06019   1.10334    0.132
 5624.00    1.05740   1.09789    0.133
 5625.00    1.05836   1.09040    0.134
 5626.00    1.06448   1.08539    0.135
 5627.00    1.07387   1.08740    0.135
 5628.00    1.09522   1.09709    0.136
 5629.00    1.12317   1.11065    0.138
 5630.00    1.12245   1.12389    0.137
 5631.00    1.10792   1.13428    0.136
 5632.00    1.11987   1.14004    0.136
 5633.00    1.14281   1.14034    0.136
 5634.00    1.12874   1.13573    0.136
 5635.00    1.10152   1.12771    0.137
 5636.00    1.09181   1.11821    0.136
 5637.00    1.08735   1.10912    0.135
 5638.00    1.08113   1.10177    0.133
 5639.00    1.07448   1.09686    0.131
 5640.00    1.08702   1.09446    0.130
 5641.00    1.10344   1.09377    0.130
 5642.00    1.08926   1.09383    0.129
 5643.00    1.07023   1.09477    0.128
 5644.00    1.08692   1.09774    0.128
 5645.00    1.10780   1.10264    0.129
 5646.00    1.10565   1.10807    0.128
 5647.00    1.10165   1.11296    0.127
 5648.00    1.11294   1.11672    0.128
 5649.00    1.12491   1.11923    0.128
 5650.00    1.11833   1.12084    0.128
 5651.00    1.11163   1.12203    0.129
 5652.00    1.10980   1.12309    0.129
 5653.00    1.10869   1.12330    0.130
 5654.00    1.12113   1.12075    0.128
 5655.00    1.13112   1.11376    0.127
 5656.00    1.11402   1.10242    0.129
 5657.00    1.09578   1.08869    0.131
 5658.00    1.06861   1.07514    0.131
 5659.00    1.04710   1.06369    0.130
 5660.00    1.05879   1.05663    0.132
 5661.00    1.06721   1.05666    0.133
 5662.00    1.06040   1.06312    0.132
 5663.00    1.05768   1.07186    0.132
 5664.00    1.07043   1.08032    0.132
 5665.00    1.08319   1.08858    0.132
 5666.00    1.09593   1.09601    0.133
 5667.00    1.10018   1.10066    0.134
 5668.00    1.08153   1.10198    0.135
 5669.00    1.07236   1.10188    0.136
 5670.00    1.08506   1.10342    0.135
 5671.00    1.10118   1.10836    0.135
 5672.00    1.12416   1.11630    0.136
 5673.00    1.14239   1.12564    0.138
 5674.00    1.15238   1.13454    0.139
 5675.00    1.15866   1.14130    0.139
 5676.00    1.15929   1.14485    0.139
 5677.00    1.15595   1.14545    0.139
 5678.00    1.14728   1.14406    0.140
 5679.00    1.13436   1.14077    0.139
 5680.00    1.11645   1.13495    0.135
 5681.00    1.10910   1.12687    0.134
 5682.00    1.11273   1.11786    0.133
 5683.00    1.11251   1.10915    0.133
 5684.00    1.10875   1.10171    0.133
 5685.00    1.10315   1.09660    0.132
 5686.00    1.09606   1.09389    0.130
 5687.00    1.09417   1.09245    0.129
 5688.00    1.09597   1.09179    0.129
 5689.00    1.10753   1.09325    0.128
 5690.00    1.12517   1.09860    0.127
 5691.00    1.12978   1.10781    0.127
 5692.00    1.12728   1.11869    0.127
 5693.00    1.12403   1.12826    0.128
 5694.00    1.12042   1.13451    0.129
 5695.00    1.12724   1.13669    0.129
 5696.00    1.13831   1.13495    0.129
 5697.00    1.12702   1.13003    0.130
 5698.00    1.10792   1.12267    0.131
 5699.00    1.11394   1.11338    0.132
 5700.00    1.12734   1.10314    0.132
 5701.00    1.12365   1.09392    0.132
 5702.00    1.11580   1.08732    0.132
 5703.00    1.11384   1.08348    0.134
 5704.00    1.11304   1.08168    0.135
 5705.00    1.10638   1.08009    0.135
 5706.00    1.09883   1.07600    0.135
 5707.00    1.08515   1.06774    0.134
 5708.00    1.07078   1.05631    0.133
 5709.00    1.05648   1.04507    0.133
 5710.00    1.04219   1.03754    0.134
 5711.00    1.07259   1.03610    0.133
 5712.00    1.10481   1.04197    0.132
 5713.00    1.09319   1.05429    0.131
 5714.00    1.08237   1.07056    0.130
 5715.00    1.11903   1.08814    0.132
 5716.00    1.15292   1.10407    0.134
 5717.00    1.13938   1.11625    0.133
 5718.00    1.12645   1.12498    0.132
 5719.00    1.11994   1.13172    0.132
 5720.00    1.11643   1.13773    0.132
 5721.00    1.13541   1.14381    0.132
 5722.00    1.15134   1.14963    0.131
 5723.00    1.14982   1.15392    0.130
 5724.00    1.14851   1.15551    0.129
 5725.00    1.14816   1.15374    0.129
 5726.00    1.14604   1.14882    0.128
 5727.00    1.13731   1.14222    0.126
 5728.00    1.12693   1.13589    0.124
 5729.00    1.11135   1.13130    0.124
 5730.00    1.10595   1.12911    0.124
 5731.00    1.12748   1.12885    0.125
 5732.00    1.14193   1.12940    0.125
 5733.00    1.14034   1.13066    0.126
 5734.00    1.14249   1.13349    0.126
 5735.00    1.15199   1.13776    0.126
 5736.00    1.15376   1.14160    0.126
 5737.00    1.14230   1.14331    0.125
 5738.00    1.14644   1.14282    0.126
 5739.00    1.17400   1.14111    0.128
 5740.00    1.18526   1.13921    0.000
 5741.00    1.17504   1.13772    0.000
 5742.00    1.16655   1.13681    0.000
 5743.00    1.16007   1.13667    0.000
 5744.00    1.15825   1.13738    0.000
 5745.00    1.16119   1.13854    0.000
 5746.00    1.17019   1.13936    0.000
 5747.00    1.18464   1.13879    0.000
 5748.00    1.18979   1.13631    0.000
 5749.00    1.18753   1.13246    0.000
 5750.00    1.17219   1.12834    0.000
 5751.00    1.14769   1.12441    0.000
 5752.00    1.13465   1.11978    0.000
 5753.00    1.12864   1.11358    0.000
 5754.00    1.12983   1.10733    0.000
 5755.00    1.13488   1.10462    0.000
 5756.00    1.13084   1.10797    0.000
 5757.00    1.12256   1.11641    0.000
 5758.00    1.13641   1.12546    0.000
 5759.00    1.15915   1.13001    0.000
 5760.00    1.15128   1.12768    0.000
 5761.00    1.13294   1.11991    0.000
 5762.00    1.12851   1.11070    0.000
 5763.00    1.12808   1.10481    0.000
 5764.00    1.13808   1.10544    0.000
 5765.00    1.15057   1.11288    0.000
 5766.00    1.14995   1.12465    0.000
 5767.00    1.14681   1.13654    0.000
 5768.00    1.16433   1.14474    0.000
 5769.00    1.18492   1.14810    0.000
 5770.00    1.18305   1.14748    0.000
 5771.00    1.17874   1.14418    0.000
 5772.00    1.17453   1.13955    0.000
 5773.00    1.17033   1.13482    0.000
 5774.00    1.16492   1.13092    0.000
 5775.00    1.15947   1.12846    0.000
 5776.00    1.15092   1.12731    0.000
 5777.00    1.14265   1.12611    0.000
 5778.00    1.14518   1.12297    0.000
 5779.00    1.14683   1.11597    0.000
 5780.00    1.13422   1.10406    0.000
 5781.00    1.12175   1.08844    0.000
 5782.00    1.11075   1.07223    0.000
 5783.00    1.09870   1.05899    0.000
 5784.00    1.07903   1.05150    0.000
 5785.00    1.06404   1.05071    0.000
 5786.00    1.07503   1.05553    0.000
 5787.00    1.08644   1.06426    0.000
 5788.00    1.09970   1.07545    0.000
 5789.00    1.11025   1.08717    0.000
 5790.00    1.11097   1.09683    0.000
 5791.00    1.11317   1.10330   -2.000
 5792.00    1.11992   1.10783   -2.000
 5793.00    1.12946   1.11217   -2.000
 5794.00    1.14626   1.11742   -2.000
 5795.00    1.15530   1.12302   -2.000
 5796.00    1.14698   1.12698   -2.000
 5797.00    1.13996   1.12852   -2.000
 5798.00    1.13547   1.12885   -2.000
 5799.00    1.13684   1.13006   -2.000
 5800.00    1.14808   1.13382   -2.000
 5801.00    1.15051   1.14004   -2.000
 5802.00    1.13990   1.14605   -2.000
 5803.00    1.14232   1.14833   -2.000
 5804.00    1.16165   1.14561   -2.000
 5805.00    1.17879   1.13953   -2.000
 5806.00    1.19341   1.13285   -2.000
 5807.00    1.19090   1.12829   -2.000
 5808.00    1.17111   1.12737   -2.000
 5809.00    1.16131   1.12953   -2.000
 5810.00    1.16041   1.13314   -2.000
 5811.00    1.15643   1.13655    0.000
 5812.00    1.15004   1.13852    0.000
 5813.00    1.14394   1.13826    0.000
 5814.00    1.13803   1.13546    0.000
 5815.00    1.13915   1.13087    0.000
 5816.00    1.14452   1.12646    0.000
 5817.00    1.15509   1.12445    0.000
 5818.00    1.16841   1.12631    0.000
 5819.00    1.17230   1.13199    0.000
 5820.00    1.17187   1.13972    0.000
 5821.00    1.16435   1.14669    0.000
 5822.00    1.15403   1.15088    0.000
 5823.00    1.15530   1.15234    0.000
 5824.00    1.16045   1.15225    0.000
 5825.00    1.16852   1.15176    0.000
 5826.00    1.17740   1.15163    0.000
 5827.00    1.16901   1.15212    0.000
 5828.00    1.15660   1.15295    0.000
 5829.00    1.15434   1.15370    0.000
 5830.00    1.15398   1.15410    0.000
 5831.00    1.15438   1.15390    0.000
 5832.00    1.15489   1.15280    0.000
 5833.00    1.16268   1.15058    0.000
 5834.00    1.17123   1.14756    0.000
 5835.00    1.17365   1.14457    0.000
 5836.00    1.17565   1.14220    0.000
 5837.00    1.17838   1.14080    0.000
 5838.00    1.18115   1.14076    0.000
 5839.00    1.18806   1.14220    0.000
 5840.00    1.19481   1.14475    0.000
 5841.00    1.19654   1.14806    0.000
 5842.00    1.19751   1.15169    0.000
 5843.00    1.18699   1.15425    0.000
 5844.00    1.17724   1.15418    0.000
 5845.00    1.17489   1.15093    0.000
 5846.00    1.17058   1.14511    0.000
 5847.00    1.15247   1.13798    0.000
 5848.00    1.13934   1.13096    0.000
 5849.00    1.15315   1.12493    0.000
 5850.00    1.16193   1.11983    0.000
 5851.00    1.14890   1.11489    0.000
 5852.00    1.13645   1.10902    0.000
 5853.00    1.12604   1.10176    0.000
 5854.00    1.11555   1.09363    0.000
 5855.00    1.10480   1.08550    0.000
 5856.00    1.09409   1.07808    0.000
 5857.00    1.08347   1.07196    0.000
 5858.00    1.08286   1.06767    0.000
 5859.00    1.10422   1.06605    0.000
 5860.00    1.11599   1.06821    0.000
 5861.00    1.10951   1.07430    0.000
 5862.00    1.10735   1.08229    0.000
 5863.00    1.11239   1.08940    0.000
 5864.00    1.10956   1.09425    0.000
 5865.00    1.09525   1.09689    0.000
 5866.00    1.09356   1.09845    0.000
 5867.00    1.10804   1.10008    0.000
 5868.00    1.12370   1.10251    0.000
 5869.00    1.14069   1.10620    0.000
 5870.00    1.14141   1.11115    0.000
 5871.00    1.12592   1.11623    0.000
 5872.00    1.11611   1.11973    0.000
 5873.00    1.11130   1.12090    0.000
 5874.00    1.11360   1.12018    0.000
 5875.00    1.12140   1.11830    0.000
 5876.00    1.11251   1.11559    0.000
 5877.00    1.09228   1.11196    0.000
 5878.00    1.07817   1.10701    0.000
 5879.00    1.06772   1.10085    0.000
 5880.00    1.06164   1.09445    0.000
 5881.00    1.05784   1.08890    0.000
 5882.00    1.04834   1.08470    0.000
 5883.00    1.03627   1.08153    0.000
 5884.00    1.03335   1.07815    0.000
 5885.00    1.03399   1.07198    0.000
 5886.00    1.01750   1.05942    0.000
 5887.00    0.99536   1.03733    0.000
 5888.00    0.95457   1.00453    0.000
 5889.00    0.90861   0.96377    0.000
 5890.00    0.87933   0.92284    0.000
 5891.00    0.85384   0.89174    0.000
 5892.00    0.85301   0.87710    0.000
 5893.00    0.85666   0.87853    0.000
 5894.00    0.85768   0.88861    0.000
 5895.00    0.85833   0.89767    0.000
 5896.00    0.86342   0.90251    0.000
 5897.00    0.86896   0.90820    0.000
 5898.00    0.90107   0.92141    0.000
 5899.00    0.93487   0.94535    0.000
 5900.00    0.95684   0.97737    0.000
 5901.00    0.97845   1.00978    0.115
 5902.00    0.99920   1.03613    0.116
 5903.00    1.02006   1.05482    0.117
 5904.00    1.04395   1.06669    0.116
 5905.00    1.06731   1.07333    0.115
 5906.00    1.08313   1.07683    0.115
 5907.00    1.09672   1.07916    0.114
 5908.00    1.08959   1.08145    0.113
 5909.00    1.08375   1.08408    0.112
 5910.00    1.08673   1.08658    0.112
 5911.00    1.08899   1.08775    0.112
 5912.00    1.08751   1.08638    0.113
 5913.00    1.08484   1.08214    0.114
 5914.00    1.07708   1.07581    0.114
 5915.00    1.07059   1.06909    0.115
 5916.00    1.06848   1.06421    0.115
 5917.00    1.06505   1.06305    0.115
 5918.00    1.05773   1.06606    0.115
 5919.00    1.05567   1.07173    0.115
 5920.00    1.06683   1.07787    0.116
 5921.00    1.08059   1.08277    0.117
 5922.00    1.09999   1.08586    0.118
 5923.00    1.10924   1.08767    0.118
 5924.00    1.09946   1.08889    0.117
 5925.00    1.08821   1.08993    0.116
 5926.00    1.07456   1.09061    0.117
 5927.00    1.06934   1.09012    0.117
 5928.00    1.07620   1.08781    0.117
 5929.00    1.08313   1.08411    0.117
 5930.00    1.09013   1.08032    0.116
 5931.00    1.09470   1.07790    0.117
 5932.00    1.09656   1.07750    0.117
 5933.00    1.09498   1.07857    0.116
 5934.00    1.09003   1.08012    0.115
 5935.00    1.08577   1.08142    0.115
 5936.00    1.08210   1.08260    0.114
 5937.00    1.08464   1.08438    0.114
 5938.00    1.09192   1.08696    0.115
 5939.00    1.09710   1.08936    0.114
 5940.00    1.10089   1.09005    0.112
 5941.00    1.10173   1.08864    0.112
 5942.00    1.10085   1.08630    0.113
 5943.00    1.09545   1.08470    0.114
 5944.00    1.08775   1.08499    0.114
 5945.00    1.09235   1.08706    0.114
 5946.00    1.10242   1.08934    0.112
 5947.00    1.10172   1.08983    0.112
 5948.00    1.09693   1.08764    0.112
 5949.00    1.08547   1.08348    0.113
 5950.00    1.07185   1.07886    0.114
 5951.00    1.06767   1.07520    0.113
 5952.00    1.06603   1.07309    0.112
 5953.00    1.06921   1.07233    0.114
 5954.00    1.07346   1.07214    0.115
 5955.00    1.06842   1.07192    0.115
 5956.00    1.06173   1.07180    0.115
 5957.00    1.06947   1.07234    0.115
 5958.00    1.07916   1.07396    0.115
 5959.00    1.07788   1.07704    0.116
 5960.00    1.07554   1.08196    0.117
 5961.00    1.08346   1.08831    0.117
 5962.00    1.09199   1.09459    0.117
 5963.00    1.10070   1.09911    0.117
 5964.00    1.10935   1.10103    0.117
 5965.00    1.10780   1.10073    0.117
 5966.00    1.10605   1.09946    0.117
 5967.00    1.09912   1.09876    0.115
 5968.00    1.09323   1.09961    0.113
 5969.00    1.10145   1.10213    0.113
 5970.00    1.10887   1.10564    0.113
 5971.00    1.10918   1.10883    0.113
 5972.00    1.10955   1.11034    0.113
 5973.00    1.11032   1.10929    0.113
 5974.00    1.11074   1.10534    0.113
 5975.00    1.10941   1.09879    0.112
 5976.00    1.10727   1.09078    0.110
 5977.00    1.10178   1.08319    0.109
 5978.00    1.09568   1.07789    0.109
 5979.00    1.08751   1.07591    0.111
 5980.00    1.07951   1.07680    0.112
 5981.00    1.07200   1.07859    0.112
 5982.00    1.06573   1.07884    0.112
 5983.00    1.06255   1.07617    0.112
 5984.00    1.06350   1.07117    0.112
 5985.00    1.07324   1.06606    0.112
 5986.00    1.07878   1.06334    0.112
 5987.00    1.07660   1.06436    0.112
 5988.00    1.07596   1.06870    0.114
 5989.00    1.07783   1.07467    0.117
 5990.00    1.08237   1.08030    0.118
 5991.00    1.09068   1.08465    0.117
 5992.00    1.09607   1.08805    0.117
 5993.00    1.09783   1.09097    0.117
 5994.00    1.09510   1.09331    0.116
 5995.00    1.08746   1.09446    0.116
 5996.00    1.08096   1.09370    0.115
 5997.00    1.07558   1.09079    0.114
 5998.00    1.07351   1.08645    0.114
 5999.00    1.07427   1.08221    0.114
 6000.00    1.07295   1.07928    0.113
 6001.00    1.07007   1.07777    0.112
 6002.00    1.07657   1.07696    0.111
 6003.00    1.08927   1.07593    0.111
 6004.00    1.09262   1.07409    0.111
 6005.00    1.09057   1.07130    0.111
 6006.00    1.07934   1.06759    0.110
 6007.00    1.06349   1.06350    0.110
 6008.00    1.05952   1.06006    0.110
 6009.00    1.06073   1.05839    0.109
 6010.00    1.06389   1.05931    0.110
 6011.00    1.06778   1.06229    0.110
 6012.00    1.06404   1.06559    0.110
 6013.00    1.05786   1.06753    0.109
 6014.00    1.04514   1.06732    0.110
 6015.00    1.03068   1.06549    0.111
 6016.00    1.03270   1.06327    0.112
 6017.00    1.03829   1.06145    0.113
 6018.00    1.05600   1.05994    0.114
 6019.00    1.07581   1.05819    0.116
 6020.00    1.07165   1.05606    0.115
 6021.00    1.06436   1.05430    0.113
 6022.00    1.06104   1.05381    0.115
 6023.00    1.05809   1.05504    0.117
 6024.00    1.05836   1.05829    0.116
 6025.00    1.05881   1.06337    0.115
 6026.00    1.06047   1.06948    0.114
 6027.00    1.06232   1.07576    0.113
 6028.00    1.08016   1.08179    0.113
 6029.00    1.09759   1.08743    0.113
 6030.00    1.10548   1.09243    0.113
 6031.00    1.11285   1.09670    0.112
 6032.00    1.11341   1.10037    0.112
 6033.00    1.11325   1.10336    0.112
 6034.00    1.10682   1.10560    0.110
 6035.00    1.10235   1.10714    0.109
 6036.00    1.11035   1.10794    0.110
 6037.00    1.11716   1.10785    0.111
 6038.00    1.11797   1.10681    0.111
 6039.00    1.11754   1.10503    0.111
 6040.00    1.11206   1.10292    0.111
 6041.00    1.10697   1.10112    0.110
 6042.00    1.10320   1.10036    0.111
 6043.00    1.09949   1.10114    0.111
 6044.00    1.09602   1.10350    0.111
 6045.00    1.09730   1.10685    0.111
 6046.00    1.11014   1.11029    0.111
 6047.00    1.12455   1.11310    0.111
 6048.00    1.14227   1.11486    0.112
 6049.00    1.15171   1.11551    0.114
 6050.00    1.14613   1.11521    0.116
 6051.00    1.14100   1.11395    0.117
 6052.00    1.13660   1.11147    0.116
 6053.00    1.12541   1.10765    0.116
 6054.00    1.10475   1.10274    0.117
 6055.00    1.09226   1.09740    0.117
 6056.00    1.08981   1.09267    0.117
 6057.00    1.08802   1.08969    0.117
 6058.00    1.08695   1.08906    0.117
 6059.00    1.08976   1.09049    0.117
 6060.00    1.09628   1.09275    0.117
 6061.00    1.09275   1.09417    0.115
 6062.00    1.08077   1.09316    0.110
 6063.00    1.07285   1.08913    0.110
 6064.00    1.06794   1.08303    0.112
 6065.00    1.06759   1.07720    0.111
 6066.00    1.07021   1.07445    0.108
 6067.00    1.07533   1.07669    0.108
 6068.00    1.08188   1.08385    0.109
 6069.00    1.08744   1.09398    0.108
 6070.00    1.09251   1.10440    0.107
 6071.00    1.10312   1.11285    0.108
 6072.00    1.11610   1.11820    0.110
 6073.00    1.11924   1.12057    0.110
 6074.00    1.11876   1.12051    0.111
 6075.00    1.11385   1.11824    0.112
 6076.00    1.10757   1.11372    0.113
 6077.00    1.10242   1.10708    0.113
 6078.00    1.09756   1.09894    0.114
 6079.00    1.08513   1.09043    0.113
 6080.00    1.07109   1.08270    0.111
 6081.00    1.06582   1.07657    0.112
 6082.00    1.06202   1.07227    0.114
 6083.00    1.06824   1.06974    0.114
 6084.00    1.07573   1.06876    0.113
 6085.00    1.07930   1.06895    0.114
 6086.00    1.08253   1.07000    0.114
 6087.00    1.07423   1.07142    0.114
 6088.00    1.06533   1.07242    0.115
 6089.00    1.07580   1.07224    0.113
 6090.00    1.08650   1.07080    0.112
 6091.00    1.08846   1.06880    0.112
 6092.00    1.09033   1.06744    0.112
 6093.00    1.09032   1.06786    0.111
 6094.00    1.09028   1.07053    0.110
 6095.00    1.09004   1.07499    0.110
 6096.00    1.08866   1.07995    0.109
 6097.00    1.07794   1.08397    0.109
 6098.00    1.06824   1.08599    0.110
 6099.00    1.06486   1.08516    0.109
 6100.00    1.06190   1.08070    0.109
 6101.00    1.06103   1.07240    0.109
 6102.00    1.06067   1.06154    0.109
 6103.00    1.06235   1.05109    0.108
 6104.00    1.06390   1.04468    0.108
 6105.00    1.06502   1.04464    0.108
 6106.00    1.06678   1.05051    0.109
 6107.00    1.07036   1.05956    0.111
 6108.00    1.07580   1.06860    0.113
 6109.00    1.08565   1.07550    0.114
 6110.00    1.09405   1.07982    0.114
 6111.00    1.09944   1.08247    0.114
 6112.00    1.10195   1.08450    0.114
 6113.00    1.09929   1.08644    0.114
 6114.00    1.09766   1.08820    0.115
 6115.00    1.09766   1.08921    0.115
 6116.00    1.09589   1.08883    0.115
 6117.00    1.09168   1.08655    0.114
 6118.00    1.08884   1.08195    0.114
 6119.00    1.08766   1.07477    0.114
 6120.00    1.07900   1.06529    0.113
 6121.00    1.06237   1.05473    0.111
 6122.00    1.05144   1.04540    0.110
 6123.00    1.04587   1.03983    0.109
 6124.00    1.03959   1.03947    0.109
 6125.00    1.03270   1.04368    0.109
 6126.00    1.03564   1.05011    0.108
 6127.00    1.04575   1.05619    0.106
 6128.00    1.05422   1.06083    0.106
 6129.00    1.06163   1.06430    0.106
 6130.00    1.06540   1.06752    0.106
 6131.00    1.06714   1.07086    0.106
 6132.00    1.06548   1.07307    0.108
 6133.00    1.06218   1.07179    0.110
 6134.00    1.04886   1.06480    0.110
 6135.00    1.03133   1.05152    0.110
 6136.00    1.02788   1.03402    0.110
 6137.00    1.02951   1.01701    0.110
 6138.00    1.02979   1.00588    0.111
 6139.00    1.02966   1.00400    0.113
 6140.00    1.02698   1.01092    0.112
 6141.00    1.02366   1.02312    0.111
 6142.00    1.03081   1.03657    0.113
 6143.00    1.04012   1.04877    0.115
 6144.00    1.03499   1.05898    0.114
 6145.00    1.02752   1.06702    0.113
 6146.00    1.04578   1.07252    0.113
 6147.00    1.06718   1.07479    0.113
 6148.00    1.06573   1.07353    0.112
 6149.00    1.06237   1.06953    0.110
 6150.00    1.05116   1.06467    0.111
 6151.00    1.03957   1.06088    0.112
 6152.00    1.03214   1.05903    0.110
 6153.00    1.02475   1.05868    0.109
 6154.00    1.01588   1.05869    0.109
 6155.00    1.00775   1.05789    0.110
 6156.00    1.01401   1.05562    0.110
 6157.00    1.01969   1.05140    0.110
 6158.00    1.01886   1.04441    0.109
 6159.00    1.01595   1.03340    0.109
 6160.00    0.99647   1.01756    0.108
 6161.00    0.97735   0.99784    0.107
 6162.00    0.96045   0.97752    0.107
 6163.00    0.94707   0.96153    0.108
 6164.00    0.95035   0.95398    0.109
 6165.00    0.95325   0.95578    0.110
 6166.00    0.95471   0.96417    0.109
 6167.00    0.95552   0.97432    0.109
 6168.00    0.95428   0.98193    0.111
 6169.00    0.95640   0.98535    0.112
 6170.00    0.96770   0.98606    0.111
 6171.00    0.97662   0.98718    0.111
 6172.00    0.97998   0.99113    0.112
 6173.00    0.98433   0.99808    0.113
 6174.00    0.99072   1.00638    0.115
 6175.00    0.99194   1.01407    0.116
 6176.00    0.98405   1.02010    0.113
 6177.00    0.97476   1.02453    0.110
 6178.00    0.96329   1.02816    0.110
 6179.00    0.95899   1.03180    0.109
 6180.00    0.96439   1.03567    0.109
 6181.00    0.96947   1.03953    0.109
 6182.00    0.97419   1.04289    0.108
 6183.00    0.98339   1.04514    0.108
 6184.00    0.99731   1.04548    0.107
 6185.00    1.00479   1.04325    0.107
 6186.00    1.00630   1.03822    0.107
 6187.00    0.99409   1.03066    0.107
 6188.00    0.97066   1.02127    0.107
 6189.00    0.95658   1.01102    0.106
 6190.00    0.94922   1.00105    0.106
 6191.00    0.94821   0.99293    0.106
 6192.00    0.95122   0.98860    0.107
 6193.00    0.95168   0.98963    0.108
 6194.00    0.95073   0.99621    0.109
 6195.00    0.96759   1.00650    0.114
 6196.00    0.99301   1.01730   -2.000
 6197.00    0.96174   1.02550   -2.000
 6198.00    0.90697   1.02938   -2.000
 6199.00    0.87330   1.02914   -2.000
 6200.00    0.84710   1.02677   -2.000
 6201.00    0.89981   1.02497   -2.000
 6202.00    0.97612   1.02572   -2.000
 6203.00    1.03182   1.02936   -2.000
 6204.00    1.08240   1.03478   -2.000
 6205.00    1.08999   1.04030   -2.000
 6206.00    1.08892   1.04465   -2.000
 6207.00    1.05330   1.04723   -2.000
 6208.00    1.01224   1.04786    0.114
 6209.00    1.00927   1.04637    0.112
 6210.00    1.01076   1.04244    0.110
 6211.00    1.01475   1.03566    0.110
 6212.00    1.01894   1.02594    0.109
 6213.00    1.01063   1.01393    0.110
 6214.00    1.00177   1.00126    0.111
 6215.00    0.98653   0.99011    0.108
 6216.00    0.97127   0.98239    0.105
 6217.00    0.95854   0.97880    0.107
 6218.00    0.94654   0.97857    0.109
 6219.00    0.94797   0.98009    0.109
 6220.00    0.95023   0.98208    0.109
 6221.00    0.96162   0.98422    0.109
 6222.00    0.97153   0.98684    0.109
 6223.00    0.96998   0.99024    0.109
 6224.00    0.96706   0.99411    0.110
 6225.00    0.95612   0.99761    0.110
 6226.00    0.94700   0.99973    0.110
 6227.00    0.94634   0.99943    0.112
 6228.00    0.94468   0.99589    0.113
 6229.00    0.93927   0.98901    0.115
 6230.00    0.93739   0.98000    0.116
 6231.00    0.94673   0.97154    0.114
 6232.00    0.95570   0.96684    0.113
 6233.00    0.96372   0.96815    0.112
 6234.00    0.96734   0.97544    0.111
 6235.00    0.96083   0.98611    0.111
 6236.00    0.95675   0.99628    0.110
 6237.00    0.95749   1.00253    0.109
 6238.00    0.95872   1.00324    0.108
 6239.00    0.96079   0.99894    0.109
 6240.00    0.96054   0.99161    0.109
 6241.00    0.95674   0.98342    0.109
 6242.00    0.95316   0.97595    0.108
 6243.00    0.94987   0.96998    0.106
 6244.00    0.94984   0.96597    0.105
 6245.00    0.95366   0.96440    0.107
 6246.00    0.95777   0.96583    0.108
 6247.00    0.96220   0.97036    0.108
 6248.00    0.96577   0.97706    0.108
 6249.00    0.96855   0.98392    0.107
 6250.00    0.96295   0.98837    0.106
 6251.00    0.95058   0.98838    0.106
 6252.00    0.93927   0.98345    0.107
 6253.00    0.92871   0.97485    0.110
 6254.00    0.92400   0.96486    0.111
 6255.00    0.92293   0.95555    0.111
 6256.00    0.92367   0.94814    0.111
 6257.00    0.92539   0.94310    0.111
 6258.00    0.92460   0.94088    0.114
 6259.00    0.92262   0.94224    0.117
 6260.00    0.89938   0.94785    0.121
 6261.00    0.86747   0.95739    0.126
 6262.00    0.86416   0.96929    0.129
 6263.00    0.87082   0.98111    0.131
 6264.00    0.90738   0.99061    0.130
 6265.00    0.95271   0.99670    0.127
 6266.00    0.99514   0.99966    0.122
 6267.00    1.03687   1.00066    0.118
 6268.00    1.03691   1.00095    0.115
 6269.00    1.02878   1.00129    0.113
 6270.00    1.01147   1.00201    0.109
 6271.00    0.99276   1.00328    0.105
 6272.00    0.99104   1.00519    0.106
 6273.00    0.99124   1.00763    0.108
 6274.00    0.99732   1.01013    0.107
 6275.00    1.00385   1.01206    0.107
 6276.00    1.00897   1.01286    0.107
 6277.00    1.01403   1.01214    0.107
 6278.00    1.00436   1.00977    0.108
 6279.00    0.99463   1.00603    0.108
 6280.00    0.98701   1.00175    0.000
 6281.00    0.97995   0.99824    0.000
 6282.00    0.98238   0.99685    0.000
 6283.00    0.98490   0.99833    0.000
 6284.00    0.98819   1.00251    0.000
 6285.00    0.99206   1.00845    0.000
 6286.00    1.00019   1.01502    0.000
 6287.00    1.00673   1.02121    0.000
 6288.00    1.00422   1.02622    0.000
 6289.00    1.00314   1.02933    0.000
 6290.00    1.00852   1.03002    0.000
 6291.00    1.01421   1.02825    0.000
 6292.00    1.02105   1.02461    0.000
 6293.00    1.02522   1.02007    0.000
 6294.00    1.02112   1.01533    0.000
 6295.00    1.01417   1.01057    0.000
 6296.00    0.99971   1.00562    0.000
 6297.00    0.98803   1.00045    0.000
 6298.00    0.98266   0.99540    0.000
 6299.00    0.97913   0.99099    0.000
 6300.00    0.97920   0.98757    0.000
 6301.00    0.98157   0.98528    0.000
 6302.00    0.98786   0.98439    0.000
 6303.00    0.99401   0.98545    0.000
 6304.00    0.99996   0.98898    0.000
 6305.00    1.00152   0.99499    0.000
 6306.00    0.99730   1.00269    0.000
 6307.00    0.99629   1.01072    0.000
 6308.00    0.99900   1.01754    0.000
 6309.00    0.99918   1.02186    0.000
 6310.00    0.99677   1.02300    0.000
 6311.00    0.99030   1.02102    0.000
 6312.00    0.98018   1.01665    0.000
 6313.00    0.97323   1.01085    0.000
 6314.00    0.96882   1.00439    0.000
 6315.00    0.97433   0.99779    0.000
 6316.00    0.98678   0.99148    0.000
 6317.00    0.99292   0.98608    0.000
 6318.00    0.99519   0.98238    0.000
 6319.00    0.98978   0.98117    0.000
 6320.00    0.98024   0.98291    0.000
 6321.00    0.97797   0.98745    0.107
 6322.00    0.97907   0.99403    0.108
 6323.00    0.98742   1.00159    0.108
 6324.00    0.99867   1.00912    0.108
 6325.00    1.00335   1.01581    0.108
 6326.00    1.00579   1.02116    0.108
 6327.00    1.00617   1.02491    0.108
 6328.00    1.00595   1.02713    0.107
 6329.00    1.00688   1.02817    0.109
 6330.00    1.00808   1.02851    0.110
 6331.00    0.99709   1.02838    0.109
 6332.00    0.98378   1.02756    0.107
 6333.00    0.97586   1.02532    0.108
 6334.00    0.96874   1.02089    0.108
 6335.00    0.97513   1.01426    0.110
 6336.00    0.98298   1.00668    0.112
 6337.00    0.98263   1.00040    0.112
 6338.00    0.98170   0.99747    0.111
 6339.00    0.97889   0.99859    0.112
 6340.00    0.97601   1.00266    0.112
 6341.00    0.98297   1.00740    0.113
 6342.00    0.98986   1.01062    0.114
 6343.00    0.99267   1.01124    0.114
 6344.00    0.99512   1.00979    0.114
 6345.00    0.99187   1.00793    0.112
 6346.00    0.98832   1.00747    0.110
 6347.00    0.98175   1.00941    0.110
 6348.00    0.97685   1.01355    0.109
 6349.00    0.98390   1.01874    0.109
 6350.00    0.98919   1.02351    0.109
 6351.00    0.98478   1.02655    0.107
 6352.00    0.98174   1.02701    0.106
 6353.00    0.98478   1.02461    0.107
 6354.00    0.98687   1.01966    0.107
 6355.00    0.98550   1.01291    0.106
 6356.00    0.98271   1.00526    0.105
 6357.00    0.97559   0.99737    0.107
 6358.00    0.96989   0.98953    0.109
 6359.00    0.96788   0.98189    0.108
 6360.00    0.96688   0.97481    0.108
 6361.00    0.96809   0.96895    0.111
 6362.00    0.96912   0.96517    0.112
 6363.00    0.96979   0.96423    0.111
 6364.00    0.96688   0.96657    0.111
 6365.00    0.95796   0.97214    0.114
 6366.00    0.95459   0.98027    0.115
 6367.00    0.95938   0.98982    0.115
 6368.00    0.96975   0.99941    0.114
 6369.00    0.98733   1.00794    0.113
 6370.00    1.00212   1.01490    0.113
 6371.00    1.01372   1.02043    0.114
 6372.00    1.01869   1.02499    0.115
 6373.00    1.01700   1.02895    0.114
 6374.00    1.01677   1.03220    0.113
 6375.00    1.01785   1.03428    0.111
 6376.00    1.01797   1.03466    0.111
 6377.00    1.01733   1.03312    0.111
 6378.00    1.01165   1.02994    0.110
 6379.00    1.00249   1.02586    0.109
 6380.00    0.99962   1.02187    0.109
 6381.00    1.00054   1.01891    0.109
 6382.00    1.00487   1.01751    0.109
 6383.00    1.01100   1.01761    0.109
 6384.00    1.01374   1.01876    0.110
 6385.00    1.01494   1.02047    0.111
 6386.00    1.01658   1.02237    0.112
 6387.00    1.01839   1.02418    0.111
 6388.00    1.01540   1.02548    0.112
 6389.00    1.01079   1.02563    0.113
 6390.00    1.01227   1.02387    0.114
 6391.00    1.01547   1.01975    0.114
 6392.00    1.01406   1.01359    0.115
 6393.00    1.01157   1.00680    0.117
 6394.00    1.00155   1.00147    0.118
 6395.00    0.99013   0.99932    0.118
 6396.00    0.98431   1.00052    0.119
 6397.00    0.97929   1.00334    0.120
 6398.00    0.97494   1.00524    0.117
 6399.00    0.97066   1.00466    0.115
 6400.00    0.97098   1.00231    0.112
 6401.00    0.97160   1.00067    0.110
 6402.00    0.98130   1.00223    0.111
 6403.00    0.99129   1.00752    0.113
 6404.00    0.99939   1.01476    0.112
 6405.00    1.00732   1.02097    0.111
 6406.00    1.01004   1.02385    0.110
 6407.00    1.01173   1.02286    0.108
 6408.00    0.99797   1.01916    0.108
 6409.00    0.98539   1.01457    0.107
 6410.00    0.98417   1.01053    0.109
 6411.00    0.98369   1.00770    0.111
 6412.00    0.98841   1.00619    0.112
 6413.00    0.99248   1.00594    0.113
 6414.00    0.99311   1.00695    0.114
 6415.00    0.99169   1.00892    0.114
 6416.00    0.98146   1.01104    0.114
 6417.00    0.97439   1.01220    0.114
 6418.00    0.97855   1.01139    0.114
 6419.00    0.98462   1.00846    0.114
 6420.00    0.99639   1.00439    0.116
 6421.00    1.00224   1.00116    0.117
 6422.00    0.99298   1.00081    0.116
 6423.00    0.98673   1.00434    0.116
 6424.00    0.98710   1.01115    0.115
 6425.00    0.98743   1.01926    0.114
 6426.00    0.98768   1.02633    0.113
 6427.00    0.98874   1.03048    0.112
 6428.00    0.99116   1.03071    0.112
 6429.00    0.99582   1.02704    0.112
 6430.00    1.00375   1.02057    0.112
 6431.00    1.00560   1.01341    0.112
 6432.00    0.99968   1.00807    0.110
 6433.00    0.99579   1.00637    0.109
 6434.00    0.99417   1.00841    0.109
 6435.00    0.99765   1.01248    0.110
 6436.00    1.00619   1.01605    0.111
 6437.00    1.00906   1.01715    0.112
 6438.00    1.00698   1.01556    0.114
 6439.00    0.99808   1.01296    0.115
 6440.00    0.98390   1.01192    0.117
 6441.00    0.98055   1.01441    0.117
 6442.00    0.98454   1.02062    0.116
 6443.00    0.99521   1.02893    0.117
 6444.00    1.00984   1.03680    0.118
 6445.00    1.02002   1.04189    0.119
 6446.00    1.02789   1.04253    0.120
 6447.00    1.02302   1.03794    0.120
 6448.00    1.01243   1.02837    0.119
 6449.00    0.98907   1.01552    0.118
 6450.00    0.96077   1.00253    0.117
 6451.00    0.95767   0.99304    0.116
 6452.00    0.96287   0.98944    0.115
 6453.00    0.98003   0.99171    0.114
 6454.00    1.00049   0.99755    0.113
 6455.00    1.01009   1.00415    0.113
 6456.00    1.01723   1.00980    0.114
 6457.00    1.01298   1.01436    0.113
 6458.00    1.00666   1.01826    0.113
 6459.00    1.00309   1.02125    0.113
 6460.00    0.99990   1.02210    0.113
 6461.00    1.00688   1.01961    0.114
 6462.00    1.01488   1.01399    0.115
 6463.00    1.00966   1.00736    0.114
 6464.00    1.00362   1.00283    0.114
 6465.00    0.99842   1.00265    0.115
 6466.00    0.99328   1.00690    0.117
 6467.00    0.99407   1.01353    0.118
 6468.00    0.99460   1.01972    0.118
 6469.00    0.98800   1.02334    0.118
 6470.00    0.98277   1.02381    0.117
 6471.00    0.99682   1.02197    0.118
 6472.00    1.00934   1.01928    0.119
 6473.00    1.00754   1.01701    0.120
 6474.00    1.00450   1.01577    0.120
 6475.00    0.99304   1.01560    0.119
 6476.00    0.98370   1.01617    0.118
 6477.00    0.98548   1.01703    0.118
 6478.00    0.98834   1.01755    0.118
 6479.00    0.99577   1.01687    0.115
 6480.00    1.00122   1.01420    0.113
 6481.00    0.99980   1.00941    0.113
 6482.00    1.00048   1.00341    0.113
 6483.00    1.00729   0.99799    0.113
 6484.00    1.01314   0.99501    0.114
 6485.00    1.01657   0.99535    0.113
 6486.00    1.01588   0.99849    0.113
 6487.00    1.00632   1.00270    0.115
 6488.00    0.99533   1.00587    0.115
 6489.00    0.98167   1.00614    0.115
 6490.00    0.96735   1.00226    0.116
 6491.00    0.95194   0.99356    0.116
 6492.00    0.94219   0.97993    0.117
 6493.00    0.94053   0.96212    0.117
 6494.00    0.93973   0.94200    0.118
 6495.00    0.94000   0.92270    0.119
 6496.00    0.93720   0.90782    0.119
 6497.00    0.93099   0.90024    0.118
 6498.00    0.93323   0.90107    0.118
 6499.00    0.94377   0.90935    0.118
 6500.00    0.95142   0.92284    0.118
 6501.00    0.95657   0.93888    0.116
 6502.00    0.96431   0.95523    0.116
 6503.00    0.97402   0.97026    0.115
 6504.00    0.97062   0.98295    0.114
 6505.00    0.95846   0.99279    0.112
 6506.00    0.95268   0.99967    0.112
 6507.00    0.95065   1.00385    0.112
 6508.00    0.95899   1.00591    0.113
 6509.00    0.97262   1.00665    0.114
 6510.00    0.97774   1.00687    0.114
 6511.00    0.97908   1.00703    0.115
 6512.00    0.98861   1.00705    0.115
 6513.00    1.00125   1.00641    0.116
 6514.00    1.01449   1.00450    0.118
 6515.00    1.02793   1.00107    0.121
 6516.00    1.02483   0.99648    0.121
 6517.00    1.01727   0.99171    0.120
 6518.00    1.01939   0.98803    0.122
 6519.00    1.02366   0.98658    0.124
 6520.00    1.01915   0.98784    0.124
 6521.00    1.01309   0.99146    0.124
 6522.00    1.00026   0.99631    0.123
 6523.00    0.98652   1.00097    0.122
 6524.00    0.99199   1.00423    0.121
 6525.00    0.99930   1.00549    0.119
 6526.00    1.01747   1.00490    0.118
 6527.00    1.03629   1.00318    0.118
 6528.00    1.03165   1.00127    0.000
 6529.00    1.02642   0.99985    0.000
 6530.00    1.02092   0.99907    0.000
 6531.00    1.01532   0.99862    0.000
 6532.00    1.00731   0.99816    0.000
 6533.00    0.99993   0.99775    0.000
 6534.00    1.00103   0.99785    0.000
 6535.00    1.00232   0.99891    0.000
 6536.00    1.00537   1.00101    0.000
 6537.00    1.01012   1.00376    0.000
 6538.00    1.02603   1.00654    0.000
 6539.00    1.03921   1.00876    0.000
 6540.00    1.03841   1.00990    0.000
 6541.00    1.03474   1.00946    0.000
 6542.00    1.01926   1.00698    0.000
 6543.00    1.00780   1.00225    0.000
 6544.00    1.01007   0.99560    0.000
 6545.00    1.01481   0.98790    0.000
 6546.00    1.02669   0.98047    0.000
 6547.00    1.04028   0.97465    0.000
 6548.00    1.05809   0.97122    0.000
 6549.00    1.06179   0.97000    0.000
 6550.00    1.03558   0.96988    0.000
 6551.00    1.01560   0.96932    0.000
 6552.00    1.00708   0.96707    0.000
 6553.00    0.99411   0.96263    0.000
 6554.00    0.97396   0.95634    0.000
 6555.00    0.95434   0.94901    0.000
 6556.00    0.93546   0.94135    0.000
 6557.00    0.92682   0.93326    0.000
 6558.00    0.93090   0.92333    0.000
 6559.00    0.93368   0.90908    0.000
 6560.00    0.93502   0.88815    0.000
 6561.00    0.92647   0.86041    0.000
 6562.00    0.90837   0.82959    0.000
 6563.00    0.90901   0.80320    0.000
 6564.00    0.92563   0.78956    0.000
 6565.00    0.93774   0.79370    0.000
 6566.00    0.94648   0.81453    0.000
 6567.00    0.95005   0.84531    0.000
 6568.00    0.95023   0.87727    0.000
 6569.00    0.95066   0.90359    0.000
 6570.00    0.95125   0.92126    0.000
 6571.00    0.94594   0.93084    0.000
 6572.00    0.93767   0.93469    0.000
 6573.00    0.94035   0.93559    0.000
 6574.00    0.94781   0.93600    0.000
 6575.00    0.94383   0.93783    0.000
 6576.00    0.93557   0.94214    0.000
 6577.00    0.94028   0.94879    0.000
 6578.00    0.94910   0.95655    0.000
 6579.00    0.98153   0.96365    0.000
 6580.00    1.02019   0.96880    0.000
 6581.00    1.03536   0.97171    0.000
 6582.00    1.04544   0.97309    0.000
 6583.00    1.05077   0.97394    0.000
 6584.00    1.05529   0.97500    0.000
 6585.00    1.07046   0.97646    0.000
 6586.00    1.08703   0.97820    0.000
 6587.00    1.06583   0.97996    0.000
 6588.00    1.04117   0.98134    0.000
 6589.00    1.02731   0.98159    0.000
 6590.00    1.01404   0.97967    0.000
 6591.00    1.01571   0.97479    0.000
 6592.00    1.01741   0.96715    0.000
 6593.00    0.99135   0.95835    0.000
 6594.00    0.96572   0.95089    0.000
 6595.00    0.95004   0.94701    0.000
 6596.00    0.93635   0.94752    0.000
 6597.00    0.94789   0.95162    0.000
 6598.00    0.95799   0.95764    0.000
 6599.00    0.95582   0.96411    0.000
 6600.00    0.95406   0.97016    0.000
 6601.00    0.95486   0.97540    0.000
 6602.00    0.95520   0.97935    0.000
 6603.00    0.95319   0.98138    0.000
 6604.00    0.95279   0.98100    0.000
 6605.00    0.95882   0.97821    0.000
 6606.00    0.96270   0.97361    0.000
 6607.00    0.95934   0.96829    0.000
 6608.00    0.95902   0.96349    0.000
 6609.00    0.96728   0.96045    0.123
 6610.00    0.97285   0.96000    0.124
 6611.00    0.97196   0.96230    0.125
 6612.00    0.97257   0.96673    0.126
 6613.00    0.97631   0.97212    0.126
 6614.00    0.98208   0.97737    0.126
 6615.00    0.99156   0.98178    0.127
 6616.00    1.00540   0.98522    0.129
 6617.00    1.02618   0.98780    0.133
 6618.00    1.03708   0.98970    0.135
 6619.00    1.03423   0.99095    0.135
 6620.00    1.02543   0.99143    0.135
 6621.00    1.00934   0.99086    0.135
 6622.00    0.99564   0.98891    0.134
 6623.00    0.98450   0.98550    0.132
 6624.00    0.99122   0.98101    0.130
 6625.00    1.01494   0.97632    0.127
 6626.00    1.01549   0.97246    0.126
 6627.00    0.99658   0.97004    0.126
 6628.00    0.98102   0.96894    0.126
 6629.00    0.96795   0.96834    0.126
 6630.00    0.95715   0.96722    0.126
 6631.00    0.94782   0.96485    0.126
 6632.00    0.93867   0.96120    0.126
 6633.00    0.92961   0.95701    0.127
 6634.00    0.92354   0.95355    0.127
 6635.00    0.91895   0.95203    0.127
 6636.00    0.93302   0.95305    0.129
 6637.00    0.95508   0.95624    0.133
 6638.00    0.96427   0.96043    0.135
 6639.00    0.96873   0.96425    0.138
 6640.00    0.96185   0.96667    0.137
 6641.00    0.95146   0.96727    0.135
 6642.00    0.96333   0.96621    0.137
 6643.00    0.98097   0.96411    0.140
 6644.00    0.98777   0.96184    0.140
 6645.00    0.99229   0.96032    0.140
 6646.00    0.98059   0.96012    0.137
 6647.00    0.96620   0.96125    0.134
 6648.00    0.98224   0.96319    0.135
 6649.00    1.00210   0.96520    0.136
 6650.00    0.98540   0.96668    0.134
 6651.00    0.96552   0.96737    0.132
 6652.00    0.94601   0.96733    0.129
 6653.00    0.92651   0.96683    0.127
 6654.00    0.93673   0.96623    0.127
 6655.00    0.94740   0.96574    0.128
 6656.00    0.95293   0.96540    0.130
 6657.00    0.95823   0.96503    0.132
 6658.00    0.95859   0.96428    0.134
 6659.00    0.95963   0.96276    0.137
 6660.00    0.96895   0.96012    0.138
 6661.00    0.97336   0.95623    0.138
 6662.00    0.93719   0.95136    0.137
 6663.00    0.90904   0.94623    0.136
 6664.00    0.93040   0.94189    0.140
 6665.00    0.94594   0.93930    0.143
 6666.00    0.93325   0.93897    0.143
 6667.00    0.92619   0.94082    0.143
 6668.00    0.94134   0.94437    0.141
 6669.00    0.94950   0.94897    0.140
 6670.00    0.93472   0.95394    0.138
 6671.00    0.93015   0.95865    0.137
 6672.00    0.95388   0.96241    0.136
 6673.00    0.96311   0.96458    0.136
 6674.00    0.93786   0.96459    0.135
 6675.00    0.91909   0.96207    0.135
 6676.00    0.91359   0.95704    0.134
 6677.00    0.91255   0.95021    0.134
 6678.00    0.91946   0.94300    0.135
 6679.00    0.92637   0.93726    0.136
 6680.00    0.93328   0.93447    0.137
 6681.00    0.93453   0.93512    0.138
 6682.00    0.92799   0.93855    0.138
 6683.00    0.93274   0.94338    0.139
 6684.00    0.95113   0.94825    0.142
 6685.00    0.95765   0.95222    0.144
 6686.00    0.95152   0.95494    0.145
 6687.00    0.94437   0.95650    0.145
 6688.00    0.93628   0.95724    0.147
 6689.00    0.93779   0.95754    0.147
 6690.00    0.94728   0.95766    0.147
 6691.00    0.95670   0.95761    0.148
 6692.00    0.96608   0.95718    0.149
 6693.00    0.95447   0.95601    0.149
 6694.00    0.92943   0.95382    0.148
 6695.00    0.91112   0.95068    0.145
 6696.00    0.89659   0.94708    0.000
 6697.00    0.91045   0.94390    0.000
 6698.00    0.93814   0.94201    0.000
 6699.00    0.94068   0.94189    0.000
 6700.00    0.93264   0.94328    0.000
 6701.00    0.93119   0.94529    0.000
 6702.00    0.93212   0.94688    0.000
 6703.00    0.92245   0.94737    0.000
 6704.00    0.90955   0.94677    0.000
 6705.00    0.92865   0.94567    0.000
 6706.00    0.95585   0.94481    0.000
 6707.00    0.94090   0.94460    0.000
 6708.00    0.91727   0.94489    0.000
 6709.00    0.92590   0.94521    0.000
 6710.00    0.93976   0.94495    0.000
 6711.00    0.90243   0.94371    0.000
 6712.00    0.85890   0.94124    0.000
 6713.00    0.89803   0.93748    0.000
 6714.00    0.94400   0.93247    0.000
 6715.00    0.95077   0.92654    0.000
 6716.00    0.95568   0.92038    0.000
 6717.00    0.95407   0.91509    0.000
 6718.00    0.95237   0.91186    0.000
 6719.00    0.95070   0.91149    0.000
 6720.00    0.94823   0.91399    0.000
 6721.00    0.93006   0.91852    0.000
 6722.00    0.91312   0.92380    0.000
 6723.00    0.91020   0.92864    0.000
 6724.00    0.90788   0.93228    0.000
 6725.00    0.91030   0.93457    0.000
 6726.00    0.91453   0.93579    0.000
 6727.00    0.92962   0.93651    0.000
 6728.00    0.94758   0.93730    0.000
 6729.00    0.97917   0.93843    0.000
 6730.00    1.00003   0.93985    0.000
 6731.00    0.97951   0.94120    0.000
 6732.00    0.96144   0.94211    0.000
 6733.00    0.95126   0.94238    0.000
 6734.00    0.93936   0.94204    0.000
 6735.00    0.92275   0.94120    0.000
 6736.00    0.91503   0.93992    0.000
 6737.00    0.92810   0.93819    0.000
 6738.00    0.93509   0.93602    0.000
 6739.00    0.92979   0.93359    0.000
 6740.00    0.93659   0.93124    0.000
 6741.00    0.96469   0.92929    0.000
 6742.00    0.96758   0.92793    0.000
 6743.00    0.93165   0.92710    0.000
 6744.00    0.89401   0.92663    0.000
 6745.00    0.85406   0.92627    0.000
 6746.00    0.84257   0.92575    0.000
 6747.00    0.86496   0.92480    0.000
 6748.00    0.88092   0.92330    0.000
 6749.00    0.89011   0.92138    0.000
 6750.00    0.90143   0.91941    0.000
 6751.00    0.91471   0.91793    0.000
 6752.00    0.90654   0.91740    0.000
 6753.00    0.88086   0.91813    0.155
 6754.00    0.85857   0.92018    0.158
 6755.00    0.83872   0.92343    0.160
 6756.00    0.83402   0.92758    0.163
 6757.00    0.83887   0.93221    0.168
 6758.00    0.88199   0.93681    0.172
 6759.00    0.94621   0.94089    0.177
 6760.00    0.97546   0.94402    0.179
 6761.00    0.98794   0.94599    0.180
 6762.00    1.02719   0.94671    0.182
 6763.00    1.07750   0.94621    0.184
 6764.00    1.09087   0.94454    0.185
 6765.00    1.09117   0.94177    0.186
 6766.00    1.09094   0.93810    0.183
 6767.00    1.09054   0.93394    0.179
 6768.00    1.06509   0.92992    0.175
 6769.00    1.03344   0.92676    0.171
 6770.00    1.01528   0.92500    0.165
 6771.00    0.99984   0.92489    0.159
 6772.00    0.97118   0.92644    0.158
 6773.00    0.94045   0.92948    0.158
 6774.00    0.94589   0.93364    0.158
 6775.00    0.95555   0.93839    0.159
 6776.00    0.96846   0.94304    0.160
 6777.00    0.98162   0.94693    0.162
 6778.00    0.98803   0.94953    0.167
 6779.00    0.99415   0.95046    0.171
 6780.00    1.00916   0.94947    0.172
 6781.00    1.02280   0.94641    0.174
 6782.00    0.96827   0.94145    0.174
 6783.00    0.91863   0.93517    0.175
 6784.00    0.95758   0.92865    0.173
 6785.00    0.99327   0.92317    0.171
 6786.00    0.99343   0.91979    0.170
 6787.00    0.98902   0.91894    0.168
 6788.00    0.94958   0.92029    0.164
 6789.00    0.92438   0.92291    0.161
 6790.00    0.98226   0.92574    0.164
 6791.00    1.02684   0.92789    0.165
 6792.00    1.00995   0.92892    0.163
 6793.00    1.00229   0.92887    0.162
 6794.00    1.02956   0.92812    0.161
 6795.00    1.03787   0.92725    0.160
 6796.00    0.98630   0.92679    0.159
 6797.00    0.95576   0.92708    0.160
 6798.00    0.98156   0.92816    0.162
 6799.00    0.99679   0.92984    0.163
 6800.00    0.98774   0.93177    0.162
 6801.00    0.97751   0.93354    0.163
 6802.00    0.96494   0.93481    0.167
 6803.00    0.96696   0.93536    0.169
 6804.00    0.99427   0.93516    0.168
 6805.00    1.00190   0.93437    0.168
 6806.00    0.97969   0.93326    0.169
 6807.00    0.97053   0.93213    0.168
 6808.00    0.97876   0.93118    0.166
 6809.00    0.97505   0.93048    0.164
 6810.00    0.95733   0.93003    0.163
 6811.00    0.94175   0.92974    0.162
 6812.00    0.92840   0.92949    0.161
 6813.00    0.93407   0.92920    0.160
 6814.00    0.95712   0.92889    0.161
 6815.00    0.96915   0.92870    0.161
 6816.00    0.97231   0.92881    0.159
 6817.00    0.95629   0.92933    0.157
 6818.00    0.92671   0.93015    0.154
 6819.00    0.91770   0.93109    0.153
 6820.00    0.92146   0.93202    0.154
 6821.00    0.93978   0.93304    0.156
 6822.00    0.96599   0.93432    0.160
 6823.00    0.94597   0.93588    0.161
 6824.00    0.90415   0.93743    0.161
 6825.00    0.91782   0.93843    0.163
 6826.00    0.95406   0.93841    0.166
 6827.00    0.93043   0.93725    0.166
 6828.00    0.88601   0.93532    0.164
 6829.00    0.91463   0.93336    0.166
 6830.00    0.96462   0.93211    0.170
 6831.00    0.97493   0.93196    0.170
 6832.00    0.97563   0.93281    0.170
 6833.00    0.97112   0.93420    0.168
 6834.00    0.96559   0.93549    0.165
 6835.00    0.98322   0.93607    0.165
 6836.00    1.00438   0.93543    0.165
 6837.00    0.98361   0.93317    0.163
 6838.00    0.95814   0.92916    0.161
 6839.00    0.96594   0.92362    0.163
 6840.00    0.97623   0.91728    0.165
 6841.00    0.96992   0.91128    0.163
 6842.00    0.96295   0.90690    0.161
 6843.00    0.94030   0.90517    0.160
 6844.00    0.91828   0.90646    0.159
 6845.00    0.92551   0.91030    0.159
 6846.00    0.93382   0.91560    0.160
 6847.00    0.96042   0.92104    0.163
 6848.00    0.98433   0.92553    0.165
 6849.00    0.98009   0.92848    0.166
 6850.00    0.97194   0.92979    0.167
 6851.00    0.93480   0.92959    0.165
 6852.00    0.90685   0.92807    0.164
 6853.00    0.93097   0.92538    0.166
 6854.00    0.95057   0.92173    0.167
 6855.00    0.94977   0.91756    0.164
 6856.00    0.94186   0.91349    0.162
 6857.00    0.90763   0.91017    0.162
 6858.00    0.88375   0.90797    0.162
 6859.00    0.89191   0.90690    0.160
 6860.00    0.89915   0.90672    0.159
 6861.00    0.90393   0.90723    0.159
 6862.00    0.90608   0.90845    0.159
 6863.00    0.90230   0.91041    0.159
 6864.00    0.90089   0.91291    0.160
 6865.00    0.90410   0.91534    0.161
 6866.00    0.90229   0.91689    0.162
 6867.00    0.89191   0.91706    0.165
 6868.00    0.89563   0.91593    0.166
 6869.00    0.92042   0.91414    0.165
 6870.00    0.94748   0.91244    0.166
 6871.00    0.97753   0.91135    0.170
 6872.00    0.97665   0.91101    0.172
 6873.00    0.93998   0.91137    0.170
 6874.00    0.91384   0.91234    0.168
 6875.00    0.89846   0.91392    0.167
 6876.00    0.88290   0.91603    0.165
 6877.00    0.86719   0.91847    0.164
 6878.00    0.87983   0.92075    0.164
 6879.00    0.91496   0.92228    0.164
 6880.00    0.92472   0.92254    0.163
 6881.00    0.91679   0.92143    0.161
 6882.00    0.91966   0.91934    0.159
 6883.00    0.92915   0.91708    0.156
 6884.00    0.93870   0.91558    0.157
 6885.00    0.94829   0.91548    0.159
 6886.00    0.92858   0.91697    0.159
 6887.00    0.89528   0.91978    0.157
 6888.00    0.89882   0.92340    0.158
 6889.00    0.91708   0.92728    0.160
 6890.00    0.93207   0.93085    0.163
 6891.00    0.94594   0.93368    0.166
 6892.00    0.94438   0.93549    0.167
 6893.00    0.93839   0.93618    0.168
 6894.00    0.93351   0.93590    0.168
 6895.00    0.92889   0.93497    0.169
 6896.00    0.94371   0.93379    0.171
 6897.00    0.96224   0.93271    0.172
 6898.00    0.94763   0.93197    0.170
 6899.00    0.92812   0.93165    0.167
 6900.00    0.95370   0.93174    0.168
 6901.00    0.98415   0.93224    0.169
 6902.00    0.97456   0.93312    0.168
 6903.00    0.96215   0.93430    0.167
 6904.00    0.96481   0.93568    0.165
 6905.00    0.96801   0.93717    0.162
 6906.00    0.97355   0.93864    0.160
 6907.00    0.97870   0.94001    0.158
 6908.00    0.97009   0.94107    0.158
 6909.00    0.96049   0.94152    0.159
 6910.00    0.93523   0.94100    0.157
 6911.00    0.91372   0.93924    0.156
 6912.00    0.92986   0.93624    0.164
 6913.00    0.87881   0.93233    0.156
 6914.00    0.34491   0.92813    0.092
 6915.00   -0.01516   0.92442    0.000
 6916.00    0.58332   0.92190    0.165
 6917.00    1.07229   0.92099   -1.000
 6918.00    1.07843   0.92172   -1.000
 6919.00    1.08241   0.92371   -1.000
 6920.00    1.07855   0.92627   -1.000
 6921.00    1.07543   0.92853   -1.000
 6922.00    1.07456   0.92967   -1.000
 6923.00    1.07343   0.92923   -1.000
 6924.00    1.07164   0.92732   -1.000
 6925.00    1.07063   0.92466   -1.000
 6926.00    1.07136   0.92233   -1.000
 6927.00    1.07093   0.92123   -1.000
 6928.00    1.06828   0.92172   -1.000
 6929.00    1.07006   0.92340   -1.000
 6930.00    1.07929   0.92543   -1.000
 6931.00    1.08255   0.92699   -1.000
 6932.00    1.07702   0.92764   -1.000
 6933.00    1.06941   0.92754   -1.000
 6934.00    1.05913   0.92720   -1.000
 6935.00    1.05704   0.92718   -1.000
 6936.00    1.06427   0.92782   -1.000
 6937.00    1.07104   0.92908   -1.000
 6938.00    1.07733   0.93070   -1.000
 6939.00    1.07475   0.93227   -1.000
 6940.00    1.06428   0.93334   -1.000
 6941.00    1.06310   0.93351   -1.000
 6942.00    1.06918   0.93245   -1.000
 6943.00    1.07638   0.93012   -1.000
 6944.00    1.08436   0.92692   -1.000
 6945.00    1.08147   0.92368   -1.000
 6946.00    1.07202   0.92135   -1.000
 6947.00    1.06725   0.92056   -1.000
 6948.00    1.06495   0.92126   -1.000
 6949.00    1.06900   0.92276   -1.000
 6950.00    1.07595   0.92407   -1.000
 6951.00    1.07695   0.92448   -1.000
 6952.00    1.07561   0.92387   -1.000
 6953.00    1.07202   0.92272   -1.000
 6954.00    1.06768   0.92180   -1.000
 6955.00    1.06813   0.92178   -1.000
 6956.00    1.06992   0.92294   -1.000
 6957.00    1.07154   0.92510   -1.000
 6958.00    1.07313   0.92780   -1.000
 6959.00    1.07760   0.93056   -1.000
 6960.00    1.08260   0.93301   -1.000
 6961.00    1.07585   0.93501   -1.000
 6962.00    1.06742   0.93654   -1.000
 6963.00    1.06964   0.93765   -1.000
 6964.00    1.07297   0.93837   -1.000
 6965.00    1.06854   0.93879   -1.000
 6966.00    1.06359   0.93907   -1.000
 6967.00    1.06713   0.93938   -1.000
 6968.00    1.07094   0.93978   -1.000
 6969.00    1.05373   0.94019   -1.000
 6970.00    1.03809   0.94037   -1.000
 6971.00    1.07063   0.94007   -1.000
 6972.00    1.10102   0.93903   -1.000
 6973.00    1.09941   0.93700   -1.000
 6974.00    1.09726   0.93363   -1.000
 6975.00    1.08993   0.92859   -1.000
 6976.00    1.08328   0.92184   -1.000
 6977.00    1.08135   0.91397   -1.000
 6978.00    1.07865   0.90631   -1.000
 6979.00    1.07178   0.90066   -1.000
 6980.00    1.06833   0.89866   -1.000
 6981.00    1.07956   0.90103   -1.000
 6982.00    1.08877   0.90724   -1.000
 6983.00    1.09080   0.91569   -1.000
 6984.00    1.09471   0.92436   -1.000
 6985.00    1.10423   0.93151   -1.000
 6986.00    1.11127   0.93617   -1.000
 6987.00    1.11203   0.93823   -1.000
 6988.00    1.11165   0.93827   -1.000
 6989.00    1.10880   0.93718   -1.000
 6990.00    1.10985   0.93592   -1.000
 6991.00    1.11829   0.93515   -1.000
 6992.00    1.11875   0.93516   -1.000
 6993.00    1.10599   0.93577   -1.000
 6994.00    1.10023   0.93654   -1.000
 6995.00    1.10462   0.93698   -1.000
 6996.00    1.10619   0.93669   -1.000
 6997.00    1.10418   0.93545   -1.000
 6998.00    1.10213   0.93330   -1.000
 6999.00    1.10006   0.93048   -1.000
 7000.00    1.09463   0.92746   -1.000
 7001.00    1.08588   0.92473   -1.000
 7002.00    1.08347   0.92260   -1.000
 7003.00    1.08660   0.92111   -1.000
 7004.00    1.08486   0.92008   -1.000
 7005.00    1.07935   0.91935   -1.000
 7006.00    1.08109   0.91898   -1.000
 7007.00    1.08772   0.91918   -1.000
 7008.00    1.08408   0.92010   -1.000
 7009.00    1.07433   0.92164   -1.000
 7010.00    1.06993   0.92337   -1.000
 7011.00    1.06830   0.92465   -1.000
 7012.00    1.06761   0.92484   -1.000
 7013.00    1.06734   0.92350   -1.000
 7014.00    1.06876   0.92057   -1.000
 7015.00    1.07084   0.91651   -1.000
 7016.00    1.07180   0.91238   -1.000
 7017.00    1.07239   0.90954   -1.000
 7018.00    1.07221   0.90909   -1.000
 7019.00    1.07182   0.91131   -1.000
 7020.00    1.07203   0.91532   -1.000
 7021.00    1.07237   0.91947   -1.000
 7022.00    1.08028   0.92218   -1.000
 7023.00    1.08956   0.92269   -1.000
 7024.00    1.09071   0.92139   -1.000
 7025.00    1.09074   0.91946   -1.000
 7026.00    1.08748   0.91822   -1.000
 7027.00    1.08389   0.91847   -1.000
 7028.00    1.08748   0.92025   -1.000
 7029.00    1.09151   0.92300   -1.000
 7030.00    1.08373   0.92593   -1.000
 7031.00    1.07567   0.92840   -1.000
 7032.00    1.07799   0.93004   -1.000
 7033.00    1.07999   0.93078   -1.000
 7034.00    1.07305   0.93069   -1.000
 7035.00    1.06693   0.92994   -1.000
 7036.00    1.07239   0.92873   -1.000
 7037.00    1.07805   0.92746   -1.000
 7038.00    1.08566   0.92677   -1.000
 7039.00    1.09237   0.92745   -1.000
 7040.00    1.09308   0.93013   -1.000
 7041.00    1.09422   0.93483   -1.000
 7042.00    1.09770   0.94083   -1.000
 7043.00    1.10237   0.94693   -1.000
 7044.00    1.11210   0.95199   -1.000
 7045.00    1.11988   0.95546   -1.000
 7046.00    1.12087   0.95751   -1.000
 7047.00    1.12067   0.95862   -1.000
 7048.00    1.11695   0.95909   -1.000
 7049.00    1.11602   0.95864   -1.000
 7050.00    1.12204   0.95654   -2.000
 7051.00    1.12417   0.95199   -2.000
 7052.00    1.11792   0.94477   -2.000
 7053.00    1.11364   0.93546   -2.000
 7054.00    1.11302   0.92538   -2.000
 7055.00    1.12200   0.91607   -2.000
 7056.00    1.14664   0.90866   -2.000
 7057.00    1.15606   0.90349   -2.000
 7058.00    1.14370   0.90011   -2.000
 7059.00    1.14080   0.89771   -2.000
 7060.00    1.14978   0.89566   -2.000
 7061.00    1.15826   0.89378   -2.000
 7062.00    1.16620   0.89228   -2.000
 7063.00    1.17876   0.89135   -2.000
 7064.00    1.19585   0.89088   -2.000
 7065.00    1.18496   0.89041   -2.000
 7066.00    1.14994   0.88946   -2.000
 7067.00    1.12453   0.88792   -2.000
 7068.00    1.10642   0.88626   -2.000
 7069.00    1.11650   0.88536   -2.000
 7070.00    1.14539   0.88606   -2.000
 7071.00    1.17323   0.88867   -2.000
 7072.00    1.20045   0.89279   -2.000
 7073.00    1.21416   0.89758   -2.000
 7074.00    1.22098   0.90207   -2.000
 7075.00    1.20643   0.90563   -2.000
 7076.00    1.18244   0.90809   -2.000
 7077.00    1.17935   0.90963   -2.000
 7078.00    1.18419   0.91051   -2.000
 7079.00    1.18506   0.91076   -2.000
 7080.00    1.18467   0.91011   -2.000
 7081.00    1.18333   0.90802   -2.000
 7082.00    1.18175   0.90398   -2.000
 7083.00    1.17035   0.89778   -2.000
 7084.00    1.15679   0.88978   -2.000
 7085.00    1.13969   0.88087   -2.000
 7086.00    1.12198   0.87210   -2.000
 7087.00    1.11201   0.86436   -2.000
 7088.00    1.10308   0.85810   -2.000
 7089.00    1.08695   0.85334   -2.000
 7090.00    1.07013   0.84988   -2.000
 7091.00    1.06481   0.84749   -2.000
 7092.00    1.06016   0.84601   -2.000
 7093.00    1.07138   0.84535   -2.000
 7094.00    1.08282   0.84545   -2.000
 7095.00    1.07103   0.84623   -2.000
 7096.00    1.05971   0.84768   -2.000
 7097.00    1.05992   0.84984   -2.000
 7098.00    1.05831   0.85266   -2.000
 7099.00    1.03271   0.85595   -2.000
 7100.00    1.00834   0.85933   -2.000
 7101.00    0.99487   0.86239   -2.000
 7102.00    0.98496   0.86482   -2.000
 7103.00    0.99821   0.86657   -2.000
 7104.00    1.00915   0.86776   -2.000
 7105.00    1.00828   0.86856   -2.000
 7106.00    1.00571   0.86902   -2.000
 7107.00    0.99610   0.86905   -2.000
 7108.00    0.98481   0.86849   -2.000
 7109.00    0.96779   0.86729   -2.000
 7110.00    0.95762   0.86561   -2.000
 7111.00    0.96714   0.86389   -2.000
 7112.00    0.97405   0.86268   -2.000
 7113.00    0.97452   0.86243   -2.000
 7114.00    0.97775   0.86336   -2.000
 7115.00    0.98682   0.86531   -2.000
 7116.00    1.00043   0.86781   -2.000
 7117.00    1.02236   0.87024   -2.000
 7118.00    1.04273   0.87204   -2.000
 7119.00    1.06057   0.87288   -2.000
 7120.00    1.07711   0.87269   -2.000
 7121.00    1.09182   0.87164   -2.000
 7122.00    1.09528   0.86995   -2.000
 7123.00    1.08477   0.86785   -2.000
 7124.00    1.07398   0.86539   -2.000
 7125.00    1.06287   0.86253   -2.000
 7126.00    1.05014   0.85920   -2.000
 7127.00    1.03583   0.85540   -2.000
 7128.00    1.03704   0.85124   -2.000
 7129.00    1.05143   0.84703   -2.000
 7130.00    1.03911   0.84328   -2.000
 7131.00    1.00677   0.84057   -2.000
 7132.00    0.99517   0.83945   -2.000
 7133.00    0.99720   0.84023   -2.000
 7134.00    0.99267   0.84280   -2.000
 7135.00    0.98436   0.84664   -2.000
 7136.00    0.99670   0.85089   -2.000
 7137.00    1.01939   0.85470   -2.000
 7138.00    1.02929   0.85752   -2.000
 7139.00    1.03362   0.85927   -2.000
 7140.00    1.03732   0.86020   -2.000
 7141.00    1.04080   0.86068   -2.000
 7142.00    1.02772   0.86096   -2.000
 7143.00    1.00942   0.86103   -2.000
 7144.00    0.99664   0.86063   -2.000
 7145.00    0.98531   0.85944   -2.000
 7146.00    0.98098   0.85729   -2.000
 7147.00    0.97816   0.85441   -2.000
 7148.00    0.98424   0.85143   -2.000
 7149.00    0.99183   0.84927   -2.000
 7150.00    0.99207   0.84874   -2.000
 7151.00    0.99135   0.85027   -2.000
 7152.00    0.98788   0.85370   -2.000
 7153.00    0.98415   0.85831   -2.000
 7154.00    0.98744   0.86319   -2.000
 7155.00    0.99111   0.86753   -2.000
 7156.00    1.00116   0.87085   -2.000
 7157.00    1.01136   0.87299   -2.000
 7158.00    1.02395   0.87393   -2.000
 7159.00    1.03709   0.87372   -2.000
 7160.00    1.06304   0.87241   -2.000
 7161.00    1.08648   0.87000   -2.000
 7162.00    1.07833   0.86656   -2.000
 7163.00    1.07114   0.86238   -2.000
 7164.00    1.07213   0.85804   -2.000
 7165.00    1.07148   0.85440   -2.000
 7166.00    1.06048   0.85236   -2.000
 7167.00    1.05318   0.85257   -2.000
 7168.00    1.06428   0.85510   -2.000
 7169.00    1.07058   0.85941   -2.000
 7170.00    1.05763   0.86455   -2.000
 7171.00    1.04165   0.86949   -2.000
 7172.00    1.01557   0.87346   -2.000
 7173.00    0.99414   0.87604   -2.000
 7174.00    0.98586   0.87712   -2.000
 7175.00    0.98987   0.87678   -2.000
 7176.00    1.02356   0.87527   -2.000
 7177.00    1.04375   0.87289   -2.000
 7178.00    1.03582   0.86992   -2.000
 7179.00    1.02491   0.86667   -2.000
 7180.00    1.00861   0.86349   -2.000
 7181.00    0.99483   0.86084   -2.000
 7182.00    0.98502   0.85913   -2.000
 7183.00    0.97008   0.85849   -2.000
 7184.00    0.94800   0.85861   -2.000
 7185.00    0.93734   0.85872   -2.000
 7186.00    0.94061   0.85799   -2.000
 7187.00    0.94383   0.85600   -2.000
 7188.00    0.94699   0.85305   -2.000
 7189.00    0.95502   0.85005   -2.000
 7190.00    0.96767   0.84802   -2.000
 7191.00    0.96365   0.84757   -2.000
 7192.00    0.94564   0.84872   -2.000
 7193.00    0.93294   0.85097   -2.000
 7194.00    0.92416   0.85360   -2.000
 7195.00    0.92597   0.85603   -2.000
 7196.00    0.93466   0.85797   -2.000
 7197.00    0.93944   0.85939   -2.000
 7198.00    0.94200   0.86041   -2.000
 7199.00    0.95453   0.86120   -2.000
 7200.00    0.97200   0.86186   -2.000
 7201.00    0.97745   0.86245   -2.000
 7202.00    0.97777   0.86292   -2.000
 7203.00    0.96470   0.86308   -2.000
 7204.00    0.94673   0.86261   -2.000
 7205.00    0.93187   0.86118   -2.000
 7206.00    0.91797   0.85869   -2.000
 7207.00    0.90659   0.85548   -2.000
 7208.00    0.89586   0.85239   -2.000
 7209.00    0.89785   0.85048   -2.000
 7210.00    0.90253   0.85050   -2.000
 7211.00    0.90737   0.85254   -2.000
 7212.00    0.91224   0.85592   -2.000
 7213.00    0.91188   0.85965   -2.000
 7214.00    0.91085   0.86284   -2.000
 7215.00    0.90378   0.86520   -2.000
 7216.00    0.89619   0.86690   -2.000
 7217.00    0.91268   0.86837   -2.000
 7218.00    0.93040   0.86987   -2.000
