###################################################################
## OUTPUT of StarlightChains_v04.for    [Cid@UFSC - 01/Apr/2007] ##
###################################################################

## Some input info
KUG0210-078._28_35.txt                   [arq_obs]
Base.CB07.vall.4m                        [arq_base]
Masks.EmLines.NEW.gm                     [arq_masks]
StCv04.C11.config                        [arq_config]
   66                                    [N_base]
    0                                    [N_YAV_components = # of components with extra extinction!]
    0                                    [i_FitPowerLaw (1/0 = Yes/No)]
-9.99                                    [alpha_PowerLaw]
CCM                                      [red_law_option]
 1.458241                                [q_norm = A(l_norm)/A(V)]

## (Re)Sampling Parameters
 3741.00                                 [l_ini (A)]
 7218.00                                 [l_fin (A)]
    1.00                                 [dl    (A)]     (OBS: dl_cushion =    50.00 A)

## Normalization info
 4020.00                                 [l_norm (A) - for base]
 4010.00                                 [llow_norm (A) - window for f_obs]
 4060.00                                 [lupp_norm (A) - window for f_obs]
1.302337E-16                             [fobs_norm (in input units)]

## S/N
 3691.00                                 [llow_SN (A) - window for S/N]
 7268.00                                 [lupp_SN (A) - window for S/N]
   7.905                                 [S/N in S/N window]
   6.420                                 [S/N in norm. window]
   0.352                                 [S/N_err in S/N window]
   0.286                                 [S/N_err in norm. window]
  1.0000                                 [fscale_chi2]

## etc...
    -2007383                             [idum_orig]
  2432                                   [NOl_eff]
  2048                                   [Nl_eff]
   384    NSIGMA                         [Ntot_cliped & clip_method]
 15846180                                [Nglobal_steps]
   7                                     [N_chains]
  42                                     [NEX0s_base = N_base in EX0s-fits]
 0   0   1      384   2.0   1.137E+05    [Clip-Bug, RC-Crash & Burn-In warning-flags, n_censored_weights, wei_nsig_threshold & wei_limit]
   101    100.262     99.304      0.959  [idt_all, wdt_TotTime, wdt_UsrTime & wdt_SysTime (sec)]

## Synthesis Results - Best model ##

 8.93536E-04                             [chi2/Nl_eff]
     4.25271                             [adev (%)]

   118.03724                             [sum-of-x (%)]
 2.76970E-16                             [Flux_tot (units of input spectrum!)]
 1.73459E-12                             [Mini_tot (???)]
 1.05323E-12                             [Mcor_tot (???)]

 212.40                                  [v0_min  (km/s)]
 167.32                                  [vd_min  (km/s)]
 0.4384                                  [AV_min  (mag)]
 0.0000                                  [YAV_min (mag)]

# j     x_j(%)      Mini_j(%)     Mcor_j(%)     age_j(yr)     Z_j      (L/M)_j    YAV?  Mstars   component_j        a/Fe...       SSP_chi2r SSP_adev(%)   SSP_AV   SSP_x(%)
  1      0.0000     0.0000E+00    0.0000E+00    1.000000E+06  0.00400  1.094E-02    0   1.0000   age020_m42            0.0000     1.0266E-03     3.6284   3.2705   106.1775
  2      0.0000     0.0000E+00    0.0000E+00    3.160000E+06  0.00400  4.007E-02    0   0.9999   age045_m42            0.0000     1.1484E-03     3.6976   2.6201   109.6143
  3      0.0000     0.0000E+00    0.0000E+00    5.010000E+06  0.00400  2.539E-02    0   0.9488   age055_m42            0.0000     1.0694E-03     3.5495   2.9032   108.7589
  4      0.0000     0.0000E+00    0.0000E+00    6.610000E+06  0.00400  2.620E-02    0   0.9220   age061_m42            0.0000     1.1491E-03     3.7015   2.5433   109.9912
  5      0.0000     0.0000E+00    0.0000E+00    1.000000E+07  0.00400  1.322E-02    0   0.8862   age070_m42            0.0000     1.2968E-03     4.5409   2.2336   113.7162
  6      0.0734     1.2595E-03    1.7779E-03    1.445000E+07  0.00400  7.883E-03    0   0.8571   age078_m42            0.0000     1.2215E-03     4.1620   2.5456   111.5804
  7      0.0000     0.0000E+00    0.0000E+00    2.512000E+07  0.00400  5.251E-03    0   0.8174   age090_m42            0.0000     1.3570E-03     4.8852   2.1071   114.1885
  8      0.0000     0.0000E+00    0.0000E+00    4.000000E+07  0.00400  3.649E-03    0   0.7851   age104_m42            0.0000     1.3722E-03     4.9449   1.8942   114.3925
  9      0.0000     0.0000E+00    0.0000E+00    5.500000E+07  0.00400  3.098E-03    0   0.7629   age110_m42            0.0000     1.3366E-03     4.5897   2.0724   113.0727
 10      0.0000     0.0000E+00    0.0000E+00    1.015200E+08  0.00400  2.228E-03    0   0.7207   age116_m42            0.0000     1.3038E-03     4.3812   2.1071   112.5502
 11      0.0000     0.0000E+00    0.0000E+00    2.861200E+08  0.00400  1.093E-03    0   0.6648   age125_m42            0.0000     1.4729E-03     5.2380   1.5380   115.6575
 12      0.0837     1.7163E-02    1.7992E-02    5.088000E+08  0.00400  6.597E-04    0   0.6365   age130_m42            0.0000     1.4156E-03     4.8202   1.5566   115.2160
 13      0.0000     0.0000E+00    0.0000E+00    1.434000E+09  0.00400  2.132E-04    0   0.5798   age139_m42            0.0000     1.3615E-03     4.8898   0.6167   116.1623
 14      0.0000     0.0000E+00    0.0000E+00    4.250000E+09  0.00400  5.895E-05    0   0.5377   age158_m42            0.0000     1.0801E-03     4.0123   0.1568   112.9122
 15      0.0000     0.0000E+00    0.0000E+00    7.500000E+09  0.00400  3.510E-05    0   0.5212   age171_m42            0.0000     1.0816E-03     3.9692  -0.0279   111.9641
 16      0.0000     0.0000E+00    0.0000E+00    1.300000E+10  0.00400  2.005E-05    0   0.5034   age193_m42            0.0000     1.1388E-03     4.0400  -0.1882   111.0587
 17      0.0000     0.0000E+00    0.0000E+00    1.800000E+10  0.00400  1.525E-05    0   0.4967   age213_m42            0.0000     1.1088E-03     4.0362  -0.2164   110.8755
 18      0.0000     0.0000E+00    0.0000E+00    1.000000E+06  0.00800  1.238E-02    0   1.0000   age020_m52            0.0000     1.0222E-03     3.6254   3.2668   106.3934
 19      0.1003     4.4130E-04    7.2431E-04    3.160000E+06  0.00800  3.074E-02    0   0.9966   age045_m52            0.0000     1.0096E-03     3.6040   3.1964   107.0757
 20      0.0000     0.0000E+00    0.0000E+00    5.010000E+06  0.00800  2.668E-02    0   0.9443   age055_m52            0.0000     1.0450E-03     3.5197   2.9749   108.3383
 21      0.0000     0.0000E+00    0.0000E+00    6.610000E+06  0.00800  2.136E-02    0   0.9177   age061_m52            0.0000     1.1846E-03     4.3358   1.7243   115.7174
 22      0.0000     0.0000E+00    0.0000E+00    1.000000E+07  0.00800  1.215E-02    0   0.8827   age070_m52            0.0000     1.3317E-03     4.7941   2.3953   114.2844
 23      0.0694     1.0774E-03    1.5174E-03    1.445000E+07  0.00800  8.717E-03    0   0.8552   age078_m52            0.0000     1.2426E-03     4.3313   2.5182   112.7890
 24      0.0000     0.0000E+00    0.0000E+00    2.512000E+07  0.00800  5.592E-03    0   0.8162   age090_m52            0.0000     1.3992E-03     5.1061   2.1751   115.2469
 25      0.0000     0.0000E+00    0.0000E+00    4.000000E+07  0.00800  3.896E-03    0   0.7841   age104_m52            0.0000     1.3949E-03     5.0576   2.1057   115.1075
 26      0.0000     0.0000E+00    0.0000E+00    1.015200E+08  0.00800  2.148E-03    0   0.7226   age116_m52            0.0000     1.3133E-03     4.6293   2.0642   113.9308
 27      0.0000     0.0000E+00    0.0000E+00    2.861200E+08  0.00800  9.925E-04    0   0.6683   age125_m52            0.0000     1.4227E-03     4.8463   1.6187   116.3927
 28      0.0000     0.0000E+00    0.0000E+00    9.047900E+08  0.00800  3.141E-04    0   0.6138   age135_m52            0.0000     1.3072E-03     4.7610   0.8674   118.7762
 29      0.0000     0.0000E+00    0.0000E+00    1.434000E+09  0.00800  1.719E-04    0   0.5853   age139_m52            0.0000     1.1431E-03     4.6553   0.2568   118.1443
 30      0.0000     0.0000E+00    0.0000E+00    2.500000E+09  0.00800  7.872E-05    0   0.5600   age150_m52            0.0000     1.0131E-03     4.1863  -0.0076   115.0080
 31      0.0000     0.0000E+00    0.0000E+00    4.250000E+09  0.00800  4.336E-05    0   0.5426   age158_m52            0.0000     9.9976E-04     4.0593  -0.0238   114.0035
 32      0.0792     3.3900E-01    2.9696E-01    6.250000E+09  0.00800  3.159E-05    0   0.5319   age166_m52            0.0000     1.0392E-03     4.2302  -0.2156   113.4991
 33      0.0000     0.0000E+00    0.0000E+00    1.300000E+10  0.00800  1.361E-05    0   0.5073   age193_m52            0.0000     1.1181E-03     4.6949  -0.6730   112.3127
 34      0.0000     0.0000E+00    0.0000E+00    1.800000E+10  0.00800  9.886E-06    0   0.4990   age213_m52            0.0000     1.1663E-03     4.9740  -0.7725   111.3529
 35      0.2825     2.4749E-03    4.0759E-03    1.000000E+06  0.02000  1.544E-02    0   1.0000   age020_m62            0.0000     1.0157E-03     3.6283   3.2609   106.7566
 36      0.0000     0.0000E+00    0.0000E+00    3.160000E+06  0.02000  3.762E-02    0   0.9858   age045_m62            0.0000     1.0020E-03     3.6131   3.1994   107.7173
 37      0.0000     0.0000E+00    0.0000E+00    5.010000E+06  0.02000  3.296E-02    0   0.9342   age055_m62            0.0000     1.0820E-03     3.5689   2.8758   109.4621
 38      0.0000     0.0000E+00    0.0000E+00    8.710000E+06  0.02000  1.154E-02    0   0.8861   age067_m62            0.0000     1.8820E-03     7.4915   1.7723   121.5250
 39      0.3075     5.4285E-03    7.5742E-03    1.445000E+07  0.02000  7.663E-03    0   0.8472   age078_m62            0.0000     1.5077E-03     5.8300   2.0258   117.6557
 40      0.0000     0.0000E+00    0.0000E+00    2.512000E+07  0.02000  4.532E-03    0   0.8099   age090_m62            0.0000     1.5807E-03     6.1635   2.0193   117.1831
 41      0.1301     6.4401E-03    8.0555E-03    5.500000E+07  0.02000  2.733E-03    0   0.7595   age110_m62            0.0000     1.3375E-03     4.9046   2.0769   114.9524
 42      0.0000     0.0000E+00    0.0000E+00    1.609000E+08  0.02000  1.369E-03    0   0.6985   age120_m62            0.0000     1.3455E-03     4.7194   1.9572   115.8598
 43      0.0000     0.0000E+00    0.0000E+00    2.861200E+08  0.02000  9.013E-04    0   0.6714   age125_m62            0.0000     1.3875E-03     4.8316   1.7367   117.6077
 44      0.0000     0.0000E+00    0.0000E+00    5.088000E+08  0.02000  5.028E-04    0   0.6449   age130_m62            0.0000     1.2988E-03     4.5490   1.3999   118.5744
 45      0.0000     0.0000E+00    0.0000E+00    9.047900E+08  0.02000  2.428E-04    0   0.6179   age135_m62            0.0000     1.0741E-03     4.2348   0.8088   118.2755
 46      0.1043     1.1167E-01    1.0865E-01    1.434000E+09  0.02000  1.263E-04    0   0.5908   age139_m62            0.0000     9.6318E-04     4.1990   0.3475   117.5982
 47      3.6038     8.1453E+00    7.6102E+00    2.500000E+09  0.02000  5.985E-05    0   0.5673   age150_m62            0.0000     9.3496E-04     4.2705  -0.0221   116.2983
 48      0.0000     0.0000E+00    0.0000E+00    4.250000E+09  0.02000  3.271E-05    0   0.5468   age158_m62            0.0000     1.0356E-03     4.7269  -0.3136   114.6933
 49      0.0000     0.0000E+00    0.0000E+00    1.000000E+10  0.02000  1.360E-05    0   0.5167   age181_m62            0.0000     1.1521E-03     5.3871  -0.6520   113.7444
 50      0.0000     0.0000E+00    0.0000E+00    1.800000E+10  0.02000  7.124E-06    0   0.5013   age213_m62            0.0000     1.2609E-03     5.9473  -0.8603   112.7600
 51      0.0000     0.0000E+00    0.0000E+00    1.000000E+06  0.05000  2.592E-02    0   0.9998   age020_m72            0.0000     9.9775E-04     3.6098   3.2431   107.2451
 52      0.0000     0.0000E+00    0.0000E+00    3.160000E+06  0.05000  4.845E-02    0   0.9577   age045_m72            0.0000     1.0165E-03     3.6017   3.1054   108.0131
 53      0.0000     0.0000E+00    0.0000E+00    5.010000E+06  0.05000  3.072E-02    0   0.9147   age055_m72            0.0000     1.2962E-03     4.7507   2.6017   113.5304
 54      0.0000     0.0000E+00    0.0000E+00    6.610000E+06  0.05000  1.455E-02    0   0.8877   age061_m72            0.0000     2.6365E-03     9.9826   1.7737   124.1889
 55      0.0000     0.0000E+00    0.0000E+00    1.000000E+07  0.05000  9.074E-03    0   0.8524   age070_m72            0.0000     1.5159E-03     5.5888   2.7739   113.2359
 56      0.0000     0.0000E+00    0.0000E+00    2.512000E+07  0.05000  4.250E-03    0   0.7902   age090_m72            0.0000     1.4999E-03     5.5409   2.5114   113.6674
 57      0.0000     0.0000E+00    0.0000E+00    4.000000E+07  0.05000  3.087E-03    0   0.7618   age104_m72            0.0000     1.6071E-03     6.0610   2.2934   115.0360
 58      0.0000     0.0000E+00    0.0000E+00    1.015200E+08  0.05000  1.700E-03    0   0.7096   age116_m72            0.0000     1.4418E-03     5.1499   2.0879   115.8592
 59      0.0000     0.0000E+00    0.0000E+00    2.861200E+08  0.05000  7.384E-04    0   0.6633   age125_m72            0.0000     1.3022E-03     4.7087   1.6261   118.0844
 60      0.0000     0.0000E+00    0.0000E+00    5.088000E+08  0.05000  3.819E-04    0   0.6372   age130_m72            0.0000     1.0756E-03     4.3462   1.1509   119.3100
 61    113.2032     9.1370E+01    9.1943E+01    9.047900E+08  0.05000  1.676E-04    0   0.6110   age135_m72            0.0000     8.9078E-04     4.2709   0.4485   117.8562
 62      0.0000     0.0000E+00    0.0000E+00    1.434000E+09  0.05000  8.837E-05    0   0.5874   age139_m72            0.0000     9.6429E-04     4.5647  -0.0120   117.4199
 63      0.0000     0.0000E+00    0.0000E+00    2.500000E+09  0.05000  4.233E-05    0   0.5598   age150_m72            0.0000     1.0103E-03     5.0076  -0.3200   115.9933
 64      0.0000     0.0000E+00    0.0000E+00    6.250000E+09  0.05000  1.435E-05    0   0.5249   age166_m72            0.0000     1.1878E-03     5.8118  -0.7527   113.5074
 65      0.0000     0.0000E+00    0.0000E+00    1.300000E+10  0.05000  6.513E-06    0   0.5036   age193_m72            0.0000     1.4001E-03     6.5180  -1.0000   113.3974
 66      0.0000     0.0000E+00    0.0000E+00    1.800000E+10  0.05000  4.527E-06    0   0.4945   age213_m72            0.0000     1.7260E-03     7.2211  -1.0000   107.1486


## Synthesis Results - Average & Chains ##

# j      x_j: min, <> & last-chain-values for 1 ...  7 chains
  1      0.0000     18.3729     15.9902     18.6587     20.3262     18.2225     18.6475     19.5176     18.4993
  2      0.0000      0.3498      0.0000      0.7556      0.9827      1.6722      0.4158      0.0000      0.5284
  3      0.0000      0.3781      0.1425      0.5656      0.4783      0.8710      0.8676      2.2362      3.7668
  4      0.0000      0.4054      0.0000      0.3474      0.0000      0.2914      3.5581      0.4414      1.4379
  5      0.0000      0.3845      0.0000      0.0000      1.4504      0.0000      0.0000      0.0000      4.2301
  6      0.0734      0.3132      0.7067      0.0000      0.7097      0.1772      0.0000      0.6196      0.7854
  7      0.0000      0.4646      0.8042      0.2148      0.2197      0.0000      3.0802      1.7172      0.6665
  8      0.0000      0.2942      0.0000      0.3089      0.0000      0.0000      0.7025      0.0000      0.0000
  9      0.0000      0.2988      0.0000      0.2010      0.0000      0.4135      0.0000      0.3202      0.9555
 10      0.0000      0.3511      0.5241      0.6762      0.2699      0.9658      0.9724      0.8230      0.0000
 11      0.0000      0.4735      1.9429      0.5038      1.1296      0.0000      3.5484      0.0000      0.0000
 12      0.0837      0.3929      1.5165      0.0000      2.8560      0.5973      1.0398      1.4609      0.0000
 13      0.0000      0.5629      1.7184      0.8749      0.3004      1.0597      0.7988      0.0279      0.0000
 14      0.0000      0.4983      2.1964      0.5575      1.2203      0.0000      4.2544      0.3941      0.7400
 15      0.0000      0.3100      0.9188      1.6852      0.0770      0.2775      0.0000      1.0785      0.9846
 16      0.0000      0.4019      3.9707      0.2907      0.2312      0.2983      0.0982      0.3740      0.4176
 17      0.0000      1.5601      0.9484      1.2342      0.6732      1.6136      0.5221      1.5447      1.3713
 18      0.0000     14.4468     10.1143     10.7504      9.4853     12.5411      8.1983     12.6727      7.0469
 19      0.1003      0.7486      2.8995      1.8037      0.8680      0.4316      0.0000      0.3204      1.4774
 20      0.0000      0.3299      3.7633      0.4466      0.8736      0.9713      0.0000      0.5758      0.0000
 21      0.0000      0.4232      0.3603      1.2914      2.1704      0.5928      0.0000      0.4667      1.4809
 22      0.0000      0.3692      0.1816      1.0470      0.0356      1.4421      1.6369      0.5428      0.0000
 23      0.0694      0.4730      0.3704      0.3851      1.9802      0.2328      0.9409      0.0000      0.7846
 24      0.0000      0.3492      1.0781      0.7496      0.0000      0.0666      0.0000      0.4310      0.3102
 25      0.0000      0.4103      2.1160      0.4693      1.1177      0.0000      0.7031      0.0000      0.2577
 26      0.0000      0.4242      0.0000      0.0000      1.1072      1.8441      3.5511      0.2505      0.0000
 27      0.0000      0.4017      0.0351      0.0000      1.0158      0.2214      0.3071      0.3034      0.7309
 28      0.0000      0.3094      0.0000      0.6098      2.1164      0.1828      0.0000      0.0000      0.0000
 29      0.0000      0.2776      0.1387      0.6221      0.2766      0.2016      0.0000      0.8296      0.3957
 30      0.0000      0.4429      0.5314      0.0000      1.0086      1.3217      1.6005      0.2040      1.7092
 31      0.0000      0.2778      1.0259      1.8400      0.0000      0.8033      1.1472      0.6129      0.3810
 32      0.0792      0.4499      1.2535      0.7657      0.6269      0.1651      1.5547      0.0000      0.0000
 33      0.0000      0.2453      0.0000      0.2730      0.0591      0.5204      0.8116      0.0000      0.0000
 34      0.0000      0.5184      0.8442      1.2935      0.8335      1.1298      0.1234      0.6372      0.0000
 35      0.2825     13.1882      8.3918     11.7582      6.9751     13.9879      7.7728     10.2964      8.2626
 36      0.0000      0.4909      3.1533      0.5938      1.0478      0.4889      0.9506      0.8945      1.7443
 37      0.0000      0.3372      0.5049      0.4873      0.0000      0.0000      0.0226      0.1643      0.0000
 38      0.0000      0.3110      0.2036      0.4378      0.4467      0.1529      0.0000      0.0000      1.7022
 39      0.3075      0.4190      0.3889      1.0773      2.4072      0.2752      0.5292      1.1939      0.8562
 40      0.0000      0.4619      0.1971      0.2952      1.4820      1.1832      2.0896      0.8517      0.1712
 41      0.1301      0.3560      1.1535      0.1278      1.0738      0.8831      0.6497      0.0000      0.7042
 42      0.0000      0.3543      0.1918      0.6801      0.3182      0.0000      0.6195      0.6266      3.5347
 43      0.0000      0.3269      3.0889      0.2294      0.0000      0.0000      1.2230      0.0000      1.2964
 44      0.0000      0.4790      0.1070      0.2186      3.2606      0.7644      0.0000      2.4730      0.0000
 45      0.0000      0.3800      0.7831      0.9898      0.0000      0.6027      0.8789      1.8229      1.2988
 46      0.1043      0.3747      0.6828      0.0000      0.3196      0.2507      0.8966      0.1121      1.1232
 47      3.6038      0.3568      1.6012      0.4244      0.4416      0.1636      0.0000      0.1468      0.5571
 48      0.0000      0.3653      0.0000      1.0002      0.0000      0.3648      0.0000      0.3317      0.0862
 49      0.0000      1.7772      0.7167      2.0107      1.2738      0.3618      0.8847      1.5240      1.6409
 50      0.0000      2.7651      1.7848      1.5682      2.9884      3.7467      1.1960      2.1683      2.1028
 51      0.0000     18.1313     10.4199     15.2195     10.3607     15.9503     10.5471     16.2387     11.5924
 52      0.0000      0.4752      0.0000      1.0059      1.4066      0.4522      1.7789      0.0000      0.9065
 53      0.0000      0.5745      2.0799      0.0000      0.0000      0.7443      1.0472      2.7454      2.5296
 54      0.0000      0.3646      0.0000      0.7606      1.0552      0.1437      0.0000      0.1027      0.0793
 55      0.0000      0.4477      2.2096      2.0077      0.4297      0.0000      1.0218      0.0104      1.7642
 56      0.0000      0.2962      1.4244      0.1615      0.0555      0.5164      0.2056      0.0519      0.0825
 57      0.0000      0.3758      0.0000      0.0000      1.0179      1.6169      0.9329      0.5145      0.4487
 58      0.0000      0.3581      0.0000      0.9166      1.3625      0.2881      0.8118      1.1039      0.7987
 59      0.0000      0.3106      0.2506      1.8553      0.9565      0.3478      1.4744      0.0000      0.0000
 60      0.0000      0.3691      1.5698      0.0000      0.0000      0.5396      0.0000      0.2444      0.0000
 61    113.2032      0.4084      1.1063      1.4274      0.0000      0.9862      0.0476      0.8198      1.3112
 62      0.0000      0.3114      0.7174      0.3610      0.2152      0.0000      0.0000      0.5568      0.0000
 63      0.0000      0.5140      0.0000      1.2919      0.3994      0.5694      1.1540      0.0507      1.0905
 64      0.0000      6.9555      2.2995      4.2310      5.2190      6.7694      4.0607      7.2992      4.3207
 65      0.0000      2.3831      0.5299      2.3297      3.2386      1.7659      1.5924      1.3682      4.2865
 66      0.0000      0.9917      1.4638      0.0000      0.5646      0.0000      1.1726      0.7917      0.0000

# j      m_j: min, <> & last-chain-values for 1 ...  7 chains
  1  0.0000E+00  1.7438E-01  2.0015E-01  2.2071E-01  2.0692E-01  1.9382E-01  2.4298E-01  2.1643E-01  2.0179E-01
  2  0.0000E+00  9.0642E-04  0.0000E+00  2.4400E-03  2.7311E-03  4.8554E-03  1.4790E-03  0.0000E+00  1.5735E-03
  3  0.0000E+00  1.4672E-03  7.2922E-04  2.7350E-03  1.9907E-03  3.7873E-03  4.6220E-03  1.0137E-02  1.6798E-02
  4  0.0000E+00  1.4811E-03  0.0000E+00  1.5821E-03  0.0000E+00  1.1932E-03  1.7849E-02  1.8846E-03  6.0383E-03
  5  0.0000E+00  2.6763E-03  0.0000E+00  0.0000E+00  1.0828E-02  0.0000E+00  0.0000E+00  0.0000E+00  3.3838E-02
  6  1.7779E-03  3.5361E-03  1.0522E-02  0.0000E+00  8.5934E-03  2.2421E-03  0.0000E+00  8.1721E-03  1.0191E-02
  7  0.0000E+00  7.5089E-03  1.7142E-02  4.3272E-03  3.8095E-03  0.0000E+00  6.8352E-02  3.2428E-02  1.2381E-02
  8  0.0000E+00  6.5727E-03  0.0000E+00  8.6002E-03  0.0000E+00  0.0000E+00  2.1547E-02  0.0000E+00  0.0000E+00
  9  0.0000E+00  7.6413E-03  0.0000E+00  6.4053E-03  0.0000E+00  1.1849E-02  0.0000E+00  9.5661E-03  2.8078E-02
 10  0.0000E+00  1.1793E-02  2.3215E-02  2.8306E-02  9.7228E-03  3.6352E-02  4.4837E-02  3.2296E-02  0.0000E+00
 11  0.0000E+00  2.9902E-02  1.6182E-01  3.9654E-02  7.6514E-02  0.0000E+00  3.0766E-01  0.0000E+00  0.0000E+00
 12  1.7992E-02  3.9360E-02  2.0036E-01  0.0000E+00  3.0689E-01  6.7054E-02  1.4301E-01  1.7099E-01  0.0000E+00
 13  0.0000E+00  1.5895E-01  6.3991E-01  3.0789E-01  9.0976E-02  3.3533E-01  3.0966E-01  9.2153E-03  0.0000E+00
 14  0.0000E+00  4.7197E-01  2.7434E+00  6.5810E-01  1.2397E+00  0.0000E+00  5.5318E+00  4.3612E-01  8.0551E-01
 15  0.0000E+00  4.7802E-01  1.8683E+00  3.2381E+00  1.2737E-01  4.7947E-01  0.0000E+00  1.9428E+00  1.7448E+00
 16  0.0000E+00  1.0479E+00  1.3651E+01  9.4458E-01  6.4640E-01  8.7135E-01  3.5132E-01  1.1391E+00  1.2512E+00
 17  0.0000E+00  5.2762E+00  4.2298E+00  5.2019E+00  2.4421E+00  6.1152E+00  2.4241E+00  6.1033E+00  5.3299E+00
 18  0.0000E+00  1.2117E-01  1.1187E-01  1.1237E-01  8.5329E-02  1.1787E-01  9.4401E-02  1.2418E-01  6.7926E-02
 19  7.2431E-04  2.5199E-03  1.2872E-02  7.5671E-03  3.1342E-03  1.6280E-03  0.0000E+00  1.2602E-03  5.7158E-03
 20  0.0000E+00  1.2124E-03  1.8239E-02  2.0454E-03  3.4434E-03  4.0000E-03  0.0000E+00  2.4724E-03  0.0000E+00
 21  0.0000E+00  1.8879E-03  2.1197E-03  7.1796E-03  1.0385E-02  2.9636E-03  0.0000E+00  2.4326E-03  7.5927E-03
 22  0.0000E+00  2.7850E-03  1.8061E-03  9.8430E-03  2.8772E-04  1.2191E-02  1.6953E-02  4.7842E-03  0.0000E+00
 23  1.5174E-03  4.8180E-03  4.9757E-03  4.8885E-03  2.1636E-02  2.6572E-03  1.3158E-02  0.0000E+00  9.1862E-03
 24  0.0000E+00  5.2921E-03  2.1548E-02  1.4158E-02  0.0000E+00  1.1306E-03  0.0000E+00  7.6320E-03  5.4032E-03
 25  0.0000E+00  8.5734E-03  5.8314E-02  1.2222E-02  2.5051E-02  0.0000E+00  2.0173E-02  0.0000E+00  6.1886E-03
 26  0.0000E+00  1.4819E-02  0.0000E+00  0.0000E+00  4.1480E-02  7.2183E-02  1.7029E-01  1.0223E-02  0.0000E+00
 27  0.0000E+00  2.8087E-02  3.2321E-03  0.0000E+00  7.6173E-02  1.7349E-02  2.9477E-02  2.4786E-02  5.8732E-02
 28  0.0000E+00  6.2771E-02  0.0000E+00  1.5422E-01  4.6060E-01  4.1563E-02  0.0000E+00  0.0000E+00  0.0000E+00
 29  0.0000E+00  9.8161E-02  6.4652E-02  2.7411E-01  1.0490E-01  7.9890E-02  0.0000E+00  3.4268E-01  1.6079E-01
 30  0.0000E+00  3.2712E-01  5.1765E-01  0.0000E+00  7.9910E-01  1.0941E+00  1.6230E+00  1.7606E-01  1.4510E+00
 31  0.0000E+00  3.6090E-01  1.7580E+00  2.9796E+00  0.0000E+00  1.1696E+00  2.0464E+00  9.3046E-01  5.6902E-01
 32  2.9696E-01  7.8651E-01  2.8901E+00  1.6683E+00  1.1756E+00  3.2340E-01  3.7316E+00  0.0000E+00  0.0000E+00
 33  0.0000E+00  9.4945E-01  0.0000E+00  1.3166E+00  2.4538E-01  2.2570E+00  4.3125E+00  0.0000E+00  0.0000E+00
 34  0.0000E+00  2.7172E+00  5.8348E+00  8.4488E+00  4.6856E+00  6.6358E+00  8.8814E-01  3.9016E+00  0.0000E+00
 35  4.0759E-03  8.8690E-02  7.4425E-02  9.8548E-02  5.0311E-02  1.0541E-01  7.1763E-02  8.0899E-02  6.3860E-02
 36  0.0000E+00  1.3356E-03  1.1315E-02  2.0134E-03  3.0578E-03  1.4907E-03  3.5510E-03  2.8435E-03  5.4546E-03
 37  0.0000E+00  9.9231E-04  1.9597E-03  1.7875E-03  0.0000E+00  0.0000E+00  9.1258E-05  5.6481E-04  0.0000E+00
 38  0.0000E+00  2.4798E-03  2.1404E-03  4.3503E-03  3.8201E-03  1.3665E-03  0.0000E+00  0.0000E+00  1.5597E-02
 39  7.5742E-03  4.8099E-03  5.8869E-03  1.5413E-02  2.9639E-02  3.5403E-03  8.3410E-03  1.6012E-02  1.1296E-02
 40  0.0000E+00  8.5713E-03  4.8228E-03  6.8263E-03  2.9495E-02  2.4603E-02  5.3233E-02  1.8464E-02  3.6500E-03
 41  8.0555E-03  1.0272E-02  4.3894E-02  4.5942E-03  3.3233E-02  2.8556E-02  2.5740E-02  0.0000E+00  2.3355E-02
 42  0.0000E+00  1.8772E-02  1.3399E-02  4.4902E-02  1.8082E-02  0.0000E+00  4.5060E-02  3.8782E-02  2.1521E-01
 43  0.0000E+00  2.5289E-02  3.1508E-01  2.2118E-02  0.0000E+00  0.0000E+00  1.2987E-01  0.0000E+00  1.1524E-01
 44  0.0000E+00  6.3791E-02  1.8789E-02  3.6275E-02  4.6575E-01  1.1408E-01  0.0000E+00  3.8479E-01  0.0000E+00
 45  0.0000E+00  1.0042E-01  2.7290E-01  3.2595E-01  0.0000E+00  1.7848E-01  3.1885E-01  5.6277E-01  3.9442E-01
 46  1.0865E-01  1.8200E-01  4.3737E-01  0.0000E+00  1.6649E-01  1.3645E-01  5.9784E-01  6.3608E-02  6.2696E-01
 47  7.6102E+00  3.5117E-01  2.0782E+00  5.2054E-01  4.6616E-01  1.8049E-01  0.0000E+00  1.6875E-01  6.3011E-01
 48  0.0000E+00  6.3399E-01  0.0000E+00  2.1636E+00  0.0000E+00  7.0959E-01  0.0000E+00  6.7270E-01  1.7197E-01
 49  0.0000E+00  7.0109E+00  3.7288E+00  9.8853E+00  5.3898E+00  1.5993E+00  4.7912E+00  7.0241E+00  7.4394E+00
 50  0.0000E+00  2.0203E+01  1.7198E+01  1.4280E+01  2.3419E+01  3.0677E+01  1.1998E+01  1.8510E+01  1.7657E+01
 51  0.0000E+00  7.2618E-02  5.5037E-02  7.5968E-02  4.4507E-02  7.1589E-02  5.7994E-02  7.5986E-02  5.3359E-02
 52  0.0000E+00  9.7530E-04  0.0000E+00  2.5731E-03  3.0966E-03  1.0401E-03  5.0124E-03  0.0000E+00  2.1382E-03
 53  0.0000E+00  1.7762E-03  8.4802E-03  0.0000E+00  0.0000E+00  2.5786E-03  4.4450E-03  9.9168E-03  8.9882E-03
 54  0.0000E+00  2.3098E-03  0.0000E+00  6.0054E-03  7.1695E-03  1.0198E-03  0.0000E+00  7.6011E-04  5.7754E-04
 55  0.0000E+00  4.3664E-03  2.8422E-02  2.4406E-02  4.4953E-03  0.0000E+00  1.3683E-02  1.1885E-04  1.9777E-02
 56  0.0000E+00  5.7182E-03  3.6265E-02  3.8864E-03  1.1489E-03  1.1171E-02  5.4491E-03  1.1697E-03  1.8312E-03
 57  0.0000E+00  9.6289E-03  0.0000E+00  0.0000E+00  2.7975E-02  4.6427E-02  3.2818E-02  1.5404E-02  1.3214E-02
 58  0.0000E+00  1.5520E-02  0.0000E+00  4.9510E-02  6.3339E-02  1.3994E-02  4.8304E-02  5.5900E-02  3.9783E-02
 59  0.0000E+00  2.8967E-02  3.0831E-02  2.1567E-01  9.5690E-02  3.6354E-02  1.8880E-01  0.0000E+00  0.0000E+00
 60  0.0000E+00  6.3947E-02  3.5866E-01  0.0000E+00  0.0000E+00  1.0476E-01  0.0000E+00  4.9466E-02  0.0000E+00
 61  9.1943E+01  1.5460E-01  5.5226E-01  6.7339E-01  0.0000E+00  4.1833E-01  2.4732E-02  3.6256E-01  5.7041E-01
 62  0.0000E+00  2.1494E-01  6.5301E-01  3.1055E-01  1.5929E-01  0.0000E+00  0.0000E+00  4.4899E-01  0.0000E+00
 63  0.0000E+00  7.0578E-01  0.0000E+00  2.2109E+00  5.8828E-01  8.7623E-01  2.1756E+00  8.1281E-02  1.7209E+00
 64  0.0000E+00  2.6417E+01  1.1518E+01  2.0027E+01  2.1261E+01  2.8812E+01  2.1174E+01  3.2389E+01  1.8860E+01
 65  0.0000E+00  1.9133E+01  5.6106E+00  2.3310E+01  2.7889E+01  1.5888E+01  1.7552E+01  1.2833E+01  3.9552E+01
 66  0.0000E+00  1.1248E+01  2.1895E+01  0.0000E+00  6.8681E+00  0.0000E+00  1.8260E+01  1.0491E+01  0.0000E+00

# AV, chi2 & Mass for <> & i_chain = 1 ...  7 solutions
AV       0.4384      1.6651      1.6787      1.6584      1.6093      1.6727      1.6872      1.6899      1.6409
chi2 8.9354E-04  2.3279E-03  2.1589E-03  2.2525E-03  2.2772E-03  2.2420E-03  2.2085E-03  2.2418E-03  2.1996E-03
Mass 1.0532E-12  1.1739E-11  9.0660E-12  9.3355E-12  1.0155E-11  1.0582E-11  8.8080E-12  1.0389E-11  9.8881E-12
 212.40                                  [v0_min (km/s) before EX0s...]
 167.32                                  [vd_min (km/s) before EX0s...]


## Synthetic spectrum (Best Model) ##l_obs f_obs f_syn wei
 3478    [Nl_obs]
 3741.00    0.96026   0.53789    0.000
 3742.00    0.98802   0.57687    0.000
 3743.00    0.99526   0.60170    0.000
 3744.00    0.98114   0.60950    0.000
 3745.00    0.95458   0.60184   -1.000
 3746.00    0.95145   0.58179   -1.000
 3747.00    0.96021   0.55298   -1.000
 3748.00    0.97489   0.51919   -1.000
 3749.00    0.99217   0.48340   -1.000
 3750.00    1.02153   0.45109   -1.000
 3751.00    1.05543   0.43091   -1.000
 3752.00    1.05458   0.43082   -1.000
 3753.00    1.04258   0.45369   -1.000
 3754.00    1.03226   0.49564   -1.000
 3755.00    1.02239   0.54807   -1.000
 3756.00    1.01278   0.59867   -1.000
 3757.00    1.00322   0.63432   -1.000
 3758.00    1.00159   0.64663   -1.000
 3759.00    1.00135   0.63723   -1.000
 3760.00    0.99512   0.61635   -1.000
 3761.00    0.98809   0.59558   -1.000
 3762.00    0.95469   0.58351   -1.000
 3763.00    0.91882   0.58392   -1.000
 3764.00    0.93223   0.59443   -1.000
 3765.00    0.94849   0.60870   -1.000
 3766.00    0.93463   0.61964   -1.000
 3767.00    0.91997   0.62133   -1.000
 3768.00    0.89462   0.61262   -1.000
 3769.00    0.86827   0.59636   -1.000
 3770.00    0.81768   0.57626   -1.000
 3771.00    0.76916   0.55735   -1.000
 3772.00    0.74784   0.54653   -1.000
 3773.00    0.72636   0.54868   -1.000
 3774.00    0.70347   0.56295   -1.000
 3775.00    0.68593   0.58460   -1.000
 3776.00    0.70305   0.60938   -1.000
 3777.00    0.72441   0.63539   -1.000
 3778.00    0.76726   0.66231   -1.000
 3779.00    0.81370   0.69047   -1.000
 3780.00    0.87486   0.72047   -1.000
 3781.00    0.93063   0.75112   -1.000
 3782.00    0.96812   0.77851   -1.000
 3783.00    1.00548   0.79908   -1.000
 3784.00    1.04249   0.81142   -1.000
 3785.00    1.07773   0.81472   -1.000
 3786.00    1.10866   0.80618   -1.000
 3787.00    1.12131   0.78421   -1.000
 3788.00    1.09544   0.75304   -1.000
 3789.00    1.07211   0.71901   -1.000
 3790.00    1.05344   0.68824   -1.000
 3791.00    1.04460   0.66571   -1.000
 3792.00    1.05147   0.65255   -1.000
 3793.00    1.05936   0.64465   -1.000
 3794.00    1.06868   0.63501   -1.000
 3795.00    1.06677   0.61850   -1.000
 3796.00    1.05098   0.59413   -1.000
 3797.00    1.02889   0.56378   -1.000
 3798.00    0.99993   0.53134   -1.000
 3799.00    0.99456   0.50441   -1.000
 3800.00    1.01187   0.49234   -1.000
 3801.00    1.02551   0.50112   -1.000
 3802.00    1.03603   0.53072   -1.000
 3803.00    1.04766   0.57621   -1.000
 3804.00    1.06014   0.62888   -1.000
 3805.00    1.07942   0.67788   -1.000
 3806.00    1.10317   0.71440   -1.000
 3807.00    1.10037   0.73545   -1.000
 3808.00    1.08233   0.74525   -1.000
 3809.00    1.05962   0.75253   -1.000
 3810.00    1.03457   0.76393   -1.000
 3811.00    1.01467   0.78010   -1.000
 3812.00    0.99699   0.79534   -1.000
 3813.00    0.98128   0.80048   -1.000
 3814.00    0.96630   0.78948   -1.000
 3815.00    0.96430   0.76486   -1.000
 3816.00    0.96638   0.73586   -1.000
 3817.00    0.97437   0.71322   -1.000
 3818.00    0.98390   0.70379   -1.000
 3819.00    0.97199   0.70572   -1.000
 3820.00    0.95548   0.71134   -1.000
 3821.00    0.92522   0.71397   -1.000
 3822.00    0.89262   0.71234   -1.000
 3823.00    0.84708   0.70811   -1.000
 3824.00    0.79988   0.70036   -1.000
 3825.00    0.76947   0.68690   -1.000
 3826.00    0.74057   0.66820   -1.000
 3827.00    0.78145   0.64674   -1.000
 3828.00    0.82609   0.62561   -1.000
 3829.00    0.83197   0.60779   -1.000
 3830.00    0.83721   0.59404   -1.000
 3831.00    0.85379   0.58198   -1.000
 3832.00    0.87217   0.56682   -1.000
 3833.00    0.93034   0.54419   -1.000
 3834.00    0.98457   0.51434   -1.000
 3835.00    0.98975   0.48166   -1.000
 3836.00    0.99418   0.45254   -1.000
 3837.00    0.99220   0.43360   -1.000
 3838.00    0.98882   0.42846   -1.000
 3839.00    0.97668   0.43656   -1.000
 3840.00    0.96603   0.45560   -1.000
 3841.00    0.96273   0.48317   -1.000
 3842.00    0.95869   0.51778   -1.000
 3843.00    0.95166   0.55786   -1.000
 3844.00    0.94903   0.59970   -1.000
 3845.00    0.96103   0.63916   -1.000
 3846.00    0.97065   0.67285   -1.000
 3847.00    0.97356   0.69940    0.000
 3848.00    0.98356   0.71982    0.000
 3849.00    1.01058   0.73493    0.000
 3850.00    1.02438   0.74474    0.000
 3851.00    1.01075   0.75149    0.000
 3852.00    0.99529   0.75888    0.000
 3853.00    0.97650   0.76830    0.000
 3854.00    0.97273   0.77837    0.000
 3855.00    0.99267   0.78684    0.000
 3856.00    0.99752   0.79073    0.000
 3857.00    0.98150   0.78882    0.000
 3858.00    0.96720   0.78264    0.000
 3859.00    0.95498   0.77346    0.000
 3860.00    0.94338   0.76382    0.000
 3861.00    0.93243   0.75939    0.000
 3862.00    0.91213   0.76441    0.000
 3863.00    0.88297   0.77858    0.000
 3864.00    0.83082   0.79796    0.000
 3865.00    0.75946   0.81728    0.000
 3866.00    0.68779   0.83195    0.000
 3867.00    0.61589   0.84036    0.000
 3868.00    0.55269   0.84403    0.000
 3869.00    0.49512   0.84506    0.000
 3870.00    0.46925   0.84368    0.000
 3871.00    0.46130   0.83780    0.000
 3872.00    0.48678   0.82507    0.000
 3873.00    0.52871   0.80583    0.000
 3874.00    0.58919   0.78579    0.000
 3875.00    0.65755   0.77261    0.000
 3876.00    0.72231   0.76936    0.000
 3877.00    0.78576   0.77269    0.000
 3878.00    0.84782   0.77548    0.000
 3879.00    0.90947   0.77227    0.000
 3880.00    0.93579   0.76415    0.000
 3881.00    0.95305   0.75492   -1.000
 3882.00    0.94823   0.74545   -1.000
 3883.00    0.93879   0.73488   -1.000
 3884.00    0.97325   0.72178   -1.000
 3885.00    1.01495   0.70332   -1.000
 3886.00    1.00468   0.67658   -1.000
 3887.00    0.98797   0.64175   -1.000
 3888.00    0.97868   0.60281   -1.000
 3889.00    0.97002   0.56562   -1.000
 3890.00    0.95688   0.53732   -1.000
 3891.00    0.94351   0.52542   -1.000
 3892.00    0.93000   0.53355   -1.000
 3893.00    0.91676   0.55910   -1.000
 3894.00    0.92151   0.59453   -1.000
 3895.00    0.92594   0.63112   -1.000
 3896.00    0.92380   0.66268   -1.000
 3897.00    0.91800   0.68745   -1.000
 3898.00    0.86898   0.70651   -1.000
 3899.00    0.81916   0.72125   -1.000
 3900.00    0.76281   0.73353   -1.000
 3901.00    0.70466   0.74611   -1.000
 3902.00    0.63554   0.76102   -1.000
 3903.00    0.56885   0.77639   -1.000
 3904.00    0.51387   0.78808   -1.000
 3905.00    0.47272   0.79362   -1.000
 3906.00    0.48571   0.79262   -1.000
 3907.00    0.51174   0.78840   -1.000
 3908.00    0.58026   0.78831   -1.000
 3909.00    0.65354   0.79840   -1.000
 3910.00    0.73999   0.81939   -1.000
 3911.00    0.81804   0.84708   -1.000
 3912.00    0.87626   0.87462   -1.000
 3913.00    0.92177   0.89482   -1.000
 3914.00    0.94137   0.90304   -1.000
 3915.00    0.95558   0.89940   -1.000
 3916.00    0.96023   0.88760   -1.000
 3917.00    0.96970   0.87136   -1.000
 3918.00    0.98668   0.85381   -1.000
 3919.00    0.99676   0.83701   -1.000
 3920.00    0.99743   0.82162   -1.000
 3921.00    0.99296   0.80833   -1.000
 3922.00    0.98235   0.79860   -1.000
 3923.00    0.98592   0.79341   -1.000
 3924.00    1.00453   0.79184   -1.000
 3925.00    1.01180   0.79079   -1.000
 3926.00    1.00846   0.78485   -1.000
 3927.00    1.01408   0.76879   -1.000
 3928.00    1.02709   0.73965   -1.000
 3929.00    1.03168   0.69668   -1.000
 3930.00    1.03018   0.64141   -1.000
 3931.00    0.99395   0.57702   -1.000
 3932.00    0.93561   0.50767   -1.000
 3933.00    0.93107   0.43864   -1.000
 3934.00    0.95646   0.37661   -1.000
 3935.00    0.97890   0.32954   -1.000
 3936.00    0.99991   0.30501   -1.000
 3937.00    1.00909   0.30782   -1.000
 3938.00    1.01334   0.33790   -1.000
 3939.00    1.00321   0.39008   -1.000
 3940.00    0.98795   0.45581   -1.000
 3941.00    1.00380   0.52479   -1.000
 3942.00    1.02906   0.58737   -1.000
 3943.00    1.01779   0.63760   -1.000
 3944.00    0.99733   0.67446   -1.000
 3945.00    1.03223   0.70123   -1.000
 3946.00    1.07841   0.72388   -1.000
 3947.00    1.09188   0.74667   -1.000
 3948.00    1.10012   0.76875   -1.000
 3949.00    1.09122   0.78695   -1.000
 3950.00    1.08027   0.80022   -1.000
 3951.00    1.09152   0.80971   -1.000
 3952.00    1.10457   0.81697   -1.000
 3953.00    1.11446   0.82341   -1.000
 3954.00    1.12420   0.83049   -1.000
 3955.00    1.08579   0.83838   -1.000
 3956.00    1.04726   0.84407   -1.000
 3957.00    1.03519   0.84390   -1.000
 3958.00    1.02356   0.83787   -1.000
 3959.00    1.02040   0.82869   -1.000
 3960.00    1.01873   0.81758    0.000
 3961.00    1.03385   0.80218    0.000
 3962.00    1.04651   0.77818    0.000
 3963.00    1.03990   0.74313    0.000
 3964.00    1.02773   0.69794    0.000
 3965.00    0.98259   0.64505    0.000
 3966.00    0.94777   0.58650    0.000
 3967.00    0.96141   0.52371    0.000
 3968.00    0.97808   0.45882    0.000
 3969.00    1.00636   0.39681    0.000
 3970.00    1.02962   0.34574    0.000
 3971.00    1.03681   0.31451    0.000
 3972.00    1.04699   0.30926    0.000
 3973.00    1.06524   0.33070    0.000
 3974.00    1.07889   0.37427    0.000
 3975.00    1.08184   0.43265    0.000
 3976.00    1.07384   0.49851    0.000
 3977.00    1.04386   0.56581    0.000
 3978.00    1.01977   0.63049    0.000
 3979.00    1.00600   0.69076    0.000
 3980.00    1.00367   0.74544    0.000
 3981.00    1.01887   0.79236   -1.000
 3982.00    1.02698   0.82847   -1.000
 3983.00    1.02558   0.85252   -1.000
 3984.00    1.02638   0.86719   -1.000
 3985.00    1.02979   0.87765   -1.000
 3986.00    1.03619   0.88853   -1.000
 3987.00    1.04573   0.90186   -1.000
 3988.00    1.05364   0.91717   -1.000
 3989.00    1.06005   0.93294   -1.000
 3990.00    1.07501   0.94729   -1.000
 3991.00    1.09693   0.95931   -1.000
 3992.00    1.09562   0.97017   -1.000
 3993.00    1.07773   0.98135   -1.000
 3994.00    1.05032   0.99225   -1.000
 3995.00    1.01695   0.99991   -1.000
 3996.00    1.01676   1.00087   -1.000
 3997.00    1.03476   0.99395   -1.000
 3998.00    1.03466   0.98196   -1.000
 3999.00    1.02595   0.97166   -1.000
 4000.00    1.02738   0.97055   -1.000
 4001.00    1.03297   0.98149   -1.000
 4002.00    1.03460   1.00033   -1.000
 4003.00    1.03483   1.01942   -1.000
 4004.00    1.03918   1.03152   -1.000
 4005.00    1.04474   1.03185   -1.000
 4006.00    1.04296   1.02037   -1.000
 4007.00    1.03939   1.00401   -1.000
 4008.00    1.03993   0.99338   -1.000
 4009.00    1.04129   0.99538   -1.000
 4010.00    1.03621   1.00971   -1.000
 4011.00    1.03014   1.03112   -1.000
 4012.00    1.02483   1.05286   -1.000
 4013.00    1.01961   1.06990   -1.000
 4014.00    1.00524   1.08071   -1.000
 4015.00    0.99016   1.08702   -1.000
 4016.00    1.00000   1.09151   -1.000
 4017.00    1.01089   1.09599   -1.000
 4018.00    1.01128   1.10089   -1.000
 4019.00    1.01179   1.10655   -1.000
 4020.00    1.02199   1.11377   -1.000
 4021.00    1.03284   1.12143   -1.000
 4022.00    1.05524   1.12602   -1.000
 4023.00    1.07669   1.12475   -1.000
 4024.00    1.08792   1.11758   -1.000
 4025.00    1.09499   1.10726   -1.000
 4026.00    1.07052   1.09886   -1.000
 4027.00    1.04371   1.09739   -1.000
 4028.00    1.00340   1.10290   -1.000
 4029.00    0.96553   1.10863   -1.000
 4030.00    0.93884   1.10531   -1.000
 4031.00    0.91040   1.08676   -1.000
 4032.00    0.87538   1.05409   -1.000
 4033.00    0.84216   1.01645   -1.000
 4034.00    0.81456   0.98590   -1.000
 4035.00    0.79380   0.97182   -1.000
 4036.00    0.79121   0.97844   -1.000
 4037.00    0.79826   1.00379   -1.000
 4038.00    0.82732   1.04101   -1.000
 4039.00    0.85975   1.08050   -1.000
 4040.00    0.89883   1.11278   -1.000
 4041.00    0.93314   1.13160   -1.000
 4042.00    0.95921   1.13572   -1.000
 4043.00    0.97119   1.12784   -1.000
 4044.00    0.96192   1.11113   -1.000
 4045.00    0.96180   1.08690   -1.000
 4046.00    0.97381   1.05780   -1.000
 4047.00    0.98783   1.03145   -1.000
 4048.00    1.00421   1.01823   -1.000
 4049.00    1.00989   1.02336   -1.000
 4050.00    1.00455   1.04272   -1.000
 4051.00    0.99733   1.06732   -1.000
 4052.00    0.98841   1.08786   -1.000
 4053.00    0.97778   1.09726   -1.000
 4054.00    0.96577   1.09340   -1.000
 4055.00    0.98063   1.07938   -1.000
 4056.00    1.01441   1.06116   -1.000
 4057.00    1.02198   1.04507   -1.000
 4058.00    1.01336   1.03515   -1.000
 4059.00    1.01114   1.03239   -1.000
 4060.00    1.01238   1.03633   -1.000
 4061.00    0.99294   1.04469   -1.000
 4062.00    0.96381   1.05198   -1.000
 4063.00    0.95737   1.05180   -1.000
 4064.00    0.96011   1.04155   -1.000
 4065.00    0.95328   1.02555   -1.000
 4066.00    0.94315   1.01255   -1.000
 4067.00    0.94409   1.00856   -1.000
 4068.00    0.94825   1.01352   -1.000
 4069.00    0.96288   1.02483   -1.000
 4070.00    0.98002   1.03908   -1.000
 4071.00    0.99114   1.05094   -1.000
 4072.00    1.00110   1.05521   -1.000
 4073.00    1.00410   1.05143   -1.000
 4074.00    1.00606   1.04346   -1.000
 4075.00    0.98533   1.03398   -1.000
 4076.00    0.96210   1.02138   -1.000
 4077.00    0.98384   1.00281   -1.000
 4078.00    1.00888   0.97906   -1.000
 4079.00    0.99814   0.95688   -1.000
 4080.00    0.98604   0.94645   -1.000
 4081.00    0.96775   0.95416   -1.000
 4082.00    0.95063   0.97792   -1.000
 4083.00    0.97922   1.00836   -1.000
 4084.00    1.00486   1.03395   -1.000
 4085.00    0.98182   1.04783   -1.000
 4086.00    0.96046   1.05096   -1.000
 4087.00    0.95649   1.04979   -1.000
 4088.00    0.95316   1.05198   -1.000
 4089.00    0.95459   1.06169   -1.000
 4090.00    0.95410   1.07713   -1.000
 4091.00    0.94285   1.09257   -1.000
 4092.00    0.94040   1.10250    0.000
 4093.00    0.97736   1.10411    0.000
 4094.00    1.00470   1.09713    0.000
 4095.00    0.99671   1.08267    0.000
 4096.00    0.98808   1.06087    0.000
 4097.00    0.97749   1.03108    0.000
 4098.00    0.96571   0.99430    0.000
 4099.00    0.95081   0.95233    0.000
 4100.00    0.93633   0.90642    0.000
 4101.00    0.92276   0.85786    0.000
 4102.00    0.91707   0.80955    0.000
 4103.00    0.92674   0.76810    0.000
 4104.00    0.92425   0.74356    0.000
 4105.00    0.90116   0.74346    0.000
 4106.00    0.89348   0.76777    0.000
 4107.00    0.90873   0.80922    0.000
 4108.00    0.92163   0.85645    0.000
 4109.00    0.93146   0.89860    0.000
 4110.00    0.94794   0.92971    0.000
 4111.00    0.97207   0.94961    0.000
 4112.00    0.97244   0.96280    0.000
 4113.00    0.94871   0.97558   -1.000
 4114.00    0.94965   0.99246   -1.000
 4115.00    0.97268   1.01435   -1.000
 4116.00    0.96361   1.03884   -1.000
 4117.00    0.92921   1.06129   -1.000
 4118.00    0.91848   1.07657   -1.000
 4119.00    0.92418   1.08073   -1.000
 4120.00    0.94001   1.07363   -1.000
 4121.00    0.96199   1.06030   -1.000
 4122.00    0.95911   1.04740   -1.000
 4123.00    0.94303   1.03853   -1.000
 4124.00    0.92987   1.03463   -1.000
 4125.00    0.91807   1.03577   -1.000
 4126.00    0.92611   1.04054   -1.000
 4127.00    0.94201   1.04529   -1.000
 4128.00    0.94135   1.04586   -1.000
 4129.00    0.93509   1.04016   -1.000
 4130.00    0.91127   1.02915   -1.000
 4131.00    0.88245   1.01613   -1.000
 4132.00    0.86944   1.00400   -1.000
 4133.00    0.86014   0.99430   -1.000
 4134.00    0.87670   0.98903   -1.000
 4135.00    0.89815   0.99170   -1.000
 4136.00    0.90220   1.00496   -1.000
 4137.00    0.90371   1.02870   -1.000
 4138.00    0.91247   1.05923   -1.000
 4139.00    0.92199   1.09058   -1.000
 4140.00    0.93279   1.11774   -1.000
 4141.00    0.94368   1.13636   -1.000
 4142.00    0.93361   1.14199   -1.000
 4143.00    0.92281   1.13235   -1.000
 4144.00    0.92522   1.10956   -1.000
 4145.00    0.92682   1.08150   -1.000
 4146.00    0.90096   1.05955   -1.000
 4147.00    0.87686   1.05143   -1.000
 4148.00    0.87988   1.05635   -1.000
 4149.00    0.88562   1.06757   -1.000
 4150.00    0.91830   1.07753   -1.000
 4151.00    0.94548   1.08140   -1.000
 4152.00    0.93362   1.07904   -1.000
 4153.00    0.92049   1.07297   -1.000
 4154.00    0.90045   1.06509   -1.000
 4155.00    0.87856   1.05609   -1.000
 4156.00    0.84856   1.04667   -1.000
 4157.00    0.82287   1.03895   -1.000
 4158.00    0.81264   1.03592   -1.000
 4159.00    0.84744   1.03976    3.716
 4160.00    1.01815   1.05080    0.741
 4161.00    1.12861   1.06669    0.470
 4162.00    1.08437   1.08374    0.471
 4163.00    1.05135   1.09936    0.469
 4164.00    1.04312   1.11311    0.463
 4165.00    1.03755   1.12482    0.460
 4166.00    1.03707   1.13340    0.462
 4167.00    1.06791   1.13800    0.472
 4168.00    1.15111   1.13807    0.494
 4169.00    1.18948   1.13370    0.503
 4170.00    1.16220   1.12563    0.490
 4171.00    1.13133   1.11331    0.488
 4172.00    1.09582   1.09400    0.499
 4173.00    1.07549   1.06587    0.514
 4174.00    1.07239   1.03182    0.532
 4175.00    1.10000   0.99961    0.533
 4176.00    1.15835   0.97733    0.518
 4177.00    1.16048   0.96827    0.507
 4178.00    1.11300   0.96983    0.499
 4179.00    1.08905   0.97699    0.493
 4180.00    1.08339   0.98659    0.486
 4181.00    1.07297   0.99847    0.477
 4182.00    1.05929   1.01288    0.466
 4183.00    1.07105   1.02799    0.465
 4184.00    1.09806   1.04128    0.471
 4185.00    1.14249   1.05195    0.479
 4186.00    1.19603   1.06052    0.490
 4187.00    1.18634   1.06721    0.480
 4188.00    1.14799   1.07157    0.462
 4189.00    1.14374   1.07366    0.462
 4190.00    1.15280   1.07616    0.469
 4191.00    1.14460   1.08282    0.470
 4192.00    1.13067   1.09452    0.469
 4193.00    1.13632   1.10924    0.465
 4194.00    1.14743   1.12422    0.460
 4195.00    1.16120   1.13584    0.457
 4196.00    1.17557   1.13900    0.455
 4197.00    1.17978   1.12972    0.461
 4198.00    1.18212   1.10890    0.467
 4199.00    1.19528   1.08216    0.463
 4200.00    1.20996   1.05625    0.457
 4201.00    1.13428   1.03656    0.443
 4202.00    1.04938   1.02593    0.428
 4203.00    1.02176   1.02310    0.424
 4204.00    0.99786   1.02482    0.421
 4205.00    1.03268   1.02992    0.424
 4206.00    1.06923   1.03898    0.427
 4207.00    1.05776   1.05217    0.434
 4208.00    1.04868   1.06907    0.440
 4209.00    1.10962   1.08824    0.437
 4210.00    1.16706   1.10684    0.433
 4211.00    1.17357   1.12230    0.431
 4212.00    1.18091   1.13382    0.429
 4213.00    1.19600   1.14194    0.437
 4214.00    1.20399   1.14660    0.441
 4215.00    1.16313   1.14623    0.425
 4216.00    1.12600   1.13998    0.412
 4217.00    1.10873   1.13040    0.411
 4218.00    1.09980   1.12372    0.411
 4219.00    1.12646   1.12646    0.414
 4220.00    1.14260   1.13987    0.417
 4221.00    1.12164   1.15792    0.418
 4222.00    1.10851   1.17184    0.420
 4223.00    1.11857   1.17446    0.427
 4224.00    1.12336   1.16122    0.431
 4225.00    1.11487   1.13096    0.426
 4226.00    1.10202   1.08759    0.419
 4227.00    1.07967   1.03993    0.408
 4228.00    1.06225   1.00005    0.402
 4229.00    1.05414   0.98059    0.404
 4230.00    1.04879   0.98925    0.403
 4231.00    1.04799   1.02318    0.397
 4232.00    1.03271   1.06829    0.396
 4233.00    0.99654   1.10724    0.401
 4234.00    0.97220   1.12861    0.403
 4235.00    0.96286   1.13013    0.401
 4236.00    0.95779   1.11825    0.395
 4237.00    0.95747   1.10326    0.385
 4238.00    0.95413   1.09214    0.382
 4239.00    0.94780   1.08778    0.385
 4240.00    0.96993   1.09111    0.389
 4241.00    1.01684   1.10103    0.393
 4242.00    1.02303   1.11617    0.393
 4243.00    0.99800   1.13555    0.390
 4244.00    1.04782   1.15636    0.400
 4245.00    1.14809   1.17399    0.420
 4246.00    1.15213   1.18435    0.428
 4247.00    1.09935   1.18490    0.428
 4248.00    1.10438   1.17475    0.442
 4249.00    1.13916   1.15635    0.465
 4250.00    1.16418   1.13543    0.468
 4251.00    1.18485   1.11780    0.462
 4252.00    1.15776   1.10639    0.455
 4253.00    1.11238   1.10159    0.447
 4254.00    1.15318   1.10332    0.438
 4255.00    1.22207   1.11036    0.430
 4256.00    1.17858   1.11981    0.430
 4257.00    1.10442   1.12914    0.431
 4258.00    1.14217   1.13698    0.435
 4259.00    1.20499   1.14138    0.441
 4260.00    1.21834   1.13995    0.436
 4261.00    1.22284   1.13283    0.430
 4262.00    1.21290   1.12496    0.432
 4263.00    1.20099   1.12402    0.435
 4264.00    1.13050   1.13585    0.427
 4265.00    1.05428   1.16073    0.417
 4266.00    1.05752   1.19216    0.422
 4267.00    1.06563   1.22021    0.428
 4268.00    1.00144   1.23620    0.422
 4269.00    0.93566   1.23515    0.416
 4270.00    0.94092   1.21630    0.407
 4271.00    0.94583   1.18291    0.400
 4272.00    0.94160   1.14137    0.406
 4273.00    0.93791   1.09954    0.413
 4274.00    0.94152   1.06540    0.411
 4275.00    0.95216   1.04599    0.411
 4276.00    1.02658   1.04509    0.420
 4277.00    1.09005   1.06131    0.428
 4278.00    1.08054   1.08930    0.422
 4279.00    1.07536   1.12224    0.418
 4280.00    1.09261   1.15263    0.422
 4281.00    1.10711   1.17374    0.424
 4282.00    1.11009   1.18250   -2.000
 4283.00    1.12518   1.18034   -2.000
 4284.00    1.18205   1.17148   -2.000
 4285.00    1.22875   1.16022   -2.000
 4286.00    1.24584   1.14865   -2.000
 4287.00    1.23948   1.13642   -2.000
 4288.00    1.17492   1.12147   -2.000
 4289.00    1.15100   1.10166   -2.000
 4290.00    1.21395   1.07742   -2.000
 4291.00    1.26158   1.05267   -2.000
 4292.00    1.28079   1.03382   -2.000
 4293.00    1.28707   1.02690   -2.000
 4294.00    1.27239   1.03387   -2.000
 4295.00    1.24446   1.05029   -2.000
 4296.00    1.19768   1.06672   -2.000
 4297.00    1.17688   1.07420   -2.000
 4298.00    1.18860   1.06856    0.411
 4299.00    1.20441   1.05029    0.413
 4300.00    1.22475   1.02174    0.421
 4301.00    1.21574   0.98688    0.420
 4302.00    1.17818   0.95192    0.409
 4303.00    1.15427   0.92380    0.411
 4304.00    1.14206   0.90815    0.424
 4305.00    1.17754   0.90589    0.427
 4306.00    1.24905   0.91281    0.422
 4307.00    1.27898   0.92303    0.421
 4308.00    1.28129   0.93170    0.421
 4309.00    1.23823   0.93674    0.417
 4310.00    1.16877   0.94035    0.410
 4311.00    1.17071   0.94739    0.404
 4312.00    1.20882   0.96160    0.400
 4313.00    1.22282   0.98336    0.395
 4314.00    1.22624   1.00970    0.390
 4315.00    1.20614   1.03690    0.388
 4316.00    1.17717   1.06382    0.388
 4317.00    1.20023   1.09243    0.390
 4318.00    1.23992   1.12478    0.393
 4319.00    1.24059   1.15934    0.393
 4320.00    1.23081   1.19029    0.392
 4321.00    1.23860   1.21052    0.396
 4322.00    1.25022   1.21565    0.402
 4323.00    1.25719   1.20586    0.407
 4324.00    1.26336   1.18398    0.412
 4325.00    1.23922   1.15370    0.406
 4326.00    1.21107   1.11980    0.399
 4327.00    1.19732   1.08893    0.394
 4328.00    1.18491   1.06879    0.389
 4329.00    1.23487   1.06541    0.393
 4330.00    1.28839   1.07931    0.000
 4331.00    1.26658   1.10417    0.000
 4332.00    1.24331   1.13005    0.000
 4333.00    1.25536   1.14859    0.000
 4334.00    1.26789   1.15655    0.000
 4335.00    1.29204   1.15432    0.000
 4336.00    1.31528   1.14197    0.000
 4337.00    1.32674   1.11688    0.000
 4338.00    1.33351   1.07556    0.000
 4339.00    1.29929   1.01801    0.000
 4340.00    1.26610   0.95010    0.000
 4341.00    1.23951   0.88301    0.000
 4342.00    1.21917   0.83042    0.000
 4343.00    1.23032   0.80369    0.000
 4344.00    1.24394   0.80744    0.000
 4345.00    1.26766   0.83848    0.000
 4346.00    1.28441   0.88861    0.000
 4347.00    1.27759   0.94762    0.000
 4348.00    1.28395   1.00603    0.000
 4349.00    1.32792   1.05672    0.000
 4350.00    1.35221   1.09470    0.000
 4351.00    1.32855   1.11662    0.412
 4352.00    1.32415   1.12194    0.408
 4353.00    1.36029   1.11487    0.410
 4354.00    1.37486   1.10420    0.409
 4355.00    1.35000   1.09976    0.403
 4356.00    1.31877   1.10806    0.398
 4357.00    1.27733   1.12908    0.395
 4358.00    1.25922   1.15689    0.393
 4359.00    1.27380   1.18351    0.391
 4360.00    1.29484   1.20358    0.393
 4361.00    1.32385   1.21734    0.401
 4362.00    1.33091   1.22913    0.404
 4363.00    1.31410   1.24349    0.404
 4364.00    1.28038   1.26207    0.399
 4365.00    1.23043   1.28267    0.391
 4366.00    1.22675   1.30030    0.391
 4367.00    1.26219   1.30945    0.399
 4368.00    1.28933   1.30687    0.407
 4369.00    1.31030   1.29323    0.413
 4370.00    1.31983   1.27287    0.415
 4371.00    1.32188   1.25176    0.413
 4372.00    1.31159   1.23449    0.411
 4373.00    1.29423   1.22201    0.409
 4374.00    1.24974   1.21192    0.402
 4375.00    1.19172   1.20120    0.394
 4376.00    1.21497   1.18982    0.396
 4377.00    1.27329   1.18176    0.403
 4378.00    1.29615   1.18260    0.409
 4379.00    1.30588   1.19462    0.416
 4380.00    1.30424   1.21369    0.419
 4381.00    1.29902   1.23034    0.422
 4382.00    1.27721   1.23406    0.417
 4383.00    1.25105   1.21818    0.411
 4384.00    1.26178   1.18300    0.413
 4385.00    1.28039   1.13638    0.416
 4386.00    1.26934   1.09123    0.410
 4387.00    1.25327   1.06059    0.402
 4388.00    1.27306   1.05212    0.398
 4389.00    1.29742   1.06497    0.393
 4390.00    1.28695   1.09130    0.388
 4391.00    1.27337   1.12093    0.384
 4392.00    1.29500   1.14628    0.388
 4393.00    1.31852   1.16421    0.394
 4394.00    1.31999   1.17510    0.386
 4395.00    1.32127   1.18095    0.379
 4396.00    1.34235   1.18426    0.381
 4397.00    1.36093   1.18750    0.383
 4398.00    1.32455   1.19223    0.389
 4399.00    1.28980   1.19799    0.395
 4400.00    1.27523   1.20230    0.394
 4401.00    1.26192   1.20243    0.392
 4402.00    1.25915   1.19773    0.391
 4403.00    1.26046   1.19028    0.390
 4404.00    1.28729   1.18288    0.391
 4405.00    1.30835   1.17686    0.392
 4406.00    1.30098   1.17187    0.397
 4407.00    1.29339   1.16747    0.401
 4408.00    1.28494   1.16459    0.399
 4409.00    1.28198   1.16524    0.396
 4410.00    1.29722   1.17139    0.389
 4411.00    1.30624   1.18371    0.384
 4412.00    1.29784   1.20085    0.384
 4413.00    1.29639   1.21906    0.384
 4414.00    1.31159   1.23260    0.387
 4415.00    1.32981   1.23601    0.388
 4416.00    1.35428   1.22712    0.387
 4417.00    1.36114   1.20919    0.389
 4418.00    1.33631   1.19026    0.394
 4419.00    1.32459   1.17922    0.394
 4420.00    1.33349   1.18130    0.385
 4421.00    1.33697   1.19542    0.378
 4422.00    1.33295   1.21523    0.371
 4423.00    1.32823   1.23310    0.371
 4424.00    1.32263   1.24425    0.378
 4425.00    1.30534   1.24861    0.380
 4426.00    1.27550   1.24929    0.377
 4427.00    1.27107   1.24964    0.373
 4428.00    1.29069   1.25100    0.370
 4429.00    1.31318   1.25254    0.372
 4430.00    1.33807   1.25258    0.378
 4431.00    1.33879   1.24992    0.380
 4432.00    1.32175   1.24434    0.379
 4433.00    1.32107   1.23631    0.376
 4434.00    1.33092   1.22670    0.371
 4435.00    1.33277   1.21682    0.371
 4436.00    1.33013   1.20906    0.375
 4437.00    1.31018   1.20700    0.376
 4438.00    1.28174   1.21407    0.376
 4439.00    1.30643   1.23077    0.384
 4440.00    1.35366   1.25272    0.396
 4441.00    1.38383   1.27145    0.398
 4442.00    1.40781   1.27836    0.397
 4443.00    1.39015   1.26978    0.390
 4444.00    1.35968   1.24954    0.383
 4445.00    1.36145   1.22743    0.384
 4446.00    1.37147   1.21417    0.388
 4447.00    1.36012   1.21582    0.386
 4448.00    1.34431   1.23119    0.382
 4449.00    1.32117   1.25325    0.376
 4450.00    1.29683   1.27353    0.370
 4451.00    1.29829   1.28599    0.368
 4452.00    1.30292   1.28861    0.368
 4453.00    1.30870   1.28232    0.362
 4454.00    1.31458   1.26893    0.357
 4455.00    1.28677   1.25000    0.361
 4456.00    1.25730   1.22712    0.365
 4457.00    1.24816   1.20280    0.364
 4458.00    1.23954   1.18048    0.363
 4459.00    1.24357   1.16321    0.359
 4460.00    1.24706   1.15214    0.355
 4461.00    1.23975   1.14655    0.000
 4462.00    1.23440   1.14505    0.000
 4463.00    1.25198   1.14716    0.000
 4464.00    1.26684   1.15341    0.000
 4465.00    1.25966   1.16415    0.000
 4466.00    1.26031   1.17808    0.000
 4467.00    1.30858   1.19200    0.000
 4468.00    1.34704   1.20232    0.000
 4469.00    1.33845   1.20707    0.000
 4470.00    1.33289   1.20732    0.000
 4471.00    1.33916   1.20704    0.000
 4472.00    1.34308   1.21136    0.000
 4473.00    1.33931   1.22422    0.000
 4474.00    1.33828   1.24646    0.000
 4475.00    1.34475   1.27543    0.000
 4476.00    1.33988   1.30618    0.000
 4477.00    1.30832   1.33326    0.000
 4478.00    1.28407   1.35212    0.000
 4479.00    1.27471   1.35959    0.000
 4480.00    1.26459   1.35395    0.000
 4481.00    1.25311   1.33574    0.000
 4482.00    1.26138   1.30890    0.345
 4483.00    1.30027   1.28105    0.354
 4484.00    1.32516   1.26134    0.358
 4485.00    1.33100   1.25650    0.358
 4486.00    1.32574   1.26710    0.356
 4487.00    1.30720   1.28699    0.354
 4488.00    1.31669   1.30628    0.354
 4489.00    1.35583   1.31624    0.356
 4490.00    1.35180   1.31345    0.354
 4491.00    1.30752   1.30077    0.349
 4492.00    1.29233   1.28494    0.348
 4493.00    1.30106   1.27239    0.351
 4494.00    1.31532   1.26609    0.353
 4495.00    1.33356   1.26518    0.354
 4496.00    1.34216   1.26721    0.356
 4497.00    1.34461   1.27093    0.357
 4498.00    1.35336   1.27705    0.357
 4499.00    1.36561   1.28686    0.355
 4500.00    1.37421   1.30039    0.356
 4501.00    1.38106   1.31598    0.359
 4502.00    1.37904   1.33177    0.358
 4503.00    1.37332   1.34753    0.355
 4504.00    1.37746   1.36459    0.354
 4505.00    1.38511   1.38399    0.353
 4506.00    1.37410   1.40444    0.352
 4507.00    1.35746   1.42215    0.352
 4508.00    1.31057   1.43321    0.344
 4509.00    1.25609   1.43615    0.336
 4510.00    1.28506   1.43288    0.340
 4511.00    1.33099   1.42708    0.346
 4512.00    1.32372   1.42147    0.350
 4513.00    1.30796   1.41619    0.353
 4514.00    1.31896   1.40928    0.356
 4515.00    1.33313   1.39884    0.360
 4516.00    1.33079   1.38479    0.360
 4517.00    1.32712   1.36923    0.360
 4518.00    1.33717   1.35527    0.357
 4519.00    1.34785   1.34535    0.354
 4520.00    1.37451   1.34018    0.355
 4521.00    1.40104   1.33865    0.356
 4522.00    1.41017   1.33838    0.357
 4523.00    1.41657   1.33653    0.358
 4524.00    1.37174   1.33068    0.351
 4525.00    1.33058   1.31955    0.346
 4526.00    1.33055   1.30318    0.350
 4527.00    1.32949   1.28273    0.353
 4528.00    1.32042   1.25997    0.346
 4529.00    1.31559   1.23724    0.341
 4530.00    1.33585   1.21723    0.346
 4531.00    1.35291   1.20255    0.352
 4532.00    1.35503   1.19471    0.359
 4533.00    1.35912   1.19338    0.364
 4534.00    1.37073   1.19670    0.357
 4535.00    1.37613   1.20287    0.353
 4536.00    1.36178   1.21186    0.355
 4537.00    1.35681   1.22547    0.356
 4538.00    1.37722   1.24543    0.352
 4539.00    1.37927   1.27083    0.348
 4540.00    1.33880   1.29723    0.345
 4541.00    1.32552   1.31883    0.344
 4542.00    1.36673   1.33159    0.350
 4543.00    1.38371   1.33532    0.353
 4544.00    1.35839   1.33285    0.352
 4545.00    1.34127   1.32769    0.352
 4546.00    1.33670   1.32185    0.356
 4547.00    1.33724   1.31550    0.355
 4548.00    1.34465   1.30778    0.346
 4549.00    1.35094   1.29788    0.342
 4550.00    1.35590   1.28592    0.000
 4551.00    1.36237   1.27314    0.000
 4552.00    1.37041   1.26152    0.000
 4553.00    1.36248   1.25266    0.000
 4554.00    1.33987   1.24694    0.000
 4555.00    1.35187   1.24385    0.000
 4556.00    1.39192   1.24334    0.000
 4557.00    1.39599   1.24670    0.000
 4558.00    1.37440   1.25607    0.000
 4559.00    1.35800   1.27258    0.000
 4560.00    1.34485   1.29475    0.000
 4561.00    1.33485   1.31853    0.000
 4562.00    1.32656   1.33875    0.000
 4563.00    1.33446   1.35112    0.000
 4564.00    1.35004   1.35373    0.000
 4565.00    1.37051   1.34789    0.000
 4566.00    1.39298   1.33794    0.000
 4567.00    1.37124   1.32974    0.000
 4568.00    1.33399   1.32813    0.000
 4569.00    1.34420   1.33448    0.000
 4570.00    1.36844   1.34597    0.000
 4571.00    1.37178   1.35740    0.000
 4572.00    1.37000   1.36434    0.000
 4573.00    1.37112   1.36561    0.000
 4574.00    1.37280   1.36353    0.000
 4575.00    1.36481   1.36168    0.000
 4576.00    1.35532   1.36220    0.000
 4577.00    1.37088   1.36447    0.000
 4578.00    1.38931   1.36562    0.000
 4579.00    1.37975   1.36242    0.000
 4580.00    1.36805   1.35291    0.000
 4581.00    1.38013   1.33720    0.000
 4582.00    1.39320   1.31733    0.000
 4583.00    1.40511   1.29665    0.000
 4584.00    1.41623   1.27884    0.000
 4585.00    1.39395   1.26699    0.000
 4586.00    1.37433   1.26297    0.000
 4587.00    1.40105   1.26711    0.000
 4588.00    1.42338   1.27803    0.000
 4589.00    1.39880   1.29295    0.000
 4590.00    1.38015   1.30818    0.000
 4591.00    1.40628   1.32012    0.000
 4592.00    1.42457   1.32635    0.000
 4593.00    1.39776   1.32647    0.000
 4594.00    1.37214   1.32212    0.000
 4595.00    1.35195   1.31616    0.000
 4596.00    1.33957   1.31144    0.000
 4597.00    1.35643   1.30964    0.000
 4598.00    1.36634   1.31093    0.000
 4599.00    1.35452   1.31432    0.000
 4600.00    1.34859   1.31826    0.000
 4601.00    1.35829   1.32145    0.000
 4602.00    1.37189   1.32335    0.000
 4603.00    1.39442   1.32434    0.000
 4604.00    1.40917   1.32548    0.000
 4605.00    1.40857   1.32806    0.000
 4606.00    1.40446   1.33320    0.000
 4607.00    1.39433   1.34180    0.000
 4608.00    1.39643   1.35431    0.000
 4609.00    1.41696   1.37035    0.000
 4610.00    1.41445   1.38820    0.000
 4611.00    1.38145   1.40484    0.000
 4612.00    1.37427   1.41702    0.000
 4613.00    1.39718   1.42268    0.000
 4614.00    1.40633   1.42195    0.000
 4615.00    1.40134   1.41682    0.000
 4616.00    1.38869   1.40994    0.000
 4617.00    1.36908   1.40323    0.000
 4618.00    1.36704   1.39740    0.000
 4619.00    1.37902   1.39244    0.000
 4620.00    1.38851   1.38851    0.000
 4621.00    1.39625   1.38643    0.000
 4622.00    1.38873   1.38742    0.000
 4623.00    1.37179   1.39208    0.000
 4624.00    1.37175   1.39957    0.000
 4625.00    1.38081   1.40771    0.000
 4626.00    1.37362   1.41386    0.000
 4627.00    1.35882   1.41618    0.000
 4628.00    1.37920   1.41431    0.000
 4629.00    1.41377   1.40935    0.000
 4630.00    1.41309   1.40317    0.000
 4631.00    1.40030   1.39766    0.000
 4632.00    1.39678   1.39388    0.000
 4633.00    1.39595   1.39162    0.000
 4634.00    1.38990   1.38953    0.000
 4635.00    1.38259   1.38597    0.000
 4636.00    1.39575   1.38007    0.000
 4637.00    1.41287   1.37232    0.000
 4638.00    1.37415   1.36420    0.000
 4639.00    1.32705   1.35746    0.000
 4640.00    1.33362   1.35345    0.000
 4641.00    1.34610   1.35277    0.000
 4642.00    1.37691   1.35505    0.000
 4643.00    1.40905   1.35881    0.000
 4644.00    1.39183   1.36157    0.000
 4645.00    1.37275   1.36038    0.000
 4646.00    1.40435   1.35312    0.000
 4647.00    1.43495   1.33973    0.000
 4648.00    1.41912   1.32280    0.000
 4649.00    1.40511   1.30701    0.000
 4650.00    1.42087   1.29738    0.000
 4651.00    1.43360   1.29707    0.000
 4652.00    1.41519   1.30595    0.000
 4653.00    1.39577   1.32053    0.000
 4654.00    1.36905   1.33557    0.000
 4655.00    1.34630   1.34642    0.000
 4656.00    1.34580   1.35111    0.000
 4657.00    1.35245   1.35123    0.000
 4658.00    1.39102   1.35096    0.000
 4659.00    1.42064   1.35475    0.000
 4660.00    1.41746   1.36464    0.000
 4661.00    1.41911   1.37887    0.000
 4662.00    1.43554   1.39246    0.000
 4663.00    1.43631   1.39958    0.000
 4664.00    1.39625   1.39618    0.000
 4665.00    1.36865   1.38123    0.000
 4666.00    1.36900   1.35652    0.000
 4667.00    1.37719   1.32560    0.000
 4668.00    1.40058   1.29301    0.000
 4669.00    1.39565   1.26399    0.000
 4670.00    1.34274   1.24380    0.000
 4671.00    1.33402   1.23649    0.000
 4672.00    1.39087   1.24324    0.000
 4673.00    1.41711   1.26172    0.000
 4674.00    1.40344   1.28710    0.000
 4675.00    1.40327   1.31396    0.000
 4676.00    1.41859   1.33805    0.000
 4677.00    1.41315   1.35681    0.000
 4678.00    1.38669   1.36897    0.000
 4679.00    1.36893   1.37402    0.000
 4680.00    1.35896   1.37230    0.000
 4681.00    1.37074   1.36539    0.000
 4682.00    1.39965   1.35629    0.000
 4683.00    1.40016   1.34858    0.000
 4684.00    1.38100   1.34516    0.000
 4685.00    1.36934   1.34708    0.000
 4686.00    1.36224   1.35331    0.000
 4687.00    1.35766   1.36135    0.000
 4688.00    1.35441   1.36853    0.000
 4689.00    1.35032   1.37301    0.000
 4690.00    1.34583   1.37419    0.000
 4691.00    1.34542   1.37265    0.000
 4692.00    1.34661   1.36974    0.000
 4693.00    1.37450   1.36708    0.000
 4694.00    1.41141   1.36609    0.000
 4695.00    1.41098   1.36747    0.000
 4696.00    1.39995   1.37074    0.000
 4697.00    1.39677   1.37414    0.000
 4698.00    1.39542   1.37517    0.000
 4699.00    1.36299   1.37165    0.000
 4700.00    1.32472   1.36280    0.000
 4701.00    1.35767   1.34965    0.000
 4702.00    1.40099   1.33455    0.000
 4703.00    1.39904   1.32015    0.000
 4704.00    1.39230   1.30857    0.000
 4705.00    1.38077   1.30088    0.000
 4706.00    1.36891   1.29698    0.000
 4707.00    1.36457   1.29583    0.000
 4708.00    1.36049   1.29601    0.000
 4709.00    1.39002   1.29655    0.000
 4710.00    1.41784   1.29765    0.000
 4711.00    1.38832   1.30048    0.000
 4712.00    1.36061   1.30616    0.000
 4713.00    1.36069   1.31464    0.000
 4714.00    1.35988   1.32457    0.000
 4715.00    1.35039   1.33423    0.000
 4716.00    1.34242   1.34294    0.000
 4717.00    1.34516   1.35159    0.000
 4718.00    1.35076   1.36188    0.000
 4719.00    1.37195   1.37492    0.000
 4720.00    1.38763   1.39036    0.000
 4721.00    1.37929   1.40641    0.000
 4722.00    1.37249   1.42084    0.000
 4723.00    1.37120   1.43200    0.000
 4724.00    1.37377   1.43915    0.000
 4725.00    1.38796   1.44218    0.000
 4726.00    1.39117   1.44077    0.000
 4727.00    1.36625   1.43409    0.000
 4728.00    1.35424   1.42123    0.000
 4729.00    1.37069   1.40236    0.000
 4730.00    1.38520   1.37950    0.000
 4731.00    1.39599   1.35642    0.000
 4732.00    1.39848   1.33753    0.000
 4733.00    1.38711   1.32613    0.000
 4734.00    1.38394   1.32336    0.000
 4735.00    1.39278   1.32796    0.000
 4736.00    1.40740   1.33705    0.000
 4737.00    1.42946   1.34755    0.000
 4738.00    1.45135   1.35739    0.000
 4739.00    1.47303   1.36597    0.000
 4740.00    1.49664   1.37362    0.000
 4741.00    1.52216   1.38091    0.000
 4742.00    1.51500   1.38803    0.000
 4743.00    1.47905   1.39486    0.000
 4744.00    1.44946   1.40119    0.000
 4745.00    1.42480   1.40693    0.000
 4746.00    1.39764   1.41215    0.000
 4747.00    1.36876   1.41700    0.000
 4748.00    1.36018   1.42147    0.000
 4749.00    1.36373   1.42536    0.000
 4750.00    1.37624   1.42823    0.000
 4751.00    1.39344   1.42943    0.000
 4752.00    1.39854   1.42821    0.000
 4753.00    1.39817   1.42392    0.000
 4754.00    1.37626   1.41641    0.000
 4755.00    1.34595   1.40638    0.000
 4756.00    1.33767   1.39545    0.000
 4757.00    1.33670   1.38576    0.000
 4758.00    1.34455   1.37923    0.000
 4759.00    1.35486   1.37667    0.000
 4760.00    1.38222   1.37720    0.000
 4761.00    1.41348   1.37830    0.306
 4762.00    1.39276   1.37662    0.306
 4763.00    1.36253   1.36952    0.305
 4764.00    1.37922   1.35639    0.307
 4765.00    1.40252   1.33915    0.310
 4766.00    1.38053   1.32177    0.307
 4767.00    1.35395   1.30879    0.303
 4768.00    1.36982   1.30371    0.301
 4769.00    1.38845   1.30780    0.300
 4770.00    1.35839   1.31983    0.298
 4771.00    1.32693   1.33669    0.297
 4772.00    1.32934   1.35475    0.297
 4773.00    1.33298   1.37128    0.297
 4774.00    1.37236   1.38532    0.298
 4775.00    1.40504   1.39740    0.299
 4776.00    1.34097   1.40850    0.296
 4777.00    1.27974   1.41908    0.292
 4778.00    1.24529   1.42863    0.288
 4779.00    1.20713   1.43591    0.284
 4780.00    1.14363   1.43963    0.278
 4781.00    1.08733   1.43913    0.272
 4782.00    1.06923   1.43464    0.272
 4783.00    1.05455   1.42699    0.271
 4784.00    1.05445   1.41732    0.272
 4785.00    1.06599   1.40678    0.272
 4786.00    1.11843   1.39633    0.276
 4787.00    1.16480   1.38670    0.279
 4788.00    1.19323   1.37853    0.284
 4789.00    1.22042   1.37250    0.288
 4790.00    1.24450   1.36932    0.289
 4791.00    1.26752   1.36982    0.290
 4792.00    1.28824   1.37474    0.289
 4793.00    1.30515   1.38442    0.289
 4794.00    1.31488   1.39843    0.289
 4795.00    1.33244   1.41520    0.289
 4796.00    1.36286   1.43195    0.289
 4797.00    1.37202   1.44532    0.289
 4798.00    1.35055   1.45247    0.288
 4799.00    1.33588   1.45223    0.286
 4800.00    1.32981   1.44576    0.284
 4801.00    1.32405   1.43615    0.283
 4802.00    1.31862   1.42702    0.284
 4803.00    1.33489   1.42088    0.286
 4804.00    1.37253   1.41813    0.287
 4805.00    1.37832   1.41714    0.288
 4806.00    1.35644   1.41562    0.287
 4807.00    1.33677   1.41209    0.287
 4808.00    1.31878   1.40667    0.287
 4809.00    1.32855   1.40077    0.286
 4810.00    1.35700   1.39625    0.284
 4811.00    1.36705   1.39443    0.284
 4812.00    1.36625   1.39567    0.285
 4813.00    1.35670   1.39957    0.285
 4814.00    1.34264   1.40546    0.285
 4815.00    1.35937   1.41290    0.286
 4816.00    1.38980   1.42163    0.288
 4817.00    1.39606   1.43149    0.289
 4818.00    1.39306   1.44200    0.289
 4819.00    1.37247   1.45220    0.288
 4820.00    1.34616   1.46048    0.288
 4821.00    1.35016   1.46478    0.287
 4822.00    1.36243   1.46321    0.287
 4823.00    1.37189   1.45485    0.288
 4824.00    1.38074   1.44036    0.288
 4825.00    1.38211   1.42240    0.291
 4826.00    1.38215   1.40496    0.294
 4827.00    1.38550   1.39196    0.292
 4828.00    1.38930   1.38550    0.290
 4829.00    1.39465   1.38517    0.289
 4830.00    1.40014   1.38854    0.289
 4831.00    1.39142   1.39260    0.289
 4832.00    1.38183   1.39515    0.289
 4833.00    1.38469   1.39551    0.288
 4834.00    1.38785   1.39442    0.286
 4835.00    1.38589   1.39322    0.287
 4836.00    1.38424   1.39274    0.288
 4837.00    1.39067   1.39286    0.287
 4838.00    1.39474   1.39270    0.287
 4839.00    1.36659   1.39121    0.285
 4840.00    1.34028   1.38764    0.284
 4841.00    1.33059   1.38211    0.282
 4842.00    1.32372   1.37570    0.279
 4843.00    1.33561   1.36994    0.280
 4844.00    1.34623   1.36603    0.280
 4845.00    1.35032   1.36434    0.283
 4846.00    1.35798   1.36417    0.286
 4847.00    1.38050   1.36404    0.287
 4848.00    1.39658   1.36230    0.000
 4849.00    1.39046   1.35784    0.000
 4850.00    1.38529   1.35075    0.000
 4851.00    1.38290   1.34204    0.000
 4852.00    1.38278   1.33252    0.000
 4853.00    1.38830   1.32196    0.000
 4854.00    1.38327   1.30908    0.000
 4855.00    1.35575   1.29201    0.000
 4856.00    1.33043   1.26924    0.000
 4857.00    1.30918   1.24050    0.000
 4858.00    1.30597   1.20655    0.000
 4859.00    1.33197   1.16841    0.000
 4860.00    1.33934   1.12714    0.000
 4861.00    1.32024   1.08414    0.000
 4862.00    1.31395   1.04222    0.000
 4863.00    1.32368   1.00644    0.000
 4864.00    1.33265   0.98306    0.000
 4865.00    1.34077   0.97721    0.000
 4866.00    1.34741   0.99076    0.000
 4867.00    1.35263   1.02111    0.000
 4868.00    1.34942   1.06183    0.000
 4869.00    1.33901   1.10455    0.000
 4870.00    1.33751   1.14195    0.000
 4871.00    1.34272   1.16938    0.000
 4872.00    1.35500   1.18565    0.000
 4873.00    1.37197   1.19296    0.000
 4874.00    1.38646   1.19575    0.000
 4875.00    1.39951   1.19899    0.294
 4876.00    1.38632   1.20640    0.292
 4877.00    1.35986   1.21976    0.290
 4878.00    1.35826   1.23857    0.288
 4879.00    1.36756   1.26079    0.286
 4880.00    1.37086   1.28367    0.286
 4881.00    1.37191   1.30443    0.286
 4882.00    1.38377   1.32046    0.287
 4883.00    1.39909   1.32981    0.288
 4884.00    1.39755   1.33166    0.290
 4885.00    1.39152   1.32669    0.293
 4886.00    1.38998   1.31682    0.291
 4887.00    1.38942   1.30470    0.288
 4888.00    1.37742   1.29268    0.290
 4889.00    1.36345   1.28230    0.292
 4890.00    1.37581   1.27443    0.292
 4891.00    1.39165   1.26959    0.292
 4892.00    1.39683   1.26878    0.289
 4893.00    1.40102   1.27385    0.286
 4894.00    1.41004   1.28676    0.287
 4895.00    1.41933   1.30844    0.288
 4896.00    1.37441   1.33748    0.289
 4897.00    1.32881   1.36982    0.290
 4898.00    1.34460   1.39990    0.289
 4899.00    1.35961   1.42265    0.288
 4900.00    1.35632   1.43500    0.289
 4901.00    1.35337   1.43671    0.290
 4902.00    1.35496   1.43052    0.286
 4903.00    1.35580   1.42064    0.282
 4904.00    1.35003   1.41125    0.286
 4905.00    1.34349   1.40531    0.288
 4906.00    1.33191   1.40382    0.287
 4907.00    1.32552   1.40572    0.286
 4908.00    1.34522   1.40821    0.289
 4909.00    1.36552   1.40815    0.291
 4910.00    1.38831   1.40342    0.293
 4911.00    1.40123   1.39375    0.294
 4912.00    1.38087   1.38130    0.292
 4913.00    1.37283   1.37004    0.291
 4914.00    1.39983   1.36372    0.294
 4915.00    1.40937   1.36384    0.294
 4916.00    1.37647   1.36871    0.289
 4917.00    1.35566   1.37385    0.285
 4918.00    1.36023   1.37356    0.286
 4919.00    1.36128   1.36351    0.286
 4920.00    1.35590   1.34279    0.284
 4921.00    1.35027   1.31428    0.284
 4922.00    1.34422   1.28370    0.285
 4923.00    1.34465   1.25803    0.287
 4924.00    1.35414   1.24291    0.287
 4925.00    1.36887   1.24098    0.288
 4926.00    1.39007   1.25207    0.289
 4927.00    1.39088   1.27402    0.289
 4928.00    1.36957   1.30329    0.288
 4929.00    1.36027   1.33586    0.287
 4930.00    1.36249   1.36760    0.286
 4931.00    1.37084   1.39432    0.284
 4932.00    1.38436   1.41249    0.282
 4933.00    1.37171   1.42028    0.281
 4934.00    1.33959   1.41768    0.279
 4935.00    1.32307   1.40629    0.279
 4936.00    1.31675   1.38905    0.278
 4937.00    1.33114   1.36954    0.280
 4938.00    1.35737   1.35105    0.283
 4939.00    1.36202   1.33604    0.283
 4940.00    1.35593   1.32647    0.000
 4941.00    1.35349   1.32402    0.000
 4942.00    1.35263   1.32970    0.000
 4943.00    1.36211   1.34329    0.000
 4944.00    1.37542   1.36279    0.000
 4945.00    1.38658   1.38481    0.000
 4946.00    1.39707   1.40572    0.000
 4947.00    1.41153   1.42281    0.000
 4948.00    1.42702   1.43495    0.000
 4949.00    1.41212   1.44278    0.000
 4950.00    1.39074   1.44774    0.000
 4951.00    1.40233   1.45125    0.000
 4952.00    1.41946   1.45395    0.000
 4953.00    1.41745   1.45525    0.000
 4954.00    1.41301   1.45365    0.000
 4955.00    1.38032   1.44738    0.000
 4956.00    1.34513   1.43546    0.000
 4957.00    1.34779   1.41853    0.000
 4958.00    1.35246   1.39898    0.000
 4959.00    1.36548   1.38046    0.000
 4960.00    1.37834   1.36727    0.000
 4961.00    1.36618   1.36286    0.000
 4962.00    1.35457   1.36823    0.000
 4963.00    1.35501   1.38120    0.000
 4964.00    1.35619   1.39717    0.000
 4965.00    1.36648   1.41101    0.000
 4966.00    1.37553   1.41888    0.000
 4967.00    1.37426   1.41922    0.000
 4968.00    1.37162   1.41295    0.000
 4969.00    1.36052   1.40332    0.000
 4970.00    1.35093   1.39448    0.000
 4971.00    1.34876   1.38950    0.000
 4972.00    1.34885   1.38978    0.000
 4973.00    1.35792   1.39535    0.000
 4974.00    1.36874   1.40504    0.000
 4975.00    1.38535   1.41661    0.000
 4976.00    1.39324   1.42715    0.000
 4977.00    1.37676   1.43398    0.000
 4978.00    1.36746   1.43500    0.000
 4979.00    1.37535   1.42878    0.000
 4980.00    1.38500   1.41453    0.000
 4981.00    1.39829   1.39252    0.000
 4982.00    1.39922   1.36444    0.000
 4983.00    1.37795   1.33306    0.000
 4984.00    1.36523   1.30223    0.000
 4985.00    1.36592   1.27662    0.000
 4986.00    1.36374   1.26043    0.000
 4987.00    1.35760   1.25628    0.000
 4988.00    1.35777   1.26422    0.000
 4989.00    1.36561   1.28141    0.000
 4990.00    1.36687   1.30339    0.000
 4991.00    1.36108   1.32522    0.000
 4992.00    1.35377   1.34275    0.000
 4993.00    1.34503   1.35406    0.000
 4994.00    1.34697   1.35995    0.000
 4995.00    1.35780   1.36261    0.000
 4996.00    1.35761   1.36409    0.000
 4997.00    1.34935   1.36555    0.000
 4998.00    1.34995   1.36661    0.000
 4999.00    1.35625   1.36570    0.000
 5000.00    1.36303   1.36118    0.000
 5001.00    1.37008   1.35207    0.000
 5002.00    1.37493   1.33893    0.000
 5003.00    1.37871   1.32325    0.000
 5004.00    1.38367   1.30646    0.000
 5005.00    1.38913   1.29057    0.000
 5006.00    1.38552   1.27756    0.000
 5007.00    1.37862   1.26870    0.000
 5008.00    1.37049   1.26474    0.000
 5009.00    1.36198   1.26564    0.000
 5010.00    1.36193   1.27023    0.000
 5011.00    1.36405   1.27623    0.000
 5012.00    1.36517   1.28067    0.000
 5013.00    1.36608   1.28102    0.000
 5014.00    1.35783   1.27621    0.000
 5015.00    1.34808   1.26646    0.000
 5016.00    1.34479   1.25321    0.000
 5017.00    1.34228   1.23948    0.000
 5018.00    1.35587   1.22872    0.000
 5019.00    1.37082   1.22280    0.000
 5020.00    1.35428   1.22181    0.000
 5021.00    1.33620   1.22527    0.000
 5022.00    1.36195   1.23258    0.000
 5023.00    1.38782   1.24310    0.000
 5024.00    1.38003   1.25606    0.000
 5025.00    1.37258   1.27055    0.000
 5026.00    1.37193   1.28551    0.000
 5027.00    1.37061   1.29934    0.000
 5028.00    1.36151   1.31055    0.000
 5029.00    1.35491   1.31901    0.280
 5030.00    1.36855   1.32608    0.279
 5031.00    1.38166   1.33335    0.278
 5032.00    1.39152   1.34160    0.276
 5033.00    1.39644   1.35074    0.275
 5034.00    1.37772   1.35968    0.275
 5035.00    1.36275   1.36664    0.276
 5036.00    1.36241   1.36930    0.279
 5037.00    1.36245   1.36520    0.281
 5038.00    1.36375   1.35345    0.278
 5039.00    1.36341   1.33502    0.276
 5040.00    1.35856   1.31203    0.273
 5041.00    1.35874   1.28793    0.272
 5042.00    1.37073   1.26715    0.273
 5043.00    1.37788   1.25427    0.273
 5044.00    1.37517   1.25258    0.271
 5045.00    1.37310   1.26246    0.269
 5046.00    1.37214   1.28178    0.270
 5047.00    1.36782   1.30649    0.271
 5048.00    1.35831   1.33100    0.272
 5049.00    1.35468   1.34957    0.272
 5050.00    1.35905   1.35791    0.271
 5051.00    1.36498   1.35538    0.272
 5052.00    1.37280   1.34615    0.274
 5053.00    1.37164   1.33601    0.274
 5054.00    1.36100   1.32977    0.273
 5055.00    1.36096   1.33055    0.270
 5056.00    1.37079   1.33931    0.267
 5057.00    1.37365   1.35426    0.266
 5058.00    1.37078   1.37212    0.268
 5059.00    1.36991   1.39012    0.270
 5060.00    1.37048   1.40652    0.270
 5061.00    1.37422   1.41974    0.269
 5062.00    1.37997   1.42845    0.267
 5063.00    1.37764   1.43184    0.267
 5064.00    1.37084   1.42965    0.269
 5065.00    1.36589   1.42174    0.270
 5066.00    1.36184   1.40840    0.271
 5067.00    1.35748   1.39131    0.268
 5068.00    1.35299   1.37334    0.265
 5069.00    1.33843   1.35718    0.262
 5070.00    1.32029   1.34458    0.260
 5071.00    1.33670   1.33645    0.262
 5072.00    1.36351   1.33293    0.266
 5073.00    1.38488   1.33252    0.268
 5074.00    1.40490   1.33248    0.270
 5075.00    1.39689   1.33184    0.270
 5076.00    1.38321   1.33081    0.270
 5077.00    1.37290   1.32833    0.271
 5078.00    1.36313   1.32257    0.272
 5079.00    1.34308   1.31358    0.267
 5080.00    1.32181   1.30238    0.261
 5081.00    1.31753   1.28910    0.260
 5082.00    1.31462   1.27502    0.259
 5083.00    1.29857   1.26371    0.257
 5084.00    1.28193   1.25802    0.254
 5085.00    1.24339   1.25888    0.254
 5086.00    1.20560   1.26656    0.254
 5087.00    1.21791   1.28087    0.249
 5088.00    1.23050   1.29887    0.245
 5089.00    1.24821   1.31652    0.245
 5090.00    1.26525   1.33216    0.246
 5091.00    1.27472   1.34629    0.250
 5092.00    1.28646   1.35900    0.254
 5093.00    1.31592   1.36968    0.257
 5094.00    1.34351   1.37820    0.261
 5095.00    1.36008   1.38400    0.265
 5096.00    1.36785   1.38513    0.269
 5097.00    1.33455   1.37968    0.265
 5098.00    1.30455   1.36762    0.262
 5099.00    1.28718   1.35071    0.259
 5100.00    1.27561   1.33166    0.257
 5101.00    1.28249   1.31402    0.258
 5102.00    1.28751   1.30150    0.258
 5103.00    1.28748   1.29641    0.258
 5104.00    1.29033   1.29873    0.260
 5105.00    1.29985   1.30620    0.265
 5106.00    1.31327   1.31525    0.269
 5107.00    1.33449   1.32218    0.268
 5108.00    1.34562   1.32406    0.266
 5109.00    1.33915   1.32048    0.264
 5110.00    1.32941   1.31414    0.263
 5111.00    1.31465   1.30845    0.263
 5112.00    1.31244   1.30586    0.264
 5113.00    1.32703   1.30770    0.268
 5114.00    1.34351   1.31453    0.270
 5115.00    1.36219   1.32592    0.271
 5116.00    1.37091   1.34009    0.272
 5117.00    1.36928   1.35493    0.274
 5118.00    1.36541   1.36846    0.275
 5119.00    1.35947   1.37835    0.275
 5120.00    1.35481   1.38308    0.275
 5121.00    1.35118   1.38203    0.274
 5122.00    1.34765   1.37474    0.272
 5123.00    1.34421   1.36148    0.269
 5124.00    1.33450   1.34329    0.269
 5125.00    1.32088   1.32204    0.270
 5126.00    1.32546   1.30057    0.269
 5127.00    1.33999   1.28155    0.267
 5128.00    1.33879   1.26680    0.267
 5129.00    1.33012   1.25728    0.268
 5130.00    1.34554   1.25338    0.270
 5131.00    1.37080   1.25456    0.272
 5132.00    1.37632   1.25933    0.269
 5133.00    1.37494   1.26650    0.265
 5134.00    1.36638   1.27554    0.266
 5135.00    1.35570   1.28555    0.270
 5136.00    1.35351   1.29514    0.270
 5137.00    1.35340   1.30246    0.270
 5138.00    1.35411   1.30571    0.269
 5139.00    1.35499   1.30472    0.269
 5140.00    1.34901   1.30037    0.266
 5141.00    1.34196   1.29336    0.263
 5142.00    1.32774   1.28482    0.264
 5143.00    1.31270   1.27700    0.265
 5144.00    1.30769   1.27180    0.265
 5145.00    1.30345   1.26934    0.265
 5146.00    1.31312   1.26901    0.267
 5147.00    1.32335   1.26950    0.268
 5148.00    1.33177   1.26946    0.266
 5149.00    1.34001   1.26973    0.264
 5150.00    1.34178   1.27068    0.263
 5151.00    1.34429   1.27056    0.262
 5152.00    1.35974   1.26884    0.266
 5153.00    1.37319   1.26697    0.270
 5154.00    1.36539   1.26611    0.267
 5155.00    1.35802   1.26665    0.264
 5156.00    1.35385   1.26898    0.263
 5157.00    1.35019   1.27419    0.262
 5158.00    1.34945   1.28344    0.263
 5159.00    1.35120   1.29616    0.264
 5160.00    1.36435   1.31032    0.264
 5161.00    1.37428   1.32335    0.263
 5162.00    1.37218   1.33204    0.263
 5163.00    1.36917   1.33344    0.263
 5164.00    1.36334   1.32559    0.265
 5165.00    1.35699   1.30785    0.268
 5166.00    1.34926   1.28083    0.274
 5167.00    1.34371   1.24610    0.277
 5168.00    1.34310   1.20697    0.276
 5169.00    1.34347   1.16801    0.275
 5170.00    1.34578   1.13199    0.276
 5171.00    1.34576   1.10106    0.276
 5172.00    1.34176   1.07948    0.276
 5173.00    1.33777   1.07119    0.274
 5174.00    1.33378   1.07728    0.270
 5175.00    1.33353   1.09572    0.268
 5176.00    1.33821   1.12235    0.270
 5177.00    1.33552   1.15309    0.268
 5178.00    1.32426   1.18682    0.264
 5179.00    1.30172   1.22330    0.261
 5180.00    1.26761   1.25667    0.260
 5181.00    1.25456   1.27729    0.260
 5182.00    1.26057   1.28036    0.260
 5183.00    1.25620   1.26875    0.261
 5184.00    1.24356   1.24792    0.263
 5185.00    1.25355   1.22292    0.264
 5186.00    1.27942   1.19972    0.264
 5187.00    1.29246   1.18379    0.264
 5188.00    1.29759   1.17853    0.262
 5189.00    1.30222   1.18516    0.264
 5190.00    1.30658   1.20228    0.000
 5191.00    1.32018   1.22359    0.000
 5192.00    1.33810   1.24031    0.000
 5193.00    1.34645   1.24823    0.000
 5194.00    1.35095   1.24839    0.000
 5195.00    1.35252   1.24504    0.000
 5196.00    1.35308   1.24081    0.000
 5197.00    1.34685   1.23666    0.000
 5198.00    1.33867   1.23707    0.000
 5199.00    1.35223   1.24509    0.000
 5200.00    1.37099   1.25687    0.000
 5201.00    1.36657   1.26842    0.000
 5202.00    1.35769   1.27944    0.000
 5203.00    1.35175   1.28763    0.000
 5204.00    1.34624   1.28962    0.000
 5205.00    1.34945   1.28441    0.000
 5206.00    1.35362   1.27211    0.000
 5207.00    1.34880   1.25429    0.000
 5208.00    1.34333   1.23480    0.000
 5209.00    1.35780   1.21793    0.000
 5210.00    1.37301   1.20669    0.000
 5211.00    1.36349   1.20463    0.263
 5212.00    1.35399   1.21365    0.261
 5213.00    1.34910   1.23040    0.259
 5214.00    1.34536   1.24973    0.257
 5215.00    1.36025   1.26967    0.259
 5216.00    1.37313   1.28792    0.260
 5217.00    1.36550   1.30186    0.259
 5218.00    1.35913   1.31151    0.258
 5219.00    1.36199   1.31791    0.259
 5220.00    1.36498   1.32289    0.260
 5221.00    1.36866   1.32895    0.259
 5222.00    1.37033   1.33738    0.258
 5223.00    1.36306   1.34571    0.259
 5224.00    1.36109   1.34879    0.260
 5225.00    1.37846   1.34220    0.264
 5226.00    1.38998   1.32548    0.266
 5227.00    1.38359   1.30230    0.262
 5228.00    1.37653   1.27712    0.260
 5229.00    1.36770   1.25456    0.262
 5230.00    1.35949   1.23914    0.262
 5231.00    1.35267   1.23314    0.259
 5232.00    1.34984   1.23666    0.257
 5233.00    1.35475   1.24872    0.257
 5234.00    1.35893   1.26463    0.256
 5235.00    1.36188   1.27760    0.254
 5236.00    1.36474   1.28572    0.254
 5237.00    1.36746   1.29141    0.256
 5238.00    1.36637   1.29744    0.256
 5239.00    1.36032   1.30691    0.253
 5240.00    1.35525   1.32124    0.251
 5241.00    1.35131   1.33797    0.251
 5242.00    1.34590   1.35389    0.251
 5243.00    1.33903   1.36699    0.252
 5244.00    1.34346   1.37637    0.253
 5245.00    1.35800   1.38164    0.254
 5246.00    1.36584   1.38288    0.254
 5247.00    1.36841   1.38025    0.254
 5248.00    1.36154   1.37369    0.254
 5249.00    1.34815   1.36410    0.254
 5250.00    1.34756   1.35258    0.254
 5251.00    1.35472   1.33951    0.256
 5252.00    1.34902   1.32677    0.258
 5253.00    1.33653   1.31764    0.259
 5254.00    1.33973   1.31314    0.259
 5255.00    1.35013   1.31243    0.258
 5256.00    1.36146   1.31595    0.258
 5257.00    1.37316   1.32412    0.258
 5258.00    1.37007   1.33459    0.259
 5259.00    1.36200   1.34418    0.259
 5260.00    1.35807   1.35122    0.259
 5261.00    1.35531   1.35466    0.259
 5262.00    1.35181   1.35165    0.262
 5263.00    1.34813   1.33807    0.265
 5264.00    1.34876   1.31264    0.269
 5265.00    1.35020   1.27834    0.272
 5266.00    1.34971   1.24042    0.276
 5267.00    1.34894   1.20359    0.280
 5268.00    1.35007   1.17122    0.281
 5269.00    1.35141   1.14656    0.280
 5270.00    1.34264   1.13193    0.279
 5271.00    1.33317   1.12748    0.278
 5272.00    1.35320   1.13164    0.275
 5273.00    1.37421   1.14081    0.273
 5274.00    1.38062   1.15165    0.272
 5275.00    1.38628   1.16690    0.271
 5276.00    1.36867   1.19026    0.266
 5277.00    1.35230   1.21747    0.261
 5278.00    1.35483   1.24197    0.263
 5279.00    1.35759   1.26279    0.265
 5280.00    1.36272   1.28132    0.261
 5281.00    1.36622   1.29808    0.257
 5282.00    1.35828   1.31211    0.257
 5283.00    1.35076   1.32036    0.255
 5284.00    1.34549   1.32230    0.251
 5285.00    1.34496   1.32189    0.249
 5286.00    1.36511   1.32369    0.251
 5287.00    1.37879   1.33038    0.254
 5288.00    1.36936   1.34268    0.253
 5289.00    1.36425   1.36065    0.253
 5290.00    1.37211   1.38311    0.252
 5291.00    1.37390   1.40522    0.251
 5292.00    1.36014   1.42128    0.249
 5293.00    1.35355   1.42980    0.248
 5294.00    1.36271   1.43225    0.251
 5295.00    1.37072   1.42894    0.253
 5296.00    1.37652   1.41890    0.253
 5297.00    1.37790   1.40264    0.253
 5298.00    1.37190   1.38330    0.252
 5299.00    1.37147   1.36415    0.252
 5300.00    1.37917   1.34651    0.253
 5301.00    1.38522   1.33143    0.254
 5302.00    1.38916   1.32175    0.253
 5303.00    1.38826   1.32125    0.252
 5304.00    1.38189   1.33041    0.251
 5305.00    1.37507   1.34456    0.250
 5306.00    1.36781   1.35888    0.249
 5307.00    1.36628   1.37305    0.249
 5308.00    1.36979   1.38807    0.250
 5309.00    1.36748   1.40228    0.249
 5310.00    1.36065   1.41295    0.247
 5311.00    1.35843   1.41940    0.248
 5312.00    1.35935   1.42305    0.249
 5313.00    1.36193   1.42551    0.251
 5314.00    1.36549   1.42631    0.255
 5315.00    1.36303   1.42328    0.252
 5316.00    1.35743   1.41613    0.247
 5317.00    1.34649   1.40663    0.246
 5318.00    1.33313   1.39645    0.248
 5319.00    1.34291   1.38725    0.251
 5320.00    1.36169   1.37970    0.254
 5321.00    1.34675   1.37360    0.254
 5322.00    1.32068   1.36967    0.252
 5323.00    1.30971   1.36709    0.253
 5324.00    1.30292   1.36271    0.254
 5325.00    1.31328   1.35415    0.255
 5326.00    1.32755   1.34004    0.256
 5327.00    1.34793   1.31990    0.256
 5328.00    1.36943   1.29618    0.256
 5329.00    1.36708   1.27368    0.256
 5330.00    1.36137   1.25718    0.256
 5331.00    1.37062   1.24771    0.257
 5332.00    1.38136   1.24379    0.257
 5333.00    1.39137   1.24820    0.255
 5334.00    1.40132   1.26543    0.253
 5335.00    1.36708   1.29114    0.250
 5336.00    1.33161   1.31513    0.246
 5337.00    1.33502   1.33228    0.248
 5338.00    1.33860   1.34286    0.250
 5339.00    1.34704   1.34799    0.250
 5340.00    1.35518   1.34794    0.250
 5341.00    1.35905   1.34373    0.248
 5342.00    1.36106   1.33832    0.246
 5343.00    1.34569   1.33451    0.244
 5344.00    1.33318   1.33214    0.243
 5345.00    1.34015   1.33176    0.242
 5346.00    1.34370   1.33639    0.241
 5347.00    1.32913   1.34457    0.241
 5348.00    1.31840   1.35080    0.241
 5349.00    1.32392   1.35339    0.242
 5350.00    1.33222   1.35417    0.244
 5351.00    1.35027   1.35588    0.246
 5352.00    1.36328   1.36059    0.247
 5353.00    1.36142   1.36781    0.244
 5354.00    1.36273   1.37816    0.242
 5355.00    1.37199   1.39336    0.241
 5356.00    1.37716   1.41165    0.240
 5357.00    1.37348   1.42890    0.239
 5358.00    1.36763   1.44348    0.238
 5359.00    1.35772   1.45584    0.239
 5360.00    1.35364   1.46438    0.239
 5361.00    1.35914   1.46662    0.239
 5362.00    1.35689   1.46277    0.240
 5363.00    1.34348   1.45390    0.241
 5364.00    1.33865   1.44069    0.242
 5365.00    1.34467   1.42419    0.245
 5366.00    1.34318   1.40561    0.246
 5367.00    1.33331   1.38708    0.246
 5368.00    1.33134   1.37063   -2.000
 5369.00    1.33714   1.35514   -2.000
 5370.00    1.34228   1.33997   -2.000
 5371.00    1.34685   1.32724   -2.000
 5372.00    1.35337   1.31791   -2.000
 5373.00    1.36137   1.31245   -2.000
 5374.00    1.36258   1.31158   -2.000
 5375.00    1.35923   1.31612   -2.000
 5376.00    1.36537   1.32862   -2.000
 5377.00    1.37709   1.34934   -2.000
 5378.00    1.37767   1.37240   -2.000
 5379.00    1.37254   1.39060   -2.000
 5380.00    1.36715   1.40176   -2.000
 5381.00    1.36165   1.40632   -2.000
 5382.00    1.36996   1.40571   -2.000
 5383.00    1.38354   1.40261    0.250
 5384.00    1.37992   1.39819    0.249
 5385.00    1.37072   1.39330    0.249
 5386.00    1.35678   1.39051    0.246
 5387.00    1.34155   1.39028    0.243
 5388.00    1.33840   1.39111    0.241
 5389.00    1.33794   1.39263    0.240
 5390.00    1.34718   1.39285    0.241
 5391.00    1.35813   1.38912    0.244
 5392.00    1.35620   1.38174    0.245
 5393.00    1.35251   1.37194    0.246
 5394.00    1.35845   1.36051    0.246
 5395.00    1.36532   1.34829    0.245
 5396.00    1.35833   1.33609    0.248
 5397.00    1.35050   1.32521    0.251
 5398.00    1.35313   1.31666    0.247
 5399.00    1.35601   1.31027    0.244
 5400.00    1.35513   1.30535    0.240
 5401.00    1.35446   1.30145    0.237
 5402.00    1.35944   1.30023    0.239
 5403.00    1.36382   1.30206    0.241
 5404.00    1.35985   1.30212    0.242
 5405.00    1.35477   1.29703    0.243
 5406.00    1.33955   1.28901    0.240
 5407.00    1.32769   1.27947    0.237
 5408.00    1.33794   1.26763    0.239
 5409.00    1.34804   1.25622    0.240
 5410.00    1.35732   1.25105    0.242
 5411.00    1.36490   1.25502    0.242
 5412.00    1.36542   1.26557    0.238
 5413.00    1.36268   1.27759    0.236
 5414.00    1.34871   1.28949    0.238
 5415.00    1.34275   1.30417    0.239
 5416.00    1.35995   1.32247    0.240
 5417.00    1.37095   1.33996    0.240
 5418.00    1.36663   1.35271    0.240
 5419.00    1.35596   1.36136    0.238
 5420.00    1.33175   1.36863    0.236
 5421.00    1.32455   1.37490    0.235
 5422.00    1.34881   1.37708    0.239
 5423.00    1.36163   1.37392    0.241
 5424.00    1.35598   1.36846    0.240
 5425.00    1.35253   1.36406    0.240
 5426.00    1.35222   1.36165    0.241
 5427.00    1.35449   1.35926    0.241
 5428.00    1.35998   1.35426    0.242
 5429.00    1.36379   1.34936    0.242
 5430.00    1.36574   1.34819    0.243
 5431.00    1.36606   1.34741    0.243
 5432.00    1.36478   1.34173    0.243
 5433.00    1.37708   1.33059    0.244
 5434.00    1.40099   1.31920    0.248
 5435.00    1.39665   1.31379    0.248
 5436.00    1.37102   1.31346    0.245
 5437.00    1.35565   1.31443    0.244
 5438.00    1.34708   1.31834    0.243
 5439.00    1.34421   1.32861    0.241
 5440.00    1.34463   1.34535    0.239
 5441.00    1.35173   1.36578    0.239
 5442.00    1.36219   1.38604    0.240
 5443.00    1.36094   1.40240    0.239
 5444.00    1.35458   1.41164    0.237
 5445.00    1.35500   1.41220    0.236
 5446.00    1.35798   1.40513    0.235
 5447.00    1.37206   1.39355    0.237
 5448.00    1.38966   1.37972    0.240
 5449.00    1.38252   1.36549    0.240
 5450.00    1.36879   1.35402    0.239
 5451.00    1.35702   1.34924    0.237
 5452.00    1.34566   1.35330    0.234
 5453.00    1.34085   1.36223    0.235
 5454.00    1.33718   1.36858    0.238
 5455.00    1.36084   1.36980    0.240
 5456.00    1.38808   1.36788    0.242
 5457.00    1.38614   1.36426    0.239
 5458.00    1.38150   1.35948    0.236
 5459.00    1.37042   1.35473    0.236
 5460.00    1.35898   1.35363    0.236
 5461.00    1.36671   1.35847    0.235
 5462.00    1.37478   1.36574    0.233
 5463.00    1.37303   1.37057    0.232
 5464.00    1.37133   1.37150    0.232
 5465.00    1.37070   1.36935    0.233
 5466.00    1.37047   1.36576    0.234
 5467.00    1.37530   1.36271    0.235
 5468.00    1.37941   1.36264    0.235
 5469.00    1.37722   1.36601    0.235
 5470.00    1.37640   1.36975    0.234
 5471.00    1.38435   1.37191    0.237
 5472.00    1.38864   1.37250    0.239
 5473.00    1.37461   1.37075    0.237
 5474.00    1.36221   1.36511    0.236
 5475.00    1.35645   1.35489    0.238
 5476.00    1.34904   1.34143    0.240
 5477.00    1.33610   1.32709    0.238
 5478.00    1.32722   1.31417   -2.000
 5479.00    1.32987   1.30342   -2.000
 5480.00    1.33472   1.29397   -2.000
 5481.00    1.34489   1.28854   -2.000
 5482.00    1.34780   1.29188   -2.000
 5483.00    1.33549   1.30234   -2.000
 5484.00    1.31069   1.31366   -2.000
 5485.00    1.26313   1.32288   -2.000
 5486.00    1.19579   1.33195   -2.000
 5487.00    1.09697   1.34251   -2.000
 5488.00    1.09523   1.35272   -2.000
 5489.00    1.22912   1.35971   -2.000
 5490.00    1.32976   1.36239   -2.000
 5491.00    1.38954   1.36171   -2.000
 5492.00    1.42829   1.36048   -2.000
 5493.00    1.44425   1.36089   -2.000
 5494.00    1.43376   1.36227   -2.000
 5495.00    1.39798   1.36330   -2.000
 5496.00    1.36849   1.36341   -2.000
 5497.00    1.34430   1.36282   -2.000
 5498.00    1.33791   1.36299   -2.000
 5499.00    1.34474   1.36398   -2.000
 5500.00    1.33678   1.36331   -2.000
 5501.00    1.31917   1.36013   -2.000
 5502.00    1.32193   1.35738    0.230
 5503.00    1.33633   1.35652    0.229
 5504.00    1.34044   1.35402    0.231
 5505.00    1.33944   1.34719    0.235
 5506.00    1.34789   1.33948    0.235
 5507.00    1.36039   1.33493    0.234
 5508.00    1.35294   1.33280    0.233
 5509.00    1.33812   1.33019    0.232
 5510.00    1.32634   1.32621    0.230
 5511.00    1.31552   1.32340    0.228
 5512.00    1.31465   1.32344    0.228
 5513.00    1.31639   1.32406    0.229
 5514.00    1.31958   1.32378    0.232
 5515.00    1.32308   1.32370    0.234
 5516.00    1.34359   1.32512    0.234
 5517.00    1.36696   1.32975    0.233
 5518.00    1.35521   1.33800    0.233
 5519.00    1.33900   1.34832    0.234
 5520.00    1.34280   1.35923    0.234
 5521.00    1.34836   1.36991    0.233
 5522.00    1.33656   1.37973    0.234
 5523.00    1.32386   1.38678    0.235
 5524.00    1.32647   1.38906    0.234
 5525.00    1.32922   1.38671    0.234
 5526.00    1.32098   1.38063    0.232
 5527.00    1.31362   1.37138    0.231
 5528.00    1.32529   1.36008    0.233
 5529.00    1.33646   1.34837    0.235
 5530.00    1.34160   1.33790    0.235
 5531.00    1.34654   1.33001    0.235
 5532.00    1.34978   1.32602    0.235
 5533.00    1.35296   1.32736    0.236
 5534.00    1.35565   1.33297    0.236
 5535.00    1.35550   1.33929    0.236
 5536.00    1.34144   1.34408    0.234
 5537.00    1.32926   1.34739    0.232
 5538.00    1.32454   1.35015    0.231
 5539.00    1.32521   1.35367    0.260
 5540.00    1.34367   1.35930    0.614
 5541.00    1.35511   1.36589   -1.000
 5542.00    1.34695   1.37134   -1.000
 5543.00    1.34528   1.37596   -1.000
 5544.00    1.35908   1.37999   -1.000
 5545.00    1.36690   1.38218   -1.000
 5546.00    1.36239   1.38178   -1.000
 5547.00    1.35746   1.38011    1.280
 5548.00    1.35177   1.37992    0.337
 5549.00    1.35322   1.38215    0.232
 5550.00    1.36585   1.38589    0.230
 5551.00    1.36363   1.39111    0.228
 5552.00    1.34097   1.39726    0.225
 5553.00    1.32674   1.40216    0.224
 5554.00    1.32273   1.40458    0.226
 5555.00    1.33092   1.40459    0.227
 5556.00    1.35216   1.40242    0.229
 5557.00    1.35898   1.39850    0.230
 5558.00    1.35222   1.39393    0.231
 5559.00    1.34461   1.39026    0.229
 5560.00    1.33630   1.38777    0.226
 5561.00    1.33748   1.38504    0.226
 5562.00    1.34559   1.38166    0.227
 5563.00    1.35093   1.37835    0.228
 5564.00    1.35449   1.37457    0.230
 5565.00    1.34974   1.36942    0.231
 5566.00    1.34032   1.36308    0.231
 5567.00    1.33604   1.35688    0.231
 5568.00    1.33427   1.35184    0.232
 5569.00    1.33255   1.34745    0.233
 5570.00    1.33085   1.34371    0.234
 5571.00    1.33650   1.34118    0.234
 5572.00    1.34481   1.33965    0.234
 5573.00    1.34959   1.33914    0.234
 5574.00    1.35330   1.34040    0.234
 5575.00    1.34497   1.34312    0.234
 5576.00    1.33359   1.34514    0.234
 5577.00    1.34670   1.34757    0.235
 5578.00    1.36489   1.35309    0.238
 5579.00    1.36367   1.35951    0.235
 5580.00    1.35928   1.36434    0.232
 5581.00    1.35567   1.36833    0.232
 5582.00    1.35216   1.37174    0.232
 5583.00    1.34164   1.37352    0.231
 5584.00    1.33054   1.37247    0.230
 5585.00    1.32438   1.36705    0.228
 5586.00    1.31847   1.35740    0.226
 5587.00    1.33414   1.34530    0.231
 5588.00    1.34961   1.33093    0.235
 5589.00    1.33323   1.31455    0.234
 5590.00    1.31787   1.29775    0.233
 5591.00    1.32273   1.28369    0.235
 5592.00    1.32728   1.27541    0.236
 5593.00    1.32832   1.27312    0.233
 5594.00    1.32948   1.27666    0.231
 5595.00    1.33153   1.28495    0.233
 5596.00    1.33335   1.29475    0.234
 5597.00    1.33374   1.30349    0.233
 5598.00    1.33503   1.31081    0.232
 5599.00    1.34058   1.31829    0.233
 5600.00    1.34525   1.32460    0.233
 5601.00    1.34646   1.32529    0.234
 5602.00    1.34841   1.32123    0.234
 5603.00    1.35277   1.31834    0.233
 5604.00    1.35326   1.31893    0.232
 5605.00    1.34316   1.32133    0.231
 5606.00    1.33840   1.32621    0.229
 5607.00    1.34618   1.33645    0.228
 5608.00    1.35352   1.35264    0.227
 5609.00    1.35993   1.37051    0.225
 5610.00    1.35982   1.38615    0.225
 5611.00    1.34816   1.39836    0.227
 5612.00    1.34023   1.40669    0.229
 5613.00    1.33805   1.40973    0.231
 5614.00    1.33571   1.40634    0.233
 5615.00    1.33315   1.39811    0.233
 5616.00    1.32386   1.38744    0.233
 5617.00    1.30653   1.37436    0.232
 5618.00    1.30597   1.35813    0.231
 5619.00    1.32308   1.34219    0.229
 5620.00    1.31996   1.33389    0.228
 5621.00    1.29803   1.33403    0.226
 5622.00    1.29747   1.33582    0.226
 5623.00    1.31440   1.33592    0.229
 5624.00    1.31570   1.33646    0.229
 5625.00    1.30572   1.33914    0.226
 5626.00    1.30446   1.34122    0.225
 5627.00    1.30871   1.33937    0.226
 5628.00    1.32269   1.33578    0.225
 5629.00    1.34205   1.33639    0.223
 5630.00    1.34904   1.34299    0.223
 5631.00    1.35006   1.35185    0.223
 5632.00    1.33854   1.36062    0.223
 5633.00    1.32180   1.36982    0.223
 5634.00    1.32365   1.37811    0.221
 5635.00    1.33209   1.38284    0.220
 5636.00    1.33426   1.38274    0.219
 5637.00    1.33453   1.37846    0.218
 5638.00    1.33187   1.37208    0.218
 5639.00    1.32847   1.36465    0.217
 5640.00    1.33564   1.35623    0.218
 5641.00    1.34494   1.34811    0.218
 5642.00    1.33964   1.34277    0.218
 5643.00    1.33203   1.34069    0.217
 5644.00    1.33723   1.33953    0.216
 5645.00    1.34395   1.33917    0.216
 5646.00    1.34854   1.34199    0.217
 5647.00    1.35297   1.34746    0.218
 5648.00    1.34739   1.35294    0.218
 5649.00    1.34136   1.35779    0.218
 5650.00    1.33849   1.36268    0.220
 5651.00    1.33563   1.36752    0.222
 5652.00    1.33174   1.37056    0.223
 5653.00    1.32777   1.37040    0.223
 5654.00    1.32256   1.36840    0.226
 5655.00    1.31737   1.36626    0.229
 5656.00    1.31245   1.36191    0.229
 5657.00    1.30813   1.35251    0.229
 5658.00    1.30845   1.33924    0.227
 5659.00    1.31026   1.32706    0.225
 5660.00    1.32079   1.31735    0.228
 5661.00    1.32953   1.30571    0.230
 5662.00    1.32995   1.29342    0.228
 5663.00    1.33033   1.28928    0.227
 5664.00    1.33051   1.29401    0.227
 5665.00    1.33007   1.29913    0.226
 5666.00    1.32767   1.30218    0.222
 5667.00    1.32899   1.30829    0.220
 5668.00    1.34031   1.31877    0.220
 5669.00    1.34489   1.32826    0.221
 5670.00    1.33390   1.33375    0.221
 5671.00    1.32391   1.33790    0.220
 5672.00    1.31593   1.34425    0.219
 5673.00    1.31491   1.35269    0.218
 5674.00    1.32596   1.36109    0.218
 5675.00    1.33570   1.36939    0.219
 5676.00    1.34343   1.37855    0.220
 5677.00    1.34833   1.38722    0.222
 5678.00    1.34947   1.39262    0.224
 5679.00    1.34915   1.39460    0.223
 5680.00    1.34712   1.39510    0.220
 5681.00    1.34125   1.39296    0.217
 5682.00    1.33139   1.38655    0.216
 5683.00    1.32905   1.37777    0.215
 5684.00    1.33360   1.36914    0.216
 5685.00    1.34103   1.35972    0.216
 5686.00    1.35079   1.34863    0.217
 5687.00    1.34249   1.33925    0.216
 5688.00    1.32136   1.33439    0.214
 5689.00    1.30886   1.33264    0.215
 5690.00    1.30174   1.33181    0.217
 5691.00    1.31397   1.33280    0.218
 5692.00    1.33676   1.33779    0.216
 5693.00    1.34260   1.34623    0.217
 5694.00    1.34041   1.35551    0.218
 5695.00    1.33895   1.36398    0.220
 5696.00    1.33779   1.37166    0.222
 5697.00    1.33536   1.37716    0.223
 5698.00    1.33249   1.37942    0.223
 5699.00    1.33531   1.37897    0.223
 5700.00    1.33980   1.37589    0.222
 5701.00    1.34073   1.36968    0.221
 5702.00    1.34079   1.36132    0.221
 5703.00    1.33003   1.35340    0.219
 5704.00    1.31714   1.34546    0.218
 5705.00    1.31107   1.33667    0.217
 5706.00    1.30606   1.32885    0.216
 5707.00    1.32016   1.32285    0.215
 5708.00    1.33643   1.31638    0.215
 5709.00    1.33288   1.30788    0.216
 5710.00    1.32783   1.29884    0.217
 5711.00    1.33120   1.29134    0.216
 5712.00    1.33493   1.28598    0.214
 5713.00    1.33529   1.28366    0.213
 5714.00    1.33578   1.28621    0.212
 5715.00    1.34198   1.29294    0.211
 5716.00    1.34791   1.30352    0.210
 5717.00    1.34918   1.31804    0.212
 5718.00    1.35028   1.33355    0.214
 5719.00    1.34955   1.34794    0.212
 5720.00    1.34833   1.36133    0.211
 5721.00    1.34335   1.37332    0.210
 5722.00    1.34064   1.38337    0.209
 5723.00    1.35088   1.39188    0.210
 5724.00    1.35831   1.39882    0.210
 5725.00    1.35294   1.40400    0.211
 5726.00    1.34744   1.40740    0.211
 5727.00    1.34147   1.40892    0.212
 5728.00    1.33781   1.40886    0.213
 5729.00    1.34133   1.40713    0.212
 5730.00    1.34316   1.40306    0.212
 5731.00    1.34051   1.39792    0.214
 5732.00    1.33886   1.39463    0.215
 5733.00    1.33948   1.39311    0.212
 5734.00    1.33913   1.39088    0.211
 5735.00    1.33692   1.38833    0.212
 5736.00    1.34196   1.38859    0.213
 5737.00    1.35943   1.39180    0.216
 5738.00    1.36862   1.39461    0.217
 5739.00    1.36540   1.39592    0.216
 5740.00    1.35774   1.39674    0.000
 5741.00    1.34422   1.39741    0.000
 5742.00    1.33945   1.39717    0.000
 5743.00    1.34481   1.39607    0.000
 5744.00    1.35184   1.39488    0.000
 5745.00    1.36057   1.39371    0.000
 5746.00    1.36221   1.39203    0.000
 5747.00    1.35743   1.39006    0.000
 5748.00    1.35300   1.38905    0.000
 5749.00    1.34885   1.38864    0.000
 5750.00    1.34830   1.38653    0.000
 5751.00    1.35026   1.38168    0.000
 5752.00    1.35020   1.37629    0.000
 5753.00    1.34890   1.37238    0.000
 5754.00    1.34848   1.36877    0.000
 5755.00    1.34853   1.36388    0.000
 5756.00    1.34710   1.35864    0.000
 5757.00    1.34498   1.35550    0.000
 5758.00    1.33710   1.35593    0.000
 5759.00    1.32692   1.35918    0.000
 5760.00    1.32908   1.36284    0.000
 5761.00    1.33548   1.36510    0.000
 5762.00    1.34297   1.36626    0.000
 5763.00    1.35079   1.36690    0.000
 5764.00    1.34548   1.36670    0.000
 5765.00    1.33704   1.36554    0.000
 5766.00    1.34739   1.36527    0.000
 5767.00    1.36134   1.36856    0.000
 5768.00    1.35556   1.37559    0.000
 5769.00    1.34684   1.38325    0.000
 5770.00    1.35095   1.38965    0.000
 5771.00    1.35646   1.39507    0.000
 5772.00    1.35688   1.39916    0.000
 5773.00    1.35694   1.40042    0.000
 5774.00    1.35348   1.39871    0.000
 5775.00    1.34990   1.39544    0.000
 5776.00    1.35838   1.39195    0.000
 5777.00    1.36648   1.38865    0.000
 5778.00    1.35896   1.38505    0.000
 5779.00    1.35171   1.38076    0.000
 5780.00    1.34866   1.37559    0.000
 5781.00    1.34529   1.36887    0.000
 5782.00    1.33865   1.36020    0.000
 5783.00    1.33247   1.34919    0.000
 5784.00    1.32958   1.33622    0.000
 5785.00    1.32765   1.32408    0.000
 5786.00    1.33104   1.31619    0.000
 5787.00    1.33495   1.31210    0.000
 5788.00    1.34120   1.30984    0.000
 5789.00    1.34608   1.31085    0.000
 5790.00    1.34595   1.31730    0.000
 5791.00    1.34229   1.32681   -2.000
 5792.00    1.32785   1.33561   -2.000
 5793.00    1.31185   1.34317   -2.000
 5794.00    1.29181   1.35023   -2.000
 5795.00    1.28027   1.35687   -2.000
 5796.00    1.28768   1.36248   -2.000
 5797.00    1.29537   1.36670   -2.000
 5798.00    1.30357   1.37034   -2.000
 5799.00    1.30853   1.37398   -2.000
 5800.00    1.30803   1.37692   -2.000
 5801.00    1.30864   1.37892   -2.000
 5802.00    1.31091   1.38202   -2.000
 5803.00    1.31869   1.38644   -2.000
 5804.00    1.33363   1.38962   -2.000
 5805.00    1.34464   1.39075   -2.000
 5806.00    1.35115   1.39103   -2.000
 5807.00    1.35177   1.39017   -2.000
 5808.00    1.34644   1.38747   -2.000
 5809.00    1.34535   1.38463   -2.000
 5810.00    1.34803   1.38322   -2.000
 5811.00    1.34870   1.38287    0.000
 5812.00    1.34779   1.38307    0.000
 5813.00    1.34142   1.38452    0.000
 5814.00    1.33129   1.38681    0.000
 5815.00    1.33607   1.38842    0.000
 5816.00    1.34988   1.38879    0.000
 5817.00    1.35677   1.38879    0.000
 5818.00    1.36001   1.38865    0.000
 5819.00    1.36029   1.38824    0.000
 5820.00    1.35921   1.38887    0.000
 5821.00    1.35738   1.39210    0.000
 5822.00    1.35527   1.39680    0.000
 5823.00    1.35046   1.40115    0.000
 5824.00    1.34476   1.40527    0.000
 5825.00    1.34518   1.40942    0.000
 5826.00    1.34732   1.41253    0.000
 5827.00    1.34805   1.41424    0.000
 5828.00    1.34843   1.41555    0.000
 5829.00    1.35002   1.41656    0.000
 5830.00    1.35183   1.41683    0.000
 5831.00    1.35825   1.41676    0.000
 5832.00    1.36535   1.41696    0.000
 5833.00    1.36376   1.41673    0.000
 5834.00    1.36127   1.41528    0.000
 5835.00    1.34424   1.41334    0.000
 5836.00    1.32623   1.41156    0.000
 5837.00    1.32625   1.40921    0.000
 5838.00    1.32687   1.40639    0.000
 5839.00    1.33366   1.40500    0.000
 5840.00    1.34045   1.40539    0.000
 5841.00    1.34714   1.40593    0.000
 5842.00    1.35358   1.40660    0.000
 5843.00    1.35621   1.40888    0.000
 5844.00    1.35866   1.41194    0.000
 5845.00    1.35943   1.41358    0.000
 5846.00    1.35863   1.41336    0.000
 5847.00    1.34681   1.41208    0.000
 5848.00    1.33552   1.40949    0.000
 5849.00    1.32709   1.40530    0.000
 5850.00    1.32011   1.39983    0.000
 5851.00    1.31939   1.39368    0.000
 5852.00    1.31998   1.38712    0.000
 5853.00    1.32524   1.38047    0.000
 5854.00    1.32607   1.37379    0.000
 5855.00    1.31365   1.36606    0.000
 5856.00    1.30629   1.35660    0.000
 5857.00    1.31183   1.34735    0.000
 5858.00    1.31518   1.34064    0.000
 5859.00    1.31372   1.33526    0.000
 5860.00    1.31540   1.32936    0.000
 5861.00    1.32303   1.32515    0.000
 5862.00    1.33155   1.32590    0.000
 5863.00    1.34152   1.33053    0.000
 5864.00    1.34700   1.33596    0.000
 5865.00    1.34596   1.34128    0.000
 5866.00    1.34592   1.34754    0.000
 5867.00    1.34715   1.35532    0.000
 5868.00    1.34666   1.36305    0.000
 5869.00    1.34424   1.36867    0.000
 5870.00    1.34082   1.37272    0.000
 5871.00    1.33639   1.37748    0.000
 5872.00    1.33346   1.38287    0.000
 5873.00    1.33184   1.38705    0.000
 5874.00    1.33329   1.38989    0.000
 5875.00    1.33712   1.39197    0.000
 5876.00    1.33403   1.39311    0.000
 5877.00    1.32621   1.39315    0.000
 5878.00    1.33047   1.39205    0.000
 5879.00    1.34192   1.38913    0.000
 5880.00    1.34160   1.38466    0.000
 5881.00    1.33517   1.37983    0.000
 5882.00    1.33101   1.37451    0.000
 5883.00    1.32788   1.36779    0.000
 5884.00    1.32789   1.36054    0.000
 5885.00    1.32913   1.35375    0.000
 5886.00    1.32619   1.34554    0.000
 5887.00    1.32187   1.33341    0.000
 5888.00    1.31269   1.31632    0.000
 5889.00    1.30215   1.29452    0.000
 5890.00    1.29069   1.26891    0.000
 5891.00    1.27902   1.23965    0.000
 5892.00    1.28023   1.20633    0.000
 5893.00    1.28378   1.17339    0.000
 5894.00    1.28850   1.14916    0.000
 5895.00    1.29339   1.13507    0.000
 5896.00    1.29456   1.12738    0.000
 5897.00    1.29536   1.12586    0.000
 5898.00    1.30185   1.13038    0.000
 5899.00    1.30870   1.13957    0.000
 5900.00    1.30896   1.15647    0.000
 5901.00    1.30903   1.18109    0.197
 5902.00    1.30860   1.20675    0.195
 5903.00    1.30818   1.23174    0.194
 5904.00    1.30797   1.25951    0.195
 5905.00    1.30821   1.28732    0.195
 5906.00    1.31490   1.30950    0.195
 5907.00    1.32029   1.32589    0.195
 5908.00    1.31371   1.33811    0.195
 5909.00    1.30744   1.34652    0.194
 5910.00    1.30335   1.35245    0.197
 5911.00    1.30102   1.35705    0.198
 5912.00    1.30797   1.35944    0.197
 5913.00    1.31451   1.35963    0.196
 5914.00    1.31935   1.35928    0.197
 5915.00    1.32004   1.35835    0.197
 5916.00    1.30620   1.35533    0.197
 5917.00    1.29706   1.35081    0.197
 5918.00    1.30174   1.34744    0.197
 5919.00    1.30607   1.34618    0.197
 5920.00    1.30953   1.34645    0.196
 5921.00    1.31067   1.34803    0.195
 5922.00    1.30680   1.35115    0.195
 5923.00    1.30359   1.35566    0.194
 5924.00    1.30160   1.36037    0.193
 5925.00    1.30249   1.36400    0.192
 5926.00    1.30807   1.36655    0.193
 5927.00    1.31107   1.36846    0.193
 5928.00    1.31034   1.36913    0.193
 5929.00    1.30658   1.36817    0.193
 5930.00    1.29899   1.36624    0.193
 5931.00    1.29956   1.36390    0.193
 5932.00    1.30922   1.36084    0.192
 5933.00    1.31469   1.35715    0.192
 5934.00    1.31604   1.35481    0.193
 5935.00    1.31587   1.35486    0.192
 5936.00    1.31438   1.35545    0.191
 5937.00    1.31377   1.35530    0.191
 5938.00    1.31383   1.35650    0.193
 5939.00    1.31297   1.36004    0.193
 5940.00    1.31150   1.36312    0.193
 5941.00    1.31102   1.36433    0.192
 5942.00    1.31114   1.36565    0.192
 5943.00    1.31656   1.36731    0.192
 5944.00    1.32470   1.36753    0.194
 5945.00    1.33067   1.36687    0.195
 5946.00    1.33567   1.36688    0.194
 5947.00    1.33459   1.36673    0.195
 5948.00    1.33119   1.36572    0.195
 5949.00    1.32733   1.36491    0.197
 5950.00    1.32333   1.36427    0.198
 5951.00    1.32092   1.36201    0.198
 5952.00    1.31895   1.35838    0.197
 5953.00    1.32319   1.35619    0.196
 5954.00    1.32880   1.35549    0.195
 5955.00    1.32650   1.35336    0.194
 5956.00    1.32281   1.35039    0.193
 5957.00    1.31940   1.35040    0.193
 5958.00    1.31604   1.35271    0.192
 5959.00    1.31055   1.35370    0.192
 5960.00    1.30486   1.35406    0.192
 5961.00    1.30651   1.35677    0.190
 5962.00    1.30859   1.36130    0.189
 5963.00    1.31714   1.36559    0.189
 5964.00    1.32583   1.36955    0.189
 5965.00    1.32914   1.37363    0.189
 5966.00    1.33207   1.37754    0.189
 5967.00    1.32506   1.38089    0.190
 5968.00    1.31866   1.38304    0.190
 5969.00    1.32042   1.38420    0.190
 5970.00    1.32233   1.38569    0.189
 5971.00    1.32554   1.38766    0.189
 5972.00    1.32869   1.38910    0.189
 5973.00    1.33139   1.39018    0.190
 5974.00    1.33246   1.39104    0.190
 5975.00    1.32514   1.39049    0.190
 5976.00    1.31904   1.38816    0.189
 5977.00    1.31799   1.38453    0.190
 5978.00    1.31650   1.37941    0.190
 5979.00    1.31351   1.37325    0.192
 5980.00    1.31078   1.36758    0.193
 5981.00    1.30881   1.36297    0.192
 5982.00    1.30658   1.35888    0.192
 5983.00    1.30371   1.35542    0.193
 5984.00    1.30306   1.35260    0.194
 5985.00    1.30711   1.34990    0.193
 5986.00    1.31131   1.34623    0.192
 5987.00    1.31581   1.34177    0.191
 5988.00    1.32031   1.33880    0.190
 5989.00    1.32481   1.33819    0.190
 5990.00    1.32603   1.33781    0.190
 5991.00    1.32258   1.33803    0.190
 5992.00    1.31932   1.34135    0.189
 5993.00    1.31629   1.34624    0.187
 5994.00    1.31469   1.34929    0.186
 5995.00    1.31466   1.35158    0.186
 5996.00    1.31859   1.35497    0.186
 5997.00    1.32637   1.35752    0.186
 5998.00    1.32590   1.35764    0.186
 5999.00    1.31838   1.35673    0.186
 6000.00    1.31029   1.35564    0.186
 6001.00    1.30176   1.35372    0.186
 6002.00    1.29562   1.35124    0.185
 6003.00    1.29108   1.34917    0.184
 6004.00    1.28700   1.34746    0.184
 6005.00    1.28320   1.34513    0.184
 6006.00    1.28114   1.34235    0.185
 6007.00    1.27996   1.34018    0.186
 6008.00    1.28346   1.33803    0.187
 6009.00    1.28901   1.33497    0.187
 6010.00    1.29962   1.33152    0.190
 6011.00    1.31213   1.32851    0.194
 6012.00    1.31122   1.32698    0.194
 6013.00    1.30604   1.32747    0.193
 6014.00    1.30126   1.32806    0.194
 6015.00    1.29657   1.32707    0.196
 6016.00    1.29977   1.32608    0.195
 6017.00    1.30467   1.32673    0.194
 6018.00    1.30970   1.32683    0.194
 6019.00    1.31476   1.32397    0.195
 6020.00    1.30995   1.32042    0.193
 6021.00    1.30385   1.31941    0.191
 6022.00    1.29613   1.31857    0.195
 6023.00    1.28825   1.31568    0.200
 6024.00    1.28814   1.31431    0.200
 6025.00    1.28845   1.31626    0.200
 6026.00    1.29697   1.31833    0.200
 6027.00    1.30567   1.32019    0.200
 6028.00    1.31408   1.32518    0.193
 6029.00    1.32205   1.33201    0.186
 6030.00    1.31953   1.33757    0.186
 6031.00    1.31693   1.34339    0.186
 6032.00    1.31322   1.35098    0.185
 6033.00    1.30935   1.35765    0.184
 6034.00    1.30415   1.36228    0.184
 6035.00    1.29914   1.36732    0.184
 6036.00    1.29541   1.37247    0.184
 6037.00    1.29088   1.37577    0.184
 6038.00    1.28235   1.37752    0.183
 6039.00    1.27472   1.37921    0.183
 6040.00    1.27072   1.38024    0.184
 6041.00    1.26853   1.37989    0.185
 6042.00    1.27242   1.37869    0.187
 6043.00    1.27725   1.37758    0.188
 6044.00    1.28478   1.37639    0.189
 6045.00    1.29141   1.37520    0.189
 6046.00    1.29587   1.37514    0.190
 6047.00    1.30007   1.37614    0.191
 6048.00    1.30372   1.37706    0.191
 6049.00    1.30978   1.37821    0.191
 6050.00    1.32019   1.38051    0.190
 6051.00    1.32532   1.38211    0.188
 6052.00    1.32205   1.38177    0.187
 6053.00    1.31532   1.38084    0.187
 6054.00    1.30378   1.37952    0.186
 6055.00    1.30052   1.37607    0.186
 6056.00    1.30745   1.37120    0.186
 6057.00    1.31233   1.36713    0.186
 6058.00    1.31499   1.36365    0.185
 6059.00    1.31188   1.35985    0.185
 6060.00    1.30325   1.35742    0.185
 6061.00    1.29704   1.35709    0.185
 6062.00    1.29286   1.35744    0.185
 6063.00    1.29257   1.35731    0.185
 6064.00    1.29515   1.35684    0.186
 6065.00    1.29894   1.35566    0.186
 6066.00    1.30350   1.35421    0.184
 6067.00    1.30591   1.35251    0.184
 6068.00    1.30709   1.35011    0.186
 6069.00    1.30670   1.34977    0.186
 6070.00    1.30552   1.35353    0.186
 6071.00    1.29858   1.35879    0.187
 6072.00    1.28916   1.36369    0.189
 6073.00    1.29024   1.37031    0.189
 6074.00    1.29517   1.37802    0.188
 6075.00    1.30428   1.38358    0.188
 6076.00    1.31469   1.38612    0.189
 6077.00    1.31461   1.38643    0.189
 6078.00    1.31182   1.38448    0.190
 6079.00    1.31005   1.38069    0.188
 6080.00    1.30849   1.37509    0.187
 6081.00    1.30974   1.36735    0.186
 6082.00    1.31146   1.35939    0.186
 6083.00    1.30960   1.35341    0.186
 6084.00    1.30730   1.34768    0.187
 6085.00    1.30443   1.34110    0.186
 6086.00    1.30152   1.33689    0.184
 6087.00    1.29891   1.33580    0.184
 6088.00    1.29632   1.33448    0.185
 6089.00    1.29592   1.33268    0.182
 6090.00    1.29567   1.33270    0.180
 6091.00    1.30220   1.33415    0.182
 6092.00    1.30861   1.33443    0.183
 6093.00    1.31252   1.33379    0.183
 6094.00    1.31578   1.33459    0.184
 6095.00    1.31114   1.33651    0.185
 6096.00    1.30633   1.33733    0.186
 6097.00    1.30010   1.33835    0.186
 6098.00    1.29552   1.34116    0.186
 6099.00    1.30110   1.34341    0.187
 6100.00    1.30675   1.34334    0.187
 6101.00    1.31271   1.34194    0.190
 6102.00    1.31682   1.33914    0.191
 6103.00    1.31355   1.33481    0.191
 6104.00    1.31092   1.32894    0.190
 6105.00    1.31036   1.32070    0.190
 6106.00    1.31071   1.31364    0.190
 6107.00    1.31360   1.31251    0.189
 6108.00    1.31618   1.31401    0.188
 6109.00    1.31806   1.31510    0.188
 6110.00    1.31721   1.31877    0.188
 6111.00    1.31076   1.32609    0.188
 6112.00    1.30478   1.33375    0.187
 6113.00    1.29963   1.33946    0.184
 6114.00    1.29640   1.34274    0.183
 6115.00    1.29618   1.34487    0.183
 6116.00    1.29705   1.34732    0.183
 6117.00    1.29939   1.34884    0.183
 6118.00    1.30043   1.34763    0.183
 6119.00    1.29990   1.34457    0.184
 6120.00    1.29757   1.34158    0.184
 6121.00    1.29333   1.33781    0.184
 6122.00    1.29063   1.33139    0.184
 6123.00    1.28937   1.32427    0.183
 6124.00    1.29055   1.31771    0.183
 6125.00    1.29376   1.31098    0.183
 6126.00    1.29499   1.30700    0.183
 6127.00    1.29475   1.30721    0.182
 6128.00    1.29643   1.30751    0.183
 6129.00    1.29934   1.30831    0.183
 6130.00    1.29698   1.31246    0.183
 6131.00    1.29167   1.31699    0.183
 6132.00    1.28806   1.31923    0.184
 6133.00    1.28528   1.32116    0.186
 6134.00    1.28274   1.32213    0.187
 6135.00    1.28031   1.31971    0.188
 6136.00    1.28318   1.31429    0.189
 6137.00    1.28797   1.30703    0.190
 6138.00    1.29181   1.29773    0.190
 6139.00    1.29536   1.28590    0.190
 6140.00    1.29513   1.27339    0.190
 6141.00    1.29395   1.26590    0.190
 6142.00    1.29692   1.26513    0.189
 6143.00    1.30074   1.26616    0.189
 6144.00    1.30189   1.26786    0.187
 6145.00    1.30260   1.27511    0.186
 6146.00    1.30377   1.28759    0.183
 6147.00    1.30498   1.29751    0.181
 6148.00    1.29654   1.30334    0.181
 6149.00    1.28729   1.30917    0.181
 6150.00    1.28098   1.31442    0.180
 6151.00    1.27482   1.31599    0.178
 6152.00    1.27522   1.31574    0.179
 6153.00    1.27566   1.31581    0.180
 6154.00    1.27352   1.31566    0.181
 6155.00    1.27162   1.31532    0.182
 6156.00    1.27421   1.31545    0.185
 6157.00    1.27646   1.31429    0.189
 6158.00    1.27489   1.31188    0.190
 6159.00    1.27437   1.30944    0.191
 6160.00    1.28217   1.30421    0.191
 6161.00    1.28916   1.29526    0.191
 6162.00    1.29125   1.28596    0.192
 6163.00    1.29178   1.27594    0.192
 6164.00    1.28487   1.26263    0.191
 6165.00    1.27968   1.24997    0.190
 6166.00    1.28115   1.24323    0.190
 6167.00    1.28415   1.24053    0.190
 6168.00    1.29208   1.23862    0.190
 6169.00    1.29819   1.23914    0.189
 6170.00    1.29935   1.24512    0.189
 6171.00    1.29919   1.25203    0.188
 6172.00    1.29594   1.25461    0.186
 6173.00    1.29372   1.25744    0.186
 6174.00    1.29356   1.26519    0.187
 6175.00    1.28872   1.27202    0.186
 6176.00    1.27563   1.27519    0.184
 6177.00    1.26195   1.28123    0.182
 6178.00    1.24734   1.29042    0.180
 6179.00    1.23507   1.29660    0.179
 6180.00    1.22593   1.30092    0.179
 6181.00    1.22452   1.30759    0.179
 6182.00    1.23232   1.31356    0.179
 6183.00    1.24251   1.31638    0.180
 6184.00    1.25523   1.31994    0.182
 6185.00    1.26256   1.32408    0.183
 6186.00    1.26491   1.32519    0.183
 6187.00    1.26626   1.32430    0.185
 6188.00    1.26679   1.32329    0.188
 6189.00    1.26358   1.31974    0.188
 6190.00    1.25768   1.31313    0.187
 6191.00    1.25414   1.30605    0.187
 6192.00    1.25209   1.30029    0.187
 6193.00    1.25331   1.29427    0.190
 6194.00    1.25635   1.28708    0.193
 6195.00    1.23929   1.28407    0.199
 6196.00    1.21257   1.28729   -2.000
 6197.00    1.17904   1.29086   -2.000
 6198.00    1.14269   1.29376   -2.000
 6199.00    1.14383   1.29990   -2.000
 6200.00    1.15825   1.30757   -2.000
 6201.00    1.21603   1.31210   -2.000
 6202.00    1.28679   1.31387   -2.000
 6203.00    1.34094   1.31591   -2.000
 6204.00    1.39097   1.31898   -2.000
 6205.00    1.38788   1.32159   -2.000
 6206.00    1.37410   1.32338   -2.000
 6207.00    1.34021   1.32598   -2.000
 6208.00    1.30314   1.32948    0.188
 6209.00    1.29268   1.33209    0.187
 6210.00    1.28532   1.33266    0.187
 6211.00    1.28343   1.33189    0.183
 6212.00    1.28196   1.32939    0.180
 6213.00    1.27797   1.32393    0.182
 6214.00    1.27386   1.31652    0.185
 6215.00    1.26733   1.30791    0.186
 6216.00    1.26073   1.29755    0.188
 6217.00    1.25188   1.28694    0.188
 6218.00    1.24361   1.27803    0.189
 6219.00    1.24584   1.27062    0.188
 6220.00    1.24899   1.26549    0.187
 6221.00    1.26217   1.26306    0.188
 6222.00    1.27387   1.26177    0.189
 6223.00    1.27413   1.26216    0.188
 6224.00    1.27411   1.26516    0.188
 6225.00    1.27242   1.26926    0.187
 6226.00    1.27072   1.27265    0.186
 6227.00    1.26898   1.27566    0.189
 6228.00    1.26719   1.27885    0.191
 6229.00    1.26518   1.28024    0.191
 6230.00    1.26538   1.27860    0.191
 6231.00    1.27254   1.27600    0.186
 6232.00    1.27698   1.27200    0.183
 6233.00    1.27412   1.26554    0.183
 6234.00    1.27245   1.26055    0.182
 6235.00    1.27352   1.25898    0.179
 6236.00    1.27340   1.25793    0.178
 6237.00    1.27089   1.25892    0.178
 6238.00    1.26841   1.26309    0.180
 6239.00    1.26600   1.26621    0.182
 6240.00    1.26242   1.26703    0.184
 6241.00    1.25706   1.26728    0.184
 6242.00    1.25765   1.26516    0.184
 6243.00    1.26618   1.25991    0.185
 6244.00    1.27358   1.25533    0.186
 6245.00    1.27967   1.25061    0.189
 6246.00    1.28145   1.24369    0.189
 6247.00    1.27876   1.23958    0.188
 6248.00    1.27745   1.23872    0.187
 6249.00    1.27738   1.23680    0.188
 6250.00    1.27484   1.23681    0.189
 6251.00    1.27030   1.24045    0.189
 6252.00    1.26468   1.24306    0.189
 6253.00    1.25828   1.24397    0.188
 6254.00    1.25874   1.24485    0.188
 6255.00    1.26347   1.24320    0.189
 6256.00    1.26683   1.23911    0.188
 6257.00    1.26944   1.23496    0.186
 6258.00    1.26549   1.23051    0.188
 6259.00    1.25844   1.22628    0.191
 6260.00    1.24659   1.22409    0.201
 6261.00    1.23278   1.22409    0.214
 6262.00    1.23917   1.22706    0.220
 6263.00    1.25260   1.23343    0.222
 6264.00    1.27758   1.24022    0.216
 6265.00    1.30595   1.24809    0.208
 6266.00    1.32205   1.25835    0.200
 6267.00    1.33518   1.26643    0.191
 6268.00    1.32643   1.27107    0.187
 6269.00    1.31339   1.27649    0.183
 6270.00    1.30125   1.28176    0.183
 6271.00    1.28925   1.28347    0.183
 6272.00    1.29360   1.28436    0.185
 6273.00    1.29979   1.28683    0.187
 6274.00    1.29371   1.28896    0.188
 6275.00    1.28672   1.29034    0.188
 6276.00    1.28433   1.29221    0.188
 6277.00    1.28214   1.29395    0.188
 6278.00    1.27544   1.29498    0.187
 6279.00    1.26892   1.29519    0.185
 6280.00    1.27067   1.29404    0.000
 6281.00    1.27234   1.29220    0.000
 6282.00    1.27267   1.29005    0.000
 6283.00    1.27292   1.28726    0.000
 6284.00    1.27227   1.28559    0.000
 6285.00    1.27247   1.28549    0.000
 6286.00    1.27888   1.28639    0.000
 6287.00    1.28451   1.28915    0.000
 6288.00    1.28567   1.29291    0.000
 6289.00    1.28564   1.29697    0.000
 6290.00    1.28013   1.30129    0.000
 6291.00    1.27481   1.30495    0.000
 6292.00    1.27016   1.30716    0.000
 6293.00    1.26369   1.30763    0.000
 6294.00    1.25157   1.30688    0.000
 6295.00    1.24323   1.30490    0.000
 6296.00    1.24488   1.30105    0.000
 6297.00    1.24812   1.29654    0.000
 6298.00    1.25497   1.29211    0.000
 6299.00    1.26129   1.28633    0.000
 6300.00    1.26658   1.27993    0.000
 6301.00    1.27042   1.27445    0.000
 6302.00    1.27178   1.26969    0.000
 6303.00    1.27239   1.26526    0.000
 6304.00    1.27189   1.26156    0.000
 6305.00    1.27111   1.26008    0.000
 6306.00    1.26998   1.26163    0.000
 6307.00    1.26996   1.26453    0.000
 6308.00    1.27122   1.26773    0.000
 6309.00    1.27241   1.27285    0.000
 6310.00    1.27354   1.27916    0.000
 6311.00    1.27317   1.28343    0.000
 6312.00    1.27145   1.28568    0.000
 6313.00    1.26628   1.28680    0.000
 6314.00    1.25836   1.28527    0.000
 6315.00    1.25729   1.28152    0.000
 6316.00    1.26099   1.27692    0.000
 6317.00    1.26930   1.26993    0.000
 6318.00    1.28042   1.26183    0.000
 6319.00    1.28286   1.25640    0.000
 6320.00    1.28067   1.25139    0.000
 6321.00    1.28025   1.24540    0.177
 6322.00    1.28065   1.24391    0.179
 6323.00    1.28085   1.24688    0.181
 6324.00    1.28097   1.24980    0.183
 6325.00    1.28020   1.25443    0.184
 6326.00    1.27911   1.26263    0.185
 6327.00    1.27417   1.27128    0.185
 6328.00    1.26812   1.27843    0.185
 6329.00    1.26304   1.28506    0.183
 6330.00    1.25819   1.29058    0.181
 6331.00    1.25819   1.29445    0.180
 6332.00    1.25912   1.29675    0.180
 6333.00    1.25691   1.29649    0.181
 6334.00    1.25422   1.29453    0.182
 6335.00    1.25032   1.29182    0.181
 6336.00    1.24629   1.28757    0.180
 6337.00    1.24990   1.28173    0.180
 6338.00    1.25405   1.27480    0.180
 6339.00    1.26282   1.26874    0.180
 6340.00    1.27177   1.26471    0.180
 6341.00    1.27229   1.26100    0.179
 6342.00    1.27284   1.25788    0.179
 6343.00    1.27523   1.25794    0.179
 6344.00    1.27731   1.25957    0.179
 6345.00    1.27450   1.25956    0.180
 6346.00    1.27178   1.25924    0.181
 6347.00    1.26991   1.26000    0.181
 6348.00    1.26885   1.26096    0.182
 6349.00    1.27369   1.26103    0.182
 6350.00    1.27857   1.26150    0.182
 6351.00    1.28371   1.26483    0.184
 6352.00    1.28749   1.26872    0.185
 6353.00    1.28526   1.27119    0.184
 6354.00    1.28155   1.27406    0.183
 6355.00    1.27242   1.27690    0.185
 6356.00    1.26267   1.27722    0.187
 6357.00    1.25104   1.27462    0.187
 6358.00    1.24383   1.27071    0.187
 6359.00    1.24810   1.26625    0.186
 6360.00    1.25411   1.25971    0.187
 6361.00    1.26401   1.25120    0.189
 6362.00    1.26976   1.24390    0.190
 6363.00    1.26750   1.23823    0.187
 6364.00    1.26562   1.23202    0.185
 6365.00    1.26435   1.22709    0.184
 6366.00    1.26548   1.22622    0.183
 6367.00    1.27011   1.22767    0.182
 6368.00    1.27193   1.23030    0.180
 6369.00    1.27010   1.23525    0.179
 6370.00    1.27038   1.24200    0.179
 6371.00    1.27309   1.24924    0.179
 6372.00    1.27407   1.25606    0.179
 6373.00    1.27332   1.26216    0.181
 6374.00    1.26883   1.26818    0.180
 6375.00    1.26101   1.27419    0.177
 6376.00    1.25632   1.27924    0.178
 6377.00    1.25408   1.28297    0.180
 6378.00    1.25458   1.28667    0.182
 6379.00    1.25696   1.29008    0.184
 6380.00    1.26033   1.29123    0.184
 6381.00    1.26431   1.29064    0.182
 6382.00    1.27001   1.29038    0.183
 6383.00    1.27662   1.28939    0.186
 6384.00    1.27413   1.28719    0.186
 6385.00    1.26750   1.28633    0.184
 6386.00    1.26241   1.28640    0.183
 6387.00    1.25794   1.28607    0.182
 6388.00    1.25561   1.28705    0.182
 6389.00    1.25399   1.28914    0.181
 6390.00    1.24880   1.29020    0.181
 6391.00    1.24262   1.29067    0.180
 6392.00    1.23349   1.29087    0.181
 6393.00    1.22368   1.28950    0.181
 6394.00    1.22270   1.28676    0.181
 6395.00    1.22337   1.28301    0.181
 6396.00    1.23732   1.27803    0.183
 6397.00    1.25318   1.27436    0.184
 6398.00    1.26528   1.27210    0.186
 6399.00    1.27698   1.26849    0.187
 6400.00    1.28014   1.26658    0.186
 6401.00    1.28273   1.26785    0.184
 6402.00    1.27892   1.26715    0.185
 6403.00    1.27490   1.26561    0.187
 6404.00    1.27648   1.26783    0.188
 6405.00    1.27822   1.26990    0.189
 6406.00    1.28442   1.26946    0.189
 6407.00    1.28972   1.27158    0.189
 6408.00    1.28142   1.27482    0.189
 6409.00    1.27277   1.27487    0.189
 6410.00    1.26063   1.27315    0.189
 6411.00    1.24958   1.27140    0.189
 6412.00    1.24613   1.27015    0.185
 6413.00    1.24458   1.26750    0.182
 6414.00    1.25322   1.26353    0.180
 6415.00    1.26033   1.26308    0.179
 6416.00    1.26086   1.26393    0.180
 6417.00    1.26060   1.26194    0.181
 6418.00    1.25757   1.26148    0.182
 6419.00    1.25637   1.26299    0.182
 6420.00    1.26066   1.26221    0.180
 6421.00    1.26378   1.26118    0.179
 6422.00    1.26394   1.26162    0.179
 6423.00    1.26478   1.26148    0.180
 6424.00    1.26714   1.26230    0.182
 6425.00    1.26914   1.26566    0.183
 6426.00    1.27047   1.26988    0.184
 6427.00    1.27201   1.27404    0.187
 6428.00    1.27390   1.27958    0.190
 6429.00    1.27821   1.28530    0.192
 6430.00    1.28604   1.28766    0.191
 6431.00    1.28666   1.28762    0.190
 6432.00    1.27807   1.28659    0.189
 6433.00    1.27332   1.28298    0.189
 6434.00    1.27292   1.27803    0.190
 6435.00    1.27083   1.27431    0.190
 6436.00    1.26709   1.27077    0.190
 6437.00    1.25846   1.26785    0.188
 6438.00    1.24554   1.26719    0.186
 6439.00    1.23837   1.26774    0.185
 6440.00    1.23564   1.26862    0.185
 6441.00    1.23949   1.26886    0.185
 6442.00    1.24781   1.26953    0.184
 6443.00    1.25217   1.27271    0.183
 6444.00    1.25417   1.27549    0.182
 6445.00    1.25003   1.27765    0.181
 6446.00    1.24270   1.28282    0.181
 6447.00    1.23418   1.28809    0.181
 6448.00    1.22514   1.28971    0.183
 6449.00    1.20867   1.28918    0.183
 6450.00    1.18934   1.28741    0.184
 6451.00    1.16656   1.28270    0.182
 6452.00    1.14266   1.27454    0.178
 6453.00    1.11185   1.26711    0.178
 6454.00    1.07915   1.26167    0.178
 6455.00    1.04447   1.25473    0.176
 6456.00    1.00934   1.25003    0.174
 6457.00    0.98358   1.25059    0.174
 6458.00    0.95951   1.25073    0.173
 6459.00    0.97114   1.25097    0.176
 6460.00    0.98774   1.25453    0.180
 6461.00    1.02990   1.25685    0.182
 6462.00    1.07461   1.25718    0.183
 6463.00    1.10711   1.25977    0.183
 6464.00    1.13884   1.26181    0.183
 6465.00    1.16140   1.26040    0.180
 6466.00    1.18367   1.26056    0.178
 6467.00    1.19828   1.26265    0.179
 6468.00    1.21259   1.26223    0.180
 6469.00    1.21862   1.26332    0.179
 6470.00    1.22411   1.26811    0.179
 6471.00    1.22204   1.27095    0.180
 6472.00    1.22088   1.27266    0.181
 6473.00    1.22819   1.27579    0.182
 6474.00    1.23588   1.27711    0.183
 6475.00    1.24618   1.27717    0.184
 6476.00    1.25550   1.27876    0.184
 6477.00    1.25970   1.27935    0.185
 6478.00    1.26228   1.27906    0.185
 6479.00    1.25798   1.28088    0.187
 6480.00    1.25326   1.28194    0.188
 6481.00    1.24713   1.28031    0.189
 6482.00    1.24084   1.27916    0.189
 6483.00    1.23408   1.27823    0.187
 6484.00    1.23034   1.27463    0.186
 6485.00    1.23417   1.27068    0.186
 6486.00    1.23651   1.26880    0.185
 6487.00    1.23567   1.26683    0.185
 6488.00    1.23550   1.26451    0.185
 6489.00    1.23656   1.26374    0.184
 6490.00    1.23711   1.26312    0.184
 6491.00    1.23682   1.26038    0.185
 6492.00    1.23704   1.25521    0.185
 6493.00    1.23799   1.24697    0.184
 6494.00    1.23727   1.23515    0.182
 6495.00    1.23448   1.22066    0.182
 6496.00    1.23418   1.20353    0.183
 6497.00    1.23666   1.18558    0.184
 6498.00    1.23993   1.17089    0.185
 6499.00    1.24397   1.15959    0.187
 6500.00    1.24681   1.15240    0.186
 6501.00    1.24862   1.15277    0.185
 6502.00    1.24989   1.15896    0.185
 6503.00    1.25076   1.16963    0.186
 6504.00    1.25129   1.18474    0.187
 6505.00    1.25160   1.20051    0.188
 6506.00    1.25296   1.21651    0.189
 6507.00    1.25493   1.23207    0.189
 6508.00    1.25596   1.24422    0.189
 6509.00    1.25651   1.25420    0.188
 6510.00    1.25998   1.26218    0.189
 6511.00    1.26476   1.26679    0.190
 6512.00    1.26278   1.26980    0.190
 6513.00    1.25823   1.27182    0.189
 6514.00    1.25921   1.27147    0.187
 6515.00    1.26197   1.26982    0.184
 6516.00    1.26420   1.26825    0.185
 6517.00    1.26629   1.26538    0.187
 6518.00    1.25956   1.26079    0.186
 6519.00    1.25089   1.25715    0.184
 6520.00    1.25134   1.25470    0.183
 6521.00    1.25340   1.25153    0.183
 6522.00    1.25823   1.25001    0.184
 6523.00    1.26343   1.25168    0.186
 6524.00    1.26480   1.25344    0.185
 6525.00    1.26581   1.25532    0.185
 6526.00    1.26515   1.25876    0.186
 6527.00    1.26439   1.26158    0.187
 6528.00    1.26549   1.26275    0.000
 6529.00    1.26657   1.26295    0.000
 6530.00    1.25863   1.26254    0.000
 6531.00    1.25127   1.26144    0.000
 6532.00    1.25863   1.25928    0.000
 6533.00    1.26554   1.25710    0.000
 6534.00    1.26631   1.25562    0.000
 6535.00    1.26612   1.25411    0.000
 6536.00    1.25740   1.25270    0.000
 6537.00    1.24940   1.25204    0.000
 6538.00    1.24616   1.25215    0.000
 6539.00    1.24433   1.25239    0.000
 6540.00    1.24974   1.25256    0.000
 6541.00    1.25499   1.25325    0.000
 6542.00    1.25962   1.25355    0.000
 6543.00    1.26370   1.25249    0.000
 6544.00    1.26591   1.25080    0.000
 6545.00    1.26800   1.24797    0.000
 6546.00    1.26973   1.24342    0.000
 6547.00    1.26873   1.23817    0.000
 6548.00    1.26103   1.23212    0.000
 6549.00    1.25310   1.22576    0.000
 6550.00    1.24469   1.22043    0.000
 6551.00    1.23858   1.21529    0.000
 6552.00    1.23670   1.21022    0.000
 6553.00    1.23838   1.20613    0.000
 6554.00    1.24577   1.20148    0.000
 6555.00    1.25046   1.19532    0.000
 6556.00    1.25133   1.18791    0.000
 6557.00    1.25114   1.17825    0.000
 6558.00    1.24966   1.16582    0.000
 6559.00    1.24604   1.15078    0.000
 6560.00    1.24008   1.13293    0.000
 6561.00    1.24074   1.11152    0.000
 6562.00    1.24781   1.08677    0.000
 6563.00    1.24956   1.06176    0.000
 6564.00    1.24679   1.03699    0.000
 6565.00    1.24561   1.01218    0.000
 6566.00    1.24564   0.99493    0.000
 6567.00    1.24323   0.98883    0.000
 6568.00    1.23920   0.98822    0.000
 6569.00    1.23794   0.99709    0.000
 6570.00    1.23828   1.01885    0.000
 6571.00    1.23889   1.04271    0.000
 6572.00    1.23963   1.06585    0.000
 6573.00    1.24576   1.09195    0.000
 6574.00    1.25424   1.11452    0.000
 6575.00    1.25308   1.13077    0.000
 6576.00    1.24832   1.14540    0.000
 6577.00    1.24427   1.15780    0.000
 6578.00    1.24044   1.16717    0.000
 6579.00    1.25061   1.17652    0.000
 6580.00    1.26450   1.18566    0.000
 6581.00    1.26984   1.19378    0.000
 6582.00    1.27333   1.20187    0.000
 6583.00    1.27147   1.20886    0.000
 6584.00    1.26870   1.21422    0.000
 6585.00    1.26517   1.21882    0.000
 6586.00    1.26154   1.22204    0.000
 6587.00    1.25941   1.22409    0.000
 6588.00    1.25741   1.22583    0.000
 6589.00    1.25349   1.22673    0.000
 6590.00    1.24946   1.22722    0.000
 6591.00    1.25451   1.22728    0.000
 6592.00    1.25964   1.22566    0.000
 6593.00    1.25510   1.22349    0.000
 6594.00    1.25051   1.22096    0.000
 6595.00    1.24490   1.21643    0.000
 6596.00    1.23996   1.21206    0.000
 6597.00    1.24356   1.20987    0.000
 6598.00    1.24764   1.20785    0.000
 6599.00    1.25581   1.20712    0.000
 6600.00    1.26141   1.21009    0.000
 6601.00    1.25058   1.21418    0.000
 6602.00    1.24191   1.21836    0.000
 6603.00    1.24401   1.22386    0.000
 6604.00    1.24662   1.22871    0.000
 6605.00    1.25129   1.23175    0.000
 6606.00    1.25266   1.23371    0.000
 6607.00    1.24293   1.23392    0.000
 6608.00    1.23770   1.23230    0.000
 6609.00    1.24517   1.22990    0.200
 6610.00    1.25028   1.22726    0.200
 6611.00    1.24968   1.22464    0.199
 6612.00    1.24894   1.22286    0.198
 6613.00    1.24792   1.22286    0.197
 6614.00    1.24616   1.22428    0.196
 6615.00    1.24306   1.22658    0.194
 6616.00    1.23937   1.23019    0.192
 6617.00    1.23474   1.23480    0.191
 6618.00    1.23746   1.23929    0.191
 6619.00    1.25040   1.24332    0.192
 6620.00    1.26072   1.24716    0.194
 6621.00    1.26783   1.25055    0.196
 6622.00    1.26617   1.25278    0.196
 6623.00    1.25505   1.25382    0.196
 6624.00    1.24878   1.25412    0.197
 6625.00    1.24713   1.25353    0.197
 6626.00    1.24665   1.25173    0.199
 6627.00    1.24715   1.24902    0.202
 6628.00    1.24637   1.24633    0.203
 6629.00    1.24467   1.24356    0.202
 6630.00    1.24359   1.24013    0.202
 6631.00    1.24292   1.23712    0.203
 6632.00    1.24301   1.23451    0.204
 6633.00    1.24354   1.23101    0.205
 6634.00    1.23967   1.22761    0.203
 6635.00    1.23362   1.22467    0.198
 6636.00    1.23628   1.22133    0.196
 6637.00    1.24265   1.21897    0.195
 6638.00    1.24470   1.21821    0.196
 6639.00    1.24518   1.21795    0.198
 6640.00    1.23996   1.21907    0.197
 6641.00    1.23297   1.22167    0.196
 6642.00    1.23472   1.22374    0.196
 6643.00    1.23872   1.22559    0.197
 6644.00    1.23729   1.22774    0.198
 6645.00    1.23470   1.22845    0.198
 6646.00    1.23783   1.22814    0.200
 6647.00    1.24190   1.22859    0.203
 6648.00    1.24134   1.22889    0.203
 6649.00    1.24020   1.22871    0.203
 6650.00    1.23406   1.22973    0.205
 6651.00    1.22749   1.23168    0.207
 6652.00    1.23769   1.23329    0.207
 6653.00    1.24875   1.23498    0.208
 6654.00    1.24307   1.23709    0.208
 6655.00    1.23707   1.23877    0.209
 6656.00    1.23012   1.23953    0.207
 6657.00    1.22412   1.24012    0.206
 6658.00    1.23817   1.24046    0.205
 6659.00    1.25050   1.23966    0.204
 6660.00    1.24221   1.23843    0.205
 6661.00    1.23447   1.23700    0.205
 6662.00    1.23127   1.23415    0.202
 6663.00    1.22859   1.23061    0.200
 6664.00    1.22907   1.22720    0.200
 6665.00    1.22648   1.22278    0.200
 6666.00    1.20888   1.21813    0.200
 6667.00    1.19684   1.21509    0.200
 6668.00    1.20668   1.21264    0.202
 6669.00    1.21653   1.21088    0.204
 6670.00    1.22637   1.21159    0.205
 6671.00    1.23388   1.21357    0.205
 6672.00    1.23494   1.21597    0.206
 6673.00    1.23053   1.21953    0.208
 6674.00    1.21314   1.22295    0.211
 6675.00    1.20248   1.22550    0.213
 6676.00    1.20561   1.22723    0.214
 6677.00    1.21079   1.22704    0.214
 6678.00    1.21962   1.22548    0.214
 6679.00    1.22684   1.22303    0.214
 6680.00    1.23153   1.21896    0.216
 6681.00    1.23573   1.21526    0.215
 6682.00    1.23926   1.21324    0.211
 6683.00    1.24309   1.21174    0.208
 6684.00    1.24726   1.21213    0.207
 6685.00    1.24417   1.21540    0.206
 6686.00    1.23335   1.21944    0.207
 6687.00    1.22839   1.22391    0.206
 6688.00    1.22894   1.22918    0.205
 6689.00    1.23126   1.23386    0.205
 6690.00    1.23503   1.23734    0.206
 6691.00    1.23206   1.24004    0.208
 6692.00    1.22416   1.24185    0.209
 6693.00    1.21832   1.24252    0.210
 6694.00    1.21380   1.24232    0.212
 6695.00    1.21086   1.24139    0.212
 6696.00    1.20882   1.23964    0.000
 6697.00    1.21756   1.23735    0.000
 6698.00    1.23155   1.23444    0.000
 6699.00    1.23655   1.23140    0.000
 6700.00    1.23777   1.22882    0.000
 6701.00    1.22919   1.22636    0.000
 6702.00    1.21709   1.22465    0.000
 6703.00    1.20942   1.22396    0.000
 6704.00    1.20309   1.22347    0.000
 6705.00    1.21014   1.22344    0.000
 6706.00    1.22057   1.22357    0.000
 6707.00    1.20893   1.22326    0.000
 6708.00    1.19275   1.22304    0.000
 6709.00    1.20107   1.22252    0.000
 6710.00    1.21335   1.22146    0.000
 6711.00    1.22436   1.22073    0.000
 6712.00    1.23522   1.21971    0.000
 6713.00    1.22496   1.21783    0.000
 6714.00    1.21294   1.21600    0.000
 6715.00    1.21485   1.21358    0.000
 6716.00    1.21741   1.21001    0.000
 6717.00    1.21145   1.20636    0.000
 6718.00    1.20563   1.20271    0.000
 6719.00    1.21492   1.19900    0.000
 6720.00    1.22328   1.19612    0.000
 6721.00    1.21330   1.19483    0.000
 6722.00    1.20534   1.19502    0.000
 6723.00    1.22055   1.19638    0.000
 6724.00    1.23353   1.19941    0.000
 6725.00    1.22877   1.20341    0.000
 6726.00    1.22547   1.20736    0.000
 6727.00    1.23082   1.21130    0.000
 6728.00    1.23219   1.21474    0.000
 6729.00    1.21470   1.21751    0.000
 6730.00    1.20514   1.21971    0.000
 6731.00    1.22621   1.22121    0.000
 6732.00    1.23732   1.22255    0.000
 6733.00    1.21636   1.22375    0.000
 6734.00    1.20382   1.22453    0.000
 6735.00    1.21423   1.22508    0.000
 6736.00    1.22154   1.22540    0.000
 6737.00    1.22161   1.22518    0.000
 6738.00    1.21823   1.22432    0.000
 6739.00    1.20792   1.22303    0.000
 6740.00    1.20016   1.22127    0.000
 6741.00    1.19690   1.21902    0.000
 6742.00    1.19293   1.21654    0.000
 6743.00    1.18788   1.21408    0.000
 6744.00    1.19597   1.21162    0.000
 6745.00    1.22180   1.20921    0.000
 6746.00    1.22313   1.20717    0.000
 6747.00    1.19527   1.20544    0.000
 6748.00    1.18368   1.20366    0.000
 6749.00    1.18918   1.20210    0.000
 6750.00    1.19090   1.20086    0.000
 6751.00    1.18913   1.19959    0.000
 6752.00    1.18989   1.19836    0.000
 6753.00    1.19272   1.19769    0.242
 6754.00    1.17309   1.19770    0.243
 6755.00    1.13734   1.19779    0.240
 6756.00    1.14034   1.19887    0.239
 6757.00    1.16777   1.20117    0.239
 6758.00    1.20269   1.20345    0.244
 6759.00    1.24173   1.20659    0.252
 6760.00    1.26810   1.21059    0.257
 6761.00    1.28839   1.21416    0.260
 6762.00    1.36378   1.21768    0.269
 6763.00    1.46195   1.22110    0.281
 6764.00    1.46829   1.22336    0.283
 6765.00    1.44214   1.22462    0.282
 6766.00    1.45724   1.22503    0.281
 6767.00    1.48465   1.22385    0.280
 6768.00    1.48901   1.22187    0.280
 6769.00    1.48767   1.21924    0.280
 6770.00    1.41857   1.21578    0.270
 6771.00    1.33587   1.21290    0.260
 6772.00    1.30238   1.21046    0.256
 6773.00    1.27662   1.20850    0.254
 6774.00    1.26063   1.20823    0.248
 6775.00    1.24578   1.20913    0.242
 6776.00    1.24346   1.21088    0.242
 6777.00    1.24213   1.21378    0.244
 6778.00    1.25869   1.21737    0.247
 6779.00    1.27602   1.22088    0.251
 6780.00    1.27269   1.22381    0.252
 6781.00    1.26945   1.22631    0.253
 6782.00    1.28054   1.22753    0.252
 6783.00    1.29225   1.22698    0.252
 6784.00    1.31531   1.22552    0.253
 6785.00    1.33601   1.22280    0.254
 6786.00    1.33082   1.21880    0.256
 6787.00    1.32473   1.21501    0.258
 6788.00    1.31174   1.21141    0.260
 6789.00    1.29615   1.20813    0.261
 6790.00    1.26537   1.20641    0.260
 6791.00    1.24474   1.20574    0.259
 6792.00    1.27100   1.20564    0.259
 6793.00    1.29272   1.20651    0.259
 6794.00    1.29727   1.20758    0.259
 6795.00    1.29732   1.20810    0.259
 6796.00    1.28314   1.20843    0.257
 6797.00    1.27459   1.20857    0.256
 6798.00    1.28109   1.20805    0.255
 6799.00    1.28317   1.20751    0.253
 6800.00    1.27509   1.20752    0.250
 6801.00    1.26959   1.20753    0.248
 6802.00    1.26921   1.20786    0.248
 6803.00    1.26068   1.20877    0.247
 6804.00    1.23805   1.20960    0.243
 6805.00    1.22094   1.21036    0.241
 6806.00    1.21220   1.21093    0.243
 6807.00    1.21537   1.21112    0.244
 6808.00    1.23441   1.21105    0.246
 6809.00    1.24442   1.21030    0.247
 6810.00    1.24383   1.20953    0.248
 6811.00    1.23719   1.20879    0.250
 6812.00    1.22430   1.20736    0.252
 6813.00    1.22736   1.20648    0.256
 6814.00    1.24496   1.20589    0.263
 6815.00    1.25583   1.20485    0.266
 6816.00    1.26128   1.20464    0.264
 6817.00    1.25878   1.20472    0.260
 6818.00    1.25066   1.20477    0.255
 6819.00    1.24892   1.20551    0.253
 6820.00    1.25114   1.20633    0.252
 6821.00    1.26362   1.20737    0.251
 6822.00    1.28167   1.20874    0.251
 6823.00    1.26973   1.20995    0.247
 6824.00    1.24364   1.21134    0.242
 6825.00    1.22902   1.21265    0.242
 6826.00    1.21905   1.21372    0.242
 6827.00    1.21704   1.21449    0.245
 6828.00    1.21778   1.21480    0.248
 6829.00    1.22833   1.21470    0.249
 6830.00    1.24174   1.21389    0.249
 6831.00    1.25494   1.21291    0.253
 6832.00    1.26808   1.21189    0.257
 6833.00    1.27375   1.21059    0.256
 6834.00    1.27796   1.20981    0.253
 6835.00    1.27466   1.20934    0.257
 6836.00    1.27022   1.20861    0.262
 6837.00    1.24953   1.20788    0.263
 6838.00    1.22702   1.20663    0.262
 6839.00    1.23109   1.20427    0.263
 6840.00    1.23715   1.20111    0.265
 6841.00    1.23896   1.19683    0.261
 6842.00    1.24059   1.19170    0.256
 6843.00    1.23605   1.18672    0.252
 6844.00    1.23116   1.18191    0.249
 6845.00    1.21435   1.17821    0.243
 6846.00    1.19935   1.17639    0.239
 6847.00    1.21504   1.17628    0.240
 6848.00    1.22869   1.17808    0.242
 6849.00    1.22088   1.18155    0.243
 6850.00    1.21663   1.18586    0.244
 6851.00    1.23885   1.19041    0.248
 6852.00    1.25664   1.19464    0.251
 6853.00    1.24933   1.19793    0.249
 6854.00    1.24232   1.19972    0.247
 6855.00    1.23668   1.20020    0.250
 6856.00    1.23159   1.19933    0.252
 6857.00    1.22857   1.19686    0.254
 6858.00    1.22242   1.19398    0.256
 6859.00    1.20657   1.19078    0.257
 6860.00    1.19427   1.18688    0.257
 6861.00    1.19131   1.18413    0.255
 6862.00    1.19200   1.18230    0.253
 6863.00    1.20093   1.18027    0.253
 6864.00    1.20333   1.17981    0.253
 6865.00    1.19294   1.18054    0.252
 6866.00    1.18311   1.18075    0.251
 6867.00    1.17423   1.18157    0.249
 6868.00    1.17468   1.18306    0.248
 6869.00    1.18906   1.18350    0.248
 6870.00    1.20443   1.18355    0.248
 6871.00    1.22112   1.18381    0.246
 6872.00    1.22506   1.18322    0.245
 6873.00    1.21428   1.18243    0.244
 6874.00    1.20792   1.18198    0.242
 6875.00    1.20607   1.18145    0.240
 6876.00    1.20695   1.18143    0.240
 6877.00    1.21028   1.18160    0.243
 6878.00    1.21218   1.18207    0.246
 6879.00    1.21295   1.18324    0.249
 6880.00    1.21469   1.18405    0.252
 6881.00    1.21710   1.18472    0.256
 6882.00    1.22475   1.18575    0.258
 6883.00    1.23561   1.18603    0.259
 6884.00    1.22478   1.18571    0.259
 6885.00    1.20237   1.18575    0.260
 6886.00    1.19093   1.18574    0.258
 6887.00    1.18458   1.18579    0.256
 6888.00    1.18345   1.18647    0.252
 6889.00    1.18440   1.18820    0.248
 6890.00    1.17730   1.19058    0.246
 6891.00    1.16744   1.19294    0.245
 6892.00    1.16224   1.19621    0.245
 6893.00    1.15837   1.19961    0.245
 6894.00    1.17316   1.20175    0.247
 6895.00    1.19236   1.20379    0.250
 6896.00    1.20184   1.20541    0.248
 6897.00    1.20946   1.20559    0.246
 6898.00    1.21063   1.20538    0.250
 6899.00    1.21084   1.20520    0.255
 6900.00    1.21396   1.20434    0.257
 6901.00    1.21740   1.20355    0.258
 6902.00    1.21723   1.20342    0.259
 6903.00    1.21680   1.20325    0.261
 6904.00    1.20834   1.20324    0.261
 6905.00    1.19958   1.20363    0.260
 6906.00    1.19201   1.20437    0.259
 6907.00    1.18501   1.20500    0.257
 6908.00    1.19766   1.20533    0.258
 6909.00    1.20911   1.20614    0.258
 6910.00    1.20171   1.20662    0.257
 6911.00    1.19503   1.20629    0.256
 6912.00    1.19569   1.20622    0.252
 6913.00    1.19464   1.20517    0.249
 6914.00    1.18139   1.20333    0.250
 6915.00    1.17039   1.20167    0.251
 6916.00    1.17185   1.19882    0.251
 6917.00    1.17474   1.19621    0.250
 6918.00    1.18392   1.19442    0.249
 6919.00    1.19056   1.19218    0.248
 6920.00    1.18801   1.19143    0.249
 6921.00    1.18659   1.19213    0.250
 6922.00    1.18862   1.19240    0.252
 6923.00    1.18931   1.19377    0.255
 6924.00    1.18654   1.19575    0.260
 6925.00    1.18212   1.19629    0.262
 6926.00    1.17407   1.19653    0.260
 6927.00    1.17296   1.19638    0.260
 6928.00    1.18522   1.19503    0.265
 6929.00    1.19750   1.19342    0.267
 6930.00    1.20978   1.19183    0.265
 6931.00    1.21266   1.19034    0.263
 6932.00    1.20168   1.18951    0.263
 6933.00    1.19777   1.18897    0.262
 6934.00    1.20303   1.18877    0.261
 6935.00    1.20015   1.18921    0.260
 6936.00    1.18798   1.18965    0.259
 6937.00    1.18190   1.19017    0.256
 6938.00    1.18193   1.19059    0.252
 6939.00    1.18155   1.19126    0.253
 6940.00    1.18080   1.19233    0.256
 6941.00    1.18000   1.19281    0.256
 6942.00    1.17916   1.19324    0.251
 6943.00    1.17198   1.19377    0.251
 6944.00    1.16045   1.19343    0.253
 6945.00    1.15442   1.19214    0.255
 6946.00    1.15172   1.19072    0.257
 6947.00    1.17714   1.18852    0.262
 6948.00    1.21736   1.18597    0.267
 6949.00    1.22138   1.18409    0.269
 6950.00    1.20888   1.18178    0.269
 6951.00    1.19875   1.18030    0.268
 6952.00    1.18956   1.17995    0.267
 6953.00    1.18899   1.17894    0.266
 6954.00    1.19131   1.17877    0.266
 6955.00    1.17907   1.17934    0.263
 6956.00    1.16275   1.17897    0.259
 6957.00    1.17368   1.17922    0.258
 6958.00    1.19091   1.18040    0.257
 6959.00    1.19413   1.18108    0.257
 6960.00    1.19474   1.18231    0.256
 6961.00    1.17045   1.18463    0.254
 6962.00    1.14259   1.18654    0.252
 6963.00    1.15320   1.18829    0.254
 6964.00    1.16780   1.19053    0.257
 6965.00    1.16626   1.19194    0.259
 6966.00    1.16364   1.19320    0.260
 6967.00    1.18083   1.19449    0.262
 6968.00    1.19865   1.19469    0.264
 6969.00    1.17648   1.19542    0.266
 6970.00    1.15547   1.19607    0.267
 6971.00    1.16999   1.19541    0.269
 6972.00    1.18278   1.19553    0.271
 6973.00    1.16987   1.19510    0.272
 6974.00    1.15645   1.19322    0.273
 6975.00    1.13812   1.19129    0.269
 6976.00    1.12344   1.18776    0.266
 6977.00    1.13415   1.18308    0.263
 6978.00    1.14384   1.17809    0.260
 6979.00    1.14798   1.17162    0.258
 6980.00    1.15483   1.16497    0.257
 6981.00    1.17339   1.15955    0.259
 6982.00    1.18716   1.15554    0.260
 6983.00    1.18397   1.15287    0.259
 6984.00    1.18036   1.15237    0.259
 6985.00    1.17550   1.15549    0.260
 6986.00    1.17530   1.15985    0.261
 6987.00    1.18694   1.16445    0.262
 6988.00    1.19034   1.17076    0.264
 6989.00    1.17574   1.17651    0.267
 6990.00    1.16156   1.18067    0.268
 6991.00    1.14817   1.18430    0.268
 6992.00    1.14829   1.18696    0.270
 6993.00    1.17081   1.18860    0.276
 6994.00    1.17923   1.18938    0.277
 6995.00    1.16719   1.18980    0.271
 6996.00    1.16527   1.19010    0.268
 6997.00    1.17627   1.18972    0.269
 6998.00    1.16934   1.18881    0.269
 6999.00    1.14224   1.18744    0.269
 7000.00    1.12911   1.18538    0.265
 7001.00    1.12984   1.18285    0.259
 7002.00    1.14363   1.17973    0.261
 7003.00    1.16883   1.17646    0.270
 7004.00    1.16710   1.17321    0.282
 7005.00    1.14459   1.16990    0.296
 7006.00    0.84559   1.16753    0.222
 7007.00    0.35922   1.16603    0.153
 7008.00    0.36616   1.16467    0.202
 7009.00    0.66600   1.16405    0.794
 7010.00    0.76484   1.16444   -1.000
 7011.00    0.75959   1.16518   -1.000
 7012.00    0.76594   1.16611   -1.000
 7013.00    0.77751   1.16689   -1.000
 7014.00    0.77863   1.16736   -1.000
 7015.00    0.77573   1.16734   -1.000
 7016.00    0.77502   1.16604   -1.000
 7017.00    0.77503   1.16412   -1.000
 7018.00    0.77439   1.16189   -1.000
 7019.00    0.77357   1.15942   -1.000
 7020.00    0.77011   1.15745   -1.000
 7021.00    0.76607   1.15542   -1.000
 7022.00    0.76611   1.15455   -1.000
 7023.00    0.76688   1.15564   -1.000
 7024.00    0.76735   1.15651   -1.000
 7025.00    0.76777   1.15710   -1.000
 7026.00    0.77104   1.15860   -1.000
 7027.00    0.77460   1.15981   -1.000
 7028.00    0.77788   1.16041   -1.000
 7029.00    0.78113   1.16134   -1.000
 7030.00    0.78289   1.16282   -1.000
 7031.00    0.78459   1.16485   -1.000
 7032.00    0.78577   1.16697   -1.000
 7033.00    0.78681   1.16920   -1.000
 7034.00    0.78416   1.17153   -1.000
 7035.00    0.78185   1.17342   -1.000
 7036.00    0.78430   1.17492   -1.000
 7037.00    0.78603   1.17563   -1.000
 7038.00    0.78104   1.17624   -1.000
 7039.00    0.77672   1.17679   -1.000
 7040.00    0.77688   1.17671   -1.000
 7041.00    0.77814   1.17794   -1.000
 7042.00    0.78521   1.18005   -1.000
 7043.00    0.79090   1.18132   -1.000
 7044.00    0.79080   1.18410   -1.000
 7045.00    0.79202   1.18849   -1.000
 7046.00    0.79780   1.19210   -1.000
 7047.00    0.80064   1.19519   -1.000
 7048.00    0.79485   1.19856   -1.000
 7049.00    0.79009   1.20078   -1.000
 7050.00    0.78791   1.20171   -2.000
 7051.00    0.78945   1.20243   -2.000
 7052.00    0.79898   1.20217   -2.000
 7053.00    0.80808   1.20086   -2.000
 7054.00    0.81637   1.19861   -2.000
 7055.00    0.82179   1.19543   -2.000
 7056.00    0.82254   1.19218   -2.000
 7057.00    0.82845   1.18819   -2.000
 7058.00    0.84177   1.18402   -2.000
 7059.00    0.85343   1.18109   -2.000
 7060.00    0.86300   1.17853   -2.000
 7061.00    0.87301   1.17642   -2.000
 7062.00    0.88352   1.17492   -2.000
 7063.00    0.89499   1.17386   -2.000
 7064.00    0.90741   1.17293   -2.000
 7065.00    0.89463   1.17150   -2.000
 7066.00    0.86013   1.17084   -2.000
 7067.00    0.84132   1.17036   -2.000
 7068.00    0.83443   1.16876   -2.000
 7069.00    0.83946   1.16759   -2.000
 7070.00    0.85243   1.16670   -2.000
 7071.00    0.85996   1.16496   -2.000
 7072.00    0.86430   1.16415   -2.000
 7073.00    0.87089   1.16385   -2.000
 7074.00    0.87863   1.16414   -2.000
 7075.00    0.88755   1.16632   -2.000
 7076.00    0.89699   1.16878   -2.000
 7077.00    0.88843   1.17103   -2.000
 7078.00    0.87304   1.17388   -2.000
 7079.00    0.86687   1.17652   -2.000
 7080.00    0.86366   1.17840   -2.000
 7081.00    0.86499   1.17931   -2.000
 7082.00    0.86754   1.17948   -2.000
 7083.00    0.86084   1.17874   -2.000
 7084.00    0.85209   1.17627   -2.000
 7085.00    0.83948   1.17274   -2.000
 7086.00    0.82619   1.16822   -2.000
 7087.00    0.83296   1.16247   -2.000
 7088.00    0.84242   1.15659   -2.000
 7089.00    0.85052   1.15023   -2.000
 7090.00    0.85850   1.14421   -2.000
 7091.00    0.83829   1.14031   -2.000
 7092.00    0.81642   1.13657   -2.000
 7093.00    0.81726   1.13355   -2.000
 7094.00    0.81867   1.13260   -2.000
 7095.00    0.82071   1.13150   -2.000
 7096.00    0.82201   1.13157   -2.000
 7097.00    0.80492   1.13300   -2.000
 7098.00    0.78874   1.13375   -2.000
 7099.00    0.78469   1.13570   -2.000
 7100.00    0.77936   1.13803   -2.000
 7101.00    0.76270   1.14002   -2.000
 7102.00    0.74920   1.14249   -2.000
 7103.00    0.75637   1.14459   -2.000
 7104.00    0.76272   1.14641   -2.000
 7105.00    0.76492   1.14793   -2.000
 7106.00    0.76707   1.14881   -2.000
 7107.00    0.76906   1.14898   -2.000
 7108.00    0.77034   1.14846   -2.000
 7109.00    0.76927   1.14749   -2.000
 7110.00    0.76787   1.14594   -2.000
 7111.00    0.76557   1.14382   -2.000
 7112.00    0.76461   1.14076   -2.000
 7113.00    0.76695   1.13768   -2.000
 7114.00    0.76789   1.13518   -2.000
 7115.00    0.76588   1.13245   -2.000
 7116.00    0.76624   1.12993   -2.000
 7117.00    0.77097   1.12819   -2.000
 7118.00    0.77951   1.12731   -2.000
 7119.00    0.79417   1.12671   -2.000
 7120.00    0.81072   1.12621   -2.000
 7121.00    0.82990   1.12612   -2.000
 7122.00    0.83349   1.12572   -2.000
 7123.00    0.81773   1.12559   -2.000
 7124.00    0.81330   1.12508   -2.000
 7125.00    0.82124   1.12459   -2.000
 7126.00    0.82460   1.12473   -2.000
 7127.00    0.82354   1.12403   -2.000
 7128.00    0.82101   1.12377   -2.000
 7129.00    0.81722   1.12413   -2.000
 7130.00    0.81640   1.12360   -2.000
 7131.00    0.81779   1.12320   -2.000
 7132.00    0.81468   1.12243   -2.000
 7133.00    0.80862   1.12197   -2.000
 7134.00    0.79166   1.12253   -2.000
 7135.00    0.76843   1.12244   -2.000
 7136.00    0.77009   1.12343   -2.000
 7137.00    0.78424   1.12617   -2.000
 7138.00    0.80098   1.12898   -2.000
 7139.00    0.81885   1.13259   -2.000
 7140.00    0.82368   1.13620   -2.000
 7141.00    0.82365   1.13893   -2.000
 7142.00    0.80369   1.14181   -2.000
 7143.00    0.77744   1.14399   -2.000
 7144.00    0.77166   1.14432   -2.000
 7145.00    0.77128   1.14373   -2.000
 7146.00    0.76438   1.14324   -2.000
 7147.00    0.75608   1.14127   -2.000
 7148.00    0.75311   1.13853   -2.000
 7149.00    0.75104   1.13592   -2.000
 7150.00    0.75234   1.13230   -2.000
 7151.00    0.75409   1.13012   -2.000
 7152.00    0.76633   1.12864   -2.000
 7153.00    0.77953   1.12659   -2.000
 7154.00    0.77171   1.12747   -2.000
 7155.00    0.76275   1.12963   -2.000
 7156.00    0.76878   1.13191   -2.000
 7157.00    0.77493   1.13534   -2.000
 7158.00    0.76351   1.13864   -2.000
 7159.00    0.75377   1.14229   -2.000
 7160.00    0.78201   1.14465   -2.000
 7161.00    0.81032   1.14567   -2.000
 7162.00    0.83945   1.14685   -2.000
 7163.00    0.86513   1.14615   -2.000
 7164.00    0.86135   1.14456   -2.000
 7165.00    0.85375   1.14230   -2.000
 7166.00    0.82188   1.13903   -2.000
 7167.00    0.79737   1.13669   -2.000
 7168.00    0.80938   1.13504   -2.000
 7169.00    0.81840   1.13366   -2.000
 7170.00    0.81533   1.13385   -2.000
 7171.00    0.80886   1.13601   -2.000
 7172.00    0.79099   1.13951   -2.000
 7173.00    0.77347   1.14388   -2.000
 7174.00    0.75696   1.14847   -2.000
 7175.00    0.75230   1.15247   -2.000
 7176.00    0.77624   1.15616   -2.000
 7177.00    0.79483   1.15885   -2.000
 7178.00    0.80233   1.15970   -2.000
 7179.00    0.80506   1.15952   -2.000
 7180.00    0.79916   1.15825   -2.000
 7181.00    0.78321   1.15542   -2.000
 7182.00    0.75136   1.15217   -2.000
 7183.00    0.73314   1.14899   -2.000
 7184.00    0.73386   1.14535   -2.000
 7185.00    0.73563   1.14194   -2.000
 7186.00    0.73867   1.13835   -2.000
 7187.00    0.74399   1.13511   -2.000
 7188.00    0.75177   1.13305   -2.000
 7189.00    0.76105   1.13013   -2.000
 7190.00    0.77173   1.12714   -2.000
 7191.00    0.76639   1.12478   -2.000
 7192.00    0.74761   1.12214   -2.000
 7193.00    0.73684   1.12069   -2.000
 7194.00    0.73199   1.11986   -2.000
 7195.00    0.72927   1.11940   -2.000
 7196.00    0.72791   1.12049   -2.000
 7197.00    0.73450   1.12218   -2.000
 7198.00    0.74558   1.12403   -2.000
 7199.00    0.74956   1.12633   -2.000
 7200.00    0.75004   1.12943   -2.000
 7201.00    0.76390   1.13217   -2.000
 7202.00    0.78348   1.13401   -2.000
 7203.00    0.77773   1.13571   -2.000
 7204.00    0.76272   1.13648   -2.000
 7205.00    0.73753   1.13714   -2.000
 7206.00    0.70918   1.13719   -2.000
 7207.00    0.70352   1.13562   -2.000
 7208.00    0.70372   1.13425   -2.000
 7209.00    0.69532   1.13228   -2.000
 7210.00    0.68511   1.13034   -2.000
 7211.00    0.69114   1.12880   -2.000
 7212.00    0.69985   1.12665   -2.000
 7213.00    0.70473   1.12621   -2.000
 7214.00    0.70912   1.12672   -2.000
 7215.00    0.71043   1.12734   -2.000
 7216.00    0.71147   1.12883   -2.000
 7217.00    0.71840   1.12996   -2.000
 7218.00    0.72563   1.13113   -2.000
