###################################################################
## OUTPUT of StarlightChains_v04.for    [Cid@UFSC - 01/Apr/2007] ##
###################################################################

## Some input info
KUG0210-078._30_37.txt                   [arq_obs]
Base.CB07.vall.4m                        [arq_base]
Masks.EmLines.NEW.gm                     [arq_masks]
StCv04.C11.config                        [arq_config]
   66                                    [N_base]
    0                                    [N_YAV_components = # of components with extra extinction!]
    0                                    [i_FitPowerLaw (1/0 = Yes/No)]
-9.99                                    [alpha_PowerLaw]
CCM                                      [red_law_option]
 1.458241                                [q_norm = A(l_norm)/A(V)]

## (Re)Sampling Parameters
 3741.00                                 [l_ini (A)]
 7218.00                                 [l_fin (A)]
    1.00                                 [dl    (A)]     (OBS: dl_cushion =    50.00 A)

## Normalization info
 4020.00                                 [l_norm (A) - for base]
 4010.00                                 [llow_norm (A) - window for f_obs]
 4060.00                                 [lupp_norm (A) - window for f_obs]
7.973744E-17                             [fobs_norm (in input units)]

## S/N
 3691.00                                 [llow_SN (A) - window for S/N]
 7268.00                                 [lupp_SN (A) - window for S/N]
   4.879                                 [S/N in S/N window]
   3.747                                 [S/N in norm. window]
   0.177                                 [S/N_err in S/N window]
   0.136                                 [S/N_err in norm. window]
  1.0000                                 [fscale_chi2]

## etc...
    -2007438                             [idum_orig]
  2432                                   [NOl_eff]
  2420                                   [Nl_eff]
    12    NSIGMA                         [Ntot_cliped & clip_method]
  3435390                                [Nglobal_steps]
   7                                     [N_chains]
  17                                     [NEX0s_base = N_base in EX0s-fits]
 0   0   1       12   2.0   1.139E+04    [Clip-Bug, RC-Crash & Burn-In warning-flags, n_censored_weights, wei_nsig_threshold & wei_limit]
    56     55.606     54.919      0.687  [idt_all, wdt_TotTime, wdt_UsrTime & wdt_SysTime (sec)]

## Synthesis Results - Best model ##

 4.21917E-04                             [chi2/Nl_eff]
     7.92665                             [adev (%)]

   123.14680                             [sum-of-x (%)]
 3.79794E-17                             [Flux_tot (units of input spectrum!)]
 3.61051E-12                             [Mini_tot (???)]
 1.83779E-12                             [Mcor_tot (???)]

 221.78                                  [v0_min  (km/s)]
 187.62                                  [vd_min  (km/s)]
-0.7073                                  [AV_min  (mag)]
 0.0000                                  [YAV_min (mag)]

# j     x_j(%)      Mini_j(%)     Mcor_j(%)     age_j(yr)     Z_j      (L/M)_j    YAV?  Mstars   component_j        a/Fe...       SSP_chi2r SSP_adev(%)   SSP_AV   SSP_x(%)
  1      0.0000     0.0000E+00    0.0000E+00    1.000000E+06  0.00400  1.094E-02    0   1.0000   age020_m42            0.0000     1.1397E-03    13.7451   3.6470    97.1418
  2      0.0000     0.0000E+00    0.0000E+00    3.160000E+06  0.00400  4.007E-02    0   0.9999   age045_m42            0.0000     9.4243E-04    12.8031   2.8722   106.1601
  3      0.0000     0.0000E+00    0.0000E+00    5.010000E+06  0.00400  2.539E-02    0   0.9488   age055_m42            0.0000     1.0370E-03    13.2596   3.2165   102.4336
  4      0.0000     0.0000E+00    0.0000E+00    6.610000E+06  0.00400  2.620E-02    0   0.9220   age061_m42            0.0000     9.6899E-04    13.0052   2.8005   106.3039
  5      0.0000     0.0000E+00    0.0000E+00    1.000000E+07  0.00400  1.322E-02    0   0.8862   age070_m42            0.0000     1.2167E-03    15.0197   2.5461   107.0938
  6      0.0000     0.0000E+00    0.0000E+00    1.445000E+07  0.00400  7.883E-03    0   0.8571   age078_m42            0.0000     1.2362E-03    14.9431   2.8832   103.8915
  7      0.0000     0.0000E+00    0.0000E+00    2.512000E+07  0.00400  5.251E-03    0   0.8174   age090_m42            0.0000     1.2547E-03    15.3497   2.4168   107.6521
  8      0.0000     0.0000E+00    0.0000E+00    4.000000E+07  0.00400  3.649E-03    0   0.7851   age104_m42            0.0000     1.1959E-03    15.0468   2.1797   109.0980
  9      0.0000     0.0000E+00    0.0000E+00    5.500000E+07  0.00400  3.098E-03    0   0.7629   age110_m42            0.0000     1.0599E-03    14.0458   2.3104   110.2612
 10      0.0000     0.0000E+00    0.0000E+00    1.015200E+08  0.00400  2.228E-03    0   0.7207   age116_m42            0.0000     9.8142E-04    13.4637   2.3149   111.2813
 11      0.0000     0.0000E+00    0.0000E+00    2.861200E+08  0.00400  1.093E-03    0   0.6648   age125_m42            0.0000     1.0518E-03    14.1570   1.7348   114.9031
 12      0.0000     0.0000E+00    0.0000E+00    5.088000E+08  0.00400  6.597E-04    0   0.6365   age130_m42            0.0000     9.2286E-04    13.2125   1.7023   117.1707
 13      0.0000     0.0000E+00    0.0000E+00    1.434000E+09  0.00400  2.132E-04    0   0.5798   age139_m42            0.0000     7.9633E-04    12.5402   0.7240   120.2559
 14      0.0000     0.0000E+00    0.0000E+00    4.250000E+09  0.00400  5.895E-05    0   0.5377   age158_m42            0.0000     6.6628E-04    11.2934   0.2899   115.5103
 15     14.5214     3.5339E+00    3.6186E+00    7.500000E+09  0.00400  3.510E-05    0   0.5212   age171_m42            0.0000     6.2585E-04    10.8187   0.0928   115.2122
 16      0.0000     0.0000E+00    0.0000E+00    1.300000E+10  0.00400  2.005E-05    0   0.5034   age193_m42            0.0000     6.0740E-04    10.4534  -0.0782   114.8768
 17      1.1065     6.1981E-01    6.0482E-01    1.800000E+10  0.00400  1.525E-05    0   0.4967   age213_m42            0.0000     6.2003E-04    10.5770  -0.0966   114.1485
 18      0.0000     0.0000E+00    0.0000E+00    1.000000E+06  0.00800  1.238E-02    0   1.0000   age020_m52            0.0000     1.1362E-03    13.7402   3.6423    97.3848
 19      0.0000     0.0000E+00    0.0000E+00    3.160000E+06  0.00800  3.074E-02    0   0.9966   age045_m52            0.0000     1.1141E-03    13.6395   3.5647    98.3619
 20      0.0000     0.0000E+00    0.0000E+00    5.010000E+06  0.00800  2.668E-02    0   0.9443   age055_m52            0.0000     1.0741E-03    13.4993   3.3075   101.1406
 21      0.0000     0.0000E+00    0.0000E+00    6.610000E+06  0.00800  2.136E-02    0   0.9177   age061_m52            0.0000     1.1828E-03    14.9464   2.0568   107.9928
 22      0.0000     0.0000E+00    0.0000E+00    1.000000E+07  0.00800  1.215E-02    0   0.8827   age070_m52            0.0000     1.3265E-03    15.6846   2.7370   106.1473
 23      0.0000     0.0000E+00    0.0000E+00    1.445000E+07  0.00800  8.717E-03    0   0.8552   age078_m52            0.0000     1.2288E-03    14.9761   2.8448   105.5197
 24      0.0000     0.0000E+00    0.0000E+00    2.512000E+07  0.00800  5.592E-03    0   0.8162   age090_m52            0.0000     1.2665E-03    15.4518   2.4775   109.0266
 25      0.0000     0.0000E+00    0.0000E+00    4.000000E+07  0.00800  3.896E-03    0   0.7841   age104_m52            0.0000     1.1776E-03    14.9146   2.3733   110.6992
 26      0.0000     0.0000E+00    0.0000E+00    1.015200E+08  0.00800  2.148E-03    0   0.7226   age116_m52            0.0000     1.0316E-03    13.9328   2.2898   111.7238
 27      0.0000     0.0000E+00    0.0000E+00    2.861200E+08  0.00800  9.925E-04    0   0.6683   age125_m52            0.0000     9.3087E-04    13.3093   1.7672   118.2701
 28      0.0000     0.0000E+00    0.0000E+00    9.047900E+08  0.00800  3.141E-04    0   0.6138   age135_m52            0.0000     7.3918E-04    11.9258   0.9344   125.2761
 29      0.0000     0.0000E+00    0.0000E+00    1.434000E+09  0.00800  1.719E-04    0   0.5853   age139_m52            0.0000     6.9650E-04    11.6219   0.3644   122.2520
 30      0.0000     0.0000E+00    0.0000E+00    2.500000E+09  0.00800  7.872E-05    0   0.5600   age150_m52            0.0000     5.7485E-04    10.3575   0.0908   119.5603
 31      1.5094     2.9735E-01    3.1698E-01    4.250000E+09  0.00800  4.336E-05    0   0.5426   age158_m52            0.0000     5.7962E-04    10.3632   0.0798   118.2316
 32      0.0000     0.0000E+00    0.0000E+00    6.250000E+09  0.00800  3.159E-05    0   0.5319   age166_m52            0.0000     5.3046E-04     9.6770  -0.1396   119.1589
 33      0.0000     0.0000E+00    0.0000E+00    1.300000E+10  0.00800  1.361E-05    0   0.5073   age193_m52            0.0000     4.9487E-04     9.0107  -0.6305   119.6731
 34      0.0000     0.0000E+00    0.0000E+00    1.800000E+10  0.00800  9.886E-06    0   0.4990   age213_m52            0.0000     4.6443E-04     8.4070  -0.7608   120.2475
 35      0.0000     0.0000E+00    0.0000E+00    1.000000E+06  0.02000  1.544E-02    0   1.0000   age020_m62            0.0000     1.1421E-03    13.7789   3.6404    97.5348
 36      0.0000     0.0000E+00    0.0000E+00    3.160000E+06  0.02000  3.762E-02    0   0.9858   age045_m62            0.0000     1.1419E-03    13.7071   3.5802    98.3841
 37      0.0000     0.0000E+00    0.0000E+00    5.010000E+06  0.02000  3.296E-02    0   0.9342   age055_m62            0.0000     9.8146E-04    12.8865   3.1639   104.3155
 38      0.0000     0.0000E+00    0.0000E+00    8.710000E+06  0.02000  1.154E-02    0   0.8861   age067_m62            0.0000     2.0602E-03    19.9833   2.2446   105.7492
 39      0.0000     0.0000E+00    0.0000E+00    1.445000E+07  0.02000  7.663E-03    0   0.8472   age078_m62            0.0000     1.5156E-03    16.9471   2.3962   107.7200
 40      0.0000     0.0000E+00    0.0000E+00    2.512000E+07  0.02000  4.532E-03    0   0.8099   age090_m62            0.0000     1.5441E-03    17.1103   2.3835   107.5637
 41      0.0000     0.0000E+00    0.0000E+00    5.500000E+07  0.02000  2.733E-03    0   0.7595   age110_m62            0.0000     1.1912E-03    14.9772   2.3615   109.6490
 42      1.3143     8.2006E-03    1.1253E-02    1.609000E+08  0.02000  1.369E-03    0   0.6985   age120_m62            0.0000     1.0040E-03    13.7980   2.1545   115.0951
 43      0.0000     0.0000E+00    0.0000E+00    2.861200E+08  0.02000  9.013E-04    0   0.6714   age125_m62            0.0000     9.2710E-04    13.3074   1.8750   120.0549
 44      0.0000     0.0000E+00    0.0000E+00    5.088000E+08  0.02000  5.028E-04    0   0.6449   age130_m62            0.0000     7.5826E-04    11.8600   1.4620   125.3031
 45      0.0000     0.0000E+00    0.0000E+00    9.047900E+08  0.02000  2.428E-04    0   0.6179   age135_m62            0.0000     6.2564E-04    10.9635   0.8751   124.7607
 46      0.0000     0.0000E+00    0.0000E+00    1.434000E+09  0.02000  1.263E-04    0   0.5908   age139_m62            0.0000     5.8736E-04    10.5946   0.4370   122.7468
 47      0.0000     0.0000E+00    0.0000E+00    2.500000E+09  0.02000  5.985E-05    0   0.5673   age150_m62            0.0000     5.1814E-04     9.6521   0.0607   121.7408
 48      0.0000     0.0000E+00    0.0000E+00    4.250000E+09  0.02000  3.271E-05    0   0.5468   age158_m62            0.0000     4.6255E-04     8.7266  -0.2705   122.1727
 49      0.0000     0.0000E+00    0.0000E+00    1.000000E+10  0.02000  1.360E-05    0   0.5167   age181_m62            0.0000     4.3925E-04     7.9892  -0.6587   123.8080
 50     55.4118     6.6441E+01    6.5434E+01    1.800000E+10  0.02000  7.124E-06    0   0.5013   age213_m62            0.0000     4.3805E-04     7.5678  -0.9022   124.5704
 51      0.0000     0.0000E+00    0.0000E+00    1.000000E+06  0.05000  2.592E-02    0   0.9998   age020_m72            0.0000     1.1645E-03    13.9543   3.6346    97.4522
 52      0.0000     0.0000E+00    0.0000E+00    3.160000E+06  0.05000  4.845E-02    0   0.9577   age045_m72            0.0000     1.0599E-03    13.2147   3.4464   100.4610
 53      0.0000     0.0000E+00    0.0000E+00    5.010000E+06  0.05000  3.072E-02    0   0.9147   age055_m72            0.0000     1.3813E-03    15.6817   2.9749   103.8684
 54      0.0000     0.0000E+00    0.0000E+00    6.610000E+06  0.05000  1.455E-02    0   0.8877   age061_m72            0.0000     2.5390E-03    22.2709   2.2824   105.7033
 55      0.0000     0.0000E+00    0.0000E+00    1.000000E+07  0.05000  9.074E-03    0   0.8524   age070_m72            0.0000     1.4555E-03    15.7464   3.1391   103.8151
 56      0.0000     0.0000E+00    0.0000E+00    2.512000E+07  0.05000  4.250E-03    0   0.7902   age090_m72            0.0000     1.3396E-03    15.4976   2.8279   106.7323
 57      0.0000     0.0000E+00    0.0000E+00    4.000000E+07  0.05000  3.087E-03    0   0.7618   age104_m72            0.0000     1.3572E-03    15.7710   2.5935   108.8471
 58      0.0000     0.0000E+00    0.0000E+00    1.015200E+08  0.05000  1.700E-03    0   0.7096   age116_m72            0.0000     1.0936E-03    14.3817   2.3053   114.0240
 59      0.0000     0.0000E+00    0.0000E+00    2.861200E+08  0.05000  7.384E-04    0   0.6633   age125_m72            0.0000     8.2615E-04    12.5092   1.7206   122.9990
 60      0.0000     0.0000E+00    0.0000E+00    5.088000E+08  0.05000  3.819E-04    0   0.6372   age130_m72            0.0000     6.4752E-04    11.1109   1.2108   126.2236
 61      0.0000     0.0000E+00    0.0000E+00    9.047900E+08  0.05000  1.676E-04    0   0.6110   age135_m72            0.0000     4.8927E-04     9.5821   0.5056   124.8047
 62      0.4738     4.5799E-02    5.2852E-02    1.434000E+09  0.05000  8.837E-05    0   0.5874   age139_m72            0.0000     5.0263E-04     9.4955   0.0437   124.4079
 63      0.0000     0.0000E+00    0.0000E+00    2.500000E+09  0.05000  4.233E-05    0   0.5598   age150_m72            0.0000     4.4372E-04     8.4039  -0.2850   123.9837
 64     48.8096     2.9054E+01    2.9961E+01    6.250000E+09  0.05000  1.435E-05    0   0.5249   age166_m72            0.0000     4.2335E-04     7.7941  -0.7685   123.9970
 65      0.0000     0.0000E+00    0.0000E+00    1.300000E+10  0.05000  6.513E-06    0   0.5036   age193_m72            0.0000     4.6136E-04     8.3136  -1.0000   123.8298
 66      0.0000     0.0000E+00    0.0000E+00    1.800000E+10  0.05000  4.527E-06    0   0.4945   age213_m72            0.0000     5.8796E-04    10.3230  -1.0000   117.5152


## Synthesis Results - Average & Chains ##

# j      x_j: min, <> & last-chain-values for 1 ...  7 chains
  1      0.0000      0.9232      0.0104      0.0417      0.0479      0.1092      0.0254      0.0073      0.0257
  2      0.0000      0.8305      0.0293      0.0127      0.0000      0.1996      0.2193      0.0279      0.0000
  3      0.0000      0.8016      0.0078      0.0122      0.0668      0.0990      0.0154      0.0191      0.0063
  4      0.0000      0.8825      0.0061      0.0000      0.0281      0.0883      0.0000      0.0009      0.0734
  5      0.0000      0.7391      0.0000      0.0791      0.1040      0.0541      0.0123      0.0095      0.0827
  6      0.0000      0.9375      0.0113      0.0480      0.0482      0.0281      0.0983      0.0283      0.1158
  7      0.0000      0.7027      0.0000      0.0249      0.0615      0.0000      0.0000      0.0096      0.0000
  8      0.0000      0.6621      0.0034      0.0151      0.0000      0.0000      0.0309      0.0000      0.0000
  9      0.0000      0.7763      0.0141      0.0128      0.0000      0.0717      0.0068      0.0159      0.0000
 10      0.0000      0.7902      0.0176      0.0268      0.0000      0.1221      0.0000      0.0383      0.0000
 11      0.0000      0.6730      0.0076      0.0210      0.0000      0.1942      0.0156      0.0086      0.0136
 12      0.0000      1.0709      0.0000      0.0533      0.0438      0.0906      0.0000      0.0000      0.0983
 13      0.0000      0.8654      0.0096      0.0142      0.1338      0.2110      0.0117      0.0142      0.0803
 14      0.0000      0.7043      0.0169      0.0000      0.1247      0.0000      0.0293      0.0208      0.0416
 15     14.5214      4.6549      6.4404      6.3964      6.1770      6.0379      6.0134      6.4670      5.6118
 16      0.0000      0.9914      0.1143      0.1795      0.1020      0.1183      0.0292      0.0991      0.4948
 17      1.1065      2.2025      2.6392      2.6106      2.5612      2.6479      2.1923      2.6460      2.3205
 18      0.0000      0.7281      0.0650      0.0805      0.0321      0.0026      0.0748      0.0470      0.1657
 19      0.0000      0.4713      0.0000      0.0311      0.1920      0.0240      0.0047      0.0073      0.0000
 20      0.0000      0.6134      0.0481      0.0080      0.1237      0.0640      0.0276      0.0055      0.0110
 21      0.0000      0.7101      0.0281      0.0948      0.0000      0.0696      0.0000      0.0045      0.8562
 22      0.0000      0.6690      0.0103      0.0097      0.1241      0.1097      0.0000      0.0164      0.2061
 23      0.0000      0.8245      0.0425      0.0000      0.0000      0.0000      0.0068      0.0110      0.0600
 24      0.0000      0.7262      0.0322      0.0162      0.0254      0.0000      0.0326      0.0099      0.0415
 25      0.0000      0.6870      0.0000      0.0152      0.0658      0.0658      0.0085      0.0000      0.0000
 26      0.0000      0.5037      0.0096      0.0000      0.0237      0.0000      0.0954      0.0218      0.0000
 27      0.0000      0.6633      0.0152      0.0490      0.1270      0.0195      0.1254      0.0928      0.1384
 28      0.0000      0.6932      0.0182      0.0000      0.0189      0.1396      0.0000      0.0000      0.0435
 29      0.0000      0.6692      0.0097      0.0138      0.0951      0.0896      0.0972      0.0005      0.2897
 30      0.0000      0.6867      0.0233      0.0000      0.2349      0.1755      0.0388      0.0000      0.3959
 31      1.5094      2.3311      3.0266      2.9523      2.7923      2.5991      2.8007      2.9448      2.8211
 32      0.0000      4.7591      6.9458      6.9283      7.0187      6.8097      6.8455      7.2365      6.5085
 33      0.0000      0.8473      0.6344      0.6323      0.5927      0.6308      0.6313      0.5889      1.1660
 34      0.0000      8.0313     12.0300     12.1068     11.9457     12.0769     12.0474     11.9305     11.9593
 35      0.0000      1.3270      0.6289      0.9704      0.8153      0.7327      0.7685      0.6356      0.8929
 36      0.0000      0.9306      0.0031      0.0214      0.1034      0.0511      0.0124      0.0000      0.0675
 37      0.0000      0.6247      0.0091      0.0101      0.0287      0.0000      0.0266      0.0106      0.0373
 38      0.0000      0.6123      0.0088      0.0012      0.0579      0.0000      0.0016      0.0228      0.0000
 39      0.0000      0.7283      0.0008      0.0079      0.0522      0.0128      0.0405      0.0000      0.0000
 40      0.0000      0.6941      0.0047      0.0100      0.1158      0.1686      0.0151      0.0000      0.0000
 41      0.0000      6.8382      9.0389      8.9188      8.6805      8.7394      9.0001      8.9613      8.6345
 42      1.3143      5.7552      8.0208      8.0590      7.3822      7.6854      7.9717      7.9644      7.3315
 43      0.0000      0.8249      0.0193      0.0237      0.0000      0.0000      0.0627      0.0000      0.0191
 44      0.0000      0.6610      0.0170      0.0322      0.0000      0.1201      0.0609      0.0176      0.0073
 45      0.0000      0.6221      0.0288      0.0746      0.0000      0.0464      0.0215      0.0305      0.0000
 46      0.0000      0.5572      0.0104      0.0057      0.0939      0.0219      0.0000      0.0317      0.0000
 47      0.0000     12.0112     18.8427     18.8816     18.7327     19.0801     18.9896     19.2105     17.8224
 48      0.0000      6.8597     10.1922     10.2501     10.1210      9.9464     10.5419     10.1560      9.6391
 49      0.0000      1.1636      1.2093      0.8484      0.9826      0.8479      0.9105      0.8291      1.4764
 50     55.4118      1.0839      0.9594      0.6498      0.8214      0.7420      0.7793      0.6790      0.6750
 51      0.0000      0.5613      0.0062      0.0112      0.0000      0.1229      0.0075      0.0109      0.0643
 52      0.0000      0.6258      0.0016      0.0016      0.0550      0.0104      0.0000      0.0233      0.0000
 53      0.0000      0.5722      0.0095      0.0000      0.0486      0.0228      0.0175      0.0000      0.1069
 54      0.0000      0.9141      0.0000      0.0000      0.0000      0.0000      0.0000      0.0191      0.0000
 55      0.0000      0.7882      0.0094      0.0248      0.0000      0.0000      0.0069      0.0000      0.0000
 56      0.0000      0.6004      0.0825      0.0782      0.1486      0.1005      0.1018      0.0688      0.1377
 57      0.0000      5.5097      8.0837      8.0080      7.8616      7.7465      8.0669      8.0482      7.7790
 58      0.0000      7.5162     10.9694     11.0593     10.7738     10.7443     11.0235     11.0283     10.5937
 59      0.0000      0.8740      0.0141      0.0126      0.0000      0.0000      0.0000      0.0024      0.0000
 60      0.0000      0.6292      0.0145      0.0000      0.0392      0.0149      0.0713      0.0342      0.0431
 61      0.0000      0.6905      0.0098      0.0300      0.0000      0.2072      0.0479      0.0173      0.2613
 62      0.4738     10.0314     14.9349     14.8754     14.9096     15.0369     15.3193     15.2222     14.3990
 63      0.0000      2.1085      2.3319      2.2684      2.7460      2.3816      2.4356      2.2846      2.0429
 64     48.8096      1.3255      1.3783      1.5113      1.5512      1.4907      1.5408      1.6154      1.7159
 65      0.0000      1.0018      0.1511      0.1600      0.2538      0.3996      0.0835      0.1541      0.4710
 66      0.0000      0.8734      0.4445      0.3755      0.3080      0.3148      0.4016      0.3822      1.4680

# j      m_j: min, <> & last-chain-values for 1 ...  7 chains
  1  0.0000E+00  5.9520E-03  5.6586E-05  2.3045E-04  2.6385E-04  6.0155E-04  1.4144E-04  4.0394E-05  1.3086E-04
  2  0.0000E+00  1.4618E-03  4.3337E-05  1.9147E-05  0.0000E+00  3.0032E-04  3.3272E-04  4.2036E-05  0.0000E+00
  3  0.0000E+00  2.1128E-03  1.7206E-05  2.7599E-05  1.5036E-04  2.2302E-04  3.5101E-05  4.2990E-05  1.2999E-05
  4  0.0000E+00  2.1904E-03  1.2673E-05  0.0000E+00  5.9609E-05  1.8740E-04  0.0000E+00  1.9985E-06  1.4377E-04
  5  0.0000E+00  3.4946E-03  0.0000E+00  3.2088E-04  4.2009E-04  2.1880E-04  5.0030E-05  3.8274E-05  3.0829E-04
  6  0.0000E+00  7.1893E-03  7.2509E-05  3.1561E-04  3.1571E-04  1.8388E-04  6.5022E-04  1.8574E-04  7.0013E-04
  7  0.0000E+00  7.7152E-03  0.0000E+00  2.3497E-04  5.7634E-04  0.0000E+00  0.0000E+00  8.9997E-05  0.0000E+00
  8  0.0000E+00  1.0047E-02  4.3624E-05  1.9631E-04  0.0000E+00  0.0000E+00  4.0452E-04  0.0000E+00  0.0000E+00
  9  0.0000E+00  1.3483E-02  2.0639E-04  1.9112E-04  0.0000E+00  1.0651E-03  1.0113E-04  2.3604E-04  0.0000E+00
 10  0.0000E+00  1.8028E-02  3.3690E-04  5.2532E-04  0.0000E+00  2.3803E-03  0.0000E+00  7.4768E-04  0.0000E+00
 11  0.0000E+00  2.8871E-02  2.7290E-04  7.7132E-04  0.0000E+00  7.1197E-03  5.7738E-04  3.1681E-04  4.5873E-04
 12  0.0000E+00  7.2879E-02  0.0000E+00  3.1110E-03  2.5436E-03  5.2690E-03  0.0000E+00  0.0000E+00  5.2765E-03
 13  0.0000E+00  1.6598E-01  1.5510E-03  2.3442E-03  2.1925E-02  3.4590E-02  1.9331E-03  2.3289E-03  1.2154E-02
 14  0.0000E+00  4.5309E-01  9.1542E-03  0.0000E+00  6.8528E-02  0.0000E+00  1.6244E-02  1.1444E-02  2.1125E-02
 15  3.6186E+00  4.8752E+00  5.6679E+00  5.7477E+00  5.5249E+00  5.4052E+00  5.4297E+00  5.7962E+00  4.6355E+00
 16  0.0000E+00  1.7556E+00  1.7008E-01  2.7269E-01  1.5430E-01  1.7899E-01  4.4575E-02  1.5014E-01  6.9104E-01
 17  6.0482E-01  5.0596E+00  5.0946E+00  5.1455E+00  5.0249E+00  5.1995E+00  4.3419E+00  5.2018E+00  4.2043E+00
 18  0.0000E+00  4.1482E-03  3.1109E-04  3.9344E-04  1.5632E-04  1.2691E-05  3.6760E-04  2.2909E-04  7.4435E-04
 19  0.0000E+00  1.0778E-03  0.0000E+00  6.0966E-05  3.7485E-04  4.6991E-05  9.3507E-06  1.4226E-05  0.0000E+00
 20  0.0000E+00  1.5314E-03  1.0082E-04  1.7213E-05  2.6369E-04  1.3656E-04  5.9379E-05  1.1679E-05  2.1660E-05
 21  0.0000E+00  2.1518E-03  7.1656E-05  2.4635E-04  0.0000E+00  1.8018E-04  0.0000E+00  1.1658E-05  2.0463E-03
 22  0.0000E+00  3.4281E-03  4.4349E-05  4.2736E-05  5.4289E-04  4.8067E-04  0.0000E+00  7.1811E-05  8.3300E-04
 23  0.0000E+00  5.7054E-03  2.4717E-04  0.0000E+00  0.0000E+00  0.0000E+00  4.0353E-05  6.5160E-05  3.2765E-04
 24  0.0000E+00  7.4756E-03  2.7836E-04  1.4329E-04  2.2312E-04  0.0000E+00  2.8902E-04  8.6871E-05  3.3679E-04
 25  0.0000E+00  9.7518E-03  0.0000E+00  1.8498E-04  7.9818E-04  7.9855E-04  1.0419E-04  0.0000E+00  0.0000E+00
 26  0.0000E+00  1.1951E-02  1.9222E-04  0.0000E+00  4.7977E-04  0.0000E+00  1.9507E-03  4.4306E-04  0.0000E+00
 27  0.0000E+00  3.1501E-02  6.0463E-04  1.9946E-03  5.1495E-03  7.9231E-04  5.1357E-03  3.7720E-03  5.1846E-03
 28  0.0000E+00  9.5549E-02  2.1055E-03  0.0000E+00  2.2219E-03  1.6442E-02  0.0000E+00  0.0000E+00  4.7325E-03
 29  0.0000E+00  1.6072E-01  1.9664E-03  2.8352E-03  1.9506E-02  1.8393E-02  2.0116E-02  9.5780E-05  5.4880E-02
 30  0.0000E+00  3.4454E-01  9.8358E-03  0.0000E+00  1.0066E-01  7.5271E-02  1.6793E-02  0.0000E+00  1.5667E-01
 31  3.1698E-01  2.0575E+00  2.2447E+00  2.2357E+00  2.1048E+00  1.9608E+00  2.1311E+00  2.2243E+00  1.9638E+00
 32  0.0000E+00  5.6519E+00  6.9313E+00  7.0594E+00  7.1184E+00  6.9127E+00  7.0089E+00  7.3546E+00  6.0961E+00
 33  0.0000E+00  2.2276E+00  1.4015E+00  1.4262E+00  1.3307E+00  1.4175E+00  1.4309E+00  1.3249E+00  2.4177E+00
 34  0.0000E+00  2.8592E+01  3.5988E+01  3.6980E+01  3.6319E+01  3.6751E+01  3.6977E+01  3.6348E+01  3.3580E+01
 35  0.0000E+00  6.0617E-03  2.4141E-03  3.8033E-03  3.1808E-03  2.8608E-03  3.0267E-03  2.4848E-03  3.2169E-03
 36  0.0000E+00  1.7199E-03  4.7729E-06  3.3896E-05  1.6318E-04  8.0682E-05  1.9792E-05  0.0000E+00  9.8339E-05
 37  0.0000E+00  1.2489E-03  1.5327E-05  1.7406E-05  4.8993E-05  0.0000E+00  4.5857E-05  1.8157E-05  5.8857E-05
 38  0.0000E+00  3.3159E-03  4.0142E-05  5.4304E-06  2.6782E-04  0.0000E+00  7.6473E-06  1.0557E-04  0.0000E+00
 39  0.0000E+00  5.6793E-03  5.0625E-06  5.2713E-05  3.4786E-04  8.5649E-05  2.7200E-04  0.0000E+00  0.0000E+00
 40  0.0000E+00  8.7484E-03  4.9489E-05  1.0809E-04  1.2470E-03  1.8163E-03  1.6392E-04  0.0000E+00  0.0000E+00
 41  0.0000E+00  1.3403E-01  1.4887E-01  1.4999E-01  1.4530E-01  1.4642E-01  1.5209E-01  1.5032E-01  1.3348E-01
 42  1.1253E-02  2.0711E-01  2.4254E-01  2.4883E-01  2.2688E-01  2.3641E-01  2.4733E-01  2.4528E-01  2.0809E-01
 43  0.0000E+00  4.3340E-02  8.5312E-04  1.0675E-03  0.0000E+00  0.0000E+00  2.8423E-03  0.0000E+00  7.9289E-04
 44  0.0000E+00  5.9799E-02  1.2907E-03  2.4997E-03  0.0000E+00  9.2889E-03  4.7505E-03  1.3598E-03  5.2190E-04
 45  0.0000E+00  1.1166E-01  4.3456E-03  1.1491E-02  0.0000E+00  7.1184E-03  3.3194E-03  4.6779E-03  0.0000E+00
 46  0.0000E+00  1.8383E-01  2.8937E-03  1.6061E-03  2.6464E-02  6.1664E-03  0.0000E+00  8.9619E-03  0.0000E+00
 47  0.0000E+00  8.0300E+00  1.0585E+01  1.0830E+01  1.0695E+01  1.0903E+01  1.0945E+01  1.0991E+01  9.3974E+00
 48  0.0000E+00  8.0879E+00  1.0098E+01  1.0369E+01  1.0191E+01  1.0024E+01  1.0716E+01  1.0247E+01  8.9635E+00
 49  0.0000E+00  3.1180E+00  2.7229E+00  1.9506E+00  2.2486E+00  1.9422E+00  2.1035E+00  1.9013E+00  3.1202E+00
 50  6.5434E+01  5.3796E+00  4.0010E+00  2.7671E+00  3.4814E+00  3.1478E+00  3.3346E+00  2.8838E+00  2.6424E+00
 51  0.0000E+00  1.5270E-03  1.4148E-05  2.6215E-05  0.0000E+00  2.8575E-04  1.7581E-05  2.5380E-05  1.3790E-04
 52  0.0000E+00  8.7254E-04  1.8711E-06  1.9601E-06  6.5535E-05  1.2426E-05  0.0000E+00  2.7812E-05  0.0000E+00
 53  0.0000E+00  1.2017E-03  1.6813E-05  0.0000E+00  8.7163E-05  4.0858E-05  3.1617E-05  0.0000E+00  1.7707E-04
 54  0.0000E+00  3.9337E-03  0.0000E+00  0.0000E+00  0.0000E+00  0.0000E+00  0.0000E+00  7.0209E-05  0.0000E+00
 55  0.0000E+00  5.2226E-03  5.2499E-05  1.4074E-04  0.0000E+00  0.0000E+00  3.9403E-05  0.0000E+00  0.0000E+00
 56  0.0000E+00  7.8741E-03  9.0957E-04  8.7963E-04  1.6642E-03  1.1268E-03  1.1507E-03  7.7181E-04  1.4247E-03
 57  0.0000E+00  9.5899E-02  1.1823E-01  1.1959E-01  1.1686E-01  1.1525E-01  1.2105E-01  1.1988E-01  1.0679E-01
 58  0.0000E+00  2.2128E-01  2.7137E-01  2.7935E-01  2.7088E-01  2.7038E-01  2.7980E-01  2.7786E-01  2.4598E-01
 59  0.0000E+00  5.5378E-02  7.5039E-04  6.8259E-04  0.0000E+00  0.0000E+00  0.0000E+00  1.3202E-04  0.0000E+00
 60  0.0000E+00  7.4041E-02  1.4290E-03  0.0000E+00  3.9358E-03  1.4958E-03  7.2346E-03  3.4447E-03  3.9974E-03
 61  0.0000E+00  1.7755E-01  2.1235E-03  6.6165E-03  0.0000E+00  4.5545E-02  1.0622E-02  3.8047E-03  5.2986E-02
 62  5.2852E-02  4.7030E+00  5.8836E+00  5.9835E+00  5.9696E+00  6.0259E+00  6.1919E+00  6.1073E+00  5.3242E+00
 63  0.0000E+00  1.9667E+00  1.8277E+00  1.8154E+00  2.1875E+00  1.8988E+00  1.9586E+00  1.8236E+00  1.5029E+00
 64  2.9961E+01  3.4198E+00  2.9880E+00  3.3454E+00  3.4177E+00  3.2873E+00  3.4271E+00  3.5666E+00  3.4916E+00
 65  0.0000E+00  5.4636E+00  6.9238E-01  7.4853E-01  1.1821E+00  1.8628E+00  3.9240E-01  7.1931E-01  2.0257E+00
 66  0.0000E+00  6.7287E+00  2.8777E+00  2.4820E+00  2.0269E+00  2.0729E+00  2.6676E+00  2.5199E+00  8.9201E+00

# AV, chi2 & Mass for <> & i_chain = 1 ...  7 solutions
AV      -0.7073      0.3219      0.3152      0.3288      0.3216      0.3259      0.3266      0.3171      0.3066
chi2 4.2192E-04  1.2568E-03  7.1173E-04  7.1895E-04  7.1609E-04  7.1692E-04  7.1647E-04  7.1196E-04  7.1473E-04
Mass 1.8378E-12  1.7420E-12  2.0544E-12  2.0492E-12  2.0390E-12  2.0490E-12  2.0335E-12  2.0224E-12  2.1639E-12
 221.78                                  [v0_min (km/s) before EX0s...]
 187.62                                  [vd_min (km/s) before EX0s...]


## Synthetic spectrum (Best Model) ##l_obs f_obs f_syn wei
 3478    [Nl_obs]
 3741.00    0.54355   0.50247    0.000
 3742.00    0.59417   0.54550    0.000
 3743.00    0.62879   0.57348    0.000
 3744.00    0.61324   0.57946    0.000
 3745.00    0.56845   0.56361    0.413
 3746.00    0.54970   0.53227    0.360
 3747.00    0.54416   0.49423    0.296
 3748.00    0.52094   0.45776    0.336
 3749.00    0.48994   0.42966    0.467
 3750.00    0.50762   0.41549    0.394
 3751.00    0.54368   0.41956    0.294
 3752.00    0.57507   0.44417    0.262
 3753.00    0.60498   0.48804    0.244
 3754.00    0.59980   0.54474    0.241
 3755.00    0.58523   0.60320    0.242
 3756.00    0.58319   0.65044    0.233
 3757.00    0.58389   0.67595    0.223
 3758.00    0.58417   0.67569    0.264
 3759.00    0.58437   0.65395    0.340
 3760.00    0.55569   0.62182    0.517
 3761.00    0.52318   0.59219    1.111
 3762.00    0.51310   0.57375    0.472
 3763.00    0.50513   0.56797    0.282
 3764.00    0.51723   0.57061    0.253
 3765.00    0.53049   0.57576    0.233
 3766.00    0.54235   0.57979    0.275
 3767.00    0.55392   0.58285    0.337
 3768.00    0.53608   0.58739    0.319
 3769.00    0.51864   0.59624    0.302
 3770.00    0.51101   0.61157    0.285
 3771.00    0.50278   0.63392    0.269
 3772.00    0.48660   0.66149    0.254
 3773.00    0.47016   0.69077    0.240
 3774.00    0.45141   0.71784    0.220
 3775.00    0.43634   0.73968    0.210
 3776.00    0.44519   0.75490    0.245
 3777.00    0.45614   0.76425    0.281
 3778.00    0.47773   0.77049    0.258
 3779.00    0.49854   0.77713    0.243
 3780.00    0.51615   0.78661    0.245
 3781.00    0.53570   0.79940    0.245
 3782.00    0.56180   0.81394    0.238
 3783.00    0.58601   0.82704    0.233
 3784.00    0.60483   0.83444    0.233
 3785.00    0.61460   0.83178    0.235
 3786.00    0.60222   0.81597    0.241
 3787.00    0.59024   0.78631    0.260
 3788.00    0.57910   0.74574    0.320
 3789.00    0.59162   0.70107    0.344
 3790.00    0.64751   0.66086    0.278
 3791.00    0.67627   0.63164    0.248
 3792.00    0.66160   0.61516    0.246
 3793.00    0.63487   0.60816    0.248
 3794.00    0.59117   0.60454    0.256
 3795.00    0.56130   0.59864    0.248
 3796.00    0.54852   0.58767    0.225
 3797.00    0.54063   0.57238    0.231
 3798.00    0.53804   0.55626    0.276
 3799.00    0.54212   0.54401    0.298
 3800.00    0.55259   0.54024    0.287
 3801.00    0.57127   0.54870    0.288
 3802.00    0.59692   0.57089    0.301
 3803.00    0.62253   0.60447    0.305
 3804.00    0.64810   0.64326    0.303
 3805.00    0.65430   0.67903    0.279
 3806.00    0.64779   0.70483    0.247
 3807.00    0.61084   0.71790    0.238
 3808.00    0.55642   0.72036    0.240
 3809.00    0.55512   0.71773    0.260
 3810.00    0.58037   0.71555    0.296
 3811.00    0.61354   0.71570    0.349
 3812.00    0.65014   0.71520    0.428
 3813.00    0.67378   0.70826    0.323
 3814.00    0.69262   0.69018    0.230
 3815.00    0.67158   0.66073    0.214
 3816.00    0.63800   0.62471    0.213
 3817.00    0.60689   0.58902    0.273
 3818.00    0.57642   0.55895    0.424
 3819.00    0.58485   0.53609    0.337
 3820.00    0.60161   0.51870    0.251
 3821.00    0.59446   0.50406    0.242
 3822.00    0.58324   0.49065    0.241
 3823.00    0.54682   0.47857    0.247
 3824.00    0.50716   0.46794    0.252
 3825.00    0.50650   0.45767    0.233
 3826.00    0.50935   0.44615    0.215
 3827.00    0.53530   0.43331    0.277
 3828.00    0.56250   0.42139    0.402
 3829.00    0.55401   0.41335    0.338
 3830.00    0.54493   0.41047    0.289
 3831.00    0.54678   0.41118    0.254
 3832.00    0.55025   0.41219    0.227
 3833.00    0.58992   0.41069    0.227
 3834.00    0.62507   0.40621    0.226
 3835.00    0.60414   0.40077    0.228
 3836.00    0.58737   0.39714    0.235
 3837.00    0.60574   0.39678    0.309
 3838.00    0.62196   0.39897    0.406
 3839.00    0.62467   0.40194    0.313
 3840.00    0.62489   0.40532    0.257
 3841.00    0.61277   0.41148    0.228
 3842.00    0.60129   0.42426    0.212
 3843.00    0.59232   0.44644    0.231
 3844.00    0.58814   0.47738    0.253
 3845.00    0.59981   0.51271    0.283
 3846.00    0.60723   0.54629    0.303
 3847.00    0.60270   0.57279    0.000
 3848.00    0.60672   0.58939    0.000
 3849.00    0.63130   0.59619    0.000
 3850.00    0.65556   0.59538    0.000
 3851.00    0.67918   0.59015    0.000
 3852.00    0.68652   0.58377    0.000
 3853.00    0.66448   0.57852    0.000
 3854.00    0.65652   0.57454    0.000
 3855.00    0.67073   0.56992    0.000
 3856.00    0.67770   0.56213    0.000
 3857.00    0.67465   0.54951    0.000
 3858.00    0.67071   0.53237    0.000
 3859.00    0.66569   0.51301    0.000
 3860.00    0.67089   0.49530    0.000
 3861.00    0.68706   0.48395    0.000
 3862.00    0.68240   0.48318    0.000
 3863.00    0.65800   0.49470    0.000
 3864.00    0.61559   0.51616    0.000
 3865.00    0.55814   0.54155    0.000
 3866.00    0.50529   0.56373    0.000
 3867.00    0.45584   0.57756    0.000
 3868.00    0.42605   0.58145    0.000
 3869.00    0.40896   0.57659    0.000
 3870.00    0.37749   0.56540    0.000
 3871.00    0.33788   0.55072    0.000
 3872.00    0.35532   0.53602    0.000
 3873.00    0.40082   0.52560    0.000
 3874.00    0.46157   0.52350    0.000
 3875.00    0.52879   0.53128    0.000
 3876.00    0.55147   0.54636    0.000
 3877.00    0.55794   0.56246    0.000
 3878.00    0.58959   0.57276    0.000
 3879.00    0.62900   0.57352    0.000
 3880.00    0.63853   0.56597    0.000
 3881.00    0.64038   0.55514    0.287
 3882.00    0.66879   0.54661    0.265
 3883.00    0.70275   0.54359    0.237
 3884.00    0.69897   0.54604    0.256
 3885.00    0.68896   0.55132    0.291
 3886.00    0.68584   0.55581    0.266
 3887.00    0.68358   0.55684    0.240
 3888.00    0.65904   0.55500    0.215
 3889.00    0.63259   0.55465    0.194
 3890.00    0.64386   0.56189    0.222
 3891.00    0.65700   0.58114    0.263
 3892.00    0.68394   0.61229    0.249
 3893.00    0.71073   0.65043    0.235
 3894.00    0.71362   0.68794    0.221
 3895.00    0.71552   0.71790    0.210
 3896.00    0.69723   0.73671    0.214
 3897.00    0.67778   0.74501    0.216
 3898.00    0.64473   0.74628    0.199
 3899.00    0.61157   0.74436    0.186
 3900.00    0.57746   0.74184    0.194
 3901.00    0.54412   0.73973    0.199
 3902.00    0.51541   0.73800    0.194
 3903.00    0.48668   0.73580    0.185
 3904.00    0.45783   0.73195    0.164
 3905.00    0.43398   0.72593    0.151
 3906.00    0.42966   0.71906    0.155
 3907.00    0.43161   0.71483    0.159
 3908.00    0.45399   0.71774    0.164
 3909.00    0.48528   0.73093    0.170
 3910.00    0.54113   0.75417    0.180
 3911.00    0.60037   0.78369    0.188
 3912.00    0.66759   0.81389    0.191
 3913.00    0.71689   0.83963    0.194
 3914.00    0.72962   0.85757    0.196
 3915.00    0.73491   0.86632    0.204
 3916.00    0.72699   0.86575    0.224
 3917.00    0.72893   0.85634    0.232
 3918.00    0.74622   0.83884    0.217
 3919.00    0.75822   0.81421    0.211
 3920.00    0.76303   0.78394    0.213
 3921.00    0.74373   0.75042    0.215
 3922.00    0.69550   0.71715    0.215
 3923.00    0.68534   0.68803    0.215
 3924.00    0.71550   0.66573    0.215
 3925.00    0.74359   0.64991    0.225
 3926.00    0.76972   0.63682    0.248
 3927.00    0.78556   0.62055    0.249
 3928.00    0.79292   0.59579    0.231
 3929.00    0.79427   0.56003    0.225
 3930.00    0.79126   0.51451    0.226
 3931.00    0.76618   0.46331    0.233
 3932.00    0.72706   0.41171    0.244
 3933.00    0.72287   0.36477    0.244
 3934.00    0.73812   0.32669    0.237
 3935.00    0.75094   0.30075    0.229
 3936.00    0.76259   0.28944    0.222
 3937.00    0.79850   0.29423    0.215
 3938.00    0.84455   0.31504    0.209
 3939.00    0.84625   0.34968    0.212
 3940.00    0.83209   0.39366    0.219
 3941.00    0.82699   0.44095    0.216
 3942.00    0.82464   0.48549    0.211
 3943.00    0.81347   0.52317    0.207
 3944.00    0.80009   0.55321    0.202
 3945.00    0.79500   0.57829    0.197
 3946.00    0.79161   0.60291    0.191
 3947.00    0.82016   0.63081    0.195
 3948.00    0.85383   0.66304    0.200
 3949.00    0.85840   0.69784    0.205
 3950.00    0.85949   0.73222    0.209
 3951.00    0.88241   0.76358    0.217
 3952.00    0.90711   0.79040    0.226
 3953.00    0.91621   0.81194    0.219
 3954.00    0.92460   0.82790    0.213
 3955.00    0.88755   0.83828    0.203
 3956.00    0.85069   0.84314    0.195
 3957.00    0.85424   0.84246    0.206
 3958.00    0.85615   0.83591    0.218
 3959.00    0.82672   0.82291    0.210
 3960.00    0.79919   0.80243    0.000
 3961.00    0.79307   0.77292    0.000
 3962.00    0.78972   0.73320    0.000
 3963.00    0.80816   0.68393    0.000
 3964.00    0.82114   0.62823    0.000
 3965.00    0.80175   0.57062    0.000
 3966.00    0.77831   0.51476    0.000
 3967.00    0.73590   0.46250    0.000
 3968.00    0.71180   0.41481    0.000
 3969.00    0.75786   0.37372    0.000
 3970.00    0.80144   0.34309    0.000
 3971.00    0.83707   0.32764    0.000
 3972.00    0.87284   0.33089    0.000
 3973.00    0.90901   0.35363    0.000
 3974.00    0.92179   0.39374    0.000
 3975.00    0.88025   0.44718    0.000
 3976.00    0.86718   0.50929    0.000
 3977.00    0.91129   0.57580    0.000
 3978.00    0.92720   0.64328    0.000
 3979.00    0.89379   0.70883    0.000
 3980.00    0.87666   0.76973    0.000
 3981.00    0.88448   0.82313    0.210
 3982.00    0.89875   0.86637    0.211
 3983.00    0.92169   0.89813    0.205
 3984.00    0.93481   0.91938    0.201
 3985.00    0.93630   0.93356    0.199
 3986.00    0.94465   0.94522    0.200
 3987.00    0.96017   0.95809    0.202
 3988.00    0.98262   0.97366    0.205
 3989.00    1.01147   0.99102    0.209
 3990.00    1.01734   1.00803    0.207
 3991.00    1.00454   1.02275    0.200
 3992.00    1.00069   1.03439    0.197
 3993.00    1.00323   1.04316    0.197
 3994.00    0.99219   1.04930    0.195
 3995.00    0.97262   1.05231    0.192
 3996.00    0.95875   1.05135    0.191
 3997.00    0.94799   1.04658    0.191
 3998.00    0.94309   1.04041    0.191
 3999.00    0.94098   1.03719    0.190
 4000.00    0.95674   1.04133    0.192
 4001.00    0.97984   1.05458    0.197
 4002.00    0.97654   1.07446    0.198
 4003.00    0.96396   1.09465    0.197
 4004.00    0.95152   1.10763    0.199
 4005.00    0.93912   1.10812    0.201
 4006.00    0.95900   1.09589    0.200
 4007.00    0.98682   1.07644    0.198
 4008.00    0.97191   1.05891    0.198
 4009.00    0.94850   1.05169    0.197
 4010.00    0.96631   1.05832    0.195
 4011.00    0.99051   1.07645    0.193
 4012.00    1.00396   1.10008    0.192
 4013.00    1.01618   1.12334    0.191
 4014.00    1.00000   1.14292    0.191
 4015.00    0.98163   1.15815    0.191
 4016.00    1.00962   1.16967    0.199
 4017.00    1.03956   1.17818    0.207
 4018.00    1.02158   1.18411    0.205
 4019.00    1.00354   1.18794    0.202
 4020.00    1.00188   1.19035    0.196
 4021.00    1.00275   1.19177    0.190
 4022.00    1.04830   1.19196    0.192
 4023.00    1.08772   1.19022    0.193
 4024.00    1.06111   1.18633    0.197
 4025.00    1.03864   1.18140    0.200
 4026.00    1.04753   1.17767    0.191
 4027.00    1.04670   1.17714    0.185
 4028.00    0.98980   1.17952    0.194
 4029.00    0.93905   1.18105    0.200
 4030.00    0.91645   1.17520    0.192
 4031.00    0.89008   1.15598    0.184
 4032.00    0.84951   1.12177    0.174
 4033.00    0.81298   1.07775    0.167
 4034.00    0.78907   1.03479    0.168
 4035.00    0.77720   1.00539    0.196
 4036.00    0.79736   0.99883    0.477
 4037.00    0.82177   1.01759    1.241
 4038.00    0.85587   1.05654    0.290
 4039.00    0.88293   1.10514    0.192
 4040.00    0.89606   1.15086    0.193
 4041.00    0.92074   1.18310    0.193
 4042.00    0.96533   1.19572    0.192
 4043.00    0.98647   1.18733    0.191
 4044.00    0.97222   1.15972    0.189
 4045.00    0.97138   1.11704    0.191
 4046.00    0.98831   1.06628    0.198
 4047.00    1.01271   1.01825    0.202
 4048.00    1.04585   0.98631    0.202
 4049.00    1.05789   0.98117    0.202
 4050.00    1.04824   1.00472    0.203
 4051.00    1.03935   1.04811    0.199
 4052.00    1.03117   1.09624    0.192
 4053.00    1.02574   1.13506    0.191
 4054.00    1.02253   1.15617    0.194
 4055.00    1.00071   1.15806    0.194
 4056.00    0.96580   1.14476    0.192
 4057.00    0.96828   1.12288    0.191
 4058.00    0.99385   1.09918    0.192
 4059.00    1.02766   1.07897    0.196
 4060.00    1.06592   1.06476    0.202
 4061.00    1.04818   1.05613    0.200
 4062.00    1.00420   1.04957    0.196
 4063.00    0.98501   1.03981    0.194
 4064.00    0.97585   1.02355    0.192
 4065.00    0.97255   1.00301    0.192
 4066.00    0.97129   0.98581    0.194
 4067.00    1.00002   0.98046    0.195
 4068.00    1.03747   0.99038    0.197
 4069.00    1.05524   1.01225    0.194
 4070.00    1.06829   1.03871    0.191
 4071.00    1.07649   1.06151    0.193
 4072.00    1.08376   1.07464    0.196
 4073.00    1.10849   1.07701    0.195
 4074.00    1.13585   1.07266    0.193
 4075.00    1.08176   1.06662    0.191
 4076.00    1.01866   1.06044    0.189
 4077.00    1.04838   1.05266    0.192
 4078.00    1.08489   1.04304    0.194
 4079.00    1.07922   1.03543    0.197
 4080.00    1.07194   1.03685    0.200
 4081.00    1.06366   1.05266    0.197
 4082.00    1.05635   1.08220    0.194
 4083.00    1.08597   1.11837    0.192
 4084.00    1.11319   1.15151    0.190
 4085.00    1.10088   1.17541    0.191
 4086.00    1.08446   1.19048    0.192
 4087.00    1.02559   1.20213    0.190
 4088.00    0.97859   1.21665    0.190
 4089.00    1.01873   1.23691    0.190
 4090.00    1.05438   1.26040    0.191
 4091.00    1.06484   1.28106    0.191
 4092.00    1.07656   1.29309    0.000
 4093.00    1.09395   1.29363    0.000
 4094.00    1.10983   1.28301    0.000
 4095.00    1.12014   1.26348    0.000
 4096.00    1.12796   1.23695    0.000
 4097.00    1.12813   1.20473    0.000
 4098.00    1.12019   1.16892    0.000
 4099.00    1.09106   1.13202    0.000
 4100.00    1.06231   1.09589    0.000
 4101.00    1.03441   1.06178    0.000
 4102.00    1.02827   1.03132    0.000
 4103.00    1.06447   1.00811    0.000
 4104.00    1.08297   0.99729    0.000
 4105.00    1.07142   1.00253    0.000
 4106.00    1.05660   1.02365    0.000
 4107.00    1.03692   1.05619    0.000
 4108.00    1.02399   1.09232    0.000
 4109.00    1.01989   1.12366    0.000
 4110.00    1.04356   1.14469    0.000
 4111.00    1.09920   1.15444    0.000
 4112.00    1.12721   1.15615    0.000
 4113.00    1.12716   1.15543    0.186
 4114.00    1.12366   1.15758    0.186
 4115.00    1.11705   1.16509    0.185
 4116.00    1.09897   1.17674    0.184
 4117.00    1.07183   1.18867    0.182
 4118.00    1.05473   1.19633    0.182
 4119.00    1.04460   1.19650    0.182
 4120.00    1.07010   1.18920    0.267
 4121.00    1.11729   1.17789    1.036
 4122.00    1.13724   1.16703   -1.000
 4123.00    1.14272   1.15981   -1.000
 4124.00    1.12999   1.15771   -1.000
 4125.00    1.10886   1.16041   -1.000
 4126.00    1.09374   1.16574   -1.000
 4127.00    1.08100   1.17017   -1.000
 4128.00    1.08509   1.17024    0.494
 4129.00    1.09487   1.16384    0.211
 4130.00    1.08036   1.15045    0.186
 4131.00    1.05895   1.13091    0.184
 4132.00    1.04349   1.10712    0.182
 4133.00    1.02944   1.08227    0.181
 4134.00    1.04358   1.06123    0.181
 4135.00    1.06304   1.04952    0.181
 4136.00    1.09727   1.05136    0.184
 4137.00    1.13366   1.06749    0.186
 4138.00    1.13850   1.09401    0.186
 4139.00    1.13999   1.12395    0.186
 4140.00    1.15748   1.14948    0.188
 4141.00    1.17608   1.16342    0.191
 4142.00    1.16142   1.16100    0.192
 4143.00    1.14561   1.14122    0.193
 4144.00    1.14374   1.10841    0.190
 4145.00    1.14140   1.07244    0.187
 4146.00    1.12260   1.04464    0.189
 4147.00    1.10509   1.03228    0.191
 4148.00    1.10753   1.03579    0.190
 4149.00    1.11077   1.04963    0.188
 4150.00    1.12195   1.06543    0.188
 4151.00    1.12952   1.07640    0.188
 4152.00    1.11139   1.08004    0.192
 4153.00    1.09419   1.07717    0.195
 4154.00    1.08210   1.07043    0.195
 4155.00    1.06442   1.06266    0.193
 4156.00    1.02229   1.05646    0.186
 4157.00    0.98867   1.05399    0.181
 4158.00    0.98566   1.05723    0.182
 4159.00    0.99716   1.06788    0.182
 4160.00    1.05249   1.08592    0.179
 4161.00    1.10103   1.10932    0.177
 4162.00    1.13214   1.13491    0.179
 4163.00    1.15035   1.15930    0.181
 4164.00    1.14009   1.17874    0.183
 4165.00    1.12411   1.18989    0.185
 4166.00    1.09715   1.19147    0.185
 4167.00    1.08244   1.18417    0.186
 4168.00    1.08818   1.17039    0.186
 4169.00    1.06892   1.15414    0.186
 4170.00    1.01303   1.13866    0.183
 4171.00    1.00052   1.12412    0.181
 4172.00    1.04387   1.10825    0.181
 4173.00    1.06134   1.08875    0.182
 4174.00    1.04943   1.06624    0.186
 4175.00    1.05542   1.04425    0.188
 4176.00    1.07932   1.02704    0.188
 4177.00    1.11771   1.01757    0.187
 4178.00    1.16887   1.01637    0.185
 4179.00    1.16335   1.02198    0.182
 4180.00    1.11374   1.03207    0.179
 4181.00    1.08356   1.04384    0.177
 4182.00    1.06665   1.05518    0.176
 4183.00    1.06526   1.06566    0.177
 4184.00    1.07315   1.07597    0.179
 4185.00    1.08968   1.08652    0.179
 4186.00    1.11072   1.09647    0.178
 4187.00    1.13247   1.10340    0.177
 4188.00    1.15454   1.10567    0.177
 4189.00    1.14930   1.10496    0.177
 4190.00    1.13341   1.10432    0.178
 4191.00    1.11345   1.10609    0.178
 4192.00    1.09214   1.11166    0.177
 4193.00    1.08402   1.12107    0.178
 4194.00    1.07958   1.13137    0.180
 4195.00    1.10402   1.13700    0.179
 4196.00    1.13508   1.13314    0.179
 4197.00    1.12928   1.11823    0.181
 4198.00    1.11671   1.09406    0.185
 4199.00    1.11905   1.06512    0.185
 4200.00    1.12349   1.03769    0.184
 4201.00    1.10364   1.01700    0.179
 4202.00    1.08131   1.00533    0.174
 4203.00    1.10876   1.00365    0.175
 4204.00    1.13945   1.01235    0.176
 4205.00    1.11559   1.03038    0.177
 4206.00    1.09013   1.05597    0.179
 4207.00    1.11380   1.08687    0.177
 4208.00    1.13712   1.11956    0.174
 4209.00    1.15004   1.14985    0.175
 4210.00    1.16067   1.17384    0.175
 4211.00    1.13782   1.18945    0.174
 4212.00    1.11902   1.19691    0.173
 4213.00    1.13853   1.19698    0.174
 4214.00    1.15333   1.19014    0.174
 4215.00    1.13576   1.17756    0.172
 4216.00    1.11461   1.16236    0.170
 4217.00    1.07445   1.15083    0.169
 4218.00    1.04116   1.14954    0.168
 4219.00    1.03720   1.16110    0.169
 4220.00    1.03378   1.18328    0.170
 4221.00    1.03223   1.20923    0.168
 4222.00    1.03003   1.22859    0.167
 4223.00    1.02590   1.23062    0.170
 4224.00    1.02696   1.20859    0.173
 4225.00    1.04111   1.16166    0.174
 4226.00    1.05654   1.09526    0.173
 4227.00    1.07472   1.02154    0.170
 4228.00    1.08483   0.95802    0.168
 4229.00    1.07972   0.92138    0.168
 4230.00    1.06376   0.91968    0.166
 4231.00    1.02993   0.95043    0.162
 4232.00    0.99615   1.00208    0.160
 4233.00    0.96246   1.05777    0.161
 4234.00    0.95243   1.10297    0.163
 4235.00    0.97244   1.13058    0.165
 4236.00    0.99109   1.14021    0.165
 4237.00    1.00822   1.13720    0.164
 4238.00    1.01376   1.13011    0.164
 4239.00    1.00785   1.12597    0.164
 4240.00    1.01381   1.12898    0.163
 4241.00    1.03010   1.14134    0.162
 4242.00    1.04954   1.16271    0.161
 4243.00    1.07140   1.19031    0.161
 4244.00    1.09055   1.22086    0.163
 4245.00    1.10787   1.25069    0.166
 4246.00    1.14259   1.27411    0.172
 4247.00    1.18757   1.28522    0.181
 4248.00    1.22153   1.28063    0.185
 4249.00    1.24982   1.26048    0.186
 4250.00    1.25783   1.22828    0.185
 4251.00    1.25681   1.19043    0.183
 4252.00    1.20597   1.15542    0.181
 4253.00    1.13603   1.12917    0.179
 4254.00    1.10763   1.11274    0.173
 4255.00    1.09277   1.10509    0.167
 4256.00    1.08926   1.10557    0.167
 4257.00    1.08884   1.11287    0.170
 4258.00    1.12867   1.12333    0.173
 4259.00    1.17752   1.13185    0.176
 4260.00    1.17733   1.13506    0.176
 4261.00    1.16838   1.13355    0.177
 4262.00    1.17214   1.13254    0.178
 4263.00    1.17764   1.13958    0.180
 4264.00    1.18590   1.15935    0.179
 4265.00    1.19444   1.19122    0.177
 4266.00    1.13281   1.22924    0.172
 4267.00    1.06690   1.26338    0.168
 4268.00    1.00007   1.28281    0.165
 4269.00    0.93342   1.28064    0.162
 4270.00    0.90482   1.25492    0.162
 4271.00    0.87862   1.20811    0.162
 4272.00    0.91569   1.14772    0.164
 4273.00    0.95524   1.08571    0.167
 4274.00    1.02877   1.03396    0.172
 4275.00    1.09916   1.00089    0.177
 4276.00    1.14094   0.99222    0.179
 4277.00    1.18349   1.00909    0.180
 4278.00    1.23116   1.04607    0.178
 4279.00    1.26332   1.09303    0.177
 4280.00    1.21521   1.13834    0.176
 4281.00    1.18051   1.17312    0.176
 4282.00    1.20179   1.19418   -2.000
 4283.00    1.21058   1.20247   -2.000
 4284.00    1.17625   1.20146   -2.000
 4285.00    1.14903   1.19475   -2.000
 4286.00    1.14247   1.18413   -2.000
 4287.00    1.15635   1.17046   -2.000
 4288.00    1.22091   1.15337   -2.000
 4289.00    1.26425   1.13148   -2.000
 4290.00    1.26223   1.10528   -2.000
 4291.00    1.26424   1.07930   -2.000
 4292.00    1.27374   1.05985   -2.000
 4293.00    1.27809   1.05136   -2.000
 4294.00    1.27408   1.05389   -2.000
 4295.00    1.26704   1.06349   -2.000
 4296.00    1.25569   1.07432   -2.000
 4297.00    1.24507   1.07905   -2.000
 4298.00    1.23538   1.07121    0.182
 4299.00    1.22902   1.04800    0.181
 4300.00    1.22636   1.01139    0.178
 4301.00    1.22092   0.96813    0.178
 4302.00    1.21277   0.92634    0.180
 4303.00    1.20218   0.89199    0.183
 4304.00    1.18949   0.86824    0.187
 4305.00    1.18184   0.85455    0.189
 4306.00    1.17800   0.84656    0.189
 4307.00    1.16602   0.83918    0.188
 4308.00    1.14864   0.82927    0.187
 4309.00    1.17499   0.81775    0.189
 4310.00    1.22679   0.80980    0.192
 4311.00    1.23437   0.81195    0.190
 4312.00    1.21953   0.82969    0.186
 4313.00    1.23637   0.86596    0.182
 4314.00    1.26711   0.92055    0.179
 4315.00    1.26862   0.99090    0.175
 4316.00    1.25911   1.07384    0.172
 4317.00    1.24472   1.16401    0.172
 4318.00    1.22878   1.25269    0.175
 4319.00    1.24130   1.33043    0.173
 4320.00    1.26144   1.38902    0.170
 4321.00    1.27654   1.42217    0.174
 4322.00    1.29054   1.42703    0.178
 4323.00    1.27309   1.40420    0.181
 4324.00    1.25016   1.35710    0.183
 4325.00    1.26259   1.29361    0.182
 4326.00    1.27970   1.22665    0.181
 4327.00    1.29367   1.17244    0.180
 4328.00    1.30735   1.14528    0.179
 4329.00    1.29366   1.15099    0.176
 4330.00    1.27840   1.18561    0.000
 4331.00    1.28693   1.23869    0.000
 4332.00    1.29579   1.29801    0.000
 4333.00    1.27958   1.35293    0.000
 4334.00    1.26392   1.39610    0.000
 4335.00    1.26136   1.42430    0.000
 4336.00    1.25913   1.43547    0.000
 4337.00    1.26123   1.42655    0.000
 4338.00    1.26477   1.39594    0.000
 4339.00    1.28084   1.34696    0.000
 4340.00    1.29616   1.28700    0.000
 4341.00    1.30656   1.22726    0.000
 4342.00    1.31682   1.18134    0.000
 4343.00    1.32630   1.15877    0.000
 4344.00    1.32668   1.16154    0.000
 4345.00    1.28991   1.18663    0.000
 4346.00    1.26150   1.22714    0.000
 4347.00    1.26139   1.27360    0.000
 4348.00    1.27245   1.31801    0.000
 4349.00    1.31538   1.35531    0.000
 4350.00    1.34725   1.38047    0.000
 4351.00    1.35215   1.38828    0.174
 4352.00    1.34907   1.37785    0.172
 4353.00    1.32917   1.35526    0.175
 4354.00    1.31566   1.32980    0.175
 4355.00    1.31385   1.30981    0.170
 4356.00    1.32715   1.30149    0.168
 4357.00    1.36459   1.30731    0.169
 4358.00    1.38733   1.32388    0.170
 4359.00    1.38944   1.34444    0.173
 4360.00    1.38777   1.36447    0.172
 4361.00    1.38143   1.38332    0.167
 4362.00    1.38615   1.40168    0.167
 4363.00    1.40291   1.42030    0.172
 4364.00    1.42064   1.44001    0.175
 4365.00    1.43929   1.46042    0.176
 4366.00    1.41588   1.47782    0.177
 4367.00    1.35688   1.48686    0.177
 4368.00    1.34531   1.48479    0.178
 4369.00    1.36906   1.47273    0.178
 4370.00    1.36790   1.45376    0.178
 4371.00    1.35044   1.43135    0.176
 4372.00    1.35386   1.40850    0.177
 4373.00    1.36924   1.38607    0.180
 4374.00    1.39091   1.36287    0.181
 4375.00    1.41571   1.33877    0.180
 4376.00    1.40475   1.31681    0.179
 4377.00    1.37837   1.30168    0.177
 4378.00    1.36556   1.29620    0.178
 4379.00    1.35779   1.29892    0.180
 4380.00    1.33880   1.30425    0.180
 4381.00    1.31631   1.30410    0.181
 4382.00    1.31176   1.28981    0.179
 4383.00    1.31190   1.25529    0.175
 4384.00    1.30202   1.20289    0.174
 4385.00    1.28999   1.14501    0.174
 4386.00    1.32471   1.09738    0.176
 4387.00    1.36733   1.07111    0.179
 4388.00    1.35314   1.06948    0.177
 4389.00    1.33169   1.08914    0.174
 4390.00    1.35054   1.12194    0.173
 4391.00    1.37298   1.15886    0.172
 4392.00    1.38728   1.19378    0.173
 4393.00    1.40114   1.22384    0.174
 4394.00    1.39283   1.24855    0.173
 4395.00    1.38416   1.26950    0.173
 4396.00    1.38119   1.29007    0.174
 4397.00    1.37681   1.31283    0.175
 4398.00    1.34124   1.33656    0.176
 4399.00    1.31102   1.35697    0.177
 4400.00    1.34685   1.36952    0.178
 4401.00    1.38003   1.37162    0.178
 4402.00    1.39089   1.36347    0.176
 4403.00    1.40048   1.34529    0.175
 4404.00    1.40202   1.31612    0.178
 4405.00    1.40357   1.27864    0.181
 4406.00    1.40513   1.24077    0.179
 4407.00    1.40511   1.21011    0.178
 4408.00    1.39884   1.19143    0.177
 4409.00    1.38985   1.18913    0.176
 4410.00    1.37187   1.20623    0.173
 4411.00    1.36346   1.24046    0.170
 4412.00    1.38185   1.28479    0.171
 4413.00    1.40261   1.32970    0.172
 4414.00    1.42904   1.36469    0.174
 4415.00    1.45085   1.38251    0.176
 4416.00    1.46310   1.38409    0.178
 4417.00    1.46641   1.37678    0.178
 4418.00    1.45363   1.36912    0.176
 4419.00    1.45337   1.36834    0.174
 4420.00    1.47281   1.37740    0.175
 4421.00    1.47241   1.39297    0.174
 4422.00    1.44461   1.40827    0.173
 4423.00    1.42455   1.41796    0.172
 4424.00    1.41389   1.42047    0.171
 4425.00    1.41747   1.41685    0.173
 4426.00    1.43630   1.40966    0.177
 4427.00    1.44695   1.40246    0.179
 4428.00    1.44988   1.39820    0.180
 4429.00    1.47104   1.39721    0.179
 4430.00    1.50742   1.39704    0.177
 4431.00    1.52103   1.39572    0.175
 4432.00    1.51793   1.39306    0.174
 4433.00    1.50192   1.38776    0.175
 4434.00    1.47758   1.37793    0.176
 4435.00    1.47262   1.36423    0.176
 4436.00    1.47860   1.35092    0.176
 4437.00    1.47105   1.34408    0.178
 4438.00    1.45688   1.34795    0.181
 4439.00    1.46587   1.36279    0.180
 4440.00    1.48469   1.38446    0.176
 4441.00    1.48087   1.40575    0.175
 4442.00    1.46882   1.42014    0.174
 4443.00    1.45646   1.42511    0.176
 4444.00    1.44401   1.42349    0.177
 4445.00    1.45423   1.42159    0.175
 4446.00    1.47026   1.42481    0.172
 4447.00    1.46452   1.43506    0.171
 4448.00    1.45425   1.45162    0.170
 4449.00    1.46059   1.47156    0.173
 4450.00    1.46966   1.48926    0.175
 4451.00    1.45610   1.49981    0.173
 4452.00    1.43975   1.50103    0.171
 4453.00    1.41321   1.49142    0.171
 4454.00    1.38581   1.47010    0.172
 4455.00    1.39583   1.43846    0.172
 4456.00    1.40770   1.40084    0.173
 4457.00    1.41215   1.36266    0.172
 4458.00    1.41627   1.32775    0.171
 4459.00    1.40736   1.29854    0.171
 4460.00    1.39950   1.27690    0.171
 4461.00    1.41275   1.26325    0.000
 4462.00    1.42507   1.25742    0.000
 4463.00    1.42653   1.26083    0.000
 4464.00    1.43236   1.27412    0.000
 4465.00    1.47369   1.29472    0.000
 4466.00    1.50872   1.31934    0.000
 4467.00    1.50535   1.34503    0.000
 4468.00    1.49480   1.36849    0.000
 4469.00    1.44981   1.38701    0.000
 4470.00    1.42163   1.40055    0.000
 4471.00    1.45907   1.41194    0.000
 4472.00    1.49905   1.42488    0.000
 4473.00    1.54732   1.44236    0.000
 4474.00    1.56933   1.46525    0.000
 4475.00    1.51909   1.49195    0.000
 4476.00    1.48093   1.51994    0.000
 4477.00    1.47122   1.54670    0.000
 4478.00    1.46384   1.56842    0.000
 4479.00    1.46123   1.58014    0.000
 4480.00    1.46464   1.57842    0.000
 4481.00    1.47873   1.56384    0.000
 4482.00    1.49428   1.54116    0.171
 4483.00    1.51211   1.51809    0.172
 4484.00    1.53657   1.50242    0.172
 4485.00    1.57004   1.49864    0.172
 4486.00    1.57702   1.50690    0.170
 4487.00    1.55224   1.52274    0.168
 4488.00    1.53295   1.53849    0.167
 4489.00    1.51946   1.54715    0.168
 4490.00    1.50801   1.54574    0.169
 4491.00    1.49847   1.53613    0.168
 4492.00    1.51051   1.52247    0.169
 4493.00    1.54030   1.50780    0.170
 4494.00    1.54452   1.49323    0.171
 4495.00    1.53024   1.47980    0.172
 4496.00    1.50812   1.46953    0.172
 4497.00    1.48102   1.46447    0.171
 4498.00    1.48791   1.46639    0.171
 4499.00    1.51367   1.47617    0.172
 4500.00    1.51045   1.49292    0.170
 4501.00    1.49324   1.51432    0.168
 4502.00    1.48158   1.53895    0.167
 4503.00    1.47225   1.56701    0.166
 4504.00    1.50574   1.59754    0.168
 4505.00    1.55451   1.62740    0.171
 4506.00    1.52478   1.65365    0.170
 4507.00    1.47139   1.67423    0.167
 4508.00    1.47742   1.68805    0.165
 4509.00    1.49833   1.69515    0.163
 4510.00    1.50049   1.69633    0.164
 4511.00    1.49883   1.69247    0.165
 4512.00    1.47177   1.68364    0.163
 4513.00    1.44065   1.67004    0.162
 4514.00    1.45781   1.65299    0.162
 4515.00    1.48071   1.63449    0.162
 4516.00    1.50306   1.61665    0.163
 4517.00    1.52536   1.60084    0.165
 4518.00    1.53105   1.58812    0.165
 4519.00    1.53599   1.58055    0.164
 4520.00    1.53503   1.57950    0.165
 4521.00    1.53390   1.58363    0.166
 4522.00    1.52723   1.58899    0.167
 4523.00    1.52091   1.59080    0.168
 4524.00    1.52095   1.58612    0.166
 4525.00    1.52107   1.57269    0.164
 4526.00    1.52209   1.54858    0.165
 4527.00    1.52475   1.51458    0.166
 4528.00    1.54024   1.47413    0.167
 4529.00    1.55467   1.43233    0.168
 4530.00    1.56280   1.39502    0.168
 4531.00    1.56474   1.36691    0.167
 4532.00    1.53761   1.35075    0.166
 4533.00    1.51467   1.34590    0.166
 4534.00    1.50779   1.34866    0.167
 4535.00    1.50901   1.35639    0.168
 4536.00    1.53605   1.36945    0.172
 4537.00    1.56020   1.38956    0.175
 4538.00    1.57653   1.41590    0.171
 4539.00    1.58237   1.44474    0.169
 4540.00    1.56393   1.47246    0.170
 4541.00    1.54958   1.49651    0.169
 4542.00    1.54342   1.51555    0.166
 4543.00    1.53801   1.52908    0.165
 4544.00    1.53392   1.53599    0.166
 4545.00    1.53293   1.53602    0.168
 4546.00    1.53668   1.53140    0.170
 4547.00    1.54600   1.52497    0.170
 4548.00    1.56282   1.51794    0.169
 4549.00    1.56597   1.50998    0.169
 4550.00    1.55299   1.50181    0.000
 4551.00    1.55156   1.49520    0.000
 4552.00    1.56216   1.49015    0.000
 4553.00    1.57661   1.48600    0.000
 4554.00    1.59459   1.48301    0.000
 4555.00    1.59537   1.48191    0.000
 4556.00    1.58222   1.48467    0.000
 4557.00    1.56838   1.49397    0.000
 4558.00    1.55407   1.51071    0.000
 4559.00    1.56600   1.53320    0.000
 4560.00    1.59436   1.55817    0.000
 4561.00    1.59091   1.58249    0.000
 4562.00    1.57005   1.60280    0.000
 4563.00    1.57095   1.61484    0.000
 4564.00    1.58219   1.61592    0.000
 4565.00    1.59358   1.60752    0.000
 4566.00    1.60505   1.59483    0.000
 4567.00    1.58811   1.58425    0.000
 4568.00    1.56122   1.57951    0.000
 4569.00    1.54983   1.58091    0.000
 4570.00    1.54302   1.58648    0.000
 4571.00    1.55762   1.59253    0.000
 4572.00    1.57746   1.59729    0.000
 4573.00    1.58284   1.60205    0.000
 4574.00    1.58537   1.60667    0.000
 4575.00    1.57465   1.60972    0.000
 4576.00    1.56189   1.61141    0.000
 4577.00    1.56388   1.61233    0.000
 4578.00    1.56756   1.61086    0.000
 4579.00    1.56428   1.60386    0.000
 4580.00    1.56047   1.58997    0.000
 4581.00    1.56067   1.57059    0.000
 4582.00    1.56103   1.54899    0.000
 4583.00    1.57203   1.52918    0.000
 4584.00    1.58302   1.51389    0.000
 4585.00    1.58999   1.50426    0.000
 4586.00    1.59578   1.50085    0.000
 4587.00    1.58081   1.50457    0.000
 4588.00    1.56698   1.51568    0.000
 4589.00    1.56523   1.53200    0.000
 4590.00    1.56380   1.54930    0.000
 4591.00    1.56481   1.56307    0.000
 4592.00    1.56597   1.57080    0.000
 4593.00    1.56800   1.57197    0.000
 4594.00    1.57311   1.56655    0.000
 4595.00    1.59229   1.55539    0.000
 4596.00    1.60474   1.54079    0.000
 4597.00    1.59201   1.52610    0.000
 4598.00    1.58255   1.51450    0.000
 4599.00    1.58329   1.50790    0.000
 4600.00    1.58261   1.50562    0.000
 4601.00    1.57816   1.50600    0.000
 4602.00    1.57655   1.50838    0.000
 4603.00    1.58140   1.51214    0.000
 4604.00    1.58941   1.51666    0.000
 4605.00    1.60363   1.52170    0.000
 4606.00    1.61361   1.52852    0.000
 4607.00    1.61630   1.53957    0.000
 4608.00    1.62466   1.55646    0.000
 4609.00    1.64158   1.57910    0.000
 4610.00    1.64910   1.60402    0.000
 4611.00    1.64419   1.62659    0.000
 4612.00    1.64291   1.64433    0.000
 4613.00    1.64585   1.65585    0.000
 4614.00    1.65009   1.66148    0.000
 4615.00    1.65564   1.66293    0.000
 4616.00    1.65104   1.66167    0.000
 4617.00    1.63725   1.65973    0.000
 4618.00    1.64430   1.65920    0.000
 4619.00    1.66801   1.66019    0.000
 4620.00    1.65668   1.66240    0.000
 4621.00    1.62072   1.66584    0.000
 4622.00    1.61519   1.66906    0.000
 4623.00    1.62842   1.67064    0.000
 4624.00    1.63011   1.67105    0.000
 4625.00    1.62557   1.67048    0.000
 4626.00    1.60693   1.66832    0.000
 4627.00    1.58170   1.66566    0.000
 4628.00    1.57627   1.66319    0.000
 4629.00    1.57883   1.65965    0.000
 4630.00    1.60001   1.65557    0.000
 4631.00    1.62760   1.65315    0.000
 4632.00    1.65374   1.65146    0.000
 4633.00    1.67947   1.64782    0.000
 4634.00    1.67882   1.64169    0.000
 4635.00    1.67186   1.63317    0.000
 4636.00    1.65644   1.62165    0.000
 4637.00    1.63939   1.60705    0.000
 4638.00    1.60440   1.59009    0.000
 4639.00    1.56672   1.57175    0.000
 4640.00    1.61612   1.55400    0.000
 4641.00    1.67511   1.54044    0.000
 4642.00    1.66213   1.53245    0.000
 4643.00    1.64391   1.52754    0.000
 4644.00    1.63901   1.52292    0.000
 4645.00    1.63462   1.51672    0.000
 4646.00    1.62351   1.50669    0.000
 4647.00    1.61201   1.49220    0.000
 4648.00    1.58726   1.47611    0.000
 4649.00    1.56568   1.46208    0.000
 4650.00    1.59600   1.45345    0.000
 4651.00    1.62326   1.45335    0.000
 4652.00    1.61920   1.46251    0.000
 4653.00    1.61505   1.47862    0.000
 4654.00    1.61023   1.49736    0.000
 4655.00    1.60815   1.51447    0.000
 4656.00    1.62135   1.52781    0.000
 4657.00    1.63657   1.53823    0.000
 4658.00    1.66082   1.54892    0.000
 4659.00    1.67020   1.56267    0.000
 4660.00    1.62508   1.57946    0.000
 4661.00    1.59053   1.59633    0.000
 4662.00    1.58842   1.60974    0.000
 4663.00    1.58899   1.61604    0.000
 4664.00    1.59656   1.61236    0.000
 4665.00    1.60398   1.59704    0.000
 4666.00    1.61105   1.56890    0.000
 4667.00    1.60868   1.52983    0.000
 4668.00    1.58799   1.48751    0.000
 4669.00    1.58388   1.45171    0.000
 4670.00    1.60786   1.42892    0.000
 4671.00    1.63397   1.42115    0.000
 4672.00    1.66326   1.42652    0.000
 4673.00    1.67421   1.44139    0.000
 4674.00    1.66126   1.46323    0.000
 4675.00    1.65390   1.48956    0.000
 4676.00    1.65299   1.51583    0.000
 4677.00    1.64222   1.53654    0.000
 4678.00    1.62148   1.54826    0.000
 4679.00    1.60010   1.55111    0.000
 4680.00    1.57815   1.54751    0.000
 4681.00    1.57345   1.53991    0.000
 4682.00    1.58234   1.53065    0.000
 4683.00    1.61029   1.52239    0.000
 4684.00    1.65146   1.51655    0.000
 4685.00    1.63927   1.51418    0.000
 4686.00    1.59467   1.51636    0.000
 4687.00    1.59345   1.52169    0.000
 4688.00    1.61521   1.52747    0.000
 4689.00    1.64074   1.53243    0.000
 4690.00    1.66800   1.53541    0.000
 4691.00    1.65999   1.53500    0.000
 4692.00    1.63799   1.53264    0.000
 4693.00    1.62320   1.53129    0.000
 4694.00    1.61084   1.53221    0.000
 4695.00    1.60891   1.53632    0.000
 4696.00    1.60995   1.54308    0.000
 4697.00    1.62195   1.54878    0.000
 4698.00    1.63651   1.54977    0.000
 4699.00    1.64097   1.54551    0.000
 4700.00    1.64353   1.53666    0.000
 4701.00    1.64925   1.52354    0.000
 4702.00    1.65543   1.50694    0.000
 4703.00    1.61467   1.48874    0.000
 4704.00    1.56894   1.47276    0.000
 4705.00    1.58444   1.46262    0.000
 4706.00    1.60415   1.45897    0.000
 4707.00    1.59919   1.45894    0.000
 4708.00    1.59340   1.45965    0.000
 4709.00    1.63082   1.46115    0.000
 4710.00    1.66628   1.46500    0.000
 4711.00    1.63553   1.47222    0.000
 4712.00    1.60806   1.48083    0.000
 4713.00    1.63115   1.48875    0.000
 4714.00    1.65241   1.49625    0.000
 4715.00    1.65568   1.50509    0.000
 4716.00    1.66015   1.51705    0.000
 4717.00    1.67310   1.53230    0.000
 4718.00    1.68542   1.54938    0.000
 4719.00    1.69433   1.56777    0.000
 4720.00    1.69377   1.58839    0.000
 4721.00    1.65194   1.61050    0.000
 4722.00    1.62105   1.63154    0.000
 4723.00    1.62942   1.64823    0.000
 4724.00    1.64105   1.65851    0.000
 4725.00    1.66246   1.66239    0.000
 4726.00    1.67587   1.65890    0.000
 4727.00    1.66874   1.64554    0.000
 4728.00    1.67032   1.62284    0.000
 4729.00    1.69108   1.59501    0.000
 4730.00    1.69648   1.56640    0.000
 4731.00    1.67252   1.53962    0.000
 4732.00    1.64984   1.51714    0.000
 4733.00    1.62929   1.50192    0.000
 4734.00    1.62285   1.49660    0.000
 4735.00    1.63703   1.50197    0.000
 4736.00    1.65383   1.51382    0.000
 4737.00    1.67401   1.52709    0.000
 4738.00    1.68722   1.54112    0.000
 4739.00    1.69255   1.55507    0.000
 4740.00    1.68640   1.56627    0.000
 4741.00    1.66877   1.57447    0.000
 4742.00    1.66427   1.58135    0.000
 4743.00    1.67134   1.58848    0.000
 4744.00    1.67009   1.59679    0.000
 4745.00    1.66237   1.60456    0.000
 4746.00    1.66324   1.61083    0.000
 4747.00    1.66997   1.61758    0.000
 4748.00    1.67426   1.62557    0.000
 4749.00    1.67710   1.63333    0.000
 4750.00    1.67765   1.63917    0.000
 4751.00    1.67700   1.64201    0.000
 4752.00    1.67249   1.64141    0.000
 4753.00    1.66624   1.63682    0.000
 4754.00    1.66372   1.62756    0.000
 4755.00    1.66266   1.61522    0.000
 4756.00    1.65733   1.60234    0.000
 4757.00    1.65059   1.59025    0.000
 4758.00    1.66060   1.58006    0.000
 4759.00    1.67526   1.57329    0.000
 4760.00    1.67345   1.57002    0.000
 4761.00    1.66786   1.56764    0.166
 4762.00    1.64256   1.56305    0.166
 4763.00    1.61363   1.55520    0.166
 4764.00    1.60987   1.54397    0.166
 4765.00    1.60964   1.52908    0.165
 4766.00    1.59408   1.51188    0.163
 4767.00    1.57696   1.49573    0.162
 4768.00    1.64465   1.48500    0.163
 4769.00    1.71782   1.48328    0.165
 4770.00    1.69819   1.49027    0.165
 4771.00    1.67579   1.50229    0.164
 4772.00    1.67034   1.51753    0.163
 4773.00    1.66407   1.53618    0.161
 4774.00    1.63438   1.55693    0.161
 4775.00    1.60522   1.57670    0.161
 4776.00    1.58356   1.59294    0.160
 4777.00    1.55955   1.60588    0.158
 4778.00    1.51338   1.61767    0.155
 4779.00    1.46387   1.62829    0.153
 4780.00    1.39147   1.63545    0.152
 4781.00    1.32662   1.63670    0.150
 4782.00    1.30171   1.63124    0.148
 4783.00    1.28470   1.62061    0.147
 4784.00    1.30138   1.60688    0.147
 4785.00    1.32892   1.59149    0.148
 4786.00    1.39463   1.57534    0.150
 4787.00    1.45089   1.56029    0.152
 4788.00    1.47922   1.54821    0.154
 4789.00    1.50795   1.53977    0.156
 4790.00    1.53769   1.53655    0.159
 4791.00    1.56557   1.53866    0.160
 4792.00    1.58941   1.54475    0.158
 4793.00    1.61186   1.55683    0.157
 4794.00    1.63171   1.57541    0.157
 4795.00    1.64807   1.59648    0.157
 4796.00    1.65872   1.61707    0.157
 4797.00    1.66713   1.63467    0.158
 4798.00    1.67230   1.64620    0.159
 4799.00    1.67577   1.65032    0.159
 4800.00    1.67709   1.64786    0.161
 4801.00    1.65836   1.64097    0.161
 4802.00    1.61724   1.63307    0.159
 4803.00    1.61784   1.62698    0.159
 4804.00    1.65955   1.62292    0.158
 4805.00    1.67909   1.62022    0.159
 4806.00    1.67939   1.61909    0.160
 4807.00    1.66319   1.61783    0.161
 4808.00    1.63435   1.61341    0.161
 4809.00    1.62545   1.60562    0.160
 4810.00    1.62997   1.59714    0.157
 4811.00    1.62673   1.59102    0.156
 4812.00    1.61892   1.58928    0.156
 4813.00    1.64043   1.59107    0.157
 4814.00    1.67699   1.59617    0.160
 4815.00    1.69625   1.60510    0.160
 4816.00    1.70782   1.61619    0.159
 4817.00    1.70355   1.62747    0.161
 4818.00    1.69322   1.63859    0.163
 4819.00    1.69865   1.64963    0.161
 4820.00    1.70921   1.65956    0.158
 4821.00    1.72432   1.66645    0.158
 4822.00    1.74066   1.66830    0.160
 4823.00    1.73760   1.66294    0.160
 4824.00    1.73021   1.65141    0.160
 4825.00    1.69228   1.63807    0.160
 4826.00    1.64891   1.62491    0.160
 4827.00    1.65717   1.61237    0.160
 4828.00    1.67245   1.60097    0.160
 4829.00    1.66800   1.59201    0.161
 4830.00    1.66164   1.58873    0.163
 4831.00    1.66734   1.58897    0.161
 4832.00    1.67377   1.58668    0.158
 4833.00    1.67268   1.58207    0.158
 4834.00    1.67127   1.57902    0.157
 4835.00    1.64904   1.57894    0.158
 4836.00    1.62774   1.58060    0.158
 4837.00    1.63063   1.58186    0.159
 4838.00    1.63156   1.58293    0.159
 4839.00    1.60564   1.58428    0.159
 4840.00    1.58270   1.58299    0.159
 4841.00    1.58672   1.57796    0.158
 4842.00    1.59349   1.57120    0.156
 4843.00    1.61844   1.56424    0.156
 4844.00    1.63968   1.55826    0.155
 4845.00    1.64175   1.55608    0.157
 4846.00    1.64849   1.55951    0.159
 4847.00    1.67470   1.56628    0.160
 4848.00    1.69458   1.57154    0.000
 4849.00    1.69270   1.57437    0.000
 4850.00    1.68933   1.57838    0.000
 4851.00    1.68162   1.58186    0.000
 4852.00    1.66340   1.58031    0.000
 4853.00    1.61917   1.57386    0.000
 4854.00    1.59237   1.56378    0.000
 4855.00    1.60274   1.55076    0.000
 4856.00    1.61156   1.53533    0.000
 4857.00    1.61748   1.51640    0.000
 4858.00    1.61673   1.49363    0.000
 4859.00    1.60519   1.46607    0.000
 4860.00    1.60274   1.43174    0.000
 4861.00    1.61321   1.39427    0.000
 4862.00    1.61516   1.36262    0.000
 4863.00    1.60645   1.33986    0.000
 4864.00    1.60731   1.32300    0.000
 4865.00    1.61869   1.31375    0.000
 4866.00    1.63423   1.31680    0.000
 4867.00    1.65380   1.33397    0.000
 4868.00    1.65833   1.36200    0.000
 4869.00    1.65000   1.39117    0.000
 4870.00    1.64361   1.41194    0.000
 4871.00    1.63870   1.42200    0.000
 4872.00    1.62691   1.42371    0.000
 4873.00    1.61056   1.42154    0.000
 4874.00    1.61266   1.41919    0.000
 4875.00    1.62547   1.41809    0.160
 4876.00    1.63412   1.41959    0.159
 4877.00    1.64068   1.42828    0.158
 4878.00    1.63763   1.44769    0.158
 4879.00    1.63036   1.47404    0.157
 4880.00    1.62955   1.49882    0.159
 4881.00    1.63115   1.51714    0.162
 4882.00    1.65147   1.53013    0.163
 4883.00    1.67775   1.53872    0.163
 4884.00    1.68594   1.54120    0.164
 4885.00    1.68931   1.53540    0.165
 4886.00    1.65163   1.52017    0.164
 4887.00    1.60500   1.50092    0.162
 4888.00    1.62144   1.48437    0.163
 4889.00    1.64881   1.46945    0.166
 4890.00    1.68929   1.45248    0.165
 4891.00    1.73150   1.43622    0.164
 4892.00    1.72591   1.42956    0.164
 4893.00    1.71589   1.43685    0.164
 4894.00    1.73552   1.45478    0.163
 4895.00    1.75684   1.47984    0.162
 4896.00    1.70655   1.51103    0.163
 4897.00    1.65523   1.54911    0.164
 4898.00    1.66908   1.59098    0.165
 4899.00    1.68017   1.62566    0.166
 4900.00    1.62571   1.64632    0.164
 4901.00    1.57787   1.65502    0.162
 4902.00    1.61563   1.65450    0.162
 4903.00    1.64917   1.64665    0.163
 4904.00    1.64612   1.63461    0.163
 4905.00    1.64581   1.62345    0.162
 4906.00    1.66309   1.61749    0.162
 4907.00    1.67706   1.61468    0.162
 4908.00    1.67436   1.61000    0.163
 4909.00    1.66608   1.60313    0.163
 4910.00    1.63514   1.59588    0.163
 4911.00    1.61753   1.58791    0.162
 4912.00    1.64492   1.57799    0.162
 4913.00    1.65933   1.56686    0.162
 4914.00    1.63685   1.55799    0.164
 4915.00    1.62089   1.55428    0.165
 4916.00    1.62082   1.55537    0.163
 4917.00    1.62399   1.55663    0.161
 4918.00    1.63397   1.55061    0.163
 4919.00    1.64155   1.53338    0.162
 4920.00    1.64475   1.50719    0.160
 4921.00    1.64143   1.47691    0.159
 4922.00    1.62773   1.44715    0.161
 4923.00    1.61840   1.42142    0.163
 4924.00    1.61520   1.40403    0.163
 4925.00    1.62716   1.40144    0.163
 4926.00    1.65780   1.41770    0.163
 4927.00    1.66712   1.44859    0.162
 4928.00    1.65329   1.48445    0.160
 4929.00    1.63990   1.51925    0.158
 4930.00    1.62693   1.55249    0.157
 4931.00    1.61887   1.58389    0.157
 4932.00    1.61493   1.60844    0.157
 4933.00    1.61535   1.62014    0.157
 4934.00    1.61901   1.62023    0.157
 4935.00    1.60783   1.61308    0.155
 4936.00    1.58696   1.59972    0.154
 4937.00    1.58384   1.57928    0.155
 4938.00    1.59087   1.55255    0.159
 4939.00    1.61256   1.52744    0.159
 4940.00    1.64154   1.51329    0.000
 4941.00    1.66749   1.50904    0.000
 4942.00    1.69214   1.50930    0.000
 4943.00    1.67833   1.51570    0.000
 4944.00    1.65032   1.53268    0.000
 4945.00    1.64640   1.55876    0.000
 4946.00    1.65002   1.58659    0.000
 4947.00    1.67697   1.61046    0.000
 4948.00    1.71000   1.63008    0.000
 4949.00    1.70760   1.64579    0.000
 4950.00    1.69765   1.65642    0.000
 4951.00    1.67850   1.66359    0.000
 4952.00    1.65780   1.66904    0.000
 4953.00    1.64677   1.67036    0.000
 4954.00    1.63696   1.66524    0.000
 4955.00    1.63529   1.65395    0.000
 4956.00    1.63435   1.63539    0.000
 4957.00    1.62619   1.60638    0.000
 4958.00    1.61765   1.57195    0.000
 4959.00    1.62389   1.54367    0.000
 4960.00    1.63034   1.52509    0.000
 4961.00    1.63086   1.51222    0.000
 4962.00    1.63211   1.50452    0.000
 4963.00    1.64906   1.51007    0.000
 4964.00    1.66680   1.52931    0.000
 4965.00    1.69419   1.54748    0.000
 4966.00    1.71462   1.55494    0.000
 4967.00    1.67684   1.55483    0.000
 4968.00    1.64359   1.55177    0.000
 4969.00    1.63856   1.54595    0.000
 4970.00    1.63863   1.53772    0.000
 4971.00    1.66371   1.53278    0.000
 4972.00    1.68557   1.53564    0.000
 4973.00    1.69461   1.54417    0.000
 4974.00    1.69497   1.55592    0.000
 4975.00    1.66659   1.56858    0.000
 4976.00    1.64930   1.57978    0.000
 4977.00    1.66299   1.58711    0.000
 4978.00    1.66788   1.58668    0.000
 4979.00    1.65173   1.57792    0.000
 4980.00    1.63287   1.56201    0.000
 4981.00    1.60841   1.53898    0.000
 4982.00    1.58803   1.50906    0.000
 4983.00    1.57497   1.47531    0.000
 4984.00    1.57204   1.44503    0.000
 4985.00    1.58504   1.42248    0.000
 4986.00    1.60457   1.40676    0.000
 4987.00    1.63310   1.39915    0.000
 4988.00    1.64615   1.40341    0.000
 4989.00    1.64039   1.41907    0.000
 4990.00    1.63806   1.43989    0.000
 4991.00    1.63942   1.46119    0.000
 4992.00    1.64351   1.48214    0.000
 4993.00    1.65019   1.49886    0.000
 4994.00    1.65146   1.50835    0.000
 4995.00    1.64824   1.51355    0.000
 4996.00    1.63523   1.51737    0.000
 4997.00    1.61505   1.52058    0.000
 4998.00    1.60601   1.52003    0.000
 4999.00    1.60414   1.51372    0.000
 5000.00    1.60786   1.50462    0.000
 5001.00    1.61473   1.49261    0.000
 5002.00    1.62173   1.47674    0.000
 5003.00    1.62881   1.45843    0.000
 5004.00    1.63226   1.43827    0.000
 5005.00    1.63417   1.41827    0.000
 5006.00    1.63657   1.40088    0.000
 5007.00    1.63916   1.38863    0.000
 5008.00    1.64503   1.38335    0.000
 5009.00    1.65191   1.38226    0.000
 5010.00    1.65634   1.38159    0.000
 5011.00    1.66013   1.38231    0.000
 5012.00    1.65029   1.38598    0.000
 5013.00    1.63761   1.38889    0.000
 5014.00    1.61855   1.38487    0.000
 5015.00    1.59845   1.37499    0.000
 5016.00    1.61327   1.36407    0.000
 5017.00    1.63237   1.35280    0.000
 5018.00    1.63784   1.34353    0.000
 5019.00    1.64215   1.34057    0.000
 5020.00    1.62624   1.34580    0.000
 5021.00    1.60934   1.35500    0.000
 5022.00    1.61120   1.36200    0.000
 5023.00    1.61319   1.36927    0.000
 5024.00    1.60523   1.38113    0.000
 5025.00    1.59809   1.39410    0.000
 5026.00    1.60720   1.40375    0.000
 5027.00    1.61517   1.41020    0.000
 5028.00    1.60980   1.41905    0.000
 5029.00    1.60632   1.43248    0.159
 5030.00    1.61824   1.44575    0.157
 5031.00    1.62769   1.45743    0.155
 5032.00    1.62214   1.46898    0.155
 5033.00    1.62220   1.48450    0.155
 5034.00    1.64911   1.50210    0.156
 5035.00    1.66700   1.51174    0.157
 5036.00    1.64974   1.51143    0.157
 5037.00    1.63193   1.50607    0.156
 5038.00    1.61229   1.49515    0.156
 5039.00    1.59888   1.47333    0.155
 5040.00    1.60257   1.44035    0.153
 5041.00    1.60536   1.40633    0.152
 5042.00    1.60607   1.38356    0.155
 5043.00    1.60616   1.37121    0.156
 5044.00    1.60497   1.36511    0.154
 5045.00    1.60287   1.36829    0.153
 5046.00    1.59917   1.38505    0.154
 5047.00    1.60045   1.41499    0.154
 5048.00    1.60947   1.44556    0.153
 5049.00    1.61138   1.46595    0.153
 5050.00    1.60364   1.47824    0.153
 5051.00    1.59463   1.48360    0.153
 5052.00    1.58410   1.47961    0.153
 5053.00    1.59156   1.47017    0.154
 5054.00    1.61800   1.46496    0.154
 5055.00    1.62701   1.46850    0.154
 5056.00    1.61979   1.47740    0.154
 5057.00    1.60910   1.49025    0.154
 5058.00    1.59557   1.50853    0.155
 5059.00    1.59706   1.52900    0.154
 5060.00    1.60941   1.54676    0.153
 5061.00    1.62542   1.56012    0.153
 5062.00    1.64376   1.56990    0.156
 5063.00    1.63224   1.57456    0.154
 5064.00    1.60418   1.57006    0.151
 5065.00    1.59474   1.55811    0.152
 5066.00    1.59427   1.54401    0.155
 5067.00    1.60514   1.52713    0.157
 5068.00    1.62074   1.50526    0.159
 5069.00    1.62998   1.48211    0.160
 5070.00    1.63697   1.46714    0.161
 5071.00    1.61829   1.46203    0.160
 5072.00    1.59189   1.45774    0.159
 5073.00    1.60715   1.45380    0.159
 5074.00    1.63281   1.45574    0.159
 5075.00    1.63959   1.46005    0.160
 5076.00    1.64255   1.45892    0.161
 5077.00    1.61538   1.45415    0.160
 5078.00    1.58341   1.45067    0.159
 5079.00    1.55453   1.44241    0.157
 5080.00    1.52602   1.42568    0.156
 5081.00    1.51709   1.40870    0.155
 5082.00    1.50973   1.39606    0.154
 5083.00    1.47999   1.38244    0.152
 5084.00    1.44923   1.36830    0.151
 5085.00    1.46408   1.36519    0.150
 5086.00    1.47883   1.37598    0.150
 5087.00    1.46191   1.39123    0.149
 5088.00    1.44679   1.40666    0.149
 5089.00    1.46527   1.42604    0.149
 5090.00    1.48568   1.44841    0.149
 5091.00    1.52765   1.46768    0.151
 5092.00    1.56739   1.48279    0.152
 5093.00    1.58979   1.49655    0.154
 5094.00    1.61081   1.50807    0.157
 5095.00    1.62375   1.51371    0.159
 5096.00    1.62422   1.51331    0.161
 5097.00    1.56653   1.50873    0.158
 5098.00    1.51861   1.49828    0.155
 5099.00    1.50792   1.48058    0.154
 5100.00    1.49390   1.46095    0.152
 5101.00    1.46932   1.44506    0.150
 5102.00    1.45621   1.43280    0.148
 5103.00    1.47403   1.42288    0.150
 5104.00    1.50027   1.41844    0.151
 5105.00    1.54597   1.42223    0.151
 5106.00    1.58532   1.42803    0.153
 5107.00    1.61197   1.42852    0.155
 5108.00    1.61778   1.42439    0.155
 5109.00    1.58727   1.41970    0.153
 5110.00    1.56762   1.41480    0.151
 5111.00    1.56453   1.40968    0.150
 5112.00    1.57292   1.40695    0.150
 5113.00    1.59668   1.40962    0.153
 5114.00    1.60370   1.41759    0.155
 5115.00    1.59095   1.42947    0.155
 5116.00    1.58338   1.44610    0.155
 5117.00    1.58119   1.46520    0.155
 5118.00    1.58010   1.48237    0.155
 5119.00    1.58002   1.49599    0.156
 5120.00    1.58272   1.50442    0.155
 5121.00    1.58765   1.50652    0.151
 5122.00    1.57606   1.50177    0.150
 5123.00    1.55269   1.48808    0.151
 5124.00    1.53786   1.46639    0.152
 5125.00    1.52835   1.44147    0.153
 5126.00    1.54488   1.41701    0.153
 5127.00    1.57562   1.39374    0.153
 5128.00    1.58625   1.37298    0.153
 5129.00    1.58734   1.35921    0.153
 5130.00    1.55602   1.35444    0.154
 5131.00    1.51145   1.35617    0.154
 5132.00    1.53392   1.36178    0.153
 5133.00    1.57983   1.37061    0.152
 5134.00    1.58356   1.38261    0.151
 5135.00    1.57485   1.39734    0.151
 5136.00    1.58632   1.41112    0.153
 5137.00    1.60273   1.41940    0.154
 5138.00    1.59894   1.42199    0.154
 5139.00    1.59115   1.42103    0.153
 5140.00    1.58509   1.41781    0.155
 5141.00    1.57930   1.41000    0.157
 5142.00    1.56573   1.39692    0.156
 5143.00    1.55127   1.38359    0.154
 5144.00    1.54797   1.37559    0.154
 5145.00    1.54553   1.37219    0.155
 5146.00    1.55589   1.36646    0.156
 5147.00    1.56678   1.35830    0.157
 5148.00    1.54859   1.35545    0.155
 5149.00    1.53105   1.35752    0.153
 5150.00    1.55142   1.35645    0.154
 5151.00    1.57125   1.35194    0.155
 5152.00    1.58154   1.35008    0.156
 5153.00    1.59012   1.35225    0.156
 5154.00    1.58037   1.35499    0.157
 5155.00    1.57363   1.35751    0.157
 5156.00    1.58952   1.36337    0.156
 5157.00    1.60235   1.37483    0.155
 5158.00    1.59768   1.38982    0.156
 5159.00    1.59221   1.40584    0.157
 5160.00    1.58308   1.42279    0.156
 5161.00    1.57808   1.43817    0.155
 5162.00    1.58849   1.44614    0.157
 5163.00    1.58977   1.44378    0.159
 5164.00    1.56254   1.43183    0.158
 5165.00    1.53924   1.40890    0.158
 5166.00    1.52635   1.37161    0.158
 5167.00    1.51685   1.32195    0.159
 5168.00    1.51504   1.26821    0.159
 5169.00    1.51387   1.21610    0.159
 5170.00    1.51398   1.16689    0.160
 5171.00    1.52580   1.12114    0.161
 5172.00    1.55771   1.08376    0.161
 5173.00    1.55965   1.06385    0.160
 5174.00    1.51654   1.06433    0.155
 5175.00    1.50733   1.07574    0.153
 5176.00    1.54291   1.08953    0.152
 5177.00    1.54742   1.11263    0.151
 5178.00    1.51578   1.15241    0.150
 5179.00    1.48019   1.19759    0.149
 5180.00    1.44056   1.23120    0.148
 5181.00    1.43246   1.25056    0.147
 5182.00    1.45291   1.25871    0.147
 5183.00    1.45859   1.25223    0.147
 5184.00    1.45251   1.23237    0.146
 5185.00    1.46487   1.21060    0.147
 5186.00    1.49017   1.19375    0.149
 5187.00    1.51406   1.18174    0.151
 5188.00    1.53708   1.18107    0.153
 5189.00    1.54798   1.20219    0.153
 5190.00    1.55239   1.23949    0.000
 5191.00    1.56962   1.27355    0.000
 5192.00    1.59286   1.29626    0.000
 5193.00    1.58612   1.31579    0.000
 5194.00    1.56734   1.33451    0.000
 5195.00    1.56239   1.34198    0.000
 5196.00    1.56220   1.33823    0.000
 5197.00    1.55412   1.33857    0.000
 5198.00    1.54377   1.34936    0.000
 5199.00    1.54640   1.36253    0.000
 5200.00    1.55213   1.37445    0.000
 5201.00    1.57563   1.38861    0.000
 5202.00    1.60255   1.40297    0.000
 5203.00    1.59262   1.41131    0.000
 5204.00    1.57717   1.40953    0.000
 5205.00    1.58149   1.39676    0.000
 5206.00    1.58797   1.37634    0.000
 5207.00    1.56317   1.35238    0.000
 5208.00    1.53611   1.32467    0.000
 5209.00    1.54736   1.29603    0.000
 5210.00    1.56005   1.27661    0.000
 5211.00    1.58190   1.27160    0.152
 5212.00    1.60303   1.27687    0.153
 5213.00    1.59678   1.29067    0.153
 5214.00    1.59049   1.31470    0.153
 5215.00    1.58349   1.34409    0.154
 5216.00    1.57685   1.37230    0.155
 5217.00    1.57392   1.39730    0.153
 5218.00    1.57067   1.41854    0.153
 5219.00    1.56507   1.43398    0.155
 5220.00    1.56498   1.44450    0.157
 5221.00    1.59561   1.45410    0.156
 5222.00    1.61331   1.46281    0.155
 5223.00    1.57350   1.46651    0.155
 5224.00    1.54915   1.46246    0.155
 5225.00    1.58127   1.45143    0.157
 5226.00    1.60347   1.43345    0.158
 5227.00    1.59529   1.40939    0.157
 5228.00    1.58135   1.38533    0.156
 5229.00    1.55241   1.36628    0.156
 5230.00    1.54076   1.35303    0.156
 5231.00    1.56780   1.34891    0.156
 5232.00    1.58560   1.35766    0.154
 5233.00    1.58550   1.37446    0.152
 5234.00    1.58343   1.39199    0.150
 5235.00    1.57805   1.40944    0.151
 5236.00    1.57945   1.42689    0.151
 5237.00    1.59091   1.44251    0.149
 5238.00    1.58916   1.45755    0.149
 5239.00    1.57023   1.47372    0.149
 5240.00    1.56248   1.49105    0.149
 5241.00    1.56757   1.50840    0.149
 5242.00    1.57765   1.52285    0.148
 5243.00    1.59280   1.53255    0.148
 5244.00    1.58420   1.53957    0.147
 5245.00    1.55442   1.54427    0.147
 5246.00    1.55280   1.54136    0.148
 5247.00    1.57330   1.53010    0.148
 5248.00    1.59579   1.51822    0.149
 5249.00    1.61965   1.50669    0.151
 5250.00    1.62827   1.48779    0.150
 5251.00    1.62766   1.46449    0.148
 5252.00    1.61165   1.44946    0.148
 5253.00    1.58750   1.44290    0.149
 5254.00    1.58283   1.43565    0.149
 5255.00    1.58709   1.43059    0.149
 5256.00    1.59535   1.43696    0.148
 5257.00    1.60519   1.45151    0.148
 5258.00    1.59278   1.46448    0.148
 5259.00    1.57287   1.47460    0.148
 5260.00    1.58883   1.48600    0.148
 5261.00    1.61496   1.49469    0.148
 5262.00    1.60981   1.49159    0.151
 5263.00    1.59737   1.47502    0.154
 5264.00    1.56851   1.44842    0.155
 5265.00    1.53657   1.41232    0.157
 5266.00    1.52390   1.36831    0.156
 5267.00    1.51401   1.32513    0.155
 5268.00    1.50351   1.28756    0.157
 5269.00    1.49295   1.25186    0.159
 5270.00    1.52310   1.22271    0.158
 5271.00    1.55603   1.21281    0.156
 5272.00    1.54592   1.21708    0.156
 5273.00    1.53436   1.22127    0.156
 5274.00    1.55486   1.23232    0.156
 5275.00    1.57537   1.26179    0.156
 5276.00    1.59490   1.29995    0.156
 5277.00    1.61185   1.33512    0.155
 5278.00    1.58939   1.36954    0.154
 5279.00    1.56978   1.40365    0.153
 5280.00    1.57808   1.43331    0.152
 5281.00    1.58622   1.45804    0.151
 5282.00    1.59326   1.47617    0.153
 5283.00    1.59895   1.48452    0.155
 5284.00    1.59734   1.48600    0.153
 5285.00    1.59098   1.48840    0.151
 5286.00    1.56404   1.49433    0.150
 5287.00    1.55231   1.50139    0.150
 5288.00    1.59502   1.51119    0.152
 5289.00    1.62404   1.52929    0.153
 5290.00    1.61190   1.55343    0.153
 5291.00    1.60836   1.57437    0.153
 5292.00    1.62680   1.58837    0.153
 5293.00    1.63425   1.59798    0.153
 5294.00    1.61753   1.60348    0.153
 5295.00    1.60177   1.60081    0.152
 5296.00    1.58783   1.58732    0.150
 5297.00    1.57232   1.56519    0.149
 5298.00    1.55416   1.54056    0.148
 5299.00    1.55720   1.51788    0.148
 5300.00    1.59115   1.49556    0.148
 5301.00    1.61295   1.47338    0.147
 5302.00    1.61919   1.45998    0.147
 5303.00    1.62270   1.46293    0.146
 5304.00    1.62314   1.47613    0.144
 5305.00    1.61486   1.49151    0.144
 5306.00    1.59788   1.51110    0.144
 5307.00    1.58876   1.53694    0.144
 5308.00    1.58654   1.56347    0.143
 5309.00    1.59090   1.58543    0.143
 5310.00    1.60035   1.60171    0.142
 5311.00    1.60583   1.61313    0.142
 5312.00    1.60861   1.62150    0.141
 5313.00    1.60758   1.62706    0.141
 5314.00    1.60427   1.62809    0.142
 5315.00    1.58511   1.62469    0.142
 5316.00    1.55770   1.61836    0.143
 5317.00    1.55333   1.61042    0.142
 5318.00    1.55938   1.60216    0.140
 5319.00    1.54327   1.59292    0.139
 5320.00    1.51856   1.58164    0.138
 5321.00    1.51952   1.57076    0.138
 5322.00    1.52895   1.56186    0.139
 5323.00    1.54132   1.55023    0.141
 5324.00    1.55451   1.53308    0.143
 5325.00    1.54433   1.51468    0.144
 5326.00    1.52882   1.49605    0.145
 5327.00    1.52444   1.47000    0.145
 5328.00    1.52209   1.43616    0.144
 5329.00    1.53835   1.40878    0.147
 5330.00    1.55721   1.39262    0.149
 5331.00    1.55557   1.37737    0.147
 5332.00    1.55187   1.36400    0.145
 5333.00    1.53258   1.36979    0.145
 5334.00    1.51229   1.39557    0.144
 5335.00    1.49676   1.42418    0.143
 5336.00    1.48149   1.44816    0.142
 5337.00    1.51913   1.47381    0.143
 5338.00    1.55522   1.50155    0.143
 5339.00    1.54726   1.52012    0.144
 5340.00    1.54098   1.52339    0.144
 5341.00    1.55872   1.51971    0.146
 5342.00    1.57437   1.51731    0.147
 5343.00    1.57051   1.51157    0.146
 5344.00    1.56644   1.50002    0.145
 5345.00    1.56097   1.49248    0.143
 5346.00    1.55691   1.49398    0.142
 5347.00    1.56025   1.49754    0.143
 5348.00    1.56422   1.49847    0.145
 5349.00    1.57088   1.49913    0.144
 5350.00    1.57961   1.50349    0.145
 5351.00    1.59558   1.51206    0.146
 5352.00    1.60845   1.51965    0.147
 5353.00    1.61218   1.52664    0.144
 5354.00    1.61290   1.54106    0.143
 5355.00    1.60609   1.56340    0.143
 5356.00    1.59974   1.58451    0.143
 5357.00    1.59441   1.60241    0.142
 5358.00    1.58118   1.62192    0.141
 5359.00    1.55312   1.64069    0.140
 5360.00    1.54612   1.65183    0.140
 5361.00    1.57368   1.65497    0.140
 5362.00    1.58508   1.65316    0.140
 5363.00    1.57324   1.64725    0.139
 5364.00    1.57556   1.63542    0.138
 5365.00    1.59576   1.61744    0.138
 5366.00    1.59086   1.59710    0.138
 5367.00    1.55795   1.57761    0.138
 5368.00    1.53894   1.55694   -2.000
 5369.00    1.53361   1.53407   -2.000
 5370.00    1.54192   1.51199   -2.000
 5371.00    1.56205   1.49191   -2.000
 5372.00    1.57761   1.47591   -2.000
 5373.00    1.58968   1.46545   -2.000
 5374.00    1.58986   1.45927   -2.000
 5375.00    1.58207   1.46030   -2.000
 5376.00    1.57992   1.47351   -2.000
 5377.00    1.58108   1.49499   -2.000
 5378.00    1.57380   1.51644   -2.000
 5379.00    1.56219   1.53734   -2.000
 5380.00    1.55591   1.55614   -2.000
 5381.00    1.55200   1.56976   -2.000
 5382.00    1.55971   1.57846   -2.000
 5383.00    1.57185   1.58179    0.142
 5384.00    1.58147   1.57967    0.142
 5385.00    1.59028   1.57624    0.142
 5386.00    1.57104   1.57272    0.142
 5387.00    1.54419   1.56708    0.142
 5388.00    1.52357   1.56203    0.141
 5389.00    1.50434   1.55775    0.140
 5390.00    1.51364   1.54998    0.140
 5391.00    1.52800   1.53968    0.140
 5392.00    1.53063   1.52903    0.141
 5393.00    1.53167   1.51549    0.141
 5394.00    1.52404   1.49944    0.142
 5395.00    1.51557   1.48508    0.142
 5396.00    1.52746   1.47110    0.142
 5397.00    1.54058   1.45542    0.142
 5398.00    1.54136   1.44394    0.142
 5399.00    1.54183   1.43910    0.141
 5400.00    1.54187   1.43282    0.141
 5401.00    1.54160   1.42554    0.141
 5402.00    1.53318   1.42847    0.141
 5403.00    1.52479   1.43487    0.141
 5404.00    1.51693   1.43158    0.140
 5405.00    1.51066   1.42395    0.139
 5406.00    1.51863   1.41988    0.140
 5407.00    1.52503   1.41270    0.140
 5408.00    1.52110   1.39879    0.138
 5409.00    1.52009   1.38546    0.137
 5410.00    1.53417   1.37967    0.136
 5411.00    1.54289   1.38391    0.136
 5412.00    1.52934   1.39389    0.135
 5413.00    1.51862   1.40515    0.135
 5414.00    1.51765   1.42102    0.135
 5415.00    1.51497   1.44572    0.135
 5416.00    1.50735   1.47271    0.133
 5417.00    1.50409   1.49477    0.132
 5418.00    1.51156   1.51275    0.132
 5419.00    1.52193   1.52950    0.132
 5420.00    1.53845   1.54347    0.132
 5421.00    1.55002   1.55175    0.132
 5422.00    1.55246   1.55490    0.133
 5423.00    1.55516   1.55397    0.133
 5424.00    1.55830   1.54876    0.135
 5425.00    1.55517   1.54380    0.135
 5426.00    1.54318   1.54164    0.135
 5427.00    1.53965   1.53689    0.135
 5428.00    1.54666   1.52817    0.135
 5429.00    1.55633   1.52084    0.135
 5430.00    1.56892   1.51563    0.136
 5431.00    1.57664   1.50941    0.136
 5432.00    1.57962   1.49694    0.136
 5433.00    1.58268   1.47832    0.136
 5434.00    1.58579   1.46522    0.136
 5435.00    1.58415   1.46032    0.135
 5436.00    1.57893   1.45298    0.135
 5437.00    1.57556   1.44690    0.135
 5438.00    1.57343   1.45215    0.135
 5439.00    1.57544   1.46623    0.136
 5440.00    1.57984   1.48344    0.138
 5441.00    1.56371   1.50408    0.137
 5442.00    1.53720   1.52792    0.135
 5443.00    1.54612   1.54931    0.135
 5444.00    1.57052   1.56407    0.135
 5445.00    1.57712   1.57054    0.136
 5446.00    1.57704   1.56799    0.137
 5447.00    1.57296   1.55774    0.138
 5448.00    1.56760   1.54367    0.139
 5449.00    1.56020   1.52726    0.139
 5450.00    1.55225   1.50965    0.138
 5451.00    1.54769   1.49709    0.136
 5452.00    1.54387   1.49408    0.133
 5453.00    1.53217   1.49405    0.133
 5454.00    1.51911   1.49239    0.133
 5455.00    1.53608   1.48994    0.135
 5456.00    1.55698   1.48836    0.137
 5457.00    1.54689   1.48692    0.136
 5458.00    1.53393   1.48314    0.134
 5459.00    1.54401   1.47744    0.133
 5460.00    1.55538   1.47693    0.133
 5461.00    1.56981   1.48328    0.133
 5462.00    1.58411   1.48844    0.133
 5463.00    1.57748   1.49002    0.133
 5464.00    1.57070   1.49292    0.133
 5465.00    1.56039   1.49718    0.131
 5466.00    1.55087   1.49682    0.130
 5467.00    1.55156   1.49387    0.130
 5468.00    1.55246   1.49640    0.129
 5469.00    1.55514   1.50048    0.130
 5470.00    1.55747   1.49955    0.130
 5471.00    1.55762   1.49944    0.130
 5472.00    1.55562   1.50185    0.130
 5473.00    1.54278   1.49775    0.131
 5474.00    1.53407   1.48813    0.131
 5475.00    1.54207   1.48057    0.133
 5476.00    1.55005   1.47000    0.135
 5477.00    1.55797   1.45307    0.135
 5478.00    1.56106   1.44117   -2.000
 5479.00    1.55041   1.43518   -2.000
 5480.00    1.54099   1.42481   -2.000
 5481.00    1.53456   1.41684   -2.000
 5482.00    1.53584   1.42156   -2.000
 5483.00    1.55327   1.42960   -2.000
 5484.00    1.57251   1.43371   -2.000
 5485.00    1.59503   1.44119   -2.000
 5486.00    1.59876   1.45450   -2.000
 5487.00    1.57257   1.46548   -2.000
 5488.00    1.55517   1.47376   -2.000
 5489.00    1.55004   1.48357   -2.000
 5490.00    1.52269   1.49005   -2.000
 5491.00    1.46804   1.49206   -2.000
 5492.00    1.45828   1.49560   -2.000
 5493.00    1.49718   1.49895   -2.000
 5494.00    1.52929   1.49831   -2.000
 5495.00    1.55492   1.49979   -2.000
 5496.00    1.55798   1.50325   -2.000
 5497.00    1.54201   1.50183   -2.000
 5498.00    1.53114   1.50058   -2.000
 5499.00    1.52405   1.50421   -2.000
 5500.00    1.51244   1.50451   -2.000
 5501.00    1.49789   1.49932   -2.000
 5502.00    1.49467   1.49775    0.129
 5503.00    1.49790   1.49876    0.130
 5504.00    1.51304   1.49414    0.130
 5505.00    1.53410   1.48644    0.131
 5506.00    1.53745   1.48084    0.131
 5507.00    1.53317   1.47646    0.131
 5508.00    1.52651   1.47201    0.131
 5509.00    1.51896   1.46703    0.132
 5510.00    1.51766   1.46188    0.131
 5511.00    1.51830   1.45995    0.131
 5512.00    1.50801   1.45888    0.128
 5513.00    1.49488   1.45444    0.126
 5514.00    1.49376   1.45047    0.126
 5515.00    1.49519   1.44879    0.127
 5516.00    1.49672   1.44649    0.127
 5517.00    1.49828   1.44664    0.128
 5518.00    1.50415   1.45268    0.129
 5519.00    1.51057   1.46220    0.132
 5520.00    1.52697   1.47347    0.130
 5521.00    1.54425   1.48734    0.128
 5522.00    1.53381   1.50287    0.129
 5523.00    1.52192   1.51542    0.129
 5524.00    1.51824   1.52304    0.128
 5525.00    1.51480   1.52718    0.127
 5526.00    1.51810   1.52749    0.128
 5527.00    1.52143   1.52250    0.129
 5528.00    1.52540   1.51298    0.130
 5529.00    1.52987   1.50285    0.130
 5530.00    1.54060   1.49436    0.131
 5531.00    1.54989   1.48542    0.131
 5532.00    1.54726   1.47757    0.131
 5533.00    1.54272   1.47655    0.130
 5534.00    1.52627   1.47973    0.131
 5535.00    1.51506   1.48129    0.131
 5536.00    1.52948   1.48469    0.130
 5537.00    1.54104   1.49140    0.130
 5538.00    1.54129   1.49587    0.130
 5539.00    1.53641   1.49851    0.148
 5540.00    1.51458   1.50419    0.349
 5541.00    1.50352   1.51059   -1.000
 5542.00    1.52249   1.51453   -1.000
 5543.00    1.53513   1.51917   -1.000
 5544.00    1.53267   1.52521   -1.000
 5545.00    1.53000   1.52959   -1.000
 5546.00    1.52693   1.53099   -1.000
 5547.00    1.52174   1.53229    0.756
 5548.00    1.51275   1.53615    0.199
 5549.00    1.51424   1.53947    0.136
 5550.00    1.53217   1.54118    0.133
 5551.00    1.54465   1.54580    0.131
 5552.00    1.54963   1.55227    0.130
 5553.00    1.54498   1.55509    0.129
 5554.00    1.52868   1.55552    0.127
 5555.00    1.52009   1.55624    0.127
 5556.00    1.51974   1.55455    0.127
 5557.00    1.52060   1.54906    0.127
 5558.00    1.52259   1.54304    0.127
 5559.00    1.51911   1.53860    0.127
 5560.00    1.51109   1.53377    0.126
 5561.00    1.51212   1.52776    0.125
 5562.00    1.51977   1.52238    0.125
 5563.00    1.51830   1.51768    0.125
 5564.00    1.51098   1.51209    0.125
 5565.00    1.50838   1.50518    0.124
 5566.00    1.50844   1.49711    0.123
 5567.00    1.50871   1.48992    0.123
 5568.00    1.50908   1.48450    0.124
 5569.00    1.51097   1.47732    0.125
 5570.00    1.51350   1.47077    0.126
 5571.00    1.51008   1.46981    0.127
 5572.00    1.50452   1.46856    0.127
 5573.00    1.49455   1.46493    0.126
 5574.00    1.48324   1.46747    0.125
 5575.00    1.49119   1.47326    0.125
 5576.00    1.50403   1.47384    0.126
 5577.00    1.49723   1.47720    0.127
 5578.00    1.48635   1.48681    0.128
 5579.00    1.49689   1.49188    0.127
 5580.00    1.51092   1.49477    0.127
 5581.00    1.51778   1.50158    0.128
 5582.00    1.52377   1.50482    0.129
 5583.00    1.52035   1.50321    0.129
 5584.00    1.51613   1.50112    0.128
 5585.00    1.50969   1.49446    0.129
 5586.00    1.50314   1.48196    0.129
 5587.00    1.49499   1.46760    0.129
 5588.00    1.48695   1.45059    0.129
 5589.00    1.48735   1.43096    0.127
 5590.00    1.48737   1.41265    0.126
 5591.00    1.47993   1.39784    0.128
 5592.00    1.47251   1.38772    0.129
 5593.00    1.46531   1.38312    0.128
 5594.00    1.45925   1.38398    0.128
 5595.00    1.46241   1.39046    0.129
 5596.00    1.46533   1.40121    0.129
 5597.00    1.46682   1.41231    0.127
 5598.00    1.46730   1.42089    0.126
 5599.00    1.46291   1.42948    0.128
 5600.00    1.45964   1.43677    0.129
 5601.00    1.46074   1.43679    0.128
 5602.00    1.46257   1.43396    0.128
 5603.00    1.46680   1.43437    0.126
 5604.00    1.47306   1.43485    0.124
 5605.00    1.48491   1.43519    0.123
 5606.00    1.50181   1.44146    0.123
 5607.00    1.53059   1.45412    0.123
 5608.00    1.54629   1.47002    0.124
 5609.00    1.53547   1.48740    0.125
 5610.00    1.52506   1.50483    0.125
 5611.00    1.51535   1.52067    0.123
 5612.00    1.50734   1.53184    0.123
 5613.00    1.50195   1.53732    0.124
 5614.00    1.49423   1.53609    0.125
 5615.00    1.48334   1.52724    0.125
 5616.00    1.47717   1.51500    0.125
 5617.00    1.47664   1.50153    0.126
 5618.00    1.46856   1.48401    0.126
 5619.00    1.45252   1.46620    0.126
 5620.00    1.45035   1.45594    0.126
 5621.00    1.46105   1.45003    0.125
 5622.00    1.46814   1.44397    0.124
 5623.00    1.47226   1.44275    0.125
 5624.00    1.47253   1.44546    0.125
 5625.00    1.47003   1.44692    0.126
 5626.00    1.47143   1.44806    0.125
 5627.00    1.47530   1.44840    0.124
 5628.00    1.48384   1.44825    0.124
 5629.00    1.49495   1.45227    0.125
 5630.00    1.49382   1.45936    0.125
 5631.00    1.48680   1.46538    0.126
 5632.00    1.48440   1.47397    0.125
 5633.00    1.48392   1.48624    0.123
 5634.00    1.49258   1.49514    0.122
 5635.00    1.50449   1.49963    0.122
 5636.00    1.49602   1.50216    0.121
 5637.00    1.48143   1.50046    0.121
 5638.00    1.47586   1.49462    0.120
 5639.00    1.47252   1.48776    0.118
 5640.00    1.48026   1.47968    0.119
 5641.00    1.49023   1.47058    0.120
 5642.00    1.48055   1.46437    0.119
 5643.00    1.46777   1.46088    0.118
 5644.00    1.45871   1.45720    0.118
 5645.00    1.45009   1.45586    0.119
 5646.00    1.46457   1.45869    0.118
 5647.00    1.48090   1.46209    0.117
 5648.00    1.49648   1.46490    0.118
 5649.00    1.51202   1.46966    0.120
 5650.00    1.49562   1.47525    0.120
 5651.00    1.47882   1.47965    0.121
 5652.00    1.46065   1.48348    0.121
 5653.00    1.44365   1.48623    0.121
 5654.00    1.44827   1.48696    0.122
 5655.00    1.45264   1.48553    0.123
 5656.00    1.45418   1.48298    0.124
 5657.00    1.45570   1.47760    0.125
 5658.00    1.45701   1.46684    0.125
 5659.00    1.45685   1.45627    0.124
 5660.00    1.44803   1.44866    0.123
 5661.00    1.43952   1.43668    0.122
 5662.00    1.43241   1.42380    0.122
 5663.00    1.43005   1.42102    0.123
 5664.00    1.44576   1.42226    0.124
 5665.00    1.45494   1.42036    0.124
 5666.00    1.44339   1.42412    0.121
 5667.00    1.43755   1.43459    0.119
 5668.00    1.44709   1.44310    0.120
 5669.00    1.45410   1.44990    0.120
 5670.00    1.45527   1.45809    0.121
 5671.00    1.45883   1.46605    0.121
 5672.00    1.46716   1.47359    0.121
 5673.00    1.47475   1.48169    0.122
 5674.00    1.48106   1.48918    0.123
 5675.00    1.48329   1.49695    0.124
 5676.00    1.47931   1.50656    0.123
 5677.00    1.47534   1.51567    0.122
 5678.00    1.47138   1.52117    0.122
 5679.00    1.46647   1.52468    0.122
 5680.00    1.46046   1.52784    0.121
 5681.00    1.45475   1.52699    0.121
 5682.00    1.44935   1.52063    0.120
 5683.00    1.45040   1.51365    0.120
 5684.00    1.45735   1.50731    0.121
 5685.00    1.45736   1.49795    0.120
 5686.00    1.45175   1.48721    0.119
 5687.00    1.45061   1.47979    0.118
 5688.00    1.45264   1.47467    0.117
 5689.00    1.45533   1.46967    0.117
 5690.00    1.45842   1.46739    0.118
 5691.00    1.45775   1.46903    0.118
 5692.00    1.45502   1.47333    0.118
 5693.00    1.45380   1.47933    0.119
 5694.00    1.45328   1.48614    0.120
 5695.00    1.45922   1.49354    0.121
 5696.00    1.46780   1.50127    0.123
 5697.00    1.47368   1.50633    0.124
 5698.00    1.47862   1.50653    0.124
 5699.00    1.47619   1.50496    0.125
 5700.00    1.47161   1.50123    0.126
 5701.00    1.47309   1.49202    0.125
 5702.00    1.47606   1.48085    0.123
 5703.00    1.46575   1.47156    0.124
 5704.00    1.45284   1.46127    0.125
 5705.00    1.44621   1.44916    0.124
 5706.00    1.44054   1.43940    0.124
 5707.00    1.43178   1.43184    0.123
 5708.00    1.42267   1.42241    0.123
 5709.00    1.43060   1.41196    0.123
 5710.00    1.43983   1.40431    0.122
 5711.00    1.45762   1.39772    0.121
 5712.00    1.47576   1.39038    0.119
 5713.00    1.47539   1.38818    0.120
 5714.00    1.47496   1.39225    0.120
 5715.00    1.47810   1.39794    0.119
 5716.00    1.48170   1.40890    0.118
 5717.00    1.49338   1.42640    0.119
 5718.00    1.50407   1.44328    0.119
 5719.00    1.50435   1.46068    0.119
 5720.00    1.50356   1.48027    0.119
 5721.00    1.49470   1.49642    0.118
 5722.00    1.48634   1.51013    0.118
 5723.00    1.48087   1.52326    0.117
 5724.00    1.47630   1.53243    0.117
 5725.00    1.47587   1.53917    0.117
 5726.00    1.47691   1.54464    0.117
 5727.00    1.48339   1.54557    0.117
 5728.00    1.48584   1.54426    0.117
 5729.00    1.47574   1.54308    0.118
 5730.00    1.47029   1.53877    0.119
 5731.00    1.47712   1.53259    0.120
 5732.00    1.48106   1.52935    0.120
 5733.00    1.47842   1.52734    0.119
 5734.00    1.48071   1.52399    0.119
 5735.00    1.49268   1.52310    0.120
 5736.00    1.50132   1.52567    0.121
 5737.00    1.50426   1.52749    0.122
 5738.00    1.50054   1.52862    0.122
 5739.00    1.48686   1.53125    0.121
 5740.00    1.48138   1.53346    0.000
 5741.00    1.48672   1.53386    0.000
 5742.00    1.48171   1.53384    0.000
 5743.00    1.46468   1.53348    0.000
 5744.00    1.45537   1.53273    0.000
 5745.00    1.45397   1.53224    0.000
 5746.00    1.45864   1.53164    0.000
 5747.00    1.46880   1.53071    0.000
 5748.00    1.47690   1.52972    0.000
 5749.00    1.48336   1.52873    0.000
 5750.00    1.48422   1.52675    0.000
 5751.00    1.48117   1.52297    0.000
 5752.00    1.48331   1.51876    0.000
 5753.00    1.48865   1.51448    0.000
 5754.00    1.48671   1.50872    0.000
 5755.00    1.48086   1.50327    0.000
 5756.00    1.47171   1.49989    0.000
 5757.00    1.46102   1.49696    0.000
 5758.00    1.46200   1.49563    0.000
 5759.00    1.46767   1.49685    0.000
 5760.00    1.47255   1.49816    0.000
 5761.00    1.47715   1.49950    0.000
 5762.00    1.46835   1.50077    0.000
 5763.00    1.45568   1.50014    0.000
 5764.00    1.45398   1.49957    0.000
 5765.00    1.45490   1.49988    0.000
 5766.00    1.47500   1.50017    0.000
 5767.00    1.49877   1.50373    0.000
 5768.00    1.49675   1.51055    0.000
 5769.00    1.49089   1.51699    0.000
 5770.00    1.47933   1.52448    0.000
 5771.00    1.46715   1.53275    0.000
 5772.00    1.47094   1.53732    0.000
 5773.00    1.47588   1.53935    0.000
 5774.00    1.47585   1.54013    0.000
 5775.00    1.47563   1.53755    0.000
 5776.00    1.48866   1.53361    0.000
 5777.00    1.50156   1.52924    0.000
 5778.00    1.50810   1.52268    0.000
 5779.00    1.51362   1.51560    0.000
 5780.00    1.50282   1.50764    0.000
 5781.00    1.49161   1.49586    0.000
 5782.00    1.47612   1.48249    0.000
 5783.00    1.46148   1.46895    0.000
 5784.00    1.45294   1.45268    0.000
 5785.00    1.44680   1.43647    0.000
 5786.00    1.45394   1.42532    0.000
 5787.00    1.46068   1.41751    0.000
 5788.00    1.46558   1.41206    0.000
 5789.00    1.46882   1.41393    0.000
 5790.00    1.46603   1.42159    0.000
 5791.00    1.46162   1.42979   -2.000
 5792.00    1.45224   1.44118   -2.000
 5793.00    1.44368   1.45530   -2.000
 5794.00    1.43724   1.46682   -2.000
 5795.00    1.43383   1.47790   -2.000
 5796.00    1.43716   1.48973   -2.000
 5797.00    1.44319   1.49799   -2.000
 5798.00    1.45445   1.50472   -2.000
 5799.00    1.46213   1.51301   -2.000
 5800.00    1.46375   1.51884   -2.000
 5801.00    1.46873   1.52228   -2.000
 5802.00    1.47868   1.52798   -2.000
 5803.00    1.48249   1.53324   -2.000
 5804.00    1.47833   1.53490   -2.000
 5805.00    1.47272   1.53679   -2.000
 5806.00    1.46545   1.53876   -2.000
 5807.00    1.46400   1.53704   -2.000
 5808.00    1.46841   1.53411   -2.000
 5809.00    1.48265   1.53221   -2.000
 5810.00    1.50565   1.52986   -2.000
 5811.00    1.51649   1.52783    0.000
 5812.00    1.51778   1.52719    0.000
 5813.00    1.50842   1.52748    0.000
 5814.00    1.49172   1.52829    0.000
 5815.00    1.47975   1.52847    0.000
 5816.00    1.47065   1.52791    0.000
 5817.00    1.47162   1.52784    0.000
 5818.00    1.47791   1.52770    0.000
 5819.00    1.47227   1.52706    0.000
 5820.00    1.46115   1.52823    0.000
 5821.00    1.45950   1.53183    0.000
 5822.00    1.46158   1.53581    0.000
 5823.00    1.47472   1.54034    0.000
 5824.00    1.49157   1.54625    0.000
 5825.00    1.49913   1.55164    0.000
 5826.00    1.50406   1.55528    0.000
 5827.00    1.50273   1.55818    0.000
 5828.00    1.49994   1.56050    0.000
 5829.00    1.49664   1.56175    0.000
 5830.00    1.49325   1.56217    0.000
 5831.00    1.49336   1.56211    0.000
 5832.00    1.49396   1.56198    0.000
 5833.00    1.48807   1.56149    0.000
 5834.00    1.48150   1.55959    0.000
 5835.00    1.47384   1.55712    0.000
 5836.00    1.46611   1.55534    0.000
 5837.00    1.46114   1.55264    0.000
 5838.00    1.45626   1.54893    0.000
 5839.00    1.46251   1.54735    0.000
 5840.00    1.46915   1.54717    0.000
 5841.00    1.48789   1.54622    0.000
 5842.00    1.50492   1.54699    0.000
 5843.00    1.49628   1.54991    0.000
 5844.00    1.48693   1.55167    0.000
 5845.00    1.47063   1.55258    0.000
 5846.00    1.45631   1.55348    0.000
 5847.00    1.45585   1.55220    0.000
 5848.00    1.45632   1.54851    0.000
 5849.00    1.46180   1.54348    0.000
 5850.00    1.46726   1.53657    0.000
 5851.00    1.47264   1.52848    0.000
 5852.00    1.47482   1.51999    0.000
 5853.00    1.46565   1.51042    0.000
 5854.00    1.45478   1.50060    0.000
 5855.00    1.43884   1.49125    0.000
 5856.00    1.42687   1.48098    0.000
 5857.00    1.42506   1.47037    0.000
 5858.00    1.42379   1.46158    0.000
 5859.00    1.42373   1.45367    0.000
 5860.00    1.42540   1.44617    0.000
 5861.00    1.43040   1.44223    0.000
 5862.00    1.43102   1.44154    0.000
 5863.00    1.42437   1.44198    0.000
 5864.00    1.41995   1.44546    0.000
 5865.00    1.41877   1.45138    0.000
 5866.00    1.42606   1.45685    0.000
 5867.00    1.44421   1.46309    0.000
 5868.00    1.46353   1.47016    0.000
 5869.00    1.48419   1.47551    0.000
 5870.00    1.48787   1.48043    0.000
 5871.00    1.47464   1.48665    0.000
 5872.00    1.46795   1.49189    0.000
 5873.00    1.46700   1.49574    0.000
 5874.00    1.46812   1.50025    0.000
 5875.00    1.47085   1.50397    0.000
 5876.00    1.46616   1.50490    0.000
 5877.00    1.45643   1.50474    0.000
 5878.00    1.44923   1.50374    0.000
 5879.00    1.44354   1.49992    0.000
 5880.00    1.43313   1.49408    0.000
 5881.00    1.42027   1.48797    0.000
 5882.00    1.41746   1.48082    0.000
 5883.00    1.41919   1.47141    0.000
 5884.00    1.41241   1.46144    0.000
 5885.00    1.40234   1.45138    0.000
 5886.00    1.39126   1.43730    0.000
 5887.00    1.37984   1.41897    0.000
 5888.00    1.37190   1.39836    0.000
 5889.00    1.36492   1.37049    0.000
 5890.00    1.35313   1.33542    0.000
 5891.00    1.34025   1.30059    0.000
 5892.00    1.33235   1.26253    0.000
 5893.00    1.32536   1.22260    0.000
 5894.00    1.33706   1.19438    0.000
 5895.00    1.35137   1.17268    0.000
 5896.00    1.36668   1.15379    0.000
 5897.00    1.38210   1.15191    0.000
 5898.00    1.38784   1.15921    0.000
 5899.00    1.39297   1.16654    0.000
 5900.00    1.39144   1.18765    0.000
 5901.00    1.38971   1.21693    0.111
 5902.00    1.39001   1.24305    0.112
 5903.00    1.39061   1.27577    0.113
 5904.00    1.39975   1.31277    0.112
 5905.00    1.40848   1.34299    0.112
 5906.00    1.41138   1.37050    0.112
 5907.00    1.41449   1.39675    0.112
 5908.00    1.41950   1.41594    0.112
 5909.00    1.42380   1.42963    0.112
 5910.00    1.42319   1.44107    0.113
 5911.00    1.42092   1.44905    0.113
 5912.00    1.40994   1.45359    0.114
 5913.00    1.39847   1.45602    0.115
 5914.00    1.38493   1.45679    0.114
 5915.00    1.37515   1.45602    0.114
 5916.00    1.37855   1.45310    0.113
 5917.00    1.38549   1.44949    0.111
 5918.00    1.40283   1.44706    0.111
 5919.00    1.41785   1.44446    0.112
 5920.00    1.42708   1.44334    0.112
 5921.00    1.43388   1.44504    0.111
 5922.00    1.43546   1.44715    0.111
 5923.00    1.43424   1.45101    0.111
 5924.00    1.42778   1.45607    0.111
 5925.00    1.42248   1.45959    0.110
 5926.00    1.41907   1.46351    0.109
 5927.00    1.41717   1.46687    0.108
 5928.00    1.41743   1.46782    0.108
 5929.00    1.41851   1.46854    0.108
 5930.00    1.42061   1.46813    0.109
 5931.00    1.42152   1.46626    0.110
 5932.00    1.42112   1.46469    0.110
 5933.00    1.41870   1.46239    0.110
 5934.00    1.41431   1.46017    0.110
 5935.00    1.40338   1.45931    0.110
 5936.00    1.38677   1.45889    0.110
 5937.00    1.38227   1.45861    0.109
 5938.00    1.38698   1.45922    0.110
 5939.00    1.39422   1.46146    0.110
 5940.00    1.40314   1.46287    0.110
 5941.00    1.41002   1.46329    0.111
 5942.00    1.41570   1.46563    0.112
 5943.00    1.41825   1.46704    0.113
 5944.00    1.41920   1.46620    0.113
 5945.00    1.41049   1.46697    0.114
 5946.00    1.39749   1.46783    0.115
 5947.00    1.39525   1.46698    0.115
 5948.00    1.39710   1.46685    0.114
 5949.00    1.40303   1.46665    0.114
 5950.00    1.41026   1.46541    0.113
 5951.00    1.40934   1.46385    0.112
 5952.00    1.40622   1.46092    0.110
 5953.00    1.40232   1.45774    0.110
 5954.00    1.39825   1.45557    0.111
 5955.00    1.40672   1.45219    0.110
 5956.00    1.41741   1.44876    0.108
 5957.00    1.41923   1.44825    0.109
 5958.00    1.41985   1.44804    0.109
 5959.00    1.42053   1.44722    0.108
 5960.00    1.42122   1.44934    0.108
 5961.00    1.43237   1.45335    0.109
 5962.00    1.44415   1.45684    0.110
 5963.00    1.44012   1.46162    0.109
 5964.00    1.43564   1.46807    0.107
 5965.00    1.42439   1.47356    0.107
 5966.00    1.41355   1.47803    0.107
 5967.00    1.41316   1.48315    0.108
 5968.00    1.41277   1.48696    0.110
 5969.00    1.41231   1.48894    0.110
 5970.00    1.41231   1.49220    0.111
 5971.00    1.41648   1.49493    0.111
 5972.00    1.41887   1.49591    0.111
 5973.00    1.40957   1.49793    0.111
 5974.00    1.40202   1.49918    0.111
 5975.00    1.40343   1.49771    0.112
 5976.00    1.40242   1.49538    0.112
 5977.00    1.39141   1.49195    0.111
 5978.00    1.38415   1.48610    0.111
 5979.00    1.38975   1.47938    0.112
 5980.00    1.39491   1.47348    0.112
 5981.00    1.39880   1.46725    0.112
 5982.00    1.40119   1.46147    0.111
 5983.00    1.39986   1.45770    0.111
 5984.00    1.39753   1.45361    0.110
 5985.00    1.39310   1.45004    0.109
 5986.00    1.39264   1.44808    0.108
 5987.00    1.39953   1.44486    0.109
 5988.00    1.40222   1.44305    0.108
 5989.00    1.39816   1.44399    0.107
 5990.00    1.39440   1.44445    0.106
 5991.00    1.39105   1.44670    0.105
 5992.00    1.39357   1.45178    0.105
 5993.00    1.40341   1.45668    0.106
 5994.00    1.41444   1.46098    0.106
 5995.00    1.42676   1.46562    0.106
 5996.00    1.42764   1.46986    0.107
 5997.00    1.41745   1.47146    0.108
 5998.00    1.40570   1.47156    0.107
 5999.00    1.39261   1.47138    0.107
 6000.00    1.38681   1.46880    0.107
 6001.00    1.38649   1.46541    0.109
 6002.00    1.38722   1.46224    0.110
 6003.00    1.38865   1.45797    0.110
 6004.00    1.38353   1.45475    0.110
 6005.00    1.37461   1.45141    0.110
 6006.00    1.36653   1.44709    0.111
 6007.00    1.35886   1.44473    0.112
 6008.00    1.35815   1.44121    0.111
 6009.00    1.36048   1.43682    0.110
 6010.00    1.37226   1.43515    0.110
 6011.00    1.38758   1.43226    0.111
 6012.00    1.39338   1.42986    0.111
 6013.00    1.39617   1.43026    0.111
 6014.00    1.39084   1.42943    0.111
 6015.00    1.38335   1.42931    0.110
 6016.00    1.37731   1.42972    0.109
 6017.00    1.37159   1.42876    0.108
 6018.00    1.36939   1.42853    0.108
 6019.00    1.36779   1.42655    0.109
 6020.00    1.37080   1.42396    0.109
 6021.00    1.37441   1.42365    0.109
 6022.00    1.37673   1.42182    0.107
 6023.00    1.37894   1.41999    0.106
 6024.00    1.37359   1.42141    0.106
 6025.00    1.36781   1.42350    0.106
 6026.00    1.37377   1.42608    0.107
 6027.00    1.38001   1.43051    0.108
 6028.00    1.38983   1.43739    0.108
 6029.00    1.39923   1.44495    0.108
 6030.00    1.39901   1.45144    0.108
 6031.00    1.39877   1.46010    0.108
 6032.00    1.39826   1.46912    0.109
 6033.00    1.39756   1.47536    0.109
 6034.00    1.39520   1.48214    0.110
 6035.00    1.39193   1.48907    0.111
 6036.00    1.38283   1.49348    0.110
 6037.00    1.37468   1.49696    0.109
 6038.00    1.37135   1.50038    0.109
 6039.00    1.37027   1.50209    0.109
 6040.00    1.37826   1.50258    0.109
 6041.00    1.38469   1.50309    0.109
 6042.00    1.38591   1.50254    0.109
 6043.00    1.38588   1.50184    0.109
 6044.00    1.38229   1.50219    0.108
 6045.00    1.37870   1.50197    0.108
 6046.00    1.37511   1.50278    0.108
 6047.00    1.37236   1.50533    0.108
 6048.00    1.37137   1.50695    0.106
 6049.00    1.37169   1.50905    0.105
 6050.00    1.37441   1.51205    0.106
 6051.00    1.37612   1.51316    0.106
 6052.00    1.37623   1.51315    0.106
 6053.00    1.37408   1.51292    0.106
 6054.00    1.36878   1.51084    0.106
 6055.00    1.37156   1.50708    0.106
 6056.00    1.38426   1.50279    0.106
 6057.00    1.39305   1.49811    0.106
 6058.00    1.39761   1.49314    0.106
 6059.00    1.39602   1.48804    0.107
 6060.00    1.38857   1.48422    0.107
 6061.00    1.37847   1.48151    0.107
 6062.00    1.36614   1.47857    0.108
 6063.00    1.36067   1.47656    0.108
 6064.00    1.36027   1.47528    0.108
 6065.00    1.36499   1.47275    0.109
 6066.00    1.37302   1.47078    0.110
 6067.00    1.37193   1.47047    0.110
 6068.00    1.36564   1.46913    0.109
 6069.00    1.36673   1.47028    0.109
 6070.00    1.37147   1.47554    0.109
 6071.00    1.37813   1.48014    0.109
 6072.00    1.38562   1.48687    0.110
 6073.00    1.38853   1.49621    0.109
 6074.00    1.38976   1.50337    0.108
 6075.00    1.39359   1.50905    0.108
 6076.00    1.39822   1.51329    0.108
 6077.00    1.39473   1.51452    0.108
 6078.00    1.38913   1.51253    0.107
 6079.00    1.38760   1.50779    0.106
 6080.00    1.38694   1.50181    0.105
 6081.00    1.38484   1.49325    0.105
 6082.00    1.38250   1.48330    0.105
 6083.00    1.37506   1.47577    0.105
 6084.00    1.36698   1.46744    0.106
 6085.00    1.36614   1.45875    0.106
 6086.00    1.36593   1.45474    0.105
 6087.00    1.36630   1.45143    0.105
 6088.00    1.36671   1.44733    0.105
 6089.00    1.37150   1.44638    0.107
 6090.00    1.37638   1.44609    0.109
 6091.00    1.38161   1.44515    0.109
 6092.00    1.38654   1.44488    0.109
 6093.00    1.38512   1.44406    0.107
 6094.00    1.38368   1.44433    0.106
 6095.00    1.38204   1.44560    0.107
 6096.00    1.38101   1.44551    0.108
 6097.00    1.38509   1.44721    0.109
 6098.00    1.38698   1.45094    0.110
 6099.00    1.37532   1.45194    0.109
 6100.00    1.36321   1.45245    0.109
 6101.00    1.34898   1.45388    0.109
 6102.00    1.33752   1.45109    0.109
 6103.00    1.33710   1.44643    0.108
 6104.00    1.34137   1.44326    0.108
 6105.00    1.36112   1.43631    0.108
 6106.00    1.37850   1.42978    0.107
 6107.00    1.38931   1.42940    0.107
 6108.00    1.39807   1.42775    0.107
 6109.00    1.40193   1.42803    0.107
 6110.00    1.40399   1.43452    0.107
 6111.00    1.40237   1.43958    0.105
 6112.00    1.40052   1.44581    0.105
 6113.00    1.39824   1.45401    0.107
 6114.00    1.39272   1.45860    0.107
 6115.00    1.38214   1.46330    0.106
 6116.00    1.37500   1.46752    0.106
 6117.00    1.37261   1.46822    0.106
 6118.00    1.37593   1.46816    0.106
 6119.00    1.38615   1.46524    0.107
 6120.00    1.38896   1.46025    0.108
 6121.00    1.38384   1.45513    0.108
 6122.00    1.37970   1.44571    0.109
 6123.00    1.37646   1.43666    0.111
 6124.00    1.37427   1.43021    0.111
 6125.00    1.37295   1.42065    0.110
 6126.00    1.37699   1.41546    0.109
 6127.00    1.38494   1.41563    0.109
 6128.00    1.38395   1.41345    0.109
 6129.00    1.37723   1.41527    0.109
 6130.00    1.36326   1.42107    0.108
 6131.00    1.34521   1.42404    0.106
 6132.00    1.33616   1.42756    0.106
 6133.00    1.33150   1.43179    0.106
 6134.00    1.33086   1.43215    0.107
 6135.00    1.33191   1.42975    0.108
 6136.00    1.33331   1.42570    0.107
 6137.00    1.33485   1.41752    0.106
 6138.00    1.34173   1.40756    0.106
 6139.00    1.35025   1.39766    0.105
 6140.00    1.35897   1.38677    0.105
 6141.00    1.36774   1.38028    0.106
 6142.00    1.36917   1.37925    0.106
 6143.00    1.36907   1.38075    0.107
 6144.00    1.36571   1.38626    0.107
 6145.00    1.36181   1.39550    0.106
 6146.00    1.36331   1.40728    0.106
 6147.00    1.36548   1.41848    0.106
 6148.00    1.36298   1.42734    0.106
 6149.00    1.36009   1.43554    0.106
 6150.00    1.35067   1.44097    0.107
 6151.00    1.34093   1.44259    0.107
 6152.00    1.33333   1.44275    0.108
 6153.00    1.32591   1.44148    0.108
 6154.00    1.32633   1.43823    0.109
 6155.00    1.32696   1.43458    0.109
 6156.00    1.33176   1.43125    0.109
 6157.00    1.33708   1.42580    0.109
 6158.00    1.34839   1.41889    0.110
 6159.00    1.35836   1.41228    0.111
 6160.00    1.35770   1.40223    0.110
 6161.00    1.35651   1.38835    0.109
 6162.00    1.35209   1.37435    0.108
 6163.00    1.34665   1.35841    0.107
 6164.00    1.33630   1.33994    0.107
 6165.00    1.32752   1.32396    0.107
 6166.00    1.32483   1.31122    0.105
 6167.00    1.32294   1.30181    0.104
 6168.00    1.32361   1.29727    0.104
 6169.00    1.32259   1.29545    0.104
 6170.00    1.31693   1.29822    0.103
 6171.00    1.31168   1.30486    0.102
 6172.00    1.30742   1.30960    0.103
 6173.00    1.30867   1.31577    0.104
 6174.00    1.32106   1.32568    0.105
 6175.00    1.32790   1.33377    0.106
 6176.00    1.32492   1.34066    0.105
 6177.00    1.31293   1.35015    0.105
 6178.00    1.28704   1.35987    0.106
 6179.00    1.26841   1.36766    0.107
 6180.00    1.25961   1.37508    0.106
 6181.00    1.25966   1.38350    0.105
 6182.00    1.27028   1.39030    0.105
 6183.00    1.28084   1.39441    0.105
 6184.00    1.29133   1.39921    0.105
 6185.00    1.30574   1.40272    0.105
 6186.00    1.32378   1.40233    0.106
 6187.00    1.33326   1.40124    0.107
 6188.00    1.33574   1.39839    0.107
 6189.00    1.33065   1.39178    0.107
 6190.00    1.32011   1.38446    0.106
 6191.00    1.31163   1.37558    0.105
 6192.00    1.30446   1.36636    0.105
 6193.00    1.29185   1.35983    0.104
 6194.00    1.27623   1.35237    0.104
 6195.00    1.23719   1.34845    0.107
 6196.00    1.18691   1.35065   -2.000
 6197.00    1.16380   1.35243   -2.000
 6198.00    1.15194   1.35686   -2.000
 6199.00    1.20126   1.36417   -2.000
 6200.00    1.27228   1.37019   -2.000
 6201.00    1.35036   1.37660   -2.000
 6202.00    1.43056   1.38147   -2.000
 6203.00    1.44360   1.38487   -2.000
 6204.00    1.43996   1.38926   -2.000
 6205.00    1.41227   1.39270   -2.000
 6206.00    1.37974   1.39579   -2.000
 6207.00    1.36090   1.39944   -2.000
 6208.00    1.34421   1.40250    0.110
 6209.00    1.33819   1.40518    0.109
 6210.00    1.33343   1.40607    0.108
 6211.00    1.32690   1.40468    0.108
 6212.00    1.32023   1.40175    0.108
 6213.00    1.31112   1.39518    0.107
 6214.00    1.30190   1.38610    0.106
 6215.00    1.30346   1.37628    0.106
 6216.00    1.30502   1.36354    0.106
 6217.00    1.30084   1.35098    0.105
 6218.00    1.29738   1.34035    0.104
 6219.00    1.30718   1.32952    0.105
 6220.00    1.31651   1.32212    0.105
 6221.00    1.32057   1.31786    0.104
 6222.00    1.32366   1.31427    0.103
 6223.00    1.31931   1.31401    0.103
 6224.00    1.31682   1.31555    0.103
 6225.00    1.32521   1.31773    0.103
 6226.00    1.33088   1.32114    0.103
 6227.00    1.32389   1.32314    0.104
 6228.00    1.31556   1.32516    0.105
 6229.00    1.30212   1.32654    0.106
 6230.00    1.29270   1.32445    0.106
 6231.00    1.29600   1.32229    0.105
 6232.00    1.29735   1.31971    0.104
 6233.00    1.29347   1.31449    0.105
 6234.00    1.28917   1.31157    0.106
 6235.00    1.28392   1.31137    0.105
 6236.00    1.28257   1.31088    0.105
 6237.00    1.28902   1.31367    0.105
 6238.00    1.29771   1.31840    0.105
 6239.00    1.31030   1.32187    0.107
 6240.00    1.31844   1.32491    0.107
 6241.00    1.31979   1.32670    0.105
 6242.00    1.31861   1.32585    0.105
 6243.00    1.31406   1.32153    0.105
 6244.00    1.30904   1.31735    0.104
 6245.00    1.30346   1.31287    0.103
 6246.00    1.30089   1.30584    0.103
 6247.00    1.30145   1.30274    0.103
 6248.00    1.30079   1.30196    0.103
 6249.00    1.29901   1.30010    0.103
 6250.00    1.29664   1.30230    0.103
 6251.00    1.29379   1.30527    0.102
 6252.00    1.29000   1.30575    0.103
 6253.00    1.28553   1.30699    0.104
 6254.00    1.27738   1.30592    0.104
 6255.00    1.26694   1.30111    0.104
 6256.00    1.26140   1.29570    0.104
 6257.00    1.25853   1.28872    0.104
 6258.00    1.25327   1.28069    0.106
 6259.00    1.24688   1.27410    0.109
 6260.00    1.25103   1.26962    0.115
 6261.00    1.25949   1.26682    0.122
 6262.00    1.27903   1.26785    0.125
 6263.00    1.30244   1.27360    0.127
 6264.00    1.32498   1.28011    0.125
 6265.00    1.34728   1.28872    0.122
 6266.00    1.35139   1.30022    0.118
 6267.00    1.35109   1.31029    0.114
 6268.00    1.33554   1.31878    0.109
 6269.00    1.31700   1.32699    0.105
 6270.00    1.31170   1.33373    0.104
 6271.00    1.30843   1.33847    0.104
 6272.00    1.31178   1.34216    0.102
 6273.00    1.31588   1.34533    0.100
 6274.00    1.31420   1.34784    0.101
 6275.00    1.31209   1.35044    0.103
 6276.00    1.31093   1.35284    0.103
 6277.00    1.30981   1.35406    0.103
 6278.00    1.30484   1.35554    0.103
 6279.00    1.30000   1.35658    0.103
 6280.00    1.30183   1.35558    0.000
 6281.00    1.30368   1.35497    0.000
 6282.00    1.30607   1.35421    0.000
 6283.00    1.30865   1.35218    0.000
 6284.00    1.31322   1.35205    0.000
 6285.00    1.31812   1.35258    0.000
 6286.00    1.32562   1.35379    0.000
 6287.00    1.33153   1.35777    0.000
 6288.00    1.32845   1.36145    0.000
 6289.00    1.32510   1.36615    0.000
 6290.00    1.32051   1.37162    0.000
 6291.00    1.31637   1.37516    0.000
 6292.00    1.31391   1.37847    0.000
 6293.00    1.31089   1.37952    0.000
 6294.00    1.30614   1.37835    0.000
 6295.00    1.30355   1.37655    0.000
 6296.00    1.30664   1.37175    0.000
 6297.00    1.30632   1.36618    0.000
 6298.00    1.29828   1.36073    0.000
 6299.00    1.29232   1.35362    0.000
 6300.00    1.29046   1.34709    0.000
 6301.00    1.29161   1.34122    0.000
 6302.00    1.29792   1.33601    0.000
 6303.00    1.30065   1.33279    0.000
 6304.00    1.29802   1.33035    0.000
 6305.00    1.29697   1.32941    0.000
 6306.00    1.29798   1.33135    0.000
 6307.00    1.30064   1.33515    0.000
 6308.00    1.30520   1.33953    0.000
 6309.00    1.30691   1.34480    0.000
 6310.00    1.30570   1.35109    0.000
 6311.00    1.30320   1.35629    0.000
 6312.00    1.29954   1.35982    0.000
 6313.00    1.29727   1.36178    0.000
 6314.00    1.29609   1.36098    0.000
 6315.00    1.29273   1.35798    0.000
 6316.00    1.28785   1.35422    0.000
 6317.00    1.29021   1.34828    0.000
 6318.00    1.29701   1.34052    0.000
 6319.00    1.30172   1.33515    0.000
 6320.00    1.30531   1.33061    0.000
 6321.00    1.30686   1.32598    0.104
 6322.00    1.30747   1.32486    0.103
 6323.00    1.30999   1.32611    0.101
 6324.00    1.31327   1.32963    0.100
 6325.00    1.30626   1.33509    0.100
 6326.00    1.29573   1.34132    0.100
 6327.00    1.29436   1.34904    0.100
 6328.00    1.29562   1.35703    0.100
 6329.00    1.29772   1.36438    0.101
 6330.00    1.30002   1.36960    0.102
 6331.00    1.29682   1.37440    0.102
 6332.00    1.29256   1.37863    0.101
 6333.00    1.29542   1.37919    0.102
 6334.00    1.29934   1.37903    0.103
 6335.00    1.30485   1.37730    0.104
 6336.00    1.31054   1.37358    0.105
 6337.00    1.30703   1.37010    0.105
 6338.00    1.30287   1.36443    0.105
 6339.00    1.30167   1.35852    0.104
 6340.00    1.30057   1.35508    0.103
 6341.00    1.30830   1.35185    0.105
 6342.00    1.31590   1.34901    0.106
 6343.00    1.31734   1.34836    0.106
 6344.00    1.31855   1.34835    0.105
 6345.00    1.31600   1.34956    0.104
 6346.00    1.31298   1.35141    0.102
 6347.00    1.30517   1.35206    0.102
 6348.00    1.29894   1.35486    0.101
 6349.00    1.30408   1.35827    0.100
 6350.00    1.31001   1.36047    0.099
 6351.00    1.32038   1.36406    0.101
 6352.00    1.32772   1.36726    0.103
 6353.00    1.32167   1.36971    0.102
 6354.00    1.31466   1.37135    0.102
 6355.00    1.30415   1.37047    0.102
 6356.00    1.29431   1.36837    0.102
 6357.00    1.28653   1.36406    0.103
 6358.00    1.27851   1.35640    0.103
 6359.00    1.26989   1.34818    0.104
 6360.00    1.26480   1.33925    0.104
 6361.00    1.26756   1.32854    0.105
 6362.00    1.27129   1.31836    0.106
 6363.00    1.27689   1.30982    0.107
 6364.00    1.28156   1.30302    0.108
 6365.00    1.28467   1.29874    0.108
 6366.00    1.28518   1.29694    0.107
 6367.00    1.28182   1.29857    0.105
 6368.00    1.28290   1.30423    0.104
 6369.00    1.28974   1.31182    0.104
 6370.00    1.29499   1.32099    0.104
 6371.00    1.29843   1.33249    0.104
 6372.00    1.29665   1.34432    0.103
 6373.00    1.28960   1.35536    0.101
 6374.00    1.28631   1.36550    0.100
 6375.00    1.28635   1.37436    0.100
 6376.00    1.28629   1.38191    0.100
 6377.00    1.28616   1.38727    0.099
 6378.00    1.28533   1.39016    0.099
 6379.00    1.28402   1.39185    0.099
 6380.00    1.29024   1.39248    0.099
 6381.00    1.30101   1.39104    0.099
 6382.00    1.30851   1.38919    0.100
 6383.00    1.31430   1.38721    0.102
 6384.00    1.31246   1.38478    0.103
 6385.00    1.30712   1.38363    0.103
 6386.00    1.30160   1.38276    0.104
 6387.00    1.29602   1.38215    0.105
 6388.00    1.28804   1.38260    0.105
 6389.00    1.27926   1.38309    0.103
 6390.00    1.27080   1.38350    0.103
 6391.00    1.26242   1.38345    0.103
 6392.00    1.26149   1.38200    0.104
 6393.00    1.26228   1.37915    0.106
 6394.00    1.26046   1.37617    0.106
 6395.00    1.25815   1.37257    0.106
 6396.00    1.25673   1.36734    0.105
 6397.00    1.25544   1.36303    0.104
 6398.00    1.26409   1.36009    0.104
 6399.00    1.27376   1.35708    0.105
 6400.00    1.27683   1.35465    0.103
 6401.00    1.27946   1.35388    0.101
 6402.00    1.27821   1.35393    0.102
 6403.00    1.27683   1.35405    0.102
 6404.00    1.27885   1.35633    0.103
 6405.00    1.28085   1.35869    0.104
 6406.00    1.28259   1.36128    0.104
 6407.00    1.28423   1.36463    0.104
 6408.00    1.28455   1.36547    0.103
 6409.00    1.28529   1.36810    0.102
 6410.00    1.29001   1.37031    0.103
 6411.00    1.29483   1.36825    0.104
 6412.00    1.30035   1.36741    0.104
 6413.00    1.30480   1.36637    0.104
 6414.00    1.30356   1.36352    0.104
 6415.00    1.30138   1.36189    0.104
 6416.00    1.29516   1.36053    0.105
 6417.00    1.29030   1.35991    0.106
 6418.00    1.29032   1.36057    0.105
 6419.00    1.28982   1.35986    0.104
 6420.00    1.28778   1.35905    0.103
 6421.00    1.28613   1.35959    0.102
 6422.00    1.28543   1.35933    0.100
 6423.00    1.28769   1.35908    0.099
 6424.00    1.29643   1.35976    0.100
 6425.00    1.30046   1.36116    0.100
 6426.00    1.29557   1.36414    0.101
 6427.00    1.28875   1.36773    0.102
 6428.00    1.27874   1.37132    0.102
 6429.00    1.27303   1.37479    0.103
 6430.00    1.27358   1.37756    0.103
 6431.00    1.27155   1.37948    0.103
 6432.00    1.26620   1.37976    0.103
 6433.00    1.26461   1.37762    0.103
 6434.00    1.26725   1.37506    0.103
 6435.00    1.26568   1.37320    0.104
 6436.00    1.25992   1.37112    0.105
 6437.00    1.25979   1.37013    0.105
 6438.00    1.26460   1.36903    0.105
 6439.00    1.27241   1.36816    0.105
 6440.00    1.28253   1.37033    0.105
 6441.00    1.28672   1.37231    0.105
 6442.00    1.28688   1.37358    0.104
 6443.00    1.28082   1.37676    0.103
 6444.00    1.27106   1.38010    0.102
 6445.00    1.25560   1.38409    0.101
 6446.00    1.23718   1.38788    0.100
 6447.00    1.22864   1.38948    0.101
 6448.00    1.22455   1.39140    0.102
 6449.00    1.22228   1.39100    0.102
 6450.00    1.22072   1.38663    0.102
 6451.00    1.20973   1.38177    0.101
 6452.00    1.19563   1.37422    0.100
 6453.00    1.17399   1.36608    0.100
 6454.00    1.15027   1.36036    0.100
 6455.00    1.11947   1.35513    0.099
 6456.00    1.08706   1.35335    0.098
 6457.00    1.06238   1.35343    0.099
 6458.00    1.03911   1.35439    0.100
 6459.00    1.05187   1.35957    0.100
 6460.00    1.06965   1.36491    0.101
 6461.00    1.10568   1.36920    0.101
 6462.00    1.14353   1.37234    0.101
 6463.00    1.15307   1.37355    0.102
 6464.00    1.16081   1.37445    0.102
 6465.00    1.17557   1.37374    0.101
 6466.00    1.19059   1.37270    0.100
 6467.00    1.22457   1.37206    0.100
 6468.00    1.25773   1.37153    0.100
 6469.00    1.26805   1.37245    0.101
 6470.00    1.27753   1.37295    0.102
 6471.00    1.27518   1.37403    0.101
 6472.00    1.27349   1.37691    0.100
 6473.00    1.27800   1.37947    0.101
 6474.00    1.28201   1.38022    0.102
 6475.00    1.28270   1.38059    0.101
 6476.00    1.28106   1.38132    0.101
 6477.00    1.26717   1.38095    0.100
 6478.00    1.25394   1.38050    0.100
 6479.00    1.24342   1.37959    0.102
 6480.00    1.23387   1.37836    0.103
 6481.00    1.22763   1.37712    0.102
 6482.00    1.22481   1.37481    0.102
 6483.00    1.23201   1.37164    0.102
 6484.00    1.24035   1.36836    0.102
 6485.00    1.25150   1.36532    0.104
 6486.00    1.25768   1.36206    0.106
 6487.00    1.25311   1.35926    0.104
 6488.00    1.24607   1.35761    0.103
 6489.00    1.23437   1.35581    0.102
 6490.00    1.22999   1.35309    0.102
 6491.00    1.23755   1.34998    0.103
 6492.00    1.23971   1.34535    0.103
 6493.00    1.23413   1.33758    0.101
 6494.00    1.22437   1.32599    0.100
 6495.00    1.20936   1.31210    0.099
 6496.00    1.20342   1.29678    0.099
 6497.00    1.20757   1.27988    0.099
 6498.00    1.21861   1.26439    0.099
 6499.00    1.23639   1.25086    0.099
 6500.00    1.25066   1.24225    0.100
 6501.00    1.26190   1.23976    0.101
 6502.00    1.26553   1.24022    0.102
 6503.00    1.26336   1.24724    0.103
 6504.00    1.26825   1.25874    0.103
 6505.00    1.27785   1.27262    0.103
 6506.00    1.27727   1.28894    0.102
 6507.00    1.27073   1.30362    0.103
 6508.00    1.26427   1.31786    0.103
 6509.00    1.25786   1.33091    0.104
 6510.00    1.25899   1.34120    0.103
 6511.00    1.26345   1.34940    0.101
 6512.00    1.26855   1.35500    0.101
 6513.00    1.27388   1.35880    0.101
 6514.00    1.27516   1.36125    0.102
 6515.00    1.27513   1.36199    0.102
 6516.00    1.27622   1.36141    0.102
 6517.00    1.27761   1.35996    0.101
 6518.00    1.27918   1.35779    0.100
 6519.00    1.28079   1.35539    0.100
 6520.00    1.27216   1.35319    0.100
 6521.00    1.26173   1.35095    0.101
 6522.00    1.25712   1.34978    0.101
 6523.00    1.25329   1.34966    0.099
 6524.00    1.24896   1.35029    0.100
 6525.00    1.24459   1.35256    0.102
 6526.00    1.23928   1.35443    0.102
 6527.00    1.23392   1.35611    0.103
 6528.00    1.24206   1.35852    0.000
 6529.00    1.25051   1.35987    0.000
 6530.00    1.25619   1.36040    0.000
 6531.00    1.26148   1.36027    0.000
 6532.00    1.25738   1.35932    0.000
 6533.00    1.25331   1.35903    0.000
 6534.00    1.24960   1.35869    0.000
 6535.00    1.24697   1.35807    0.000
 6536.00    1.25398   1.35836    0.000
 6537.00    1.26113   1.35892    0.000
 6538.00    1.26923   1.36034    0.000
 6539.00    1.27604   1.36243    0.000
 6540.00    1.27628   1.36418    0.000
 6541.00    1.27540   1.36580    0.000
 6542.00    1.26981   1.36694    0.000
 6543.00    1.26489   1.36747    0.000
 6544.00    1.26221   1.36679    0.000
 6545.00    1.25939   1.36429    0.000
 6546.00    1.25612   1.35987    0.000
 6547.00    1.25504   1.35505    0.000
 6548.00    1.25935   1.34982    0.000
 6549.00    1.26424   1.34335    0.000
 6550.00    1.27034   1.33736    0.000
 6551.00    1.27165   1.33121    0.000
 6552.00    1.26414   1.32618    0.000
 6553.00    1.25861   1.32204    0.000
 6554.00    1.25626   1.31656    0.000
 6555.00    1.25065   1.31143    0.000
 6556.00    1.24043   1.30570    0.000
 6557.00    1.22915   1.29867    0.000
 6558.00    1.21653   1.29041    0.000
 6559.00    1.21081   1.27998    0.000
 6560.00    1.21265   1.26794    0.000
 6561.00    1.21322   1.25421    0.000
 6562.00    1.21258   1.23755    0.000
 6563.00    1.21226   1.21971    0.000
 6564.00    1.21222   1.20409    0.000
 6565.00    1.21450   1.18890    0.000
 6566.00    1.21853   1.17633    0.000
 6567.00    1.22030   1.16916    0.000
 6568.00    1.22059   1.16727    0.000
 6569.00    1.22026   1.17399    0.000
 6570.00    1.21957   1.18511    0.000
 6571.00    1.22223   1.19802    0.000
 6572.00    1.22657   1.21457    0.000
 6573.00    1.23044   1.23076    0.000
 6574.00    1.23412   1.24476    0.000
 6575.00    1.24090   1.25659    0.000
 6576.00    1.24884   1.26593    0.000
 6577.00    1.25669   1.27331    0.000
 6578.00    1.26452   1.27934    0.000
 6579.00    1.26897   1.28512    0.000
 6580.00    1.27253   1.29049    0.000
 6581.00    1.27450   1.29609    0.000
 6582.00    1.27612   1.30212    0.000
 6583.00    1.26677   1.30741    0.000
 6584.00    1.25555   1.31237    0.000
 6585.00    1.24556   1.31692    0.000
 6586.00    1.23572   1.32016    0.000
 6587.00    1.23560   1.32335    0.000
 6588.00    1.23637   1.32587    0.000
 6589.00    1.23747   1.32687    0.000
 6590.00    1.23859   1.32766    0.000
 6591.00    1.23432   1.32707    0.000
 6592.00    1.23000   1.32503    0.000
 6593.00    1.23129   1.32197    0.000
 6594.00    1.23262   1.31765    0.000
 6595.00    1.23480   1.31305    0.000
 6596.00    1.23726   1.30781    0.000
 6597.00    1.24332   1.30277    0.000
 6598.00    1.24895   1.29893    0.000
 6599.00    1.25100   1.29739    0.000
 6600.00    1.25219   1.29850    0.000
 6601.00    1.24796   1.30032    0.000
 6602.00    1.24485   1.30346    0.000
 6603.00    1.24728   1.30773    0.000
 6604.00    1.24761   1.31188    0.000
 6605.00    1.23944   1.31594    0.000
 6606.00    1.23235   1.31844    0.000
 6607.00    1.22886   1.31906    0.000
 6608.00    1.22729   1.31851    0.000
 6609.00    1.23112   1.31650    0.101
 6610.00    1.23190   1.31423    0.101
 6611.00    1.22530   1.31221    0.099
 6612.00    1.22052   1.31008    0.098
 6613.00    1.21953   1.30918    0.100
 6614.00    1.21985   1.30951    0.101
 6615.00    1.22256   1.31208    0.102
 6616.00    1.22425   1.31620    0.103
 6617.00    1.22433   1.32009    0.103
 6618.00    1.22199   1.32472    0.104
 6619.00    1.21631   1.32925    0.104
 6620.00    1.21193   1.33377    0.104
 6621.00    1.20917   1.33743    0.104
 6622.00    1.21031   1.33911    0.104
 6623.00    1.21566   1.33989    0.103
 6624.00    1.21766   1.33945    0.103
 6625.00    1.21648   1.33772    0.104
 6626.00    1.21215   1.33539    0.103
 6627.00    1.20519   1.33170    0.102
 6628.00    1.20426   1.32733    0.101
 6629.00    1.20779   1.32301    0.100
 6630.00    1.21048   1.31833    0.100
 6631.00    1.21263   1.31461    0.101
 6632.00    1.21401   1.31062    0.101
 6633.00    1.21495   1.30618    0.102
 6634.00    1.22136   1.30246    0.102
 6635.00    1.23046   1.29907    0.102
 6636.00    1.23449   1.29644    0.102
 6637.00    1.23635   1.29423    0.102
 6638.00    1.22607   1.29247    0.102
 6639.00    1.21134   1.29185    0.102
 6640.00    1.20616   1.29268    0.103
 6641.00    1.20395   1.29452    0.103
 6642.00    1.20335   1.29623    0.103
 6643.00    1.20318   1.29744    0.104
 6644.00    1.20983   1.29882    0.104
 6645.00    1.21793   1.30009    0.105
 6646.00    1.22087   1.30120    0.105
 6647.00    1.22295   1.30164    0.104
 6648.00    1.21758   1.30110    0.104
 6649.00    1.21128   1.30134    0.103
 6650.00    1.20584   1.30241    0.102
 6651.00    1.20047   1.30326    0.101
 6652.00    1.20238   1.30402    0.100
 6653.00    1.20467   1.30482    0.100
 6654.00    1.21573   1.30583    0.100
 6655.00    1.22676   1.30699    0.100
 6656.00    1.22455   1.30734    0.100
 6657.00    1.22174   1.30711    0.100
 6658.00    1.20619   1.30680    0.101
 6659.00    1.19186   1.30584    0.101
 6660.00    1.19214   1.30441    0.102
 6661.00    1.19285   1.30210    0.103
 6662.00    1.19717   1.29901    0.104
 6663.00    1.20037   1.29534    0.104
 6664.00    1.19666   1.29138    0.104
 6665.00    1.19481   1.28731    0.104
 6666.00    1.20203   1.28297    0.105
 6667.00    1.20770   1.27941    0.105
 6668.00    1.20723   1.27633    0.105
 6669.00    1.20599   1.27504    0.105
 6670.00    1.20219   1.27581    0.104
 6671.00    1.19833   1.27709    0.103
 6672.00    1.19425   1.27947    0.103
 6673.00    1.19249   1.28258    0.102
 6674.00    1.19624   1.28607    0.101
 6675.00    1.20227   1.28960    0.101
 6676.00    1.21298   1.29156    0.101
 6677.00    1.21759   1.29175    0.101
 6678.00    1.21128   1.29052    0.101
 6679.00    1.20477   1.28870    0.101
 6680.00    1.19796   1.28624    0.103
 6681.00    1.19776   1.28263    0.104
 6682.00    1.20662   1.27918    0.104
 6683.00    1.21356   1.27611    0.105
 6684.00    1.21819   1.27577    0.107
 6685.00    1.21764   1.27730    0.107
 6686.00    1.21157   1.27868    0.107
 6687.00    1.20674   1.28129    0.106
 6688.00    1.20307   1.28419    0.104
 6689.00    1.20693   1.28791    0.104
 6690.00    1.21701   1.29152    0.105
 6691.00    1.21988   1.29361    0.105
 6692.00    1.21750   1.29518    0.105
 6693.00    1.21053   1.29567    0.104
 6694.00    1.20064   1.29572    0.104
 6695.00    1.19444   1.29483    0.103
 6696.00    1.19032   1.29269    0.000
 6697.00    1.18222   1.29033    0.000
 6698.00    1.17219   1.28753    0.000
 6699.00    1.17339   1.28465    0.000
 6700.00    1.17931   1.28215    0.000
 6701.00    1.19054   1.27922    0.000
 6702.00    1.20368   1.27749    0.000
 6703.00    1.20095   1.27663    0.000
 6704.00    1.19339   1.27589    0.000
 6705.00    1.19403   1.27625    0.000
 6706.00    1.19674   1.27608    0.000
 6707.00    1.19742   1.27609    0.000
 6708.00    1.19768   1.27595    0.000
 6709.00    1.20141   1.27538    0.000
 6710.00    1.20571   1.27486    0.000
 6711.00    1.21438   1.27402    0.000
 6712.00    1.22359   1.27258    0.000
 6713.00    1.21790   1.27000    0.000
 6714.00    1.21097   1.26726    0.000
 6715.00    1.20993   1.26339    0.000
 6716.00    1.20917   1.25920    0.000
 6717.00    1.20050   1.25488    0.000
 6718.00    1.19186   1.24971    0.000
 6719.00    1.19176   1.24590    0.000
 6720.00    1.19137   1.24227    0.000
 6721.00    1.18532   1.23978    0.000
 6722.00    1.17972   1.23889    0.000
 6723.00    1.17938   1.23945    0.000
 6724.00    1.17947   1.24261    0.000
 6725.00    1.18299   1.24593    0.000
 6726.00    1.18667   1.24938    0.000
 6727.00    1.19137   1.25313    0.000
 6728.00    1.19618   1.25730    0.000
 6729.00    1.20157   1.26146    0.000
 6730.00    1.20533   1.26453    0.000
 6731.00    1.20281   1.26649    0.000
 6732.00    1.20043   1.26855    0.000
 6733.00    1.19851   1.27042    0.000
 6734.00    1.19577   1.27175    0.000
 6735.00    1.19082   1.27259    0.000
 6736.00    1.18372   1.27272    0.000
 6737.00    1.17157   1.27241    0.000
 6738.00    1.16588   1.27122    0.000
 6739.00    1.17323   1.26977    0.000
 6740.00    1.18186   1.26794    0.000
 6741.00    1.19274   1.26595    0.000
 6742.00    1.19874   1.26317    0.000
 6743.00    1.19721   1.25988    0.000
 6744.00    1.19710   1.25720    0.000
 6745.00    1.19890   1.25504    0.000
 6746.00    1.19620   1.25329    0.000
 6747.00    1.18814   1.25118    0.000
 6748.00    1.17702   1.24881    0.000
 6749.00    1.16269   1.24742    0.000
 6750.00    1.15504   1.24632    0.000
 6751.00    1.15355   1.24504    0.000
 6752.00    1.15457   1.24411    0.000
 6753.00    1.15764   1.24284    0.112
 6754.00    1.15721   1.24304    0.115
 6755.00    1.15428   1.24333    0.116
 6756.00    1.14720   1.24480    0.117
 6757.00    1.13751   1.24746    0.117
 6758.00    1.13958   1.24979    0.116
 6759.00    1.14813   1.25420    0.116
 6760.00    1.18524   1.25852    0.118
 6761.00    1.23605   1.26302    0.120
 6762.00    1.27335   1.26759    0.122
 6763.00    1.30507   1.27119    0.124
 6764.00    1.31558   1.27419    0.124
 6765.00    1.31859   1.27591    0.124
 6766.00    1.32640   1.27621    0.124
 6767.00    1.33564   1.27512    0.124
 6768.00    1.33716   1.27329    0.123
 6769.00    1.33678   1.27099    0.122
 6770.00    1.31870   1.26794    0.121
 6771.00    1.29707   1.26455    0.118
 6772.00    1.27287   1.26153    0.117
 6773.00    1.24827   1.25970    0.115
 6774.00    1.23299   1.25974    0.114
 6775.00    1.21880   1.26031    0.114
 6776.00    1.20100   1.26159    0.112
 6777.00    1.18293   1.26412    0.110
 6778.00    1.21362   1.26754    0.111
 6779.00    1.24643   1.27154    0.114
 6780.00    1.24521   1.27453    0.112
 6781.00    1.24310   1.27674    0.111
 6782.00    1.21633   1.27749    0.111
 6783.00    1.19122   1.27681    0.111
 6784.00    1.19612   1.27522    0.112
 6785.00    1.20127   1.27197    0.113
 6786.00    1.20915   1.26795    0.114
 6787.00    1.21630   1.26321    0.115
 6788.00    1.21786   1.25862    0.115
 6789.00    1.22076   1.25464    0.116
 6790.00    1.23145   1.25201    0.117
 6791.00    1.23948   1.25054    0.117
 6792.00    1.23516   1.25005    0.118
 6793.00    1.23501   1.25060    0.119
 6794.00    1.25059   1.25108    0.118
 6795.00    1.25986   1.25210    0.117
 6796.00    1.24916   1.25310    0.115
 6797.00    1.24285   1.25416    0.114
 6798.00    1.24827   1.25466    0.113
 6799.00    1.24776   1.25498    0.113
 6800.00    1.23364   1.25586    0.112
 6801.00    1.22136   1.25649    0.112
 6802.00    1.21277   1.25769    0.112
 6803.00    1.20389   1.25875    0.112
 6804.00    1.19452   1.25966    0.112
 6805.00    1.18873   1.26086    0.112
 6806.00    1.18838   1.26174    0.111
 6807.00    1.18372   1.26215    0.111
 6808.00    1.17331   1.26239    0.111
 6809.00    1.16617   1.26188    0.111
 6810.00    1.16288   1.26144    0.112
 6811.00    1.16094   1.26110    0.113
 6812.00    1.16038   1.26003    0.116
 6813.00    1.17471   1.25973    0.117
 6814.00    1.20262   1.25909    0.116
 6815.00    1.21018   1.25823    0.115
 6816.00    1.20136   1.25844    0.114
 6817.00    1.19630   1.25856    0.113
 6818.00    1.19391   1.25891    0.112
 6819.00    1.19913   1.25927    0.110
 6820.00    1.20907   1.25943    0.109
 6821.00    1.22144   1.26077    0.109
 6822.00    1.23513   1.26239    0.110
 6823.00    1.24042   1.26376    0.110
 6824.00    1.24175   1.26514    0.109
 6825.00    1.22818   1.26609    0.109
 6826.00    1.20854   1.26740    0.109
 6827.00    1.19943   1.26864    0.110
 6828.00    1.19397   1.26926    0.111
 6829.00    1.19878   1.26953    0.113
 6830.00    1.20659   1.26940    0.116
 6831.00    1.21478   1.26890    0.116
 6832.00    1.22307   1.26820    0.117
 6833.00    1.22254   1.26697    0.115
 6834.00    1.22028   1.26626    0.114
 6835.00    1.22414   1.26590    0.115
 6836.00    1.22893   1.26525    0.117
 6837.00    1.22626   1.26415    0.117
 6838.00    1.22276   1.26242    0.118
 6839.00    1.20700   1.26011    0.117
 6840.00    1.19033   1.25733    0.117
 6841.00    1.17008   1.25339    0.115
 6842.00    1.14969   1.24895    0.113
 6843.00    1.14121   1.24450    0.110
 6844.00    1.13375   1.23999    0.108
 6845.00    1.16311   1.23669    0.107
 6846.00    1.19117   1.23411    0.107
 6847.00    1.19733   1.23328    0.109
 6848.00    1.20233   1.23413    0.110
 6849.00    1.19511   1.23628    0.110
 6850.00    1.18789   1.23940    0.110
 6851.00    1.18069   1.24253    0.111
 6852.00    1.17544   1.24538    0.111
 6853.00    1.18130   1.24765    0.112
 6854.00    1.18670   1.24869    0.113
 6855.00    1.18997   1.24839    0.114
 6856.00    1.18891   1.24726    0.114
 6857.00    1.17183   1.24513    0.113
 6858.00    1.15739   1.24230    0.112
 6859.00    1.15112   1.23891    0.111
 6860.00    1.14944   1.23508    0.111
 6861.00    1.15982   1.23199    0.111
 6862.00    1.16601   1.22977    0.111
 6863.00    1.16274   1.22832    0.110
 6864.00    1.15599   1.22801    0.109
 6865.00    1.14246   1.22784    0.109
 6866.00    1.13407   1.22783    0.109
 6867.00    1.13447   1.22833    0.111
 6868.00    1.13729   1.22937    0.112
 6869.00    1.14374   1.23068    0.112
 6870.00    1.15257   1.23141    0.113
 6871.00    1.16454   1.23150    0.113
 6872.00    1.17334   1.23089    0.112
 6873.00    1.17847   1.23014    0.112
 6874.00    1.17631   1.22988    0.112
 6875.00    1.16673   1.23018    0.112
 6876.00    1.15520   1.23040    0.112
 6877.00    1.14191   1.23080    0.112
 6878.00    1.14094   1.23168    0.112
 6879.00    1.14975   1.23289    0.112
 6880.00    1.15912   1.23420    0.111
 6881.00    1.16888   1.23547    0.110
 6882.00    1.17545   1.23681    0.110
 6883.00    1.18008   1.23775    0.109
 6884.00    1.17970   1.23846    0.109
 6885.00    1.17666   1.23909    0.109
 6886.00    1.17048   1.23939    0.109
 6887.00    1.16283   1.24004    0.109
 6888.00    1.15325   1.24118    0.109
 6889.00    1.14289   1.24342    0.108
 6890.00    1.14142   1.24621    0.109
 6891.00    1.14299   1.24928    0.111
 6892.00    1.14730   1.25284    0.111
 6893.00    1.15239   1.25628    0.111
 6894.00    1.14345   1.25960    0.112
 6895.00    1.13118   1.26240    0.114
 6896.00    1.14585   1.26471    0.115
 6897.00    1.16565   1.26619    0.115
 6898.00    1.15910   1.26672    0.114
 6899.00    1.14866   1.26707    0.112
 6900.00    1.14126   1.26677    0.113
 6901.00    1.13419   1.26649    0.115
 6902.00    1.11802   1.26645    0.112
 6903.00    1.10120   1.26653    0.108
 6904.00    1.11467   1.26688    0.108
 6905.00    1.12922   1.26719    0.108
 6906.00    1.12967   1.26805    0.109
 6907.00    1.13011   1.26936    0.110
 6908.00    1.13157   1.27032    0.110
 6909.00    1.13262   1.27145    0.110
 6910.00    1.12722   1.27214    0.110
 6911.00    1.12141   1.27238    0.109
 6912.00    1.11163   1.27219    0.110
 6913.00    1.10232   1.27123    0.111
 6914.00    1.09646   1.26980    0.111
 6915.00    1.09285   1.26769    0.110
 6916.00    1.10167   1.26523    0.112
 6917.00    1.10845   1.26231    0.112
 6918.00    1.10623   1.25992    0.111
 6919.00    1.10685   1.25754    0.111
 6920.00    1.11779   1.25615    0.110
 6921.00    1.12862   1.25547    0.110
 6922.00    1.13916   1.25490    0.110
 6923.00    1.14540   1.25538    0.109
 6924.00    1.14053   1.25515    0.108
 6925.00    1.13462   1.25538    0.108
 6926.00    1.12640   1.25515    0.107
 6927.00    1.11895   1.25471    0.108
 6928.00    1.11298   1.25407    0.108
 6929.00    1.10960   1.25259    0.109
 6930.00    1.11060   1.25152    0.110
 6931.00    1.11274   1.25051    0.111
 6932.00    1.11658   1.25029    0.113
 6933.00    1.11693   1.25038    0.114
 6934.00    1.11278   1.25097    0.115
 6935.00    1.11509   1.25195    0.115
 6936.00    1.12475   1.25271    0.116
 6937.00    1.12782   1.25375    0.116
 6938.00    1.12424   1.25466    0.115
 6939.00    1.12120   1.25600    0.113
 6940.00    1.11862   1.25740    0.112
 6941.00    1.11965   1.25844    0.112
 6942.00    1.12349   1.25942    0.113
 6943.00    1.12913   1.25956    0.113
 6944.00    1.13600   1.25935    0.112
 6945.00    1.13135   1.25844    0.112
 6946.00    1.11975   1.25734    0.111
 6947.00    1.11999   1.25598    0.112
 6948.00    1.12647   1.25403    0.113
 6949.00    1.17184   1.25209    0.122
 6950.00    1.23495   1.25013    0.136
 6951.00    1.26354   1.24870    0.141
 6952.00    1.27856   1.24788    0.142
 6953.00    1.25986   1.24742    0.145
 6954.00    1.22988   1.24746    0.149
 6955.00    1.18491   1.24751    0.134
 6956.00    1.13572   1.24759    0.119
 6957.00    1.12204   1.24818    0.116
 6958.00    1.11657   1.24891    0.116
 6959.00    1.12261   1.25025    0.115
 6960.00    1.13079   1.25215    0.115
 6961.00    1.12259   1.25439    0.113
 6962.00    1.11204   1.25708    0.112
 6963.00    1.12072   1.25963    0.111
 6964.00    1.13138   1.26249    0.110
 6965.00    1.13442   1.26477    0.112
 6966.00    1.13695   1.26710    0.114
 6967.00    1.13659   1.26908    0.115
 6968.00    1.13612   1.27090    0.115
 6969.00    1.12353   1.27224    0.115
 6970.00    1.11118   1.27295    0.114
 6971.00    1.10629   1.27320    0.114
 6972.00    1.10235   1.27299    0.114
 6973.00    1.11255   1.27243    0.116
 6974.00    1.12009   1.27085    0.117
 6975.00    1.10204   1.26853    0.117
 6976.00    1.08762   1.26468    0.117
 6977.00    1.09842   1.26001    0.118
 6978.00    1.10548   1.25444    0.118
 6979.00    1.09243   1.24839    0.117
 6980.00    1.08572   1.24311    0.116
 6981.00    1.10636   1.23790    0.115
 6982.00    1.12316   1.23382    0.114
 6983.00    1.12638   1.23125    0.113
 6984.00    1.12997   1.23080    0.112
 6985.00    1.13466   1.23268    0.112
 6986.00    1.13591   1.23628    0.112
 6987.00    1.12840   1.24171    0.112
 6988.00    1.12094   1.24770    0.112
 6989.00    1.11358   1.25309    0.113
 6990.00    1.10951   1.25808    0.114
 6991.00    1.11168   1.26217    0.115
 6992.00    1.11014   1.26527    0.116
 6993.00    1.10248   1.26744    0.116
 6994.00    1.09913   1.26856    0.116
 6995.00    1.10205   1.26915    0.116
 6996.00    1.10609   1.26926    0.115
 6997.00    1.11156   1.26898    0.116
 6998.00    1.11297   1.26857    0.117
 6999.00    1.10980   1.26738    0.119
 7000.00    1.10917   1.26571    0.120
 7001.00    1.11105   1.26372    0.119
 7002.00    1.10743   1.26137    0.117
 7003.00    1.09900   1.25896    0.115
 7004.00    1.09468   1.25611    0.114
 7005.00    1.09352   1.25332    0.114
 7006.00    1.09046   1.25084    0.114
 7007.00    1.08611   1.24874    0.114
 7008.00    1.08880   1.24759    0.114
 7009.00    1.09569   1.24682    0.114
 7010.00    1.08428   1.24640    0.115
 7011.00    1.06339   1.24577    0.116
 7012.00    1.06641   1.24571    0.117
 7013.00    1.08017   1.24561    0.118
 7014.00    1.08242   1.24546    0.118
 7015.00    1.08023   1.24464    0.119
 7016.00    1.07105   1.24320    0.120
 7017.00    1.05957   1.24159    0.120
 7018.00    1.06135   1.23981    0.120
 7019.00    1.06678   1.23828    0.120
 7020.00    1.06825   1.23701    0.120
 7021.00    1.06881   1.23601    0.119
 7022.00    1.08619   1.23546    0.117
 7023.00    1.10660   1.23529    0.116
 7024.00    1.09893   1.23614    0.116
 7025.00    1.08737   1.23808    0.116
 7026.00    1.09876   1.23985    0.117
 7027.00    1.11243   1.24103    0.118
 7028.00    1.10636   1.24198    0.117
 7029.00    1.09905   1.24286    0.117
 7030.00    1.08478   1.24360    0.118
 7031.00    1.07037   1.24497    0.119
 7032.00    1.06837   1.24667    0.121
 7033.00    1.06630   1.24899    0.122
 7034.00    1.06238   1.25089    0.121
 7035.00    1.05911   1.25267    0.120
 7036.00    1.06492   1.25439    0.120
 7037.00    1.07117   1.25578    0.120
 7038.00    1.08152   1.25685    0.121
 7039.00    1.09113   1.25796    0.121
 7040.00    1.09576   1.25953    0.121
 7041.00    1.10032   1.26160    0.121
 7042.00    1.10449   1.26394    0.120
 7043.00    1.10659   1.26712    0.120
 7044.00    1.09992   1.27075    0.120
 7045.00    1.09827   1.27443    0.120
 7046.00    1.11404   1.27895    0.120
 7047.00    1.12346   1.28440    0.120
 7048.00    1.11429   1.28895    0.122
 7049.00    1.10751   1.29237    0.123
 7050.00    1.10672   1.29420   -2.000
 7051.00    1.10965   1.29448   -2.000
 7052.00    1.12058   1.29267   -2.000
 7053.00    1.12645   1.28945   -2.000
 7054.00    1.12288   1.28503   -2.000
 7055.00    1.12452   1.27857   -2.000
 7056.00    1.13467   1.27102   -2.000
 7057.00    1.14553   1.26203   -2.000
 7058.00    1.15739   1.25279   -2.000
 7059.00    1.17902   1.24324   -2.000
 7060.00    1.21295   1.23402   -2.000
 7061.00    1.23241   1.22638   -2.000
 7062.00    1.23582   1.21983   -2.000
 7063.00    1.23997   1.21447   -2.000
 7064.00    1.24484   1.20998   -2.000
 7065.00    1.23111   1.20612   -2.000
 7066.00    1.20134   1.20239   -2.000
 7067.00    1.18086   1.19920   -2.000
 7068.00    1.16744   1.19686   -2.000
 7069.00    1.16549   1.19550   -2.000
 7070.00    1.17120   1.19447   -2.000
 7071.00    1.20974   1.19420   -2.000
 7072.00    1.26748   1.19467   -2.000
 7073.00    1.26883   1.19535   -2.000
 7074.00    1.24144   1.19718   -2.000
 7075.00    1.22049   1.19966   -2.000
 7076.00    1.20237   1.20327   -2.000
 7077.00    1.20631   1.20756   -2.000
 7078.00    1.21860   1.21193   -2.000
 7079.00    1.21833   1.21529   -2.000
 7080.00    1.21402   1.21792   -2.000
 7081.00    1.21828   1.21969   -2.000
 7082.00    1.22486   1.21977   -2.000
 7083.00    1.20774   1.21844   -2.000
 7084.00    1.18540   1.21539   -2.000
 7085.00    1.16881   1.21088   -2.000
 7086.00    1.15325   1.20502   -2.000
 7087.00    1.14889   1.19770   -2.000
 7088.00    1.14603   1.18972   -2.000
 7089.00    1.17549   1.18100   -2.000
 7090.00    1.20802   1.17208   -2.000
 7091.00    1.16849   1.16364   -2.000
 7092.00    1.12473   1.15626   -2.000
 7093.00    1.14195   1.15061   -2.000
 7094.00    1.16024   1.14595   -2.000
 7095.00    1.11866   1.14227   -2.000
 7096.00    1.07946   1.13990   -2.000
 7097.00    1.09933   1.13892   -2.000
 7098.00    1.11698   1.13852   -2.000
 7099.00    1.10513   1.14019   -2.000
 7100.00    1.09297   1.14149   -2.000
 7101.00    1.07809   1.14411   -2.000
 7102.00    1.06585   1.14678   -2.000
 7103.00    1.07089   1.14944   -2.000
 7104.00    1.07454   1.15283   -2.000
 7105.00    1.07105   1.15508   -2.000
 7106.00    1.06505   1.15818   -2.000
 7107.00    1.04871   1.15955   -2.000
 7108.00    1.03994   1.16102   -2.000
 7109.00    1.05699   1.16139   -2.000
 7110.00    1.06774   1.16147   -2.000
 7111.00    1.06038   1.16113   -2.000
 7112.00    1.06079   1.16073   -2.000
 7113.00    1.08027   1.15991   -2.000
 7114.00    1.08835   1.15908   -2.000
 7115.00    1.07234   1.15839   -2.000
 7116.00    1.07013   1.15836   -2.000
 7117.00    1.09329   1.15841   -2.000
 7118.00    1.11154   1.15863   -2.000
 7119.00    1.12192   1.15952   -2.000
 7120.00    1.14186   1.16033   -2.000
 7121.00    1.17530   1.16142   -2.000
 7122.00    1.18648   1.16160   -2.000
 7123.00    1.17006   1.16170   -2.000
 7124.00    1.15388   1.16106   -2.000
 7125.00    1.13796   1.15941   -2.000
 7126.00    1.13143   1.15754   -2.000
 7127.00    1.13396   1.15448   -2.000
 7128.00    1.13802   1.15161   -2.000
 7129.00    1.14338   1.14768   -2.000
 7130.00    1.14134   1.14392   -2.000
 7131.00    1.13375   1.14027   -2.000
 7132.00    1.13868   1.13664   -2.000
 7133.00    1.15184   1.13368   -2.000
 7134.00    1.12534   1.13139   -2.000
 7135.00    1.07598   1.13044   -2.000
 7136.00    1.09554   1.13023   -2.000
 7137.00    1.14968   1.13118   -2.000
 7138.00    1.16612   1.13278   -2.000
 7139.00    1.16619   1.13559   -2.000
 7140.00    1.16537   1.13865   -2.000
 7141.00    1.16423   1.14207   -2.000
 7142.00    1.13717   1.14507   -2.000
 7143.00    1.10192   1.14732   -2.000
 7144.00    1.09009   1.14928   -2.000
 7145.00    1.08444   1.15023   -2.000
 7146.00    1.09469   1.15035   -2.000
 7147.00    1.10836   1.14997   -2.000
 7148.00    1.10659   1.14905   -2.000
 7149.00    1.10217   1.14790   -2.000
 7150.00    1.10091   1.14661   -2.000
 7151.00    1.10006   1.14545   -2.000
 7152.00    1.08988   1.14474   -2.000
 7153.00    1.07886   1.14456   -2.000
 7154.00    1.08949   1.14537   -2.000
 7155.00    1.10130   1.14639   -2.000
 7156.00    1.11194   1.14877   -2.000
 7157.00    1.12207   1.15190   -2.000
 7158.00    1.08757   1.15494   -2.000
 7159.00    1.05718   1.15816   -2.000
 7160.00    1.12020   1.16073   -2.000
 7161.00    1.17964   1.16250   -2.000
 7162.00    1.19392   1.16337   -2.000
 7163.00    1.20565   1.16300   -2.000
 7164.00    1.19561   1.16220   -2.000
 7165.00    1.18114   1.16023   -2.000
 7166.00    1.13864   1.15842   -2.000
 7167.00    1.10623   1.15629   -2.000
 7168.00    1.12390   1.15463   -2.000
 7169.00    1.14058   1.15374   -2.000
 7170.00    1.15319   1.15357   -2.000
 7171.00    1.15131   1.15443   -2.000
 7172.00    1.10099   1.15610   -2.000
 7173.00    1.06661   1.15897   -2.000
 7174.00    1.07721   1.16212   -2.000
 7175.00    1.09558   1.16555   -2.000
 7176.00    1.13270   1.16838   -2.000
 7177.00    1.15035   1.17047   -2.000
 7178.00    1.12745   1.17173   -2.000
 7179.00    1.11503   1.17182   -2.000
 7180.00    1.12160   1.17097   -2.000
 7181.00    1.10940   1.16916   -2.000
 7182.00    1.06749   1.16693   -2.000
 7183.00    1.04014   1.16421   -2.000
 7184.00    1.03303   1.16145   -2.000
 7185.00    1.02414   1.15870   -2.000
 7186.00    1.01306   1.15593   -2.000
 7187.00    1.02200   1.15319   -2.000
 7188.00    1.05251   1.15047   -2.000
 7189.00    1.06455   1.14811   -2.000
 7190.00    1.05903   1.14597   -2.000
 7191.00    1.05979   1.14423   -2.000
 7192.00    1.06582   1.14239   -2.000
 7193.00    1.05405   1.14095   -2.000
 7194.00    1.02914   1.13954   -2.000
 7195.00    1.02623   1.13897   -2.000
 7196.00    1.03758   1.13917   -2.000
 7197.00    1.02971   1.13981   -2.000
 7198.00    1.01094   1.14167   -2.000
 7199.00    1.02403   1.14351   -2.000
 7200.00    1.05287   1.14574   -2.000
 7201.00    1.08358   1.14781   -2.000
 7202.00    1.11510   1.14978   -2.000
 7203.00    1.09702   1.15169   -2.000
 7204.00    1.06079   1.15315   -2.000
 7205.00    1.02383   1.15412   -2.000
 7206.00    0.98665   1.15440   -2.000
 7207.00    0.97546   1.15399   -2.000
 7208.00    0.97098   1.15341   -2.000
 7209.00    0.97862   1.15234   -2.000
 7210.00    0.98880   1.15112   -2.000
 7211.00    0.99323   1.15019   -2.000
 7212.00    0.99669   1.14927   -2.000
 7213.00    1.03411   1.14915   -2.000
 7214.00    1.07576   1.14910   -2.000
 7215.00    1.05906   1.15013   -2.000
 7216.00    1.03730   1.15172   -2.000
 7217.00    1.01485   1.15409   -2.000
 7218.00    0.99237   1.15731   -2.000
